time,wind_speed,wind_angle,battery_voltage,battery_current,position_x,position_y,position_z,orientation_x,orientation_y,orientation_z,orientation_w,velocity_x,velocity_y,velocity_z,angular_x,angular_y,angular_z,linear_acceleration_x,linear_acceleration_y,linear_acceleration_z
0.0,0.5,358.0,24.17209053039551,0.0,-79.78280157095223,40.45897053187281,268.94389230585097,0.0016675078077241778,0.012313165701925756,-0.7762658596038818,0.6302832365036011,0.001293466581806711,-0.0023828041238434764,0.014191383907738834,0.00786921288818121,0.0023242144379764795,0.00302140973508358,-0.17111512983217836,-0.19043975729495288,-9.803578003048898
0.1,0.5,359.0,24.17960357666016,0.0,-79.78280157369919,40.45897053122707,268.94531967318056,0.001671788515523076,0.012318555265665054,-0.7762689590454102,0.6302793025970459,-0.0001531529064051209,-0.0026890744204249714,0.014302367410070885,-0.004146132618188858,0.0012777302181348205,0.0038064012769609685,-0.1714629295282066,-0.1930427184328437,-9.804484906196596
0.3,0.5,1.0,24.177099227905273,-0.007951773703098297,-79.78280162187181,40.45897048187389,268.94812568104265,0.0016946112737059589,0.012324567884206772,-0.7762697339057922,0.6302782893180847,0.003844209040383095,-0.005742314689989597,0.012661565236224493,-0.0030078929848968983,-0.0037096228916198015,-0.005171522963792086,-0.17450006470084192,-0.18005548601970078,-9.800794728398325
0.4,0.5,1.0,24.1683349609375,-0.015903547406196594,-79.78280167569801,40.45897041661732,268.9500970599651,0.001698963576927781,0.012336689047515392,-0.7762669920921326,0.6302813887596129,0.010824310217052529,-0.0066586090301903895,0.007283134489161932,-0.005896383430808783,-0.0013716310495510695,0.0019304131856188176,-0.17167638944461944,-0.19242817606776955,-9.803755173683166
0.6,0.5,3.0,24.177099227905273,0.0,-79.78280169692206,40.458970401055325,268.95152867412565,0.0016926872776821256,0.012309879995882513,-0.7762618064880371,0.6302881836891174,0.009549036289581096,-0.007856268562388306,0.007169930023141386,0.005129822529852389,0.003777965670451522,0.004501752555370332,-0.1744556441344321,-0.1799020696990192,-9.801659531593325
0.7,0.5,4.0,24.170839309692386,-0.007951773703098297,-79.78280171841735,40.45897037849494,268.9541720358133,0.0016927908873185515,0.012305171228945257,-0.7762528061866759,0.6302993893623352,0.005264043268320946,-0.006159787506946825,0.008285683688069041,-0.003890237538143992,0.0012737206416204572,0.004373508505523205,-0.17173339979723096,-0.1921767457947135,-9.803427144885065
0.9,0.5,6.0,24.1683349609375,-0.039758868515491486,-79.78280172694754,40.4589703748009,268.9549985436201,0.0017055135685950518,0.012319310568273071,-0.7762526869773865,0.6302992701530457,0.004360999124568621,-0.00667712960686087,0.008286743065693606,-0.003077399451285601,-0.00012256635818630457,-0.0035379331093281507,-0.17397626381367445,-0.1798375127837062,-9.801584687232973
1.01,0.5,6.0,24.173343658447266,-0.02385532110929489,-79.78280173805216,40.45897033826199,268.9580594358444,0.0016983908135443926,0.012340721674263477,-0.7762544751167297,0.6302967071533203,0.003592929377785572,-0.0018499631368716094,0.009044934095382198,-0.004345693159848453,0.0012130365939810872,-0.0008019894594326615,-0.17268839629366994,-0.19051831098273397,-9.802733080387117
1.2,0.5,7.0,24.169586181640625,-0.039758868515491486,-79.78280174110286,40.45897033525823,268.9589540866613,0.0016863408964127302,0.012342999689280987,-0.7762548327445984,0.6302962303161621,0.0028361386441708627,-0.0024448541886895572,0.008964664952623415,-0.0020527574233710766,-0.00160438462626189,-0.00569780869409442,-0.1743868114426732,-0.1811398887075484,-9.801853074431419
1.31,0.5,7.0,24.1683349609375,-0.02385532110929489,-79.78280179874892,40.45897030006902,268.9589161185026,0.0016881367191672325,0.012344066053628922,-0.7762356400489807,0.6303198337554932,0.004835085765600471,-0.006053106446268095,0.005263065476464198,-0.006794401910156012,0.0012245160760357974,-0.002802213653922081,-0.17386794414371254,-0.1877556660398841,-9.80288276910782
1.5,0.5,8.0,24.1783504486084,-0.015903547406196594,-79.7828018491815,40.45897032515678,268.9587077257633,0.0016890345141291616,0.012318946421146393,-0.7762324810028076,0.6303242444992065,-0.004531251929351165,-0.010454546733862948,0.003054602469927122,0.0025214902125298977,0.002420459175482393,0.007042477838695048,-0.1739390060864389,-0.1821738774329424,-9.802866981625558
1.6,0.5,6.0,24.17209053039551,-0.02385532110929489,-79.7828018599771,40.45897033147777,268.9590430316925,0.0016919852932915092,0.012324079871177672,-0.7762365341186523,0.6303190588951111,-0.0062582553973031104,-0.010609405137454193,0.0031229158510672765,-0.00846768356859684,-0.001381911220960319,-0.002354892203584313,-0.17287759026512506,-0.18617552910000087,-9.801303436160088
1.8,0.5,7.0,24.16207504272461,-0.05566241592168808,-79.78280187823688,40.45897031574616,268.95631722187994,0.0016947510885074735,0.012333361431956293,-0.7762358784675598,0.6303196549415588,-0.0023300686369952025,-0.007833053804342936,-0.0008166970950018074,0.00205081794410944,0.0011358706979081035,-0.002874996513128281,-0.17276601808145642,-0.184167193248868,-9.801442015171052
1.9,0.5,7.0,24.1683349609375,-0.05566241592168808,-79.78280191989471,40.45897030635861,268.9565265980959,0.0017047850415110588,0.012344049289822578,-0.7762399911880493,0.6303143501281738,0.0015620320608737955,-0.008574314988923764,0.003920282792815301,-0.008745437487959862,0.0022628481965512037,-0.0036095003597438335,-0.1726904062740505,-0.18507564956322314,-9.803390307426453
2.1,0.4000000059604645,7.0,24.177099227905273,-0.015903547406196594,-79.78280194146642,40.45897030725018,268.9573187289238,0.0017085931031033395,0.012348558753728868,-0.7762441635131836,0.6303091049194336,0.0004697247179161754,-0.009657898213986436,0.003833566157928668,0.003958456218242645,0.001392100122757256,0.0040658623911440355,-0.1720788606069982,-0.1848291711509228,-9.803155834078787
2.21,0.4000000059604645,9.0,24.169586181640625,-0.02385532110929489,-79.78280195012906,40.45897031774025,268.9545869437456,0.0017039062222465873,0.01235234271734953,-0.7762441635131836,0.6303091049194336,-0.0017902114006647558,-0.006307588769756989,0.0022150052144848348,-0.004031526390463114,-0.0012882222654297948,-0.0015794036444276571,-0.17315385293215513,-0.18449759747833014,-9.801868277192117
2.4,0.4000000059604645,10.0,24.1783504486084,-0.015903547406196594,-79.78280195731074,40.458970320274865,268.95481335198883,0.0017063238192349672,0.01235700026154518,-0.7762496471405029,0.6303023099899292,-0.0020562663192827176,-0.00700567692603438,0.002034994619705053,0.002694619353860617,0.001722482033073902,0.003465127432718873,-0.1725292423926294,-0.18569538133218885,-9.802774010896684
2.5,0.4000000059604645,10.0,24.170839309692386,-0.015903547406196594,-79.78280200404542,40.45897033757009,268.95395464277266,0.001710139331407845,0.0123558659106493,-0.7762497663497925,0.6303021311759949,-0.0030350241585903586,-0.009185096982818348,0.0052379249622299074,-0.007552631199359894,-0.0018034204840660093,-0.005259399302303791,-0.1737647225148976,-0.1823670730926097,-9.80247054040432
2.7,0.4000000059604645,10.0,24.1683349609375,-0.02385532110929489,-79.78280201414938,40.45897034175474,268.95449464595316,0.001711106626316905,0.012359360232949257,-0.7762536406517029,0.6302972435951233,-0.003259811370787681,-0.009887575597507909,0.005085009014448201,0.002409737324342132,0.0033755782060325146,-0.0026605811435729265,-0.1717122219130397,-0.1876919131167233,-9.803506667017935
2.8,0.4000000059604645,9.0,24.17459487915039,-0.02385532110929489,-79.78280201753985,40.45897035521849,268.9528504220247,0.0017125013982877135,0.012373238801956177,-0.7762585282325745,0.6302909255027771,-0.003249800061890274,-0.005399211318680579,0.0064772095958421936,-0.006896894425153732,-0.001611509476788342,-0.0038781533949077134,-0.17319377845153214,-0.1808797607012093,-9.802719631791117
3.0,0.4000000059604645,10.0,24.169586181640625,-0.007951773703098297,-79.78280203228371,40.4589703632856,268.9510201421976,0.0017151940846815705,0.012380042113363745,-0.7762584686279297,0.6302908658981323,-0.0008980961625010358,-0.0040781463306652985,0.007223742814070651,-0.006092891562730074,0.0001096119376597926,0.0028803914319723845,-0.17126624381169678,-0.1901235873810947,-9.80399724841118
3.11,0.4000000059604645,10.0,24.17960357666016,0.0,-79.78280203676495,40.45897036475365,268.9517444578409,0.0017162663862109186,0.012383907102048395,-0.7762623429298401,0.6302859783172607,-0.001937449820592061,-0.004520114934063058,0.007165912750478271,-0.002713927067816257,-0.00017972549539990726,-0.0049837036058306685,-0.17487483467906714,-0.180267593767494,-9.800710528492928
3.31,0.4000000059604645,11.0,24.15957069396973,-0.10337305814027786,-79.7828020680485,40.45897036994422,268.94990861988066,0.001726604299619794,0.012390595860779284,-0.7762659788131714,0.6302814483642578,0.0016869183457459392,-0.007058152568349844,0.007917053768779533,-0.004244295880198479,-0.001787666231393814,0.003126938594505191,-0.16968705704435708,-0.1916023299470544,-9.804381410479547
3.41,0.4000000059604645,11.0,24.15831756591797,-0.09542128443717957,-79.78280208540191,40.458970401374174,268.94719888842104,0.0017269763629883528,0.01238749548792839,-0.7762659192085266,0.6302815675735474,0.0005522369220270282,-0.008937516001030266,0.008284997843642995,-0.0009811025811359286,-0.001436279504559934,-0.005080824717879295,-0.1750931916385889,-0.18036452963948246,-9.80101516842842
3.6,0.4000000059604645,10.0,24.157066345214844,-0.07951773703098297,-79.78280209585495,40.458970402667774,268.9480450359584,0.0017269763629883528,0.01238749548792839,-0.7762659192085266,0.6302815675735474,0.00026227079814076707,-0.009433973787949487,0.008256138482101086,0.004849445540457964,-2.503244286344853e-05,0.006905905902385712,-0.1685113098844886,-0.1927707132697105,-9.805122252702713
3.71,0.4000000059604645,9.0,24.16082191467285,-0.10337305814027786,-79.78280211368974,40.45897044995119,268.94618768072127,0.0017264799680560827,0.012386820279061794,-0.7762699127197266,0.630276620388031,-0.004612227298990821,-0.011169940474265548,0.008383884424767942,0.003717638552188873,-7.805685891071334e-05,-0.00286720204167068,-0.1738583510555327,-0.1836073588952422,-9.801239116787912
3.9,0.4000000059604645,8.0,24.17209053039551,-0.015903547406196594,-79.78280209856042,40.458970490204,268.9442238417864,0.0017194312531501055,0.012399395927786829,-0.7762753367424011,0.6302698850631714,-0.006212309605778765,-0.005108728808789811,0.008741329672366228,-0.00863511860370636,-0.0006654575117863715,-0.003555329516530037,-0.16930717075243593,-0.19631440004333853,-9.804739844799043
4.0,0.4000000059604645,7.0,24.17584800720215,0.0,-79.78280210318313,40.45897049656578,268.94510764455794,0.0017194312531501055,0.012399395927786829,-0.7762753367424011,0.6302698850631714,-0.006461966836597176,-0.005720223238028803,0.00854188211187037,0.003994382917881012,0.002905510365962982,0.00030599080491811037,-0.1717948503792286,-0.18697957606986165,-9.804038178920749
4.2,0.4000000059604645,6.0,24.17209053039551,-0.007951773703098297,-79.78280210799115,40.458970503346784,268.9459962902069,0.0017094890354201198,0.012397635728120804,-0.7762801647186279,0.6302639245986938,-0.007472946773629922,-0.005968114139550168,0.008653652897630816,0.0001122838439187035,-0.0036375108174979687,0.004688621032983065,-0.1697500607930124,-0.19551831990480426,-9.804850357174876
4.3,0.4000000059604645,7.0,24.177099227905273,-0.02385532110929489,-79.78280212442613,40.45897054425552,268.9442313519716,0.0017143160803243518,0.012379981577396393,-0.7762958407402039,0.6302449703216553,-0.005442343193109165,-0.008909696383996092,0.008872939311566963,0.007051220629364251,0.0011019903467968106,0.005372426006942987,-0.1695185841433704,-0.1901228016614914,-9.804679033756257
4.5,0.4000000059604645,8.0,24.1783504486084,0.0,-79.78280210099098,40.45897059182932,268.9415068683624,0.0016980181680992244,0.012381954118609428,-0.7763003706932068,0.6302393674850464,-0.0055854964551945935,-0.005836546060195392,0.009100721398291168,-0.0028971072752028704,-0.0022912495769560337,0.0016095662722364068,-0.1727761958912015,-0.1925224076025188,-9.80409431219101
4.6,0.4000000059604645,8.0,24.16708374023437,0.0,-79.78280211212687,40.458970604848105,268.94334041154383,0.0017130918568000195,0.012373769655823708,-0.7763126492500305,0.630224347114563,-0.006896775022003086,-0.0068492802032930926,0.008838560551523473,0.0032045855186879635,0.00128723937086761,0.0034868321381509304,-0.1684723162651062,-0.1945264494046569,-9.80466032266617
4.8,0.4000000059604645,10.0,24.17459487915039,-0.015903547406196594,-79.78280207860305,40.45897064939668,268.9420757946968,0.0016713539371266961,0.012381288222968578,-0.7763208150863647,0.6302142143249512,-0.006238093189703111,-0.002862151012610434,0.00899068158782604,0.0021046397741884,-0.0033767151180654764,-0.0003290886525064707,-0.1731924262829125,-0.1880070049501956,-9.803077481389048
4.91,0.4000000059604645,11.0,24.177099227905273,-0.02385532110929489,-79.78280206911417,40.45897070005529,268.93994989073275,0.0016611589817330241,0.012382940389215944,-0.7763192057609558,0.630216121673584,-0.004155172899699397,-0.006142060639584006,0.008957045045512785,0.004081457387655973,0.0010570843005552886,0.003569235559552908,-0.1685759764350951,-0.195410913862288,-9.804975487589836
5.1,0.4000000059604645,13.0,24.170839309692386,-0.007951773703098297,-79.78280207493555,40.458970705482024,268.9408668336868,0.0016381001332774758,0.012390165589749813,-0.7763193845748901,0.6302159428596497,-0.0059577258921943285,-0.0062374995876443426,0.009008550017705336,-0.009509624913334843,-0.003109174082055688,-0.0027336974162608385,-0.17346976703032851,-0.18393103882670409,-9.80152972340584
5.2,0.4000000059604645,15.0,24.17584800720215,-0.007951773703098297,-79.78280202510273,40.458970748944175,268.9397321847677,0.0016226042062044144,0.01238201092928648,-0.7763267755508423,0.6302069425582886,-0.003481184202586987,-0.0005314824793880813,0.009129446858402859,0.0021497411653399467,9.428834164282308e-05,0.004188298713415861,-0.17001921543851495,-0.19488590698689226,-9.804538115859033
5.4,0.4000000059604645,16.0,24.177099227905273,0.0,-79.78280201078314,40.458970811185175,268.9391599652767,0.0016216271324083213,0.012390868738293648,-0.7763464450836182,0.6301826238632202,-0.0032036993607037893,-0.005353678046407321,0.009004937729799756,0.005152399651706219,0.0026454348117113113,0.003872813889756799,-0.17314051397144795,-0.17972860839217902,-9.800908164381982
5.5,0.4000000059604645,16.0,24.177099227905273,0.015903547406196594,-79.78280201585629,40.45897081563015,268.94008543169497,0.0016148125287145374,0.01238245703279972,-0.7763505578041077,0.6301777362823486,-0.0047472093789645365,-0.0055288369147060545,0.009126247751184159,-0.003922242671251297,5.978536864859051e-05,0.004377610981464386,-0.17144674004986882,-0.19260086992755526,-9.804260957837103
5.7,0.4000000059604645,15.0,24.173343658447266,-0.015903547406196594,-79.78280202101621,40.458970820843255,268.9410122988224,0.001612843363545835,0.01238064467906952,-0.7763518691062927,0.6301762461662292,-0.005953235816234161,-0.005875284524048784,0.009111019049269021,-0.0037598004564642906,0.000388493062928319,-0.0047352248802781105,-0.17451323920860887,-0.17960702285170554,-9.802051879763603
5.81,0.4000000059604645,15.0,24.17209053039551,-0.015903547406196594,-79.78280200764618,40.45897088600589,268.94085296070574,0.0016083614900708199,0.012390716932713984,-0.7763594985008241,0.6301664710044861,-0.006593537334163655,-0.007540436782581866,0.009208064638614271,-0.0060460460372269145,-0.0010419657919555902,-0.0015289071016013622,-0.17272600119933487,-0.18659996386617425,-9.80230798780918
6.0,0.4000000059604645,14.0,24.170839309692386,0.0,-79.7828019907028,40.45897093536445,268.94308543777464,0.0015900173457339404,0.012405453249812126,-0.7763609290122986,0.6301645040512085,-0.0016439248267548238,-0.00826656111739588,0.013374658162704715,0.002025964204221964,-0.0016475212760269642,0.007294838782399894,-0.17279446844011545,-0.1838707576878369,-9.802519072294237
6.11,0.4000000059604645,13.0,24.16207504272461,0.039758868515491486,-79.7828019994995,40.45897093840738,268.9444410113096,0.0015968703664839268,0.012415073812007904,-0.7763642668724059,0.6301602721214294,-0.003338884562358287,-0.008338970284240587,0.013448071537001841,-0.004093221854418514,-0.0019076474709436297,-0.005215556360781193,-0.17412907714024187,-0.1819421266950667,-9.801963002085687
6.3,0.4000000059604645,9.0,24.169586181640625,0.039758868515491486,-79.7828019526587,40.458971009280155,268.9472388682365,0.0015781543916091325,0.012423766776919365,-0.7763717174530029,0.6301509737968445,-0.0051215608141446075,-0.005465261170163721,0.015870546690237786,-0.0011888856533914804,-0.0016067794058471918,0.001083186361938715,-0.171417394336313,-0.1897187407873571,-9.804489583969117
6.41,0.4000000059604645,8.0,24.16708374023437,0.02385532110929489,-79.78280190531248,40.45897108261188,268.94669873094557,0.001583089586347341,0.012428064830601215,-0.77637779712677,0.6301433444023132,-0.0055274140805313616,-0.0032362080147758463,0.01347715148455552,-0.003420115215703845,0.00124655372928828,-0.005121358670294285,-0.17448011107742786,-0.18013177391141655,-9.803071049451829
6.6,0.4000000059604645,8.0,24.17209053039551,0.07951773703098297,-79.78280190986754,40.458971094330614,268.949409460783,0.0015841188142076135,0.012414046563208105,-0.7763636708259583,0.6301610469818115,-0.007749054790318558,-0.003538646782044019,0.013537297127127923,-0.0052570225670933715,-0.0014294717693701384,0.0019056142773479228,-0.16973010716959835,-0.19330633649602533,-9.804115946888924
6.7,0.4000000059604645,8.0,24.16207504272461,0.07951773703098297,-79.78280186513055,40.458971165931786,268.9497704861164,0.0015674071619287133,0.012413699179887772,-0.7763692736625671,0.6301541328430176,-0.007416729471272049,-0.0026919910366672256,0.012443864098658577,0.0017119224648922682,0.0011192000238224864,-0.0014637832064181564,-0.17399356791749598,-0.18172731461003425,-9.803066956400873
6.9,0.4000000059604645,7.0,24.169586181640625,0.07156596332788467,-79.78280180488335,40.45897122635851,268.9532242474556,0.0015675824834033847,0.012411954812705515,-0.7763541936874391,0.6301727294921875,-0.0026283809351104487,0.0026241055698501994,0.015177410698838337,-0.004021682310849428,0.002162661636248231,-0.004446791484951973,-0.16947809217497709,-0.1931138351932168,-9.804502447843555
7.0,0.4000000059604645,8.0,24.1683349609375,0.08746951073408127,-79.7828018012427,40.458971228084756,268.95473340725897,0.0015550263924524188,0.012410689145326614,-0.7763540148735046,0.6301731467247009,-0.0032612618658815658,0.0022025175445518235,0.015029463370351553,0.0034015190321952105,0.0026942295953631397,0.0005110619822517037,-0.1730000711604953,-0.18452628538012505,-9.802561172246934
7.2,0.4000000059604645,11.0,24.16332626342773,0.04771064221858978,-79.78280179761876,40.458971230475534,268.95624743974207,0.0015514616388827562,0.012420795857906342,-0.7763505578041077,0.6301771402359009,-0.004191729755535753,0.002046991766870239,0.015070752292308998,0.003829544177278876,-0.0010928793344646692,0.005706400610506536,-0.16909752979874612,-0.1944765653461218,-9.804823459982874
7.3,0.4000000059604645,12.0,24.16332626342773,0.03180709481239319,-79.7828017456528,40.458971320244174,268.95887229418753,0.0015438518021255732,0.012407467700541021,-0.7763489484786987,0.6301792860031128,-0.006098977934772432,0.0009808830662024742,0.01299301340182541,0.004840776789933443,0.003197210608050227,0.0016513781156390905,-0.17199948465451598,-0.18691531151533128,-9.803300845026973
7.5,0.4000000059604645,16.0,24.173343658447266,0.05566241592168808,-79.78280172025778,40.45897139139875,268.964863350749,0.0015460505383089185,0.012399193830788136,-0.7763455510139465,0.6301836967468262,-0.003115531799305911,-0.002747356874439779,0.016112928153343038,-0.009683365002274513,-0.0004895172314718366,-0.004500691778957844,-0.17032248493283988,-0.19433102449402206,-9.804093727469443
7.61,0.4000000059604645,16.0,24.170839309692386,0.07156596332788467,-79.7828017226024,40.458971394350435,268.9664750305414,0.0015495361294597387,0.012401608750224112,-0.7763537168502808,0.6301736831665039,-0.0034731833259832863,-0.003229845860235995,0.015907199098642782,0.009786875918507576,0.005003336351364851,0.0040886979550123215,-0.17055684864521028,-0.19100492723286155,-9.804315336942674
7.8,0.30000001192092896,18.0,24.169586181640625,0.04771064221858978,-79.78280168839484,40.45897147800475,268.9710273352861,0.0015359618701040745,0.012385972775518894,-0.7763482928276062,0.6301806569099426,-0.004710141553744541,-0.005336456440749125,0.017316247359549578,-0.0012170041445642712,-0.002932051895186305,0.0015271116280928256,-0.1711340601928532,-0.19253839608281853,-9.802295708656311
7.9,0.30000001192092896,17.0,24.169586181640625,0.06361418962478638,-79.7828016014633,40.45897155267141,268.97790745472906,0.0015546795912086966,0.012416558340191841,-0.7763491272926331,0.6301789879798889,-0.0037255293740724735,0.003614185647736928,0.01863425548186391,0.008347023278474808,-0.00023665025946684184,0.004988559521734714,-0.16879517393186688,-0.1922489406354725,-9.805706389546394
8.1,0.30000001192092896,18.0,24.16082191467285,0.039758868515491486,-79.78280159578756,40.45897155580453,268.97978148436545,0.001573899993672967,0.012432923540472984,-0.7763397097587585,0.6301901936531067,-0.005571547071957451,0.003729663572469699,0.018806829077717944,-0.0036497032269835468,-0.0015814267098903654,-0.001026797341182828,-0.17173608586192132,-0.1909910949133337,-9.803528886437416
8.2,0.30000001192092896,18.0,24.15957069396973,0.015903547406196594,-79.78280155244177,40.45897163933538,268.9852451441288,0.0015903229359537365,0.012429121881723404,-0.7763426899909973,0.6301865577697754,-0.005110135934115506,-0.0021483428533667194,0.015241426721087725,0.005060730967670679,0.0010156789794564247,0.0022402682807296515,-0.16901833657175305,-0.1942441385239363,-9.804352174401282
8.4,0.4000000059604645,17.0,24.169586181640625,0.06361418962478638,-79.78280155321477,40.45897164448783,268.9867917803526,0.0015754471533000474,0.01243517640978098,-0.7763432264328003,0.6301857829093933,-0.00690815113539946,-0.002064888805819948,0.015426429374671384,-0.006314599420875311,-0.002732469700276852,-0.00012080210581189021,-0.17336603377014406,-0.18800581723451606,-9.802089886665344
8.51,0.4000000059604645,16.0,24.16708374023437,0.07156596332788467,-79.78280148412661,40.45897173378089,268.9930823949575,0.001541483448818326,0.012437033466994762,-0.7763465642929077,0.6301816701889038,-0.007472339913069467,-0.0013895384627630645,0.013701440202085557,0.002443488920107484,-0.0009542164043523373,0.0063994009979069216,-0.16953345799818634,-0.19638162475079304,-9.80580169916153
8.7,0.4000000059604645,12.0,24.173343658447266,0.06361418962478638,-79.78280148348449,40.45897174084154,268.9944749531746,0.0015326736029237509,0.012443637475371359,-0.7763432860374451,0.6301857233047485,-0.009318881852890749,-0.001266497792066364,0.013890091100783706,-0.0055058770813047895,-0.0032475590705871573,-0.004645710345357657,-0.17373179538175465,-0.1832113927602768,-9.802112106084826
8.8,0.4000000059604645,13.0,24.15957069396973,0.06361418962478638,-79.78280140303697,40.45897180627954,269.0039674696922,0.0015356253134086724,0.012458423152565956,-0.7763528227806091,0.6301735639572144,-0.005326184189037937,0.0001064113006859213,0.016935464321601285,0.0018248591804876926,0.001158435712568462,0.003777858801186085,-0.1693631761148572,-0.19626321863383056,-9.805538574457167
9.0,0.4000000059604645,12.0,24.16457939147949,0.07951773703098297,-79.78280132947948,40.458971884421786,269.0116183964014,0.0015330841997638345,0.012458588927984238,-0.7763533592224121,0.6301729083061218,-0.006430329576116206,0.000423995491108452,0.018366056519336267,-0.002630262169986964,-0.0013011861592531204,-0.005625403951853514,-0.17516852935776114,-0.18161784376949072,-9.801401669383047
9.11,0.4000000059604645,11.0,24.173343658447266,0.039758868515491486,-79.78280132512364,40.458971895834,269.0153051075935,0.0015195660525932908,0.012450815178453922,-0.7763684391975403,0.630154550075531,-0.008140202105364494,0.00013234438204736462,0.01831149288196104,-0.0011376447509974241,0.0001389959652442485,0.003853501752018929,-0.1705638104863465,-0.1934207226522267,-9.803680329322816
9.3,0.4000000059604645,9.0,24.17584800720215,-0.02385532110929489,-79.78280124960169,40.45897197506696,269.02366448020933,0.0015013464726507664,0.012446477077901363,-0.7763723134994507,0.6301499009132385,-0.008070077894440567,0.0004194989175674178,0.01941243274690724,-0.004032239317893982,-6.6592601797310635e-06,-0.007530803792178631,-0.17348655950278044,-0.1790600340999663,-9.801468327641489
9.4,0.4000000059604645,8.0,24.170839309692386,-0.007951773703098297,-79.78280118155655,40.45897204215552,269.03442831909655,0.0015084098558872938,0.012449672445654869,-0.7763773798942566,0.6301435828208923,-0.0033087146947996505,-0.0024239282092389665,0.02027854945983359,-0.0047777392901480215,-0.0013544030953198671,0.0023339283652603626,-0.17245209569111467,-0.19218429235741494,-9.80346573650837
9.6,0.5,9.0,24.173343658447266,0.0,-79.78280118329405,40.45897204556186,269.0364588556289,0.0015145367942750456,0.012449217028915882,-0.7763743996620178,0.6301472783088684,-0.004563344110322772,-0.00256314084428735,0.02018434482721475,-0.003481881460174918,-0.004335933364927769,-0.005065170582383871,-0.1745736117102206,-0.1800924513861537,-9.80154434144497
9.72,0.5,9.0,24.17459487915039,-0.007951773703098297,-79.7828010924513,40.458972123973545,269.04794240570067,0.0014825963880866766,0.012450872920453548,-0.776373565196991,0.6301484107971191,-0.006549410824480607,-0.0008625514314632393,0.020870967085616844,-0.004018362145870924,-0.0008004767005331812,-0.00757537642493844,-0.17265656551346184,-0.186968886628747,-9.801877048015593
9.9,0.5,10.0,24.170839309692386,-0.02385532110929489,-79.78280109168955,40.45897212946308,269.0500327256918,0.001494548749178648,0.012453402392566204,-0.7763805389404297,0.6301397681236267,-0.007272296477341952,-0.0010698295323420164,0.020761034131147472,0.004249970894306897,0.0016525042010471225,-0.0023446227423846717,-0.1735853591747582,-0.18253200111910706,-9.80272021651268
10.0,0.5,10.0,24.177099227905273,-0.015903547406196594,-79.78280100546,40.458972207666505,269.0614997205734,0.0014625296462327242,0.012441747821867466,-0.7763729095458984,0.6301493644714355,-0.009138401101778158,-0.0001729596406371105,0.021224662976267114,-0.008507832884788513,-8.123190491460264e-05,-0.005289838649332522,-0.17350435696542266,-0.18323585970327252,-9.801823253631591
10.2,0.5,11.0,24.169586181640625,-0.015903547406196594,-79.78280091058062,40.45897228691126,269.07155001735686,0.0014722779160365462,0.012420772574841976,-0.7763715982437134,0.6301513910293579,-0.008688953070074414,0.0001615716116596579,0.017427546167483286,0.001867801416665316,0.002224693307653069,0.004003909882158041,-0.17273488165810705,-0.18699097814038396,-9.802917267680169
10.31,0.5,11.0,24.16207504272461,-0.02385532110929489,-79.7828009079454,40.45897229454036,269.07331130480765,0.0015061880694702268,0.012428660877048973,-0.7763647437095642,0.6301596164703369,-0.010400307217977776,0.00026763584782142034,0.01762615875966402,-0.0011039009550586343,-0.00037930344115011394,-0.003984015434980393,-0.17386642752215267,-0.1808289447426796,-9.802076438069344
10.5,0.5,10.0,24.17459487915039,-0.007951773703098297,-79.78280081331128,40.45897234351352,269.08377341008185,0.0015055659459903836,0.01245437003672123,-0.7763657569885254,0.6301578283309937,-0.004540656163723413,0.0012795637468645089,0.01918737248456577,0.006011016201227903,0.0022619368974119425,0.0002628260990604758,-0.17134406659752133,-0.1892058303393424,-9.80402180671692
10.6,0.5,12.0,24.169586181640625,-0.007951773703098297,-79.7828008065379,40.458972352780826,269.0876399633884,0.0014982669381424785,0.012456425465643406,-0.7763399481773376,0.6301896572113037,-0.007622722268671746,0.0014752500177295821,0.01930606209353565,-0.0008560011629015207,0.0008981006685644387,-0.007945974357426167,-0.17415566369891167,-0.1807100635394454,-9.801099953055383
10.8,0.5,13.0,24.16708374023437,-0.015903547406196594,-79.78280073329981,40.45897239472124,269.09842426157,0.0014877408975735307,0.012468945235013962,-0.7763305902481079,0.630200982093811,-0.0013645803745849605,-0.002034522390715715,0.02033415109572716,0.004676077514886856,0.0010973571334034202,0.0031193108297884464,-0.17051854938268662,-0.1913838816247881,-9.804190791249276
10.9,0.5,13.0,24.170839309692386,-0.015903547406196594,-79.7828006364131,40.45897245306261,269.1112119016647,0.0014837241033092141,0.012439367361366749,-0.7763195037841797,0.6302152276039124,-0.004480490880102936,-0.0009043556006890908,0.020899420573384862,-0.002935913158580661,-0.0020422725938260555,-0.0041064126417040825,-0.1750974674150348,-0.18100836290046574,-9.800588321685794
11.1,0.5,14.0,24.17459487915039,0.007951773703098297,-79.78280063598092,40.458972457158154,269.11331150507925,0.001467498135752976,0.012432797811925413,-0.776306688785553,0.6302310824394226,-0.005023492046430564,-0.001090730612731384,0.02082805726470414,0.006634016986936332,-0.0005553278606384994,0.005470717791467905,-0.16928690649569034,-0.1916764068603516,-9.804286100864411
11.2,0.5,12.0,24.17209053039551,-0.007951773703098297,-79.78280055489779,40.458972549991216,269.1266631541252,0.0014731422998011112,0.012417590245604515,-0.7763142585754395,0.6302220225334167,-0.013694826186252264,-0.005867987023539104,0.0210395976111726,-0.00041358743328601116,0.001525433617644012,-0.0020144484005868435,-0.17413792105391626,-0.1826689173281193,-9.802879845499993
11.4,0.5,12.0,24.177099227905273,-0.007951773703098297,-79.78280045452523,40.45897260012809,269.1405276713371,0.0014742308994755149,0.01245065126568079,-0.7763043045997621,0.6302337050437927,-0.008541628015483232,-0.0020284417503791947,0.021731876956692986,-0.004350620787590742,-0.0006206502439454197,-0.007099272683262825,-0.16863633066415787,-0.194144607950002,-9.805236858129502
11.5,0.5,12.0,24.17209053039551,-0.007951773703098297,-79.78280045459516,40.45897260783017,269.1427096483707,0.0014619081048294902,0.012449035421013832,-0.7763048410415649,0.6302331686019897,-0.009121370106243998,-0.002291672737489693,0.021558301397025102,0.002300900872796774,0.0012919751461595295,-0.004165054298937321,-0.17311626629903915,-0.18545771028846506,-9.802910251021386
11.7,0.5,12.0,24.177099227905273,0.0,-79.7828004544964,40.45897261634172,269.14489669179915,0.001454677083529532,0.012448177672922613,-0.7763161659240723,0.6302192211151123,-0.010455803355893993,-0.0022192281620276,0.021630760761601545,0.0014059075620025394,-0.006393349729478359,0.005850010085850954,-0.16956291334703566,-0.1946757361292839,-9.804222366213798
11.81,0.5,12.0,24.173343658447266,-0.02385532110929489,-79.78280033929565,40.4589726481109,269.1571120080948,0.00143753073643893,0.012456631287932396,-0.7763304114341736,0.6302014589309692,-0.0061011422312335405,0.0005082255218982526,0.01813353248579509,0.005458505824208261,0.0022912728600203987,0.005632911343127489,-0.1696425999328494,-0.1899596095271409,-9.803741725087166
12.0,0.5,14.0,24.177099227905273,-0.007951773703098297,-79.78280023490842,40.458972690713686,269.1678193268776,0.0014353545848280196,0.01244581025093794,-0.7763328552246094,0.6301987171173096,-0.006910593998428258,0.0013371552818892208,0.016734749849471243,-0.004869234748184681,0.0020722609478980303,-0.0008279783651232717,-0.17118056382983926,-0.19251224806532266,-9.803943454027175
12.1,0.5,13.0,24.177099227905273,-0.007951773703098297,-79.78280022751261,40.45897270334064,269.1711888370514,0.0014371145516633987,0.01244193036109209,-0.7763338088989258,0.6301976442337036,-0.008881631671791325,0.0012440212023190596,0.016720444167869,0.00649083498865366,0.0019074826268479226,0.002439505653455853,-0.1686322924308479,-0.1941743556596339,-9.804743353128432
12.3,0.6000000238418579,13.0,24.17209053039551,-0.02385532110929489,-79.78280011220644,40.45897274962512,269.1837095675468,0.0014406964182853699,0.012448542751371859,-0.7763379216194153,0.6301923990249634,-0.009610440174699114,0.0017847464697194413,0.015228228918567968,0.002525275573134423,0.004424539394676685,-0.0003592040156945586,-0.1732365727610886,-0.18636877957731487,-9.8019021910429
12.4,0.6000000238418579,15.0,24.169586181640625,-0.007951773703098297,-79.78280001942609,40.45897276846785,269.1947777030468,0.0014502236153930426,0.012453478761017324,-0.7763379812240601,0.6301922202110289,-0.0029912186937673013,-0.0010878505568367423,0.014216745263003504,0.0010895428713411093,-0.0015753355110064149,0.00509130023419857,-0.16931204952299594,-0.19521470323204995,-9.804964962601662
12.6,0.6000000238418579,17.0,24.173343658447266,0.007951773703098297,-79.78280001950411,40.45897277165571,269.1962073800564,0.0014502236153930426,0.012453478761017324,-0.7763379812240601,0.6301922202110289,-0.00473703195132087,-0.0009139918155067334,0.014301050540593819,-0.0036760151851922274,-0.00221703527495265,-0.008179549127817154,-0.1739461871981621,-0.1798020457662642,-9.80118766129017
12.71,0.6000000238418579,17.0,24.17960357666016,-0.02385532110929489,-79.78279992535731,40.4589728108892,269.2089939472675,0.00145566847641021,0.012455491349101068,-0.7763417959213257,0.630187451839447,-0.005030807322701915,-0.003756782311041999,0.013456308908850764,-0.003678717184811832,-0.003430656157433987,0.002732791705057025,-0.17217987125739456,-0.19199179105460645,-9.803049414753914
12.9,0.6000000238418579,19.0,24.177099227905273,-0.02385532110929489,-79.78279981846102,40.45897284931754,269.2214734611511,0.001457788166590035,0.01246278639882803,-0.7763468623161316,0.6301809549331665,-0.006053146034094534,-0.002141539917037155,0.01338627007443435,0.004605311434715986,3.5771230614045635e-05,0.004842364229261875,-0.17434743409976364,-0.1807900790311396,-9.80181857585907
13.0,0.6000000238418579,21.0,24.16708374023437,-0.007951773703098297,-79.7827998188946,40.458972855612224,269.2228452322483,0.001457788166590035,0.01246278639882803,-0.7763468623161316,0.6301809549331665,-0.008072531913014025,-0.001868629341143293,0.01371466938254308,-0.007323694415390491,0.0010211874032393098,-0.004725124221295118,-0.17377283552661538,-0.18510095704346896,-9.802418500185011
13.21,0.6000000238418579,22.0,24.17209053039551,-0.02385532110929489,-79.78279981902706,40.45897286275608,269.2242268977165,0.00146000599488616,0.012465247884392738,-0.776350200176239,0.6301769018173218,-0.00853420150602592,-0.002120826327197709,0.013623746367148578,0.005954112857580185,0.0005431888275779784,0.0003747756127268076,-0.17315096586942674,-0.18543951082974675,-9.803726522326473
13.3,0.6000000238418579,22.0,24.1683349609375,-0.007951773703098297,-79.78279970401007,40.45897286139537,269.23624814128874,0.0014700290048494935,0.012481582351028921,-0.7763550281524658,0.6301706433296204,-0.0024154621512252053,0.001221266850792695,0.013722161777246365,-0.0064311958849430076,-0.003074859268963337,-0.007052181288599969,-0.17426403818652034,-0.18023185266181824,-9.802317928075787
13.5,0.5,20.0,24.17209053039551,-0.02385532110929489,-79.78279958978857,40.45897290849789,269.2482423839569,0.0014631503727287054,0.012478169985115528,-0.7763552665710449,0.630170464515686,-0.008817808049372263,0.0009761549509419928,0.013072674875386023,-0.006072054151445627,-0.0016274243826046586,0.0005796091281808912,-0.16948116196319465,-0.19063505429774524,-9.805599385499956
13.6,0.5,20.0,24.165830612182607,-0.007951773703098297,-79.78279958637755,40.45897291601747,269.2495575008392,0.0014659964945167305,0.012480529956519605,-0.7763594388961792,0.6301652193069458,-0.009937550836141916,0.0008836523294497369,0.013016114359236858,-0.0025589859578758483,0.0031819269061088558,-0.004205799195915461,-0.17512829320505266,-0.1798075275309384,-9.80140049993992
13.8,0.5,20.0,24.17459487915039,-0.015903547406196594,-79.78279947654596,40.45897294618226,269.26125261759756,0.0014705287758260965,0.012487813830375671,-0.7763648033142091,0.6301584839820862,-0.009254476893520965,0.0016665791680656064,0.01277518767592258,-0.0065777618438005465,-0.002575636841356755,-0.0030487258918583393,-0.16788081558421256,-0.1919754736684263,-9.804376732707023
13.91,0.5,20.0,24.169586181640625,-0.02385532110929489,-79.78279937640599,40.458972970638506,269.27070752358435,0.0014705327339470387,0.012490906752645971,-0.7763651609420776,0.630158007144928,-0.007981236876252379,0.0016840909154028682,0.012426790279274605,0.0019825778435915713,0.003793976735323668,-0.004020728170871736,-0.1744144395366311,-0.1832560691423714,-9.801781153678894
14.1,0.5,20.0,24.169586181640625,-0.039758868515491486,-79.78279936736124,40.45897298547319,269.2732259390354,0.001474497141316533,0.012493890710175036,-0.7763696312904358,0.6301523447036743,-0.010842837880598852,0.0020766858195926143,0.012611129343058431,-0.006091912277042866,0.0007721939473412933,-0.0017486972501501439,-0.16880993815138934,-0.19561119927093387,-9.80456910610199
14.2,0.5,19.0,24.170839309692386,-0.007951773703098297,-79.78279928564002,40.45897300550271,269.28223962163923,0.001480335253290832,0.012494311667978764,-0.7763696908950806,0.6301522254943848,-0.007279769054057882,-0.0018201399887343387,0.012094660786462857,0.008690795861184597,0.003121855203062296,-0.0020673449616879225,-0.1706876800954342,-0.1884981710650027,-9.803639398813248
14.4,0.5,17.0,24.15957069396973,-0.04771064221858978,-79.7827992084433,40.45897303520104,269.28994978046416,0.0014944634167477489,0.012502615340054035,-0.7763762474060059,0.630143940448761,-0.00561013835783674,-0.0045604680222012285,0.007070136859178044,-0.004046802408993244,-0.0015202846843749285,-0.00770312175154686,-0.17033929567784073,-0.19412454469129445,-9.803959241509435
14.5,0.5,16.0,24.16207504272461,-0.02385532110929489,-79.78279921225206,40.45897304114629,269.2906728444099,0.0014806353719905019,0.012500354088842869,-0.7763766646385193,0.6301435828208923,-0.006080510933534794,-0.004775018760696154,0.007002320865703863,0.0042473888024687784,0.0007629332831129433,0.007329912390559913,-0.1693174764700234,-0.19260065065696835,-9.804524667263033
14.7,0.4000000059604645,13.0,24.17209053039551,-0.015903547406196594,-79.78279921577305,40.458973047833894,269.29140145158766,0.001462589600123465,0.012499880976974964,-0.7763765454292297,0.6301436424255371,-0.007970689616821654,-0.004388258316221478,0.0071806930959945935,-0.007397317793220282,-0.005272816866636275,-0.00047369854291900987,-0.17289306711405514,-0.1900934559479356,-9.802836576104164
14.8,0.4000000059604645,14.0,24.17459487915039,-0.03180709481239319,-79.78279911097017,40.45897305962615,269.298481470108,0.001456557889468968,0.012510062195360659,-0.7763710618019104,0.6301503181457521,-0.004125000165724421,-0.0010588380770684435,0.005183351229732967,0.004420108161866665,0.0018392637139186265,0.0057220025919377795,-0.16952572870999574,-0.19575195271521809,-9.804414739608763
15.0,0.4000000059604645,15.0,24.170839309692386,-0.007951773703098297,-79.78279902245151,40.45897307396969,269.3049088475704,0.0014604305615648627,0.012519177980720995,-0.7763710618019104,0.6301500797271729,-0.00229375731416208,0.0007357282860499972,0.004333994231183506,-0.008418828248977661,0.00045859636156819766,-0.003595635760575533,-0.17411168167367574,-0.18424872536212208,-9.801262505650518
15.1,0.4000000059604645,16.0,24.1683349609375,-0.039758868515491486,-79.78279901915714,40.45897307867715,269.30578259205816,0.0014371370198205113,0.012494968250393871,-0.7763563990592957,0.6301687359809875,-0.004245941506083702,0.000898738071251207,0.004405810227157364,0.0013004495995119214,-0.0020421589724719524,0.002627420937642455,-0.1693665748089552,-0.19552524520084266,-9.804835739135745
15.3,0.4000000059604645,16.0,24.17209053039551,-0.03180709481239319,-79.78279892487086,40.45897311181725,269.3140840587616,0.0014196110423654318,0.012498588301241398,-0.7763656377792358,0.6301573514938354,-0.005838793464657561,0.001354168389725902,0.006888436780977577,0.007976090535521506,0.0020285986829549074,0.002688291948288679,-0.17454932749271393,-0.18020875615999105,-9.801973527073859
15.41,0.4000000059604645,15.0,24.1683349609375,-0.007951773703098297,-79.78279883825272,40.45897315145975,269.32131320810316,0.0014215714763849974,0.012492503039538859,-0.7763522267341614,0.6301739811897278,-0.00974531245567372,0.0009357573629784977,0.008819240564904839,-0.0007274992531165483,-0.0022110335994511843,0.00341587676666677,-0.1718492112122476,-0.1926070643216372,-9.803590866923333
15.6,0.4000000059604645,13.0,24.15957069396973,0.3101191818714142,-79.7827988344559,40.45897316023538,269.32221055603026,0.0014257465954869983,0.012489194050431252,-0.7763766646385193,0.630143940448761,-0.011778727300888376,0.0012133683626213447,0.008960125294809019,-0.0051488205790519714,0.0022647292353212838,-0.006607588846236467,-0.17361108692362906,-0.17747792372480034,-9.801890496611595
15.7,0.4000000059604645,13.0,24.152057647705078,0.2942156493663788,-79.78279874053926,40.45897319653274,269.3301901874542,0.0014359559863805767,0.012508044019341469,-0.7763641476631165,0.6301589608192444,-0.009622190849956243,0.0018656286652737773,0.010129492883419251,0.00011329914559610188,-0.006911918986588717,0.005105596501380204,-0.1746214309707284,-0.2030266016162932,-9.801166026592256
15.91,0.4000000059604645,15.0,24.15581512451172,0.278312087059021,-79.7827986721027,40.4589732180942,269.3371906337738,0.0014317366294562814,0.012517946772277357,-0.7763374447822571,0.6301917433738708,-0.004859541881793571,-0.0005022498328821363,0.01046180723540022,0.007382723502814771,0.0009944014018401504,0.005482003092765808,-0.17596247160807252,-0.16816517299041153,-9.803131275773053
16.0,0.4000000059604645,15.0,24.15456199645996,0.2942156493663788,-79.78279867113223,40.45897322316935,269.3382739481926,0.001428847317583859,0.012527787126600742,-0.7762949466705322,0.630243718624115,-0.0067061134279225425,-0.00019802709181872838,0.010877699816616113,-0.006055600475519896,-0.002705101622268557,-0.0014749765396118164,-0.17502642374485733,-0.19091888180002567,-9.804642196297646
16.2,0.4000000059604645,15.0,24.157066345214844,0.3101191818714142,-79.78279866965828,40.45897322904053,269.3393729982376,0.0014237586874514818,0.01253296248614788,-0.7763378024101257,0.6301909685134888,-0.007780228061680511,-0.0004688775283019264,0.0109432921400196,-0.0022286968305706987,0.0012953656259924171,-0.004460864700376988,-0.18104238638654352,-0.18214849686250087,-9.801166026592256
16.31,0.4000000059604645,15.0,24.144546508789066,0.326022744178772,-79.78279858951468,40.45897326365672,269.3444254455566,0.0014216179260984065,0.012542529031634327,-0.7763300538063049,0.6302003264427185,-0.008747588070649358,0.0010931998866068957,0.007489421953524717,-0.009195077233016493,0.00043658740469254553,-0.007462496403604745,-0.17005576053634286,-0.17989618593826892,-9.802744774818422
16.5,0.4000000059604645,15.0,24.140789031982425,0.4214440286159515,-79.78279851153337,40.45897329421175,269.3485440073013,0.0014186182525008915,0.012555845081806185,-0.7763127684593201,0.6302213072776794,-0.005402812764119032,0.0009394857096610053,0.004488185585712242,0.0050916015170514575,0.00011758819891838357,0.004070247523486614,-0.176840065587312,-0.1864304677024484,-9.804435789585114
16.61,0.4000000059604645,15.0,23.77143478393555,26.344226837158203,-79.78279850404127,40.4589733058242,269.3494953570366,0.0014138667611405251,0.012576239183545113,-0.776317834854126,0.6302147507667542,-0.008422842038464854,0.0017097151278516905,0.004896566450100357,-0.003315274603664875,-0.0010485355742275717,-0.0017700601601973176,-0.17832065368071198,-0.17578996047377587,-9.800519324541092
16.81,0.4000000059604645,15.0,24.13202476501465,0.41349223256111145,-79.78279843021376,40.45897331946885,269.3554957566261,0.0014702621847391124,0.01276491302996874,-0.7764215469360352,0.6300830841064453,-0.002278470215991507,0.004665277767497257,0.007026365711044208,0.010768689215183258,-0.003525473643094301,0.0007241108687594532,-0.15358017062768342,-0.18162018265575167,-9.798800243139269
16.91,0.5,14.0,24.14579772949219,0.20674611628055573,-79.78279835421097,40.45897335866746,269.3613178787231,0.0014668299118056893,0.01273108460009098,-0.7763525247573853,0.6301687359809875,-0.006955523970637053,0.0017365040676701926,0.0081504742681372,-0.010931780561804771,0.012820011004805565,-0.0047005824744701385,-0.17867124907672405,-0.17104048646986486,-9.800262047052382
17.1,0.5,15.0,24.044382095336914,1.248428463935852,-79.78279835002131,40.4589733627367,269.3621581254005,0.0014525941805914044,0.012666950933635237,-0.7763569355010986,0.6301646828651428,-0.005710162266260229,0.004006104303313317,0.008521948373354859,0.002874178811907768,-0.00727946264669299,0.003920992836356163,-0.16317338671535253,-0.16478581124916675,-9.802128478288653
17.2,0.4000000059604645,15.0,24.13327789306641,0.4214440286159515,-79.78279827683083,40.4589734201645,269.3679609951973,0.0015597512247040868,0.012787138111889362,-0.7763886451721191,0.6301229000091553,-0.01022275777842718,-0.00012646355200104757,0.00894388687793584,0.002437130780890584,0.030706774443387982,0.0070489831268787375,-0.1612102571502328,-0.200982232298702,-9.80080759227276
17.4,0.5,17.0,24.144546508789066,0.2306014448404312,-79.78279820665573,40.4589734513776,269.3734425959587,0.0014562089927494526,0.012704784050583841,-0.7763391733169556,0.6301856637001038,-0.005343529926856896,0.0025067857709863968,0.010973448214139928,0.009330431930720806,0.01473947800695896,0.009297199547290802,-0.16255266822874548,-0.2080749597027898,-9.790900654792788
17.51,0.4000000059604645,17.0,24.10072326660156,1.7414385080337524,-79.78279820221101,40.45897345534056,269.37447846508024,0.0014475741190835836,0.012669798918068407,-0.7763141989707947,0.6302172541618347,-0.005276794925842815,0.00271300747589397,0.01116033253953027,0.009537733159959316,0.017864743247628212,0.004781707655638456,-0.1568609519675374,-0.20383704397827387,-9.804571444988252
17.7,0.5,18.0,23.9003963470459,4.42913818359375,-79.78279819626454,40.45897345996266,269.37553799724583,0.0014673637924715874,0.012673761695623398,-0.7763212323188782,0.6302084922790527,-0.007163875741199852,0.002321929140946864,0.010941366503672232,-0.0006170704727992415,-0.0016495321178808804,0.006758640985935926,-0.1952685889787972,-0.1709894512407482,-9.794551656246188
17.81,0.5,18.0,23.851566314697266,5.295881271362305,-79.78279819369432,40.45897350438939,269.3779757080078,0.00150746398139745,0.012717695906758308,-0.7763809561729431,0.630133867263794,-0.008708661310815336,-0.0050110075844131685,0.006735389798496711,-0.034343283623456955,0.007073040120303631,-0.0069499104283750075,-0.15384947145357727,-0.1629851794615388,-9.80747575700283
18.01,0.4000000059604645,19.0,23.74388885498047,8.174423217773438,-79.78279813628984,40.45897353707323,269.38010955429075,0.001519497251138091,0.012799196876585484,-0.7764027118682861,0.6301054358482361,-0.0016949018192095654,-0.00378322554714395,0.00504931037616113,0.01082888338714838,0.002786822849884629,-0.005211039911955595,-0.17473064599558713,-0.15880756314843894,-9.804391935467722
18.1,0.4000000059604645,19.0,23.660001754760746,8.810565948486328,-79.78279814270537,40.45897354417683,269.38143486356734,0.002093177288770676,0.013367810286581516,-0.7764758467674255,0.6300017237663269,0.0022313731938924785,-0.0022199210195937603,0.008826603959455653,0.09741685539484024,0.10218248516321182,-0.023660013452172283,-0.19921158576384188,-0.29608164003118875,-9.787439687848092
18.3,0.5,17.0,23.49848747253418,11.585734367370605,-79.78279808268147,40.458973589692654,269.3839384970665,0.003118760883808136,0.014040867798030376,-0.7764825224876404,0.6299747228622437,0.009212537114786722,0.0009654116798223826,0.005903480818488523,0.1087287962436676,-0.00743027264252305,0.006342477630823851,-0.13775568645447495,-0.15060808572918175,-9.817886724472046
18.4,0.5,18.0,23.41460037231445,13.358980178833008,-79.78279803837296,40.45897362889932,269.3858880457878,0.003850864479318261,0.014728788286447525,-0.7764628529548645,0.6299791932106018,-0.00967812604733184,0.00286231678320997,0.010100808003704009,-0.014836518093943598,-0.017958275973796844,0.06688646227121353,-0.15046610802412033,-0.4270638205111027,-9.835408490896226
18.6,0.5,16.0,23.23806190490723,17.016796112060547,-79.7827980402039,40.45897362895674,269.3868237791061,0.004834978841245174,0.015190336853265762,-0.7764140963554382,0.6300214529037476,-0.003468029245625315,-0.0022406073618274807,0.012088515003072295,0.0055249440483748895,0.023210626095533368,0.040154919028282166,-0.16767132081091404,-0.33678730588406325,-9.851564347743988
18.7,0.5,15.0,23.13288879394531,18.79004096984864,-79.78279794821238,40.45897365218594,269.3917034921646,0.0069834948517382145,0.016368383541703224,-0.7763989567756653,0.6299905776977539,0.0037745521020844993,0.00425816069950591,0.01902475539568212,-0.011990970000624657,0.02278900146484375,0.07774980366230011,-0.15213499473407865,-0.3596422446146608,-9.899990987777713
18.9,0.5,14.0,22.93756866455078,22.034364700317386,-79.78279788658308,40.458973677437136,269.3960344252586,0.008010662160813808,0.01759402453899384,-0.7754896879196167,0.631064236164093,-0.01782477672638515,0.01816893449034809,0.02629211884236103,-0.16642999649047852,-0.07037726789712906,-0.012277551926672459,-0.19108857896178968,-0.4145580514892936,-9.793688022494315
19.0,0.5,14.0,22.81862449645996,23.88712882995605,-79.78279785308881,40.45897367650424,269.39949274635313,0.0022405243944376707,0.016102846711874008,-0.7748578786849976,0.6319264769554138,0.005965542383625422,0.04922094623351755,0.03799271584609492,-0.10587608069181442,-0.07890485972166061,-0.15163545310497284,-0.012712299074046314,-0.02775728087872267,-9.904296877384187
19.2,0.6000000238418579,16.0,22.61579132080078,27.51313781738281,-79.78279774888533,40.45897355777157,269.4135969934464,-0.00901808962225914,0.01194253657013178,-0.7694371342658997,0.6385473608970642,0.011868866760781973,0.08103845436288852,0.1447753831002728,-0.3759857416152954,0.042541570961475365,-0.10906774550676346,-0.020579115604050457,0.03442681604996324,-10.112218018770216
19.31,0.6000000238418579,17.0,22.51813125610352,26.40784072875977,-79.78279764011907,40.458973503912745,269.43252218341826,-0.011520598083734512,0.005645247641950846,-0.7674636840820312,0.640964150428772,0.053785071258908544,0.10776582953997853,0.2457878212632199,0.0006748490268364549,0.018910655751824386,0.09224662184715272,0.0531054723635316,-0.2367232648842037,-10.824787784814838
19.5,0.699999988079071,16.0,22.966365814208984,20.94497299194336,-79.78279732271045,40.45897327286124,269.4780250248909,-0.003533140057697892,0.0007640267722308638,-0.7669680714607239,0.6416750550270081,0.053468658286618134,0.17390208792784595,0.29626795164337355,-0.12471486628055573,-0.057956896722316735,0.04508543387055397,0.0916684899944812,0.4045146180689335,-10.502091647386553
19.61,0.8000000119209291,18.0,22.826135635375977,23.13966178894043,-79.78279712274113,40.45897319240875,269.50588816976546,-0.0011682040058076384,-0.003982608672231436,-0.7677595019340515,0.640724778175354,0.06066710980961206,0.19306089747645414,0.25057165879694426,0.06536273658275604,0.002976863645017147,0.14134493470191956,0.309002543091774,-0.3693451508134604,-9.556037297844886
19.8,0.8000000119209291,24.0,22.71595573425293,24.952667236328125,-79.78279693430916,40.45897333895464,269.50600249147413,0.0012997378362342715,-0.011150321923196316,-0.7687926292419434,0.6393995881080627,0.04866360149783834,0.16603452843154315,0.16310502182007738,-0.05760575085878372,0.16647975146770475,-0.040794022381305695,0.16662572901695968,0.06794384188950063,-9.395817157030104
19.9,0.8999999761581421,27.0,22.74600601196289,23.89508056640625,-79.78279666824086,40.45897337343718,269.54675192213057,0.00515481224283576,-0.01775413379073143,-0.7697703838348389,0.6380530595779419,0.02793930579604743,0.13743013422553638,0.11609946327419984,0.1840735375881195,-0.2069320231676101,0.10745656490325928,0.3087839303165674,-0.1958067155443132,-9.689098291397093
20.1,1.0,40.0,22.70969581604004,24.984474182128906,-79.78279640717388,40.45897332119886,269.57083929157255,0.0017493404448032381,-0.010833118110895157,-0.7701226472854614,0.6378015875816345,0.009374724254259982,0.10802323735736966,0.10847520977879116,-0.0031468060333281755,-0.1847168356180191,-0.016648147255182266,0.06577253317460419,0.4734113733842969,-9.68553675234318
20.21,1.100000023841858,44.0,22.72096443176269,24.78567886352539,-79.78279591069777,40.458973300380826,269.5856626091003,-0.00034150894498452544,-0.0068048397079110146,-0.7701438665390015,0.6378339529037476,0.04479416898804215,0.12078664819084745,0.1337080213858657,0.17757783830165866,0.09849051386117937,-0.01506358291953802,0.0914408414438367,0.18880555188283324,-9.8787211561203
20.4,1.2000000476837158,50.0,22.62705993652344,25.71603775024414,-79.78279547960945,40.45897326106575,269.6203762350082,-0.00030818828963674605,-0.007302788086235523,-0.7697055339813232,0.638357400894165,0.04294448922971267,0.12039172611016112,0.16640934540042285,0.2752804160118103,0.18472294509410853,0.08230166882276535,-0.12029114051721992,0.21084277577698232,-9.851478978395463
20.5,1.2000000476837158,52.0,22.603271484375,26.08976936340332,-79.78279532791238,40.45897322723484,269.63776243305205,0.001144402427598834,-0.0097798565402627,-0.7693882584571838,0.6387055516242981,-0.004086089564719511,0.13575374632336806,0.18521635792776586,-0.21730473637580872,0.023285973817110055,-0.08398029208183289,0.08236692206002773,0.2539643284119666,-9.936677588224413
20.7,1.2000000476837158,57.0,22.541921615600586,26.86109161376953,-79.7827951729195,40.45897320102442,269.65699536180495,0.0009490873198956252,-0.011218858882784843,-0.7691693902015686,0.6389457583427429,0.01863583622700125,0.1289147872245287,0.1960814196976828,0.1609429270029068,0.05334288254380226,0.07675853371620177,0.2101374553889037,-0.21184140712022784,-9.968397563695909
20.8,1.2000000476837158,62.0,22.560701370239247,26.312419891357425,-79.78279501060567,40.458973269690006,269.68155402517317,0.004164231941103935,-0.012989240698516369,-0.7684837579727173,0.6397239565849304,-0.0012341049219131307,0.09723599113859084,0.20627997464190825,0.05200204253196716,-0.01296230312436819,-0.004705416038632393,0.22516538433730604,-0.15714607682079074,-9.954414532184602
21.0,1.2000000476837158,70.0,22.598262786865234,25.7876033782959,-79.78279484116689,40.458973230264355,269.70567322349547,0.004547093529254198,-0.01456076093018055,-0.7681352496147156,0.6401060223579407,-0.010407330644741076,0.0998334872835865,0.2366428112230947,-0.1431606411933899,0.05203086882829666,-0.010335610248148441,0.07321337547618896,0.08348475437611341,-10.024072412252426
21.11,1.2999999523162842,75.0,23.2568416595459,17.215591430664062,-79.78279465704611,40.458973214815614,269.75453848218916,0.005926276091486216,-0.0163920447230339,-0.7677698135375977,0.6404887437820435,-0.022101815760789987,0.07213898149668073,0.21701661031691666,-0.18922331929206848,-0.01117814052850008,-0.08641699701547623,-0.036524390461854635,0.16289829349145293,-9.381300859451292
21.3,1.2000000476837158,86.0,22.42422866821289,28.13337707519531,-79.78279437904206,40.45897323606736,269.7611634788513,0.005282129626721144,-0.00925192330032587,-0.7677890658378601,0.6406142115592957,-0.009812521710642341,0.07397344177660373,0.028649539908439457,-0.15832918882369995,-0.08872115612030029,-0.10807520151138306,0.15578968724235892,0.2393269203789533,-8.657504439353943
21.4,1.2000000476837158,90.0,22.24768829345703,31.250471115112305,-79.78279414097524,40.458973275600364,269.77659381008147,0.0034832279197871685,-0.0066034384071826935,-0.7679024338722229,0.640523374080658,0.024619996667846082,0.061823648208073935,0.10073913716078538,0.18017624318599695,-0.09690800309181212,0.08168455213308334,0.16406234622001648,-0.19376198077574366,-10.121755996942518
21.5,1.100000023841858,103.0,22.114971160888672,33.58034133911133,-79.78279407337034,40.458973261069495,269.7921331582069,0.0013943787198513744,-0.007194892037659884,-0.7680302262306213,0.6403716206550598,0.013933776268042378,0.06057243112080207,0.2104837051574139,0.011692825704813005,0.01156950369477272,-0.01935317553579808,0.1152578664198518,0.024284144416451454,-10.690277266502381
21.7,1.0,107.0,21.905879974365234,37.19839859008789,-79.78279398499434,40.458973299095256,269.84533906555174,0.0026966528967022896,-0.00846748799085617,-0.7685196399688721,0.6397645473480225,0.020405676198359386,0.05374961707405068,0.5011173688645256,0.1229880303144455,0.02842026762664318,0.03713994845747949,0.19211878526955845,-0.06832010108046234,-11.413469084501266
21.9,1.0,120.0,21.811975479125977,39.21019744873047,-79.78279392929923,40.458973286420004,269.9052347002029,0.0046895029954612255,-0.00742437643930316,-0.7688548564910889,0.6393631100654602,0.005543129390003512,0.06064028995899344,0.6944478519162582,0.01926238462328911,-0.016680041328072548,0.06605254858732224,0.1824225668236613,0.03729525905102492,-11.62955060005188
22.01,0.8999999761581421,130.0,21.74060821533203,40.466575622558594,-79.78279378140458,40.458973374353434,270.0711467323303,0.005774785298854114,-0.0041298139840364465,-0.7685973644256592,0.639693558216095,-0.013579727088718851,0.07422691945856852,1.1189894746063176,-0.11166691035032272,-0.1027398630976677,-0.04872428998351097,0.2868472419865429,-0.03677155409473926,-12.034877250194551
22.2,0.8999999761581421,146.0,21.64545249938965,41.25380325317383,-79.7827936234666,40.45897353549728,270.329491859436,0.0028846804052591324,-0.006543965078890325,-0.7684180736541748,0.6399083137512207,-0.01516793761415844,0.08010568865511987,1.619995037564328,-0.17380468547344208,-0.11086241155862807,0.0284290611743927,0.29907503072172403,-0.11773785330355167,-12.238207157850265
22.31,1.0,151.0,21.74060821533203,39.902000427246094,-79.78279357012421,40.458973533464544,270.5051947889328,0.0005665119970217347,-0.008375193923711777,-0.7684421539306641,0.6398642659187317,-0.0110967473078236,0.08755335201946049,1.883331436977933,-0.11634527891874312,-0.106576606631279,-0.035761658102273934,0.3073581964150071,0.036361184623092416,-12.374181818962095
22.51,1.100000023841858,159.0,21.713064193725586,40.3473014831543,-79.78279346155682,40.458973694861186,270.6808710155487,7.625557918800041e-05,-0.006494829896837473,-0.768692135810852,0.6395860910415649,-0.00013304011595979132,0.08800718888201084,2.103114007071325,0.04523931071162224,-0.14110976457595825,-0.05478296056389809,0.2518008038029075,0.10099023995921017,-12.288044146299365
22.6,1.2000000476837158,167.0,21.64795684814453,41.5321159362793,-79.78279334120614,40.45897371161642,271.1499998626709,0.0038994594942778353,-0.002147965133190155,-0.7683992981910706,0.6399552822113037,-0.015940866039902687,0.07671048225602102,2.5744286349486543,0.002545831725001335,-0.06259293854236603,0.0606745108962059,0.24831387156620624,0.09124559925869108,-12.198303419351578
22.8,1.2999999523162842,174.0,21.262325286865234,36.37141418457031,-79.78279309204753,40.45897387130186,271.66100955581663,0.006070055533200502,-0.0029756096191704273,-0.767053484916687,0.6415476799011229,-0.02449437418925785,0.0907512653793137,2.8900564757776257,0.10957560688257216,0.0026093912310898304,-0.042300995439291,0.22031943127512926,0.06611870204564184,-11.327610908746722
22.91,1.600000023841858,179.0,21.324928283691406,34.85262680053711,-79.78279279210162,40.4589737574307,271.924453502655,0.007261119782924651,-0.0035347880329936743,-0.766419529914856,0.6422896385192871,-0.015371677943898675,0.10915566530228436,2.9517444947381875,0.018590370193123814,0.04486775025725365,-0.08808015286922455,0.1241891776956618,0.15544236263260247,-10.87538257241249
23.1,1.7000000476837158,179.0,21.48644256591797,33.01576614379883,-79.78279261114801,40.458973745490816,272.5287931022644,0.0060944752767682076,-0.004411059431731701,-0.7666487097740173,0.6420227885246277,-0.030477094159695125,0.12195878611807595,3.0665746840832604,-0.07287102192640305,0.06531849503517151,0.0815783441066742,0.07500882242806256,-0.11903942523524165,-10.282011805772784
23.3,2.0999999046325684,181.0,21.594118118286133,30.598426818847656,-79.78279207968257,40.45897334323536,272.7451448497772,0.0041428147815167895,-0.006007690448313952,-0.7673639059066772,0.6411705017089844,0.011563561922597831,0.13934579883900386,3.0237910362641984,-0.12058143317699432,0.10805770009756087,0.09795420616865158,0.00443600385915488,-0.05962741558905691,-10.138914066553117
23.4,2.299999952316284,182.0,21.536523818969727,35.81478881835937,-79.78279164227044,40.458973189859634,273.33101678466795,0.0066705322824418545,-0.006673518568277359,-0.7686389684677124,0.6396133303642273,0.025011148595391712,0.15036084796272942,3.0063413168532773,0.08303907513618469,0.043663684278726585,0.008792912587523459,0.07103468921966853,-0.13814568660221996,-9.799141135811807
23.6,2.5999999046325684,180.0,22.18258285522461,30.31216239929199,-79.78279143134493,40.45897313467875,273.940699344635,0.013617996126413344,-0.003418580861762166,-0.7683592438697815,0.6398648619651794,-0.0244770101533128,0.1518572397734838,3.1268104472534786,-0.024508876726031303,-0.008621000684797764,0.043063994497060776,0.11641365995630625,-0.1349125235248357,-10.176026344299316
23.7,2.700000047683716,181.0,22.11246681213379,31.441314697265625,-79.7827912136311,40.458973163993285,274.24965072250365,0.013283025473356249,-0.0023003979586064816,-0.7679925560951233,0.6403169631958008,-0.040186549044808936,0.14160743639756024,3.1420055100757107,0.05722692981362343,-0.07297152280807495,0.11072944849729538,0.16625735443085432,-0.2569661610201001,-10.24890487074852
23.8,2.9000000953674316,183.0,22.129995346069336,30.956254959106445,-79.78279114422305,40.458973143961096,274.56533027267454,0.013149050995707512,-0.0011374916648492215,-0.7675403356552124,0.6408647894859314,-0.03354060079786442,0.12626767975738085,3.1612447863277997,0.078426294028759,-0.02196938544511795,0.10085894167423247,0.19835960989817972,-0.1950949814915657,-10.068536978960037
24.0,3.0,184.0,22.33407974243164,27.083742141723643,-79.78279117358989,40.45897322461701,275.2333381233215,0.01261545903980732,0.00044760853052139277,-0.766336977481842,0.6423148512840271,-0.060647904152930025,0.08882091083254888,3.1262873709359242,-0.03310412168502808,0.09273640811443327,0.01533286925405264,0.10398215970955788,-0.0834044647961855,-9.535607126355172
24.2,3.0,185.0,22.172565460205078,29.62830924987793,-79.78279161708198,40.45897347443985,275.8421461639404,0.011444639414548874,-0.0012777954107150435,-0.7658029794692993,0.6429722309112549,-0.06283419274423586,0.03436822742238868,3.0058754326834647,-0.1563197821378708,-0.08409136533737183,-0.09926966577768326,0.21217948582023385,-0.26649847470223903,-9.42599989950657
24.3,3.0,186.0,22.31529998779297,27.06783866882324,-79.78279163470913,40.45897347484619,276.1412541923523,0.011160526424646378,0.0011883191764354706,-0.7661927938461304,0.6425127387046814,-0.04666282430620956,0.038219054025342224,2.977666086427341,-0.03469919413328172,0.03560836240649223,0.035275690257549286,0.15398205706849696,0.0903082083631307,-9.452892998456957
24.4,3.0999999046325684,190.0,22.26146125793457,28.061809539794922,-79.78279162508039,40.45897322809152,276.583726650238,0.010596091859042645,0.003248133696615696,-0.7665001749992371,0.6421486139297485,-0.023817849282430255,0.013301737893159166,3.0054412146588296,0.18991202116012573,-0.06559929996728897,0.14955049753189087,0.18966567730531092,-0.3776132964715362,-9.459220855236056
24.61,3.0,193.0,22.14877700805664,28.864938735961914,-79.78279166368384,40.45897319310548,277.17693448638914,0.011181086301803587,0.0009723867988213897,-0.7673137187957764,0.6411737203598022,-0.02357778833571269,0.011790397012573159,2.9290228203960087,0.10408679395914078,0.0641973465681076,0.041689209640026086,0.1741076251678169,-0.360959914661944,-9.481850164532664
24.8,3.0,196.0,22.205120086669922,29.34999847412109,-79.7827915083326,40.4589730492209,277.5820648727417,0.011674211360514164,-0.0037163957022130494,-0.7677322030067444,0.6406538486480713,-0.029048717746526426,0.041944185929970026,2.964641734398799,-0.19952625036239624,0.01897858828306198,-0.03047236241400242,0.15067711028270425,0.03391594984335825,-9.44953552722931
24.9,2.9000000953674316,197.0,22.13249969482422,29.74758529663086,-79.78279145097343,40.45897283681942,278.24422002410887,0.014367030002176763,-0.007735343184322119,-0.7682870030403137,0.6398975253105164,0.02514351757782453,0.07741972716782923,2.952804693407791,0.028676604852080345,-0.0790606141090393,0.017258940264582634,0.22534321278333666,-0.31337041318416603,-9.622767477035524
25.0,2.9000000953674316,201.0,22.068645477294922,31.377700805664066,-79.78279147026602,40.458972790811906,278.5393116531372,0.015595046803355215,-0.008113225921988487,-0.7683167457580566,0.6398285031318665,0.013577758221591405,0.07954684172437204,2.945826186647337,-0.05842027813196182,-0.04668517038226128,-0.017274513840675354,0.21767098976299168,-0.11162318235263227,-9.692088557481766
25.21,2.799999952316284,203.0,22.079914093017575,31.210712432861328,-79.78279146598923,40.45897253429879,279.21744466400145,0.012132283300161362,-0.009396802634000778,-0.7680109739303589,0.6402528882026672,0.015252184750729878,0.06901721630062536,3.045296838509727,-0.01358549203723669,-0.028012709692120552,0.10553545504808426,0.2065214458666742,-0.2062974244169891,-10.090826565027236
25.3,2.799999952316284,205.0,22.258956909179688,27.656269073486328,-79.78279151392347,40.4589724999719,279.5231421051025,0.008810213766992092,-0.007946961559355259,-0.7678143978118896,0.6405625939369202,0.02054687682341716,0.055598448991852005,3.0657582229936486,-0.017864014953374863,-0.01733347959816456,0.1017325222492218,0.18215198691934348,-0.18979316487908365,-9.98801263332367
25.5,2.799999952316284,207.0,22.17506980895996,29.29433441162109,-79.7827914127888,40.458972411920904,280.22834516143797,0.007481604814529419,-0.005426810123026371,-0.7676853537559509,0.6407603621482849,0.013377679127085046,0.01198249673654202,3.070019652200757,0.045972809195518494,-0.11717264354228972,0.004321178421378136,0.14277725698426366,-0.2886019365862012,-9.43549519300461
25.7,2.799999952316284,206.0,22.06989860534668,30.75746154785156,-79.7827914668072,40.458972406501694,280.53339124298094,0.009126262739300728,-0.004184431862086058,-0.7678822875022888,0.6405122876167297,-0.012757114264536254,0.013474608658523462,3.0376368359293178,-0.07599103450775146,0.072180837392807,-0.016710955649614334,0.11165967263281346,0.022169014653190967,-9.42159986972809
25.81,2.799999952316284,205.0,22.097442626953125,30.3042106628418,-79.78279178036559,40.45897218359673,281.22302461242674,0.012719549238681791,-0.004761132877320051,-0.7679265737533569,0.6403939127922058,-0.02932052283442557,-0.0075960854008735096,3.07495888603459,0.039521027356386185,-0.008335579186677933,0.043420646339654916,0.19428145106881856,-0.2140589819289744,-9.762903601527217
26.0,2.9000000953674316,203.0,22.107460021972656,30.145174026489247,-79.78279198163355,40.45897218603904,281.8715136108398,0.012545580044388771,-0.007736549712717533,-0.7671228051185608,0.6413310170173645,-0.03301381234324144,0.009415844242300162,3.0654104801663453,-0.08154792338609695,0.055427584797143936,-0.026455450803041455,0.2280384868383408,-0.24393891172483564,-9.74656589627266
26.1,2.9000000953674316,203.0,21.994773864746094,31.94227600097656,-79.78279207224563,40.458972190948856,282.17620397186283,0.010775109753012655,-0.00818360224366188,-0.7665947079658508,0.6419888138771057,-0.017610852394565658,0.0007230126849055926,3.0367577288011227,-8.204515324905515e-05,-0.08990701287984848,-0.013555156998336315,0.26671330505982044,-0.20426074784249068,-9.576854555010797
26.3,2.9000000953674316,200.0,21.78693389892578,34.693588256835945,-79.78279225639453,40.45897234485866,282.5175316390991,0.008063981309533121,-0.008412742987275124,-0.7659481763839722,0.6427967548370361,-0.04121684158410141,-0.02768101947143857,3.0833379758253803,-0.060500822961330414,-0.09524010866880417,0.04186913743615151,0.19091391166672111,-0.1990530714020133,-9.884795243740085
26.41,2.9000000953674316,199.0,22.10996437072754,28.95240974426269,-79.78279224486424,40.458972171561314,283.1568071899414,0.006961099337786436,-0.006079172249883413,-0.7654767632484436,0.6433972120285034,0.018771418154633616,-0.022008307546708662,3.2047732142237715,0.08671355992555617,-0.018496589735150337,0.008055219426751137,0.1744306290149689,-0.1987514647096396,-10.367653634548187
26.6,3.0,200.0,22.230159759521484,27.696027755737305,-79.78279245115034,40.45897218822851,283.8007242736816,0.007918811403214931,-0.001368989935144782,-0.7668293118476868,0.6418007612228394,-0.02517504208000973,-0.03932690914919483,3.2176643871514043,-0.02622065320611,0.03825929760932922,-0.007572375237941742,0.12190609579905867,-0.07029947037342936,-10.056760686635972
26.71,3.0,200.0,22.053621292114254,30.272403717041016,-79.78279249152818,40.45897216248185,284.1047957000732,0.009344609454274178,-7.110728620318696e-05,-0.7675353288650513,0.6409386396408081,-0.016031932443801918,-0.03320861340751681,3.153639349335649,0.059149682521820075,-0.07299196720123291,0.053403116762638085,0.1896614015288651,-0.16494136545807125,-9.672868759632113
26.8,3.0,198.0,22.183834075927734,28.483253479003906,-79.78279257005128,40.45897216123279,284.4194052276611,0.009956036694347858,0.0001394235005136579,-0.7681363224983215,0.6402089595794678,-0.024686773810430187,-0.026050123772790267,3.13409965113681,0.07997748255729675,0.027955202385783195,0.06537199765443802,0.18963346280157567,-0.22500813078135254,-9.602764737010002
27.01,3.0,200.0,22.127492904663086,29.6760196685791,-79.78279260142159,40.45897208908736,285.034120803833,0.007639522198587656,-0.0018968742806464434,-0.768692672252655,0.6395699381828308,-0.02607974007827929,-0.006339450777925776,3.0610386111621284,-0.09998787194490433,0.01430150866508484,-0.10939521342515944,0.19107359547168012,-0.01300503901205957,-9.445816113352775
27.1,3.0,198.0,21.997278213500977,31.40155601501465,-79.78279265321801,40.45897208188606,285.3385012207031,0.0054741273634135714,-0.00377638335339725,-0.7688421010971069,0.6394041776657104,-0.008203983691902372,-0.0015639362844461606,3.0305115880059517,0.004428398329764605,-0.08372578769922256,0.10767746716737747,0.14194426629692314,-0.24186448406428104,-9.54131400883198
27.31,3.0,196.0,22.127492904663086,28.17313575744629,-79.78279274667051,40.45897210454843,285.95258164978026,0.004936184734106064,-0.004195289686322211,-0.7685367465019226,0.6397729516029358,0.003381700893432214,0.01125536454701825,3.0614485905989475,0.03187963366508484,0.05047941580414772,-0.0054440032690763465,0.17485835283994675,-0.14617403246462346,-9.840409029722217
27.5,2.9000000953674316,197.0,22.054872512817386,29.95433235168457,-79.78279281150243,40.45897205333802,286.5603544769287,0.007008391432464123,-0.002697662450373173,-0.7682071924209595,0.6401573419570923,-0.013177803127811144,0.00599508073749125,3.0346571946676386,0.00294928508810699,-0.06430616974830627,-0.049792204052209854,0.11993614143691958,-0.04645203987602145,-9.670088993310927
27.61,3.0,197.0,22.099946975708008,29.35795021057129,-79.78279284510039,40.45897205508306,286.86349893188475,0.007471022196114062,-0.0020534181967377663,-0.7679580450057983,0.6404533386230469,-0.01373875182072871,0.014745160659913091,3.024901304328134,0.10066596418619156,-0.010391388088464735,0.1107221469283104,0.2000237822905183,-0.2004639679938555,-9.685063712596891
27.7,2.9000000953674316,197.0,22.118728637695312,28.13337707519531,-79.7827928812394,40.458972032969264,287.1559870300293,0.007592380978167056,-0.0010644204448908567,-0.7678930759429932,0.6405323147773743,-0.02337071994991142,0.008644851150943857,3.0083764912300253,0.034260164946317666,0.08572810888290405,0.002626934088766575,0.12519206654280424,-0.11351565197110175,-9.66077203989029
27.9,2.9000000953674316,197.0,21.97348976135254,31.011919021606445,-79.78279286393058,40.458971993612316,287.7492163238525,0.006939380429685116,-0.0014552323846146464,-0.7680491209030151,0.6403517127037048,-0.026708018470482132,0.014704958571970609,2.9994455309465846,-0.03758485242724418,-0.06392571330070496,-0.0863221287727356,0.17996993394568564,-0.035382086634635934,-9.883145159482957
28.1,2.9000000953674316,199.0,22.0135555267334,30.75746154785156,-79.78279287370547,40.458971994002006,288.3503363189697,0.004800504539161921,-0.0017880349187180398,-0.7679009437561035,0.6405481696128845,-0.02555956880719596,0.03997786961083713,2.9957730071551567,-0.032289277762174606,0.018238812685012814,0.006283871829509735,0.1357819131296128,-0.0200259370263666,-9.712425173521043
28.21,2.9000000953674316,199.0,22.230159759521484,27.56879997253418,-79.78279293487974,40.4589720243756,288.634893661499,0.0055596078746020785,-0.00032492828904651105,-0.7677888274192809,0.6406788825988771,-0.030387312671904133,0.03095386575001024,2.9705779496176032,0.09968894720077516,0.09210173785686493,0.07784125953912735,0.16047409269958735,-0.11451137797906995,-9.675939132571221
28.41,2.9000000953674316,202.0,21.79820251464844,33.85070037841797,-79.78279281065214,40.45897197547652,289.2137796936035,0.009292786940932274,-0.0009927402716130018,-0.767638087272644,0.6408154964447021,-0.05024293996610679,0.06940834531041991,2.9379155733050877,-0.031049108132719994,0.09404953569173813,-0.06438186764717102,0.2025142576172948,-0.038115984289906917,-9.721558524370193
28.5,2.9000000953674316,204.0,21.9497013092041,31.648059844970703,-79.78279275503361,40.45897197617485,289.50894952392576,0.009901857934892178,-0.002100507030263543,-0.7676835656166077,0.6407491564750671,-0.05245573864350124,0.09531767759264577,2.965868258582905,-0.043598879128694534,0.0296773724257946,-0.006560256704688072,0.3174937965720892,-0.0947499269619584,-10.001239035129547
28.6,2.9000000953674316,207.0,22.02983283996582,30.47914886474609,-79.78279268421728,40.458971974296155,289.8070814666748,0.010180976241827013,-0.002960481680929661,-0.7679787874221802,0.6403875350952148,-0.0536869815044643,0.11353244734645235,2.9909549200661862,-0.08813485503196716,0.016519751399755478,-0.02214966155588627,0.2697865102440119,-0.08656049944460392,-10.01436018705368
28.8,2.9000000953674316,209.0,21.85329246520996,33.142993927001946,-79.78279242280175,40.4589720458195,290.38433862304686,0.012935875914990902,-0.0065940474160015574,-0.7686290144920349,0.6395300626754761,-0.0702146438625721,0.12704503990436208,3.02947288117625,-0.09742015600204468,0.02321366593241692,-0.10826285183429718,0.20782259752973914,-0.015700696790590885,-10.184420607089997
29.01,2.9000000953674316,210.0,21.942188262939453,31.12324333190918,-79.78279226105359,40.45897206587479,290.66232705688475,0.013846312649548055,-0.007579452358186245,-0.7684907317161559,0.6396661400794983,-0.0682708537876746,0.13862377334167034,3.0368887235984454,-0.08801495283842088,0.02082559466362,-0.03979688882827759,0.23689813317731026,-0.055655909059569235,-10.168766441345218
29.11,2.9000000953674316,210.0,21.998531341552734,30.328065872192386,-79.78279213238548,40.45897209353555,291.27427697753905,0.015440373681485653,-0.00545805785804987,-0.767612636089325,0.6407049298286438,-0.0704655172731061,0.13110924630512374,3.065522176979049,-0.00890644732862711,0.022968584671616558,-0.06917700171470642,0.19900413751602167,-0.032745590801350775,-9.874105364084244
29.3,3.0,212.0,21.882089614868164,31.93432426452637,-79.78279211770275,40.45897218393114,291.85704827880863,0.015254181809723375,-0.0028757688123732805,-0.76730877161026,0.6410899758338928,-0.07901410071582968,0.09832883059730756,3.0400623604060137,0.016544999554753304,-0.06616514176130295,-0.0799935832619667,0.25755250884220005,-0.05803730640560389,-9.812523658275603
29.41,3.0,211.0,22.06238555908203,28.65819358825684,-79.78279198910279,40.458972192776535,292.1457560119629,0.014600626192986962,-0.0014243819750845432,-0.7674815058708191,0.6409032344818115,-0.08313615440497894,0.09586217771592788,3.0253063329514758,0.046336542814970016,-0.06026395410299301,-0.045792736113071435,0.2811144124902785,-0.1017279758490622,-9.931851296424867
29.5,3.0,210.0,21.90713119506836,32.29215240478516,-79.78279195801639,40.458972208624104,292.44822717285155,0.014053178019821644,-0.0014741437043994665,-0.7676551342010498,0.6407074332237244,-0.07877354908729561,0.08222397127954602,3.012786721915942,0.043307293206453316,-0.04846908897161484,0.03752520307898522,0.15814794240519406,-0.34869585491716865,-9.75686167359352
29.7,3.0,209.0,21.89961814880371,32.13311767578125,-79.78279176717967,40.458972268113094,293.0426390228272,0.011386704631149769,-0.00542805390432477,-0.7679172158241272,0.640424907207489,-0.06135526626165335,0.094937988327084,3.03113202862458,0.06988392025232315,0.005328534636646509,0.04246029257774353,0.19966143764555447,-0.3142854293435812,-9.942752845287325
29.81,3.0999999046325684,206.0,21.8570499420166,33.84275054931641,-79.78279173159372,40.45897228510879,293.3467733917236,0.010331866331398487,-0.005950820632278918,-0.7678276896476746,0.6405456066131592,-0.04982153071925961,0.09530196804048964,3.045549353926279,0.07435455918312073,-0.025298230350017548,0.035396043211221695,0.2443043992482126,-0.20273886378854514,-9.949681795835497
30.0,3.0999999046325684,204.0,21.83451271057129,32.618175506591804,-79.78279164454584,40.45897223493221,293.94699502563475,0.01071951910853386,-0.003475818317383528,-0.7676023244857788,0.6408274173736572,-0.034621791616214176,0.08105151372825785,3.074038031202227,0.12079723924398422,-0.007830441929399967,0.03355903923511505,0.21563170021399852,-0.3061046995595097,-9.990330469608306
30.2,3.0999999046325684,199.0,21.894611358642575,31.84685516357422,-79.78279155760481,40.45897223472018,294.55480218505863,0.009922455996274948,-0.0054781842045485965,-0.7672299742698669,0.6412720084190369,-0.04723908498653925,0.07043014903600939,3.0721286969924995,0.014874318614602087,0.03070359490811825,0.008119664154946804,0.1588575020246208,-0.3355203238874674,-9.96529620051384
30.31,3.0999999046325684,199.0,21.898366928100586,31.457218170166016,-79.78279154341259,40.458972247852756,294.8616240081787,0.011441408656537531,-0.0062360651791095725,-0.767048716545105,0.6414565443992615,-0.049444696257233765,0.07454643685701888,3.064069574099234,-0.036524850875139236,0.06102946773171425,-0.02778601087629795,0.19175062995404005,-0.10549342741258444,-9.720082687139513
30.5,3.0999999046325684,198.0,21.928415298461914,31.14709854125977,-79.78279155024869,40.45897225842656,295.1628992614746,0.012867383658885956,-0.005696428008377552,-0.7668287754058838,0.6416975259780884,-0.05392911803118551,0.07098137274985379,3.052508441731712,-0.07952091097831726,0.016904622316360474,-0.04226278513669968,0.13689368809573352,-0.14122224479913711,-9.62547766149044
30.6,3.0999999046325684,199.0,21.9209041595459,31.07553291320801,-79.7827915733093,40.458972286216685,295.76746965026854,0.015652507543563843,-0.003601208794862032,-0.7666323781013489,0.6418854594230652,-0.060270009277670275,0.05610421632615456,2.9988072297985395,-0.0019183714175596835,-0.07956333458423615,-0.03215327113866806,0.2192396149970592,-0.08462236672639847,-9.629477156996726
30.8,3.0999999046325684,198.0,21.775665283203125,33.429256439208984,-79.78279169423689,40.45897230838254,296.3752901611328,0.015170756727457047,-0.0024474682286381717,-0.766937255859375,0.641538143157959,-0.057072147238130574,0.0406725922904241,3.0175362964553587,0.08107422292232512,-0.01095299795269966,0.16306045651435852,0.16122262766584755,-0.2783980701863766,-9.709269431233409
30.91,3.2000000476837163,198.0,21.821990966796875,32.109264373779304,-79.78279161709604,40.45897227379693,296.67530274963383,0.014145976863801481,-0.002097260905429721,-0.7671746611595154,0.6412789225578308,-0.03607033408553072,0.03499977560364388,3.0555595968600304,0.07374429702758789,0.009805493988096714,0.17276830971240995,0.20975643619894985,-0.3128129177168012,-9.968432646989825
31.0,3.2000000476837163,199.0,21.789438247680664,33.34178924560547,-79.78279166531556,40.45897226544321,296.98221040344237,0.012232723645865915,-0.0034655812196433553,-0.7675776481628418,0.640829861164093,-0.034643338029507864,0.0250170831579591,3.0801411444250686,0.02392615936696529,-0.0012944646878167991,0.13304075598716736,0.20759742490947247,-0.2784117015078664,-10.028691712617873
31.2,3.2000000476837163,199.0,21.888351440429688,30.852882385253906,-79.7827917696378,40.45897225272609,297.59623551940916,0.009963835589587687,-0.008291905745863914,-0.7677004337310791,0.640677809715271,-0.011355781306280665,0.024013082831783272,3.1319706579619533,0.06928394734859468,0.03247806429862976,0.0431278757750988,0.26075539430603384,-0.16781269552186132,-10.090093324184418
31.3,3.2000000476837163,198.0,21.91339111328125,30.60637855529785,-79.78279182889572,40.458972257099134,297.9099638519287,0.010394747368991377,-0.007178416009992361,-0.7674873471260071,0.6409396529197693,-0.010187554054939485,0.031428290239597916,3.1384536128318143,0.0512557253241539,-0.018040724098682404,-0.009774074889719486,0.2213909335434437,-0.10455075575038793,-9.881467008590699
31.5,3.2000000476837163,199.0,21.83451271057129,32.10131072998047,-79.7827919854374,40.458972289035785,298.51922059631346,0.014337138272821903,-0.0027495017275214195,-0.7669769525527954,0.6415086388587952,-0.03498255640139631,0.004298953412619221,3.0855469573314074,0.09317796677350998,0.015495485626161097,0.0726780816912651,0.1718042790144682,-0.16673788592219355,-9.62043794631958
31.7,3.0999999046325684,199.0,22.09619140625,28.006147384643555,-79.78279210994471,40.45897225146038,299.1320860443115,0.015727316960692406,-0.0003834183735307306,-0.7669989466667175,0.6414555907249451,-0.04319460224993984,0.002987215442419703,3.0454724203771475,0.05783949792385101,-0.03041814267635345,0.03839125856757164,0.2315445869788528,-0.22201501417905087,-9.709001628756523
31.81,3.0999999046325684,198.0,21.90713119506836,30.646137237548828,-79.78279218926328,40.45897223824675,299.43384767150883,0.01641010120511055,0.0001814180868677795,-0.7671457529067993,0.6412630081176758,-0.04975769361692761,-0.0015602832637090398,2.99577001007953,-0.08417246490716934,0.06695353984832764,-0.07136471569538116,0.10462740909308196,0.052973233927041286,-9.314294691681862
31.9,3.0999999046325684,199.0,21.733097076416016,34.20058059692383,-79.78279217432545,40.458972173113644,299.7418615875244,0.016772029921412468,0.000438461487647146,-0.7673117518424988,0.6410548090934753,-0.046597832415686616,-0.0016132397792273485,3.0100862805458815,0.02614607661962509,-0.06346078962087631,-0.032159268856048584,0.2322554622218013,-0.10245653891935944,-9.576920628547668
32.11,3.0999999046325684,199.0,21.90462684631348,30.55071449279785,-79.78279232480544,40.45897214207446,300.3473875579834,0.011980915442109108,-0.0015034929383546116,-0.7677074074745178,0.6406868100166321,-0.02558856286733597,-0.0029958633101697663,3.043664270924193,0.04176531732082367,-0.04450630024075508,0.034077543765306466,0.2186313766613603,-0.21796223592013125,-9.923075795173645
32.31,3.0999999046325684,201.0,21.942188262939453,29.62035751342773,-79.78279253401911,40.45897210179964,300.9505617675781,0.01196227502077818,0.0001677852706052363,-0.7679520845413208,0.6403956413269043,-0.005955935879075062,-0.010568457839844359,3.0576195551812764,0.024712638929486275,0.06938674300909042,0.09780517965555192,0.23570996068418024,-0.19758998841047287,-9.835930062532423
32.4,3.0999999046325684,199.0,21.90337562561035,30.35192108154297,-79.78279275294513,40.45897210769872,301.23977685546873,0.013439739122986794,0.0008149961940944195,-0.7680345177650452,0.6402669548988342,-0.010884407205368787,-0.040846915498440266,3.0417433891603323,0.00030909516499377787,0.08180510997772218,0.026012226939201355,0.14156040572561324,-0.2057570686005056,-9.737170005440714
32.6,3.0,199.0,21.81447982788086,31.822999954223643,-79.78279296115248,40.458972044746496,301.8464586791992,0.01337191741913557,0.0005269433604553342,-0.7677584886550903,0.6405996680259705,-0.019862484854052585,-0.022121109382456167,3.0378041164723717,-0.009317091666162014,-0.10016191750764848,-0.05931353569030761,0.2892970243468881,-0.17344723697751765,-9.891489136219024
32.7,3.0,199.0,22.02983283996582,28.006147384643555,-79.78279301352161,40.45897199179697,302.1377604064941,0.01204373873770237,3.5458906495478004e-05,-0.7674351334571838,0.6410135626792908,-0.005146323407281567,-0.02065148309244124,3.0408837441960586,0.03654642030596733,-0.060879435390234,0.021218396723270416,0.21974565496668225,-0.2788807030208409,-9.895979797840118
32.8,3.0,199.0,21.90963554382324,30.05770492553711,-79.78279310521728,40.45897195161554,302.44118905639647,0.011791926808655262,-0.0008214600384235383,-0.7670367956161499,0.6414943337440491,0.0007982495314566448,-0.015901710185136843,3.0262668495868565,-0.08167392015457152,0.0016973359743133187,-0.08521995693445206,0.16332333125174045,-0.05951012866571545,-9.659572191238405
33.01,3.0,199.0,21.922155380249023,29.23072052001953,-79.78279329050321,40.4589719237068,303.02035928344725,0.011860553175210951,-0.001292735687457025,-0.7665827870368958,0.642034649848938,0.012052527863953026,-0.02057639628120576,2.9574427323644934,0.08770231902599335,-0.05372072756290437,0.04427885636687279,0.22418051222339275,-0.23230384793132544,-9.617368158102037
33.1,2.9000000953674316,198.0,21.90337562561035,30.980112075805664,-79.78279337908509,40.4589718863901,303.31545663452147,0.012360069900751114,-0.0016115902690216901,-0.7667473554611206,0.6418280005455017,0.0044194833561303215,-0.015509862693220184,2.941537006828072,-0.0052821096032857895,0.046120330691337585,-0.008719513192772865,0.16576571322977546,-0.12497203764505685,-9.619006547927855
33.3,2.9000000953674316,198.0,21.99978256225586,28.46735000610352,-79.78279347963019,40.45897181317756,303.89721322631834,0.013242607936263084,-0.0034359293058514595,-0.7670668959617615,0.6414212584495544,0.0024609090325180124,0.003329554789539745,2.9215993501656605,-0.058734893798828125,-0.03075860999524593,-0.06621189415454865,0.2644784261472523,-0.05715125223621726,-9.622877989411355
33.5,2.9000000953674316,198.0,21.849536895751953,31.01987075805664,-79.78279353127128,40.45897178857262,304.1867601928712,0.012595094740390778,-0.0033118308056145906,-0.7670158743858337,0.641495943069458,0.002704428538485017,0.01765970142627045,2.914464248701408,-0.007138525135815144,-0.09450358152389526,0.05360349267721176,0.25333310320973396,-0.1863615801930428,-9.59997035264969
33.6,2.9000000953674316,198.0,21.74436378479004,32.586368560791016,-79.7827936590905,40.45897171517434,304.7678759155273,0.010858788155019285,-0.0011672502150759099,-0.7672067880630493,0.6413068771362305,0.004094722572385335,0.006913242778301565,2.9107371284232877,-0.003710512537509203,0.008496102876961231,0.006177176721394062,0.1383455060608685,-0.17855375658720732,-9.824063723087312
33.81,2.9000000953674316,198.0,21.74436378479004,32.308055877685554,-79.78279364953767,40.45897163576587,305.0644190368652,0.0102432519197464,-0.001224743202328682,-0.7673194408416748,0.6411821842193604,0.006226454048503524,0.006011238671652146,2.961142549097692,-0.043856479227542884,-0.03983968123793602,-0.09079185873270036,0.19978448498994114,-0.16936255484819412,-10.006888614892961
33.9,2.9000000953674316,198.0,22.054872512817386,27.28253555297852,-79.78279371450031,40.458971529701465,305.6463739929199,0.01028777752071619,-0.0011109741171821954,-0.7673358917236328,0.6411619782447815,0.01749494446271252,0.01615956362377101,2.99892419622746,0.07284490764141083,-0.03919485211372376,-0.04776797816157341,0.2196614916063845,-0.19172859326004985,-10.080782217979431
34.11,2.9000000953674316,198.0,21.85329246520996,31.210712432861328,-79.78279378936996,40.45897144465317,306.24303460693363,0.013021228834986687,-0.002517102053388953,-0.7670915722846985,0.6414005756378174,-0.004894561541997786,0.03353141749706895,2.968740948260957,-0.050549760460853584,0.11098796874284744,0.05451149493455887,0.2130999106541276,-0.1200599014107138,-9.70319358944893
34.2,2.799999952316284,198.0,21.83952140808105,31.01987075805664,-79.78279386662817,40.45897131502677,306.53004479980467,0.01326838042587042,-0.0034012258984148502,-0.7672990560531616,0.6411432027816772,0.03729073742032071,0.03429503391618917,2.9439749411492366,0.07329380512237549,0.0545065775513649,0.06370184570550919,0.15461839858442547,-0.23419584246352315,-9.718708591461182
34.3,2.799999952316284,199.0,21.793193817138672,31.62420463562012,-79.78279391339095,40.45897124915454,306.82450128173826,0.0131387272849679,-0.003612009808421135,-0.7674190402030945,0.6410011053085327,0.03879738350731771,0.036457623832129464,2.9463319328324444,0.08328185230493547,-0.015527579933404922,-0.05482511222362518,0.2856630163639784,-0.14204155848361552,-9.834537255764008
34.5,2.799999952316284,199.0,21.862056732177734,30.328065872192386,-79.78279402908397,40.45897085943745,307.3792078552246,0.012051924131810663,-0.002394415671005845,-0.7669855952262878,0.6415466666221619,0.06774629927765967,0.02729861985433145,2.9389947392824856,-0.002051430055871606,-0.04555113241076469,-0.05687782913446425,0.2799474909715355,-0.13875693077221513,-10.017504819631576
34.6,2.9000000953674316,199.0,21.793193817138672,31.86275863647461,-79.78279409232843,40.45897076238647,307.6733858642578,0.010705613531172277,-0.002801423659548164,-0.766798734664917,0.6417922377586365,0.07227561326778235,0.01928138735820362,2.941501144403329,0.007266814354807138,-0.05141623690724373,-0.02747820504009724,0.21905423998832704,-0.18855114318430424,-9.90421150803566
34.81,2.9000000953674316,198.0,21.749372482299805,32.08540725708008,-79.78279424714282,40.45897042237846,308.2242662963867,0.009576424024999142,-0.004240038339048624,-0.7668192386627197,0.641777753829956,0.1038895718917572,0.025581500410153057,2.927091604273715,0.037248071283102036,0.010732906870543957,0.02386181429028511,0.2396106930635869,-0.24947172990068794,-10.024623219966893
35.0,2.9000000953674316,198.0,21.616655349731445,34.53455352783203,-79.78279432242991,40.458970351606055,308.4965288696289,0.008159643039107323,-0.00534732872620225,-0.7669501900672913,0.6416325569152832,0.09332419292610128,0.02817506884298755,2.9306689446139145,0.057923015207052224,0.006403757724910975,0.033217549324035645,0.2303757651150227,-0.2225566673465073,-10.05471533060074
35.1,3.0,198.0,21.776918411254886,31.926372528076172,-79.78279442753285,40.45897016214633,309.08713174438475,0.009596629999578,-0.0040437448769807816,-0.7670881748199463,0.641457200050354,0.08982236786958643,0.03172213274548461,2.9822965613556907,0.08594601601362227,0.002054174430668354,0.011330040171742441,0.21085425093770027,-0.19714687909930945,-10.052102794647217
35.3,3.0,199.0,21.78693389892578,31.86275863647461,-79.78279445662281,40.458970226958996,309.36307550048826,0.010490492917597294,-0.0030469801276922226,-0.766948938369751,0.6416152119636536,0.05040257660528377,0.03612315010493559,2.9890900566095566,0.08898831158876419,0.034074705094099045,0.010464455932378769,0.23156839611008764,-0.18033109087496998,-10.007467489242554
35.4,3.0,200.0,21.91339111328125,28.47530174255371,-79.78279457204741,40.458970143072534,309.94983697509764,0.011929510161280632,-0.0024056287948042154,-0.7664850950241089,0.6421468257904053,0.02085678628009084,0.030576245908014926,3.006107718480584,0.00682403054088354,0.06812163442373276,0.003170092822983861,0.2014353732392192,-0.1821378987841308,-9.942156429290774
35.5,3.0,199.0,21.850788116455078,30.55866622924805,-79.78279461464163,40.458970092172365,310.24955010986326,0.012081240303814413,-0.003992501646280289,-0.7661631107330322,0.6425203084945679,0.010045033596302393,0.031176913290128318,2.9846687893903305,-0.0624346025288105,0.09021171182394028,0.002232957631349564,0.12910689619369806,-0.15241076404228807,-9.605704717040062
35.71,3.0,199.0,21.868318557739254,29.874814987182607,-79.78279471266815,40.458970058277046,310.84207940673826,0.012346611358225346,-0.0036816555075347424,-0.7660520672798157,0.6426494121551514,0.010035307366003249,0.03658317494700631,2.964849615325317,0.013823719695210457,-0.08390362560749054,-0.08956209570169449,0.2403660436905921,-0.1417153934855014,-9.708767155408859
35.8,3.0999999046325684,198.0,21.855796813964844,29.57264709472656,-79.78279475622509,40.45897002254839,311.1377031860352,0.011913340538740158,-0.002361046150326729,-0.7663072347640991,0.6423596143722534,0.004409543786939358,0.03410044730113724,2.9424861654461236,0.010819614864885807,-0.08463012427091599,0.04000789672136307,0.2291155805066228,-0.2934549428522587,-9.611056673526765
36.01,3.0999999046325684,198.0,21.82574844360352,30.10541534423828,-79.78279491161078,40.45897004136562,311.73653436279295,0.009499304927885529,-0.0011441527167335153,-0.7668662071228027,0.6417356729507446,-0.02201833488480564,0.017331073641113942,2.962662720211388,-0.03271298483014107,0.028695322573184967,0.07416224479675293,0.15447082947939636,-0.11026780690066516,-9.748099620938302
36.1,3.0999999046325684,197.0,21.937179565429688,28.578676223754893,-79.78279495224794,40.45897002586401,312.0325319824218,0.009447170421481129,-0.00024385290453210473,-0.7671034932136536,0.6414538621902466,-0.01779139408274508,0.014480974538746716,2.952908261404356,0.011723998002707958,0.04054519906640053,-0.0405452772974968,0.16460555255413056,-0.02606934503652156,-9.684553250670431
36.31,3.0999999046325684,196.0,21.914644241333008,28.7218074798584,-79.78279498808686,40.4589700566136,312.6250650939941,0.009280501864850521,0.000327969144564122,-0.7672070264816284,0.6413323283195496,-0.04017771911388253,0.019074919636773,2.917614803770169,-0.04962380602955818,0.005608072038739921,-0.06415220350027084,0.15507042489945888,-0.10959299253299833,-9.55387558221817
36.5,3.0999999046325684,194.0,21.751876831054688,31.53673553466797,-79.78279510993505,40.45897011482749,313.21633554077147,0.010924897156655787,-0.00041334787965752184,-0.7668455243110657,0.6417386531829834,-0.049428871340591714,0.014353281113059996,2.9069669405871825,0.09039753675460817,0.05904854089021683,-0.030430372804403305,0.08991958779282869,-0.02691459203604609,-9.499256156086922
36.6,3.0999999046325684,194.0,21.793193817138672,31.13119506835937,-79.78279512706744,40.4589701284488,313.5069811401367,0.01120107900351286,-0.0010092302691191435,-0.7666801214218141,0.641930878162384,-0.05266310706281237,0.02557166605970173,2.9015234540349604,0.10542957484722136,-0.030209222808480263,0.02031947299838066,0.2252967822365463,-0.2810369186103344,-9.759582383036614
36.7,3.0999999046325684,193.0,21.69428253173828,33.34178924560547,-79.78279516652755,40.458970261583524,313.80995584106444,0.010315995663404465,-0.000900502549484372,-0.7667029500007629,0.6419184803962708,-0.054173834160352825,0.04085008120353266,2.9428474669975118,0.05585908889770508,-0.03942956402897835,0.018371563404798508,0.20887357972562315,-0.3195752957090736,-9.79202332019806
36.9,3.0999999046325684,193.0,21.644201278686523,34.057449340820305,-79.78279516235264,40.45897034761249,314.4053194580078,0.009052226319909096,-0.0010431640548631547,-0.7664976119995117,0.642182469367981,-0.06383428890581569,0.043143922887928725,3.022828076477888,0.034351740032434464,-0.01731872744858265,-0.00019265376613475382,0.18867647459730508,-0.31443986892700204,-10.179664481878284
37.1,3.0999999046325684,192.0,21.791942596435547,30.741558074951172,-79.78279513702012,40.45897039425017,315.02224374389647,0.008753511123359203,5.452884215628728e-05,-0.7660262584686279,0.6427497267723083,-0.0604017125339828,0.05212004616514944,3.145089009723212,0.06064138188958167,-0.0413568913936615,0.08485948294401169,0.2036508832499385,-0.276808029524982,-10.382278690338136
37.22,3.0999999046325684,192.0,21.88083839416504,29.84300804138184,-79.78279513092963,40.45897038474078,315.3205263671875,0.007944481447339058,0.0018582887714728715,-0.766103208065033,0.6426659226417542,-0.0576239964329955,0.054898966590432766,3.1315965122699536,0.08263146877288817,-0.07666047662496568,0.08293649554252625,0.1589299161359668,-0.19749904593452813,-10.01402455687523
37.4,3.0999999046325684,191.0,21.801958084106445,31.210712432861328,-79.78279513422751,40.45897048531189,315.9296991882324,0.011130639351904392,0.0037778243422508244,-0.7663386464118958,0.6423293948173523,-0.0839103780903426,0.03953343257681941,3.0736560788733165,0.018778933212161064,0.10936752706766127,0.03584115579724312,0.08516351739875973,-0.185175070501864,-9.635671112537382
37.5,3.0999999046325684,191.0,21.617908477783203,34.017688751220696,-79.78279510255503,40.458970502557726,316.23636651611326,0.012040301226079464,0.001364773605018854,-0.7666183710098267,0.6419888138771057,-0.08897466653664705,0.052154708391323,3.063371714050052,-0.038050752133131034,0.034557756036520004,-0.018770715221762657,0.09686132912524044,-0.18014006964862347,-9.683653948903084
37.6,3.0999999046325684,191.0,21.710559844970703,32.38757705688477,-79.78279506803791,40.45897051805853,316.543678527832,0.011851404793560505,-0.001172865042462945,-0.7668467164039612,0.6417197585105896,-0.08540773807833693,0.07086242750413843,3.0836007396696776,-0.09032430499792099,0.019254472106695168,-0.06896019726991652,0.11562558319419625,-0.12738553072325887,-9.933027756214145
37.8,3.0999999046325684,192.0,21.72683525085449,32.16492462158203,-79.78279499190829,40.45897055618681,317.16189218139647,0.009010160341858864,-0.005551048554480076,-0.7669250369071959,0.6416495442390442,-0.06704879130379363,0.08996304266293123,3.119021526724425,-0.10612386465072632,-0.00775090977549553,-0.07679913192987442,0.13057925250381233,-0.06289315862115473,-9.933002028465273
38.0,3.0999999046325684,191.0,21.8282527923584,30.033849716186523,-79.7827949125377,40.45897063491842,317.4671022949218,0.00740533648058772,-0.0068931346759200105,-0.7666975855827332,0.6419287323951721,-0.06895693207679099,0.09349313775833004,3.1135373626174028,-0.07747819274663925,-0.0417373888194561,-0.09879933297634123,0.1912850819528103,-0.1038511729426682,-9.900433037281038
38.1,3.0999999046325684,191.0,21.848285675048828,29.83505630493164,-79.78279482172812,40.45897071136608,318.0877573547363,0.008332660421729088,-0.003482814645394683,-0.7666589021682739,0.6419911384582521,-0.064981960757406,0.08799775720847154,3.0784302820582865,0.056434467434883125,-0.10170821845531464,0.01926250196993351,0.1989170870929957,-0.22993307607248425,-9.618370955586434
38.3,3.2000000476837163,192.0,21.823244094848643,29.98613929748535,-79.78279475743308,40.45897079497047,318.700962310791,0.012127122841775416,0.0032983529381453987,-0.7665038108825684,0.642116904258728,-0.10525723651143096,0.07312223111742278,3.0678794504396625,0.025334769859910008,0.05955766141414642,0.06367966532707214,0.12374035821296275,-0.04407559439074248,-9.600187869071961
38.41,3.2000000476837163,192.0,21.98976707458496,27.012176513671875,-79.78279464352076,40.458970775098756,319.01770806884764,0.014000490307807922,0.004395192489027977,-0.7664246559143066,0.6421665549278259,-0.11817597588056285,0.07527314600119303,3.07912674344251,-0.0433451384305954,0.0676068514585495,0.046975620090961456,0.05305771705694497,-0.09272231357172132,-9.637939247488976
38.5,3.2000000476837163,192.0,21.78067398071289,31.12324333190918,-79.78279458770199,40.458970801734296,319.3232309875488,0.015866130590438843,0.00333961914293468,-0.7664130926132202,0.6421434283256531,-0.097433243952373,0.07008509057137831,3.0225448480357,0.21224908530712128,0.08510421216487885,0.03890350833535194,0.18549286667257547,-0.34103552732616665,-9.435414501428603
38.7,3.2000000476837163,192.0,21.72683525085449,31.457218170166016,-79.78279465453456,40.4589709775711,319.9408838806152,0.01800413429737091,-0.0007401463226415218,-0.7667214870452881,0.6417270302772522,-0.11558460245931755,0.0920118120498949,3.003322682851333,-0.12607623636722565,0.05421975627541542,-0.06951961666345596,0.15685207150876526,0.028918857676908376,-9.514313321113587
38.9,3.2000000476837163,192.0,21.759389877319336,31.16300201416016,-79.78279447781559,40.45897102245247,320.55479455566405,0.014807674102485182,-0.002237730193883181,-0.766731858253479,0.641792893409729,-0.08034863154484999,0.09599672828152156,3.0075511732117928,0.0025696179363876573,0.011158213019371031,0.02648550271987915,0.19588051836937667,-0.058237299453467124,-9.606288853883745
39.0,3.2000000476837163,192.0,21.805715560913086,30.192886352539066,-79.78279445117741,40.45897102819428,320.8549501953125,0.013691015541553496,-0.0028344192542135715,-0.7667243480682373,0.6418241858482361,-0.05380244231586467,0.08356597672078309,2.9867721092301824,0.15019464492797852,-0.021714620292186737,0.03703955560922624,0.19359279524534945,-0.2677119546756149,-9.636625378131868
39.1,3.2000000476837163,192.0,21.6817626953125,32.570465087890625,-79.78279443388688,40.458971030269424,321.1529772338867,0.013995436951518059,-0.003187883179634809,-0.7666071653366089,0.6419559717178345,-0.052088894073893784,0.07983313897555197,2.9692000718881344,0.02913994714617729,0.008305785246193409,-0.014771339483559132,0.1715192272514105,-0.2360856442898512,-9.615985291600227
39.3,3.2000000476837163,192.0,21.706802368164066,32.013843536376946,-79.78279441319025,40.45897108015723,321.75301385498045,0.01361216604709625,-0.002970560221001506,-0.7665900588035583,0.6419857144355774,-0.05734597227301257,0.08068417607745973,2.97576283340622,-0.09726475924253464,-0.0119944978505373,-0.07284482568502426,0.1591009289212525,-0.0003940383810549975,-9.680277181863783
39.4,3.2000000476837163,192.0,21.55154800415039,35.03551483154297,-79.78279446659448,40.45897104899245,322.05263162231444,0.013823720626533031,-0.0015980057651177047,-0.7666123509407043,0.641959547996521,-0.04973667834720391,0.0629757114886202,2.99436962629108,-0.04688674956560135,-0.05130308866500855,-0.10240384191274644,0.2007387505844236,0.020415151454508302,-9.825551254749296
39.6,3.2000000476837163,191.0,21.72433280944824,31.616252899169922,-79.78279448152806,40.45897103716046,322.65882897949217,0.013684554956853391,-0.0007089579594321549,-0.7667351365089417,0.6418174505233765,-0.05522224107971633,0.051752210221527935,3.0652585849860268,-0.0481472909450531,-0.016517965123057362,-0.11522329598665235,0.16193715741857884,-0.06770323353353888,-10.080296899080276
39.81,3.2000000476837163,191.0,21.642948150634766,32.74540328979492,-79.7827944596846,40.458971001671465,322.9518854675293,0.01318680215626955,-0.0002630574454087764,-0.7665172219276428,0.6420884132385254,-0.047952586966125615,0.056383946458953525,3.062437800787078,-0.06981920450925827,-0.030480509623885155,-0.15137030184268951,0.1926072470471263,-0.030003945585340263,-9.97601063847542
39.91,3.2000000476837163,191.0,21.74186134338379,30.88468933105469,-79.78279451685545,40.45897094438109,323.5497629699707,0.011180418543517593,-0.0004583238041959703,-0.7660960555076599,0.6426286697387695,-0.03981174958804128,0.04578632211139619,3.063042620562636,-0.08112230151891707,-0.03654251247644424,-0.1348719298839569,0.15906286720186472,-0.043128989562392236,-9.919189735651015
40.0,3.2000000476837163,191.0,21.77316093444824,30.582523345947266,-79.78279451858553,40.45897092625764,323.856666809082,0.008990153670310974,-0.0013175802305340767,-0.7661329507827759,0.6426180005073547,-0.033395652511465264,0.049803830553798584,3.0689460941710585,-0.06476955115795135,-0.07840510457754135,-0.10971945524215697,0.1758241849578917,-0.0846258202381432,-9.836814161539078
40.21,3.0999999046325684,191.0,21.799455642700195,30.717702865600586,-79.7827945296668,40.458970865040776,324.4569895324707,0.008897338062524796,-0.0027260181959718466,-0.7663307189941406,0.6423789858818054,-0.011587381633888123,0.05151599871850278,3.036659117157578,0.003806762164458633,0.057073362171649926,-0.003167299553751945,0.15663309328258038,-0.047798987114802,-9.732403939962387
40.3,3.0999999046325684,192.0,21.654216766357425,32.832874298095696,-79.78279452369432,40.458970850985494,324.7598917541504,0.011383580975234509,-0.002802396425977349,-0.7664068937301636,0.6422485113143921,-0.017696317991969256,0.05832908048757152,3.025375674564456,0.03955163061618805,0.08092004805803299,0.09900451451539992,0.128299404848367,-0.12703417701646685,-9.691136630773547
40.5,3.0999999046325684,192.0,21.77316093444824,30.67794418334961,-79.78279460855462,40.45897082095007,325.35929513549803,0.014689551666378975,-0.0011658850125968454,-0.7666075825691223,0.6419467926025391,-0.03681204671874374,0.06311937799207616,3.0324064647938367,-0.0006610671407543122,0.0027307146228849892,0.01939124800264836,0.1270260183233768,-0.13477515963837505,-9.765358262658117
40.7,3.0999999046325684,194.0,21.560312271118164,34.17672348022461,-79.7827946737316,40.45897081506385,325.95663858032225,0.014360263943672182,0.0012498999712988734,-0.7663943767547607,0.6422085762023926,-0.04383061753343593,0.04324993966483202,3.003454982832622,0.012136540375649927,-0.09042587876319884,-0.04338034614920616,0.22038555962964887,-0.22548106089234354,-9.746871120929717
40.8,3.0999999046325684,195.0,21.636688232421875,32.594322204589844,-79.78279468698005,40.45897079222115,326.2578890380858,0.013739358633756638,0.0012110773241147401,-0.7662869691848755,0.6423505544662476,-0.03991744779018737,0.0415211833096283,3.0210961918611945,0.038149308413267136,-0.0269867442548275,-0.0094686858355999,0.11423519753850996,-0.19965389108285309,-9.939872506856918
40.9,3.0999999046325684,196.0,21.77316093444824,30.63023376464844,-79.78279468614662,40.458970780426725,326.5546763000488,0.013811453245580195,0.0013999183429405089,-0.7661043405532837,0.6425663828849792,-0.03088482862436486,0.05036348358593485,3.032887848495977,0.08353263884782791,-0.002377743367105723,-0.001007797080092132,0.14669051519595086,-0.26374774346128105,-9.945856547355652
41.1,3.0999999046325684,197.0,21.842023849487305,29.44541931152344,-79.78279468891114,40.458970711183575,327.1594355163574,0.016405869275331497,0.0004040907660964877,-0.765594482421875,0.6431142091751099,-0.0386323017624693,0.05694005531349412,3.0057958403788567,-0.07216409593820572,0.09802312403917313,-0.022278590127825737,0.11830519767478108,-0.1093350663688034,-9.59364249587059
41.3,3.0999999046325684,197.0,21.811975479125977,30.10541534423828,-79.78279467079629,40.458970645752025,327.4592402038574,0.016240261495113373,-0.002027199137955904,-0.7654119729995728,0.6433325409889221,-0.01918441705443301,0.069217816509606,2.9847738274995272,0.023974249139428142,0.006362732965499164,0.01690632663667202,0.256012260876596,-0.2152198186889291,-9.616385241150857
41.41,3.0,196.0,21.664234161376953,33.620101928710945,-79.78279473304362,40.458970603577036,328.0583078918457,0.013650918379426004,-0.005007182247936726,-0.7650888562202454,0.6437605619430542,0.001139954815680539,0.08053721189109113,2.9901498297403446,0.00013477598258759826,-0.0413542240858078,0.057248476892709725,0.2811144490353763,-0.2796395802497864,-9.718628484606745
41.6,3.0,196.0,21.6279239654541,33.02371597290039,-79.78279475757925,40.45897051304941,328.6587374267578,0.011635646224021913,-0.0033092687372118235,-0.7653402090072632,0.6435123682022095,0.007528483676614475,0.06800328558346183,3.027131590655775,-0.028009030967950814,-0.012833197601139544,-0.017443323507905006,0.1583515899628401,-0.135069612627849,-10.025897912979127
41.71,3.0,196.0,21.71556663513184,30.04180145263672,-79.78279474437717,40.45897045537255,328.9606058654785,0.012468794360756874,-0.0012041270965710282,-0.7654296755790709,0.6433976888656616,-6.414750372320255e-05,0.06953121004963764,3.061124654607212,-0.017860142514109608,0.0203035082668066,0.0037223454564809795,0.17274283021688466,-0.2048582053743303,-10.115852648019793
41.8,3.0,196.0,21.82449531555176,29.779394149780273,-79.78279474782052,40.45897041456096,329.26751733398436,0.01204459834843874,-0.0010385573841631413,-0.7656698226928711,0.6431202292442322,-0.01832138151022979,0.06031571518623741,3.0688173085848875,-0.10215981304645537,0.025568230077624318,0.00632465910166502,0.13765109438449144,-0.18059059761464602,-9.895176390409473
42.0,3.0,196.0,21.71932411193848,30.94035148620605,-79.78279477352125,40.45897033312941,329.86418557739256,0.010275338776409626,-0.0055833952501416215,-0.7660157084465027,0.6427154541015625,0.003470407978287519,0.060959684700224635,3.0405514255578714,-0.02653029747307301,-0.056373145431280136,-0.06834881007671356,0.2994731347449124,0.0015399921499192715,-9.920983661413194
42.1,3.0999999046325684,196.0,21.868318557739254,28.371929168701172,-79.78279477932364,40.45897029511063,330.16878533935545,0.009339134208858013,-0.006456289440393448,-0.7661419510841371,0.642571210861206,0.017265558304617148,0.0669186653158787,3.041636273084777,0.03887978196144104,-0.06914811581373215,0.014112122356891632,0.21705597231164567,-0.1991440686956048,-9.80242259323597
42.31,3.0,196.0,21.733097076416016,31.011919021606445,-79.78279485790999,40.458970233436986,330.7634890136718,0.009122493676841259,-0.005358843132853508,-0.7665256261825562,0.6421265602111816,0.009585622157993577,0.04994163432924942,2.9799734060131637,-0.00016927422257140284,0.090997613966465,0.09858761727809906,0.11458258610218765,-0.15554247792810202,-9.521351029872896
42.5,3.0,196.0,21.75062561035156,30.55071449279785,-79.78279485717425,40.45897011454273,331.36313272094725,0.01392058003693819,-0.00554082076996565,-0.7664101123809814,0.6421768665313721,0.013494654376138476,0.05700889677754814,2.984867508508508,0.12301142513751985,0.0015962402103468776,-0.0008361481595784426,0.2303923565894365,-0.11640333596616985,-9.711063356995584
42.6,3.0,197.0,21.629175186157227,32.936248779296875,-79.78279487742185,40.45897008495364,331.6612360534668,0.014243216253817081,-0.0049253199249506,-0.7661156058311462,0.6425260901451111,-0.003930100567098286,0.06531147635220635,2.974281570551224,0.07781798392534256,-0.03184591233730316,0.057838473469018936,0.224386023581028,-0.3985053614526987,-9.749389516711236
42.8,3.0,196.0,21.75563240051269,30.31216239929199,-79.78279494074644,40.45897003880282,331.9564211425781,0.013209139928221704,-0.004506218247115612,-0.765886127948761,0.6428247094154358,0.0014126673896293403,0.0606590271995746,2.9932170518772665,0.020587705075740814,0.02431500516831875,-0.035900194197893136,0.1689117162488401,-0.2670450431853533,-9.86792953491211
42.91,3.0999999046325684,196.0,21.821990966796875,28.65024185180664,-79.78279508684912,40.45896997933208,332.54652429199217,0.01163641270250082,-0.003633859567344189,-0.7656322717666626,0.6431630849838257,0.005358365287305749,0.03430504906733417,2.9876020586313965,-0.06763011962175369,0.03545810654759407,-0.044005565345287316,0.1480739846918732,-0.0048315885546617214,-9.704458926916123
43.1,3.0999999046325684,196.0,21.669240951538086,31.60830116271973,-79.78279518513638,40.458969904979156,333.138649230957,0.011348780244588852,-0.0021726142149418592,-0.7652590870857239,0.6436187624931335,-0.006940617389332365,0.020726699618451874,2.9521816858247854,-0.06789913773536682,-0.07874317467212677,0.0204033087939024,0.24711546644568444,-0.06577134545892477,-9.784902580976489
43.2,3.0999999046325684,197.0,21.778169631958008,29.56469535827637,-79.78279529446903,40.458969851774384,333.42760491943363,0.008520005270838737,-0.00347551191225648,-0.765295684337616,0.6436132192611694,0.015207540482384868,0.013101844791488636,2.9588938212931084,0.011504831723868849,-0.04851692169904709,0.11395425349473952,0.180927817504853,-0.2277267206087709,-9.79803601205349
43.3,3.0999999046325684,196.0,21.672998428344727,32.14107131958008,-79.78279534756899,40.45896981381546,333.72298455810545,0.006556675303727388,-0.0044140424579381925,-0.7653349041938782,0.6435838341712952,0.02612981052536461,0.013697274339744488,2.9459073984515363,0.010687820613384249,0.017516709864139557,0.030029522255063057,0.22114812791347505,-0.180813997797668,-9.689471343755724
43.5,3.0999999046325684,196.0,21.61540412902832,32.522754669189446,-79.78279559026745,40.458969741939725,334.2991259155273,0.006882794201374054,-0.004354048520326614,-0.7654008865356445,0.6435022354125977,0.02334007659615741,-0.002482972370124065,2.9468244369008896,-0.026576442644000053,-0.004392761737108232,-0.028354769572615623,0.1058082817029208,-0.13368120040744544,-9.833515162467956
43.6,3.0,195.0,21.62166404724121,32.48299789428711,-79.78279564993719,40.45896972082002,334.5946581420898,0.00795767828822136,-0.003587219165638089,-0.7654711604118347,0.6434111595153809,0.010693353786098436,0.001877661001745487,2.9677627054555566,0.0010021041380241509,-0.010569700971245766,-0.08013009279966354,0.16204984422773125,-0.12573497137986125,-10.004132237434387
43.8,3.0,195.0,21.69303131103516,31.13119506835937,-79.78279589149935,40.458969661161426,335.17979455566405,0.0113208694383502,0.00028558738995343447,-0.7655021548271179,0.6433337926864624,0.007125489024950649,-0.0028493456059170124,2.9765973177599654,0.07289526611566544,-0.061629809439182275,-0.02691909484565258,0.228655989356339,-0.2066910151205957,-9.943765583038333
44.0,3.0999999046325684,195.0,21.63167953491211,32.23649215698242,-79.78279593796769,40.458969740743264,335.462623840332,0.013010825961828232,0.0017828812124207614,-0.7656986713409424,0.6430653929710388,-0.03713827571058166,0.008587464453640142,2.959755679957084,0.011252655647695065,-0.04051822051405907,0.015767693519592285,0.18404473062604668,-0.20102853493765,-9.852509257793427
44.1,3.0999999046325684,195.0,21.629175186157227,32.15697479248047,-79.78279600608626,40.458969714049495,336.05684686279295,0.012842089869081974,0.0013378849253058436,-0.7657707333564758,0.6429840922355652,-0.04420283552580162,0.020362645509722214,2.9891344976998417,-0.04348016902804375,0.03594042360782623,-0.02667933143675328,0.14441286938264966,-0.1378273239824921,-9.957862050533297
44.2,3.0999999046325684,194.0,21.602882385253906,32.08540725708008,-79.78279620749478,40.45896981328942,336.347015625,0.012488430365920069,5.552603397518397e-05,-0.7656775712966919,0.6431034803390503,-0.060181731523020025,0.02133164973519519,3.0034999707324803,-0.027597302570939064,0.08371873199939728,-0.02634500525891781,0.2139990114234388,-0.10174635803326963,-10.034340122938156
44.41,3.0999999046325684,194.0,21.70429992675781,31.767335891723643,-79.7827963234499,40.45896987184846,336.9425509033203,0.014101732522249222,-0.0025073166470974684,-0.7651973962783813,0.6436364650726318,-0.0678000472941065,0.02669558604059151,3.006945483311578,-0.06297648698091507,0.0606616772711277,0.08627486228942871,0.1105479068029672,-0.13350540935061872,-9.801217482089998
44.5,3.2000000476837163,193.0,21.637939453125,31.870710372924805,-79.78279635908504,40.45896988402505,337.2429659423828,0.013919026590883732,-0.0035212468355894093,-0.7646811604499817,0.644248902797699,-0.06516673289013343,0.03289572345423891,3.0027236858997504,-0.02855344116687775,0.019217487424612045,0.07343590259552002,0.1563313038647175,-0.1486892853677273,-9.729886128902436
44.7,3.2000000476837163,192.0,21.716819763183594,30.70975112915039,-79.78279644190111,40.45896997269171,337.8397677001953,0.0125185027718544,-7.664366421522573e-05,-0.7643153071403503,0.6447212100028992,-0.060856765773912615,0.026192482651460902,2.9886460752460327,0.1306455433368683,-0.0651923269033432,-0.03078528493642807,0.23192556962370875,-0.2436737222224474,-9.727942514419556
44.9,3.2000000476837163,193.0,21.662981033325195,31.79119300842285,-79.78279658229137,40.45897002237985,338.4368364868164,0.010990051552653313,0.0030880169942975053,-0.7644496560096741,0.6445823907852173,-0.07889783434225646,0.011909417321430804,2.9825935439035733,-0.01816211827099324,-0.019544951617717743,-0.03714223578572273,0.1633237515203655,-0.3773608063906431,-9.669419487118722
45.01,3.2000000476837163,191.0,21.769405364990234,29.365901947021484,-79.78279661144741,40.45897003912353,338.7352068481445,0.010596035979688171,0.003705141833052039,-0.7646134495735168,0.6443914771080017,-0.08264705609819364,0.003612096717062814,2.9851592209441637,-0.05721342191100121,0.06832058727741241,0.010852722451090813,0.0932868165615946,-0.21687041457742454,-9.787143234014513
45.1,3.2000000476837163,191.0,21.69428253173828,31.06758117675781,-79.78279663501958,40.458970053082474,339.03279901123045,0.011899230070412159,0.003176090307533741,-0.7650130391120911,0.6438970565795898,-0.0723948677312905,0.003875409066769107,2.961588072857884,-0.003284277627244592,0.02461404725909233,-0.09121154993772508,0.21780874650925405,-0.038987881802022464,-9.610757296085358
45.31,3.2000000476837163,191.0,21.711811065673828,30.11336708068848,-79.78279671383645,40.458970114159214,339.6212389526367,0.01711159758269787,0.0020549825858324766,-0.7656632065773009,0.6430108547210693,-0.08195959722830451,0.028903198052716725,2.9434284366111734,0.06598508358001709,0.08626551181077957,0.0544549897313118,0.1415661250334233,-0.2284814682416618,-9.7097658598423
45.5,3.2000000476837163,191.0,21.62541961669922,31.98998641967773,-79.78279676124993,40.45897016005375,339.91865563964836,0.01802367530763149,0.0016183315310627222,-0.7660205960273743,0.6425613760948181,-0.08739254669042422,0.04365286369822609,2.9532142956718164,0.01565591618418694,0.053246960043907166,0.023992935195565224,0.1957398928329349,-0.22345004880800845,-9.648402839899065
45.6,3.299999952316284,190.0,21.695533752441406,30.80517196655273,-79.78279679962431,40.45897016305401,340.50891900634764,0.015289890579879284,-0.0009075389243662355,-0.7663310170173645,0.6422634124755859,-0.07849206734921778,0.04160066670754962,2.9584156080176487,-0.13054634630680084,-0.017642619088292122,-0.07147202640771866,0.11866750577464698,-0.1593689506687224,-9.844608500003815
45.8,3.299999952316284,190.0,21.51899528503418,33.59624481201172,-79.78279682916543,40.45897020976898,340.8070452270508,0.014062954112887384,-0.0021377354860305786,-0.7659521102905273,0.6427402496337891,-0.07660276889961452,0.04180986395600247,2.9745668493909814,-0.102752223610878,-0.05482829362154007,-0.1379953920841217,0.2782629446871579,-0.04495227017439902,-9.787940209507944
45.9,3.299999952316284,189.0,21.637939453125,31.29022979736328,-79.78279691739456,40.45897025738116,341.39705682373045,0.011550326831638813,-1.746963243931532e-05,-0.7649762034416199,0.6439551115036011,-0.049133621168733405,0.028537740294213906,2.9917791997510097,0.12156908214092255,-0.0350581556558609,0.12029265612363815,0.16675060361623764,-0.35554648932069544,-9.925490695238114
46.0,3.299999952316284,189.0,21.69303131103516,30.685895919799805,-79.78279694693849,40.45897026928293,341.6973345336914,0.01187104545533657,0.002089106710627675,-0.7645365595817566,0.6444677114486694,-0.054364200666334524,0.018695300569899608,3.0047109474302784,0.1127038523554802,-0.04679498076438904,0.10139913856983183,0.12476390417665245,-0.4476016538590193,-9.937848200798037
46.2,3.299999952316284,188.0,21.640443801879886,31.830951690673828,-79.78279699146522,40.458970325647385,342.2936327514648,0.012387193739414215,0.0027160251047462225,-0.7639589309692383,0.6451402902603149,-0.07444605475768215,0.01968892505693844,3.0299623023944275,-0.02084441110491753,0.034565072506666183,0.01625900715589523,0.2182601150125265,-0.26490682605654003,-10.074554933309557
46.3,3.299999952316284,188.0,21.65797233581543,31.059629440307607,-79.78279700906003,40.45897033279607,342.5976030883789,0.011528014205396177,0.002521693939343095,-0.7637097239494324,0.6454520225524902,-0.07556628318801382,0.0226646886988754,3.046232688633656,-0.05256934463977814,0.033529024571180344,-0.002762329997494817,0.16694657670333982,-0.2485971691645682,-9.976501804590226
46.5,3.299999952316284,187.0,21.53902816772461,33.34973907470703,-79.78279708876161,40.4589704123119,343.1919634399414,0.011663711629807949,-0.0009011604706756774,-0.7632932066917419,0.6459463238716125,-0.06807808853961697,0.01720061187980473,3.0273766324358697,-0.016639575362205502,0.02926480956375599,-0.046320900321006775,0.1625169636681676,-0.2369109422340989,-9.871408628225328
