time,wind_speed,wind_angle,battery_voltage,battery_current,position_x,position_y,position_z,orientation_x,orientation_y,orientation_z,orientation_w,velocity_x,velocity_y,velocity_z,angular_x,angular_y,angular_z,linear_acceleration_x,linear_acceleration_y,linear_acceleration_z
0.0,0.0,307.0,23.0815544128418,0.07156596332788467,-79.78280340887919,40.45898038493189,268.98882931613923,0.012617750093340874,0.022273020818829536,-0.7862151265144348,0.6174225211143494,0.008662615445585987,-0.006403343419402045,0.018607114943598863,0.006205601617693901,-0.00023264395713340488,-0.0022034163121134047,-0.1917843610793352,-0.4719443069770932,-9.793656447529793
0.1,0.0,279.0,23.075294494628906,0.02385532110929489,-79.7828034182207,40.4589803781957,268.99066823863984,0.012617750093340874,0.022273020818829536,-0.7862151265144348,0.6174225211143494,0.008428012786223637,-0.006306168872725096,0.01870822970465364,0.0030982610769569874,0.001203934894874692,0.004796009976416825,-0.1892067256942392,-0.4688033289089799,-9.7963163459301
0.3,0.0,265.0,23.08531188964844,0.02385532110929489,-79.7828034126235,40.458980336851894,268.9924237742424,0.012605397962033749,0.022282160818576813,-0.7862203121185303,0.6174159049987793,-0.0004395073702043999,-0.0006835576947391176,0.015167548157115959,0.0001305364421568811,2.439434138068464e-05,-0.004932876210659742,-0.18836637116968635,-0.4742054252699018,-9.795481948256493
0.41,0.0,250.0,23.07654571533203,0.03180709481239319,-79.78280341635478,40.458980293137735,268.9931897535324,0.012572214007377623,0.02228332869708538,-0.7862213850021362,0.6174151301383972,-0.004619766961389379,0.0025761061240390905,0.012853012138441236,0.009076341986656187,0.0025964926462620497,0.0066172070801258105,-0.19100812492892147,-0.4627474407479168,-9.793312631249428
0.6,0.0,250.0,23.07654571533203,0.05566241592168808,-79.78280340672113,40.45898030021718,268.99580693387986,0.012579903937876223,0.022296231240034103,-0.7862135171890259,0.6174244880676271,-0.0060934452082435685,0.0029531103790851635,0.012873820718506452,-0.0015542899491265414,-0.002337229438126087,-0.003655412932857871,-0.18774738857522608,-0.4744742144644261,-9.794905412793161
0.7,0.0,246.0,23.072790145874023,0.05566241592168808,-79.78280345266157,40.45898024986533,268.998573841095,0.012570997700095177,0.022286683320999142,-0.7862076163291931,0.6174324750900269,-0.005899988327555168,-0.0016858462575600676,0.014731835348072575,0.001969900680705905,0.0031696772202849392,0.002960412530228496,-0.1931304632127285,-0.459321776367724,-9.79338747560978
0.91,0.0,244.0,23.08531188964844,0.06361418962478638,-79.78280350081927,40.458980172617615,269.00272125148774,0.012584101408720016,0.022298302501440048,-0.7861933708190918,0.617449939250946,0.00021913534624285751,-0.0037640104097900616,0.016995736721600926,-0.005331810098141432,-1.362206330668414e-05,-0.006228126585483551,-0.18842573868110776,-0.4725372511893511,-9.795972529649736
1.01,0.0,236.0,23.07779884338379,0.04771064221858978,-79.78280350520603,40.45898017219787,269.004415930748,0.012561761774122715,0.02228363044559956,-0.7861977219581604,0.6174454092979431,0.00048321240092741,-0.00394723712350265,0.016821417499748154,0.00681741489097476,0.0017244776245206597,-0.0009548977832309904,-0.19291643684729934,-0.4594711727276445,-9.792425608634948
1.2,0.0,232.0,23.07654571533203,0.06361418962478638,-79.78280351719486,40.458980099668615,269.0086900010109,0.012541033327579498,0.022276179865002632,-0.7861868143081665,0.6174598932266235,-0.00116657044867384,0.001341363975818253,0.01845285260596747,-0.004756968934088945,0.00018409997574053705,-0.0030825815629214053,-0.1895610486902297,-0.4731834416091442,-9.79600995182991
1.3,0.0,229.0,23.080303192138672,0.03180709481239319,-79.78280351529943,40.45898009938092,269.0105259432793,0.012533222325146198,0.02227209135890007,-0.7861937880516052,0.6174514293670654,-0.0012192269911740306,0.0012842636020047216,0.018321691833027454,0.0013481450732797384,0.0031224179547280073,-0.0039685023948550216,-0.1923350043408573,-0.4611180410161614,-9.793069971799849
1.5,0.0,229.0,23.080303192138672,0.05566241592168808,-79.78280357831343,40.45898004617802,269.01258129024507,0.012502187862992287,0.02224070765078068,-0.7861701846122742,0.6174831986427307,-0.004368892025619421,-0.004734690407268733,0.014490964709649362,-0.004587346222251654,-0.002419115975499153,0.003545073559507728,-0.19307356249541044,-0.4626411676034332,-9.794142351150514
1.61,0.0,231.0,23.08405876159668,0.04771064221858978,-79.78280358239101,40.45898005041608,269.0140568032265,0.012501687742769718,0.02223910763859749,-0.7861713767051697,0.6174818277359009,-0.005045439874167886,-0.004640548261517799,0.014525371546186373,-0.0037141193170100455,-0.0001667711912887171,-0.008538086898624897,-0.19227876143530007,-0.4675045892223716,-9.792697504162787
1.8,0.0,232.0,23.07654571533203,0.02385532110929489,-79.78280361210025,40.45897996780821,269.016411544323,0.012477722018957138,0.022218570113182068,-0.786159336566925,0.6174982786178589,-0.001314518963437564,-0.0027917301035879465,0.013536437130208192,-0.0001564486155984923,0.0007916999747976661,0.00514740590006113,-0.19372837755829092,-0.4587071243673563,-9.792871751189232
1.91,0.0,235.0,23.082807540893555,0.04771064221858978,-79.78280364542978,40.458979905774655,269.0188244595528,0.012453661300241949,0.022217899560928345,-0.786157488822937,0.6175012588500977,-0.004928948052681608,-0.002754304771300473,0.01576905689155884,-0.006146312225610018,-0.0011766740353778007,-0.006686982233077289,-0.19308076187968254,-0.4714622040465474,-9.793004482984543
2.1,0.0,229.0,23.08781433105469,0.05566241592168808,-79.78280364845429,40.45897991447863,269.02203768634797,0.012420917861163616,0.022196624428033832,-0.7861731648445129,0.6174826622009277,-0.005623060298261521,-0.002589074546507043,0.015840041871709766,0.0008421751554124057,0.00022205842833500355,0.00464165024459362,-0.19308872871100904,-0.4582335729897022,-9.792935485839843
2.2,0.0,220.0,23.08531188964844,0.05566241592168808,-79.78280370201016,40.45897980430714,269.0220931186676,0.012430812232196331,0.022187437862157815,-0.7861705422401428,0.6174861192703247,0.004182255827374585,-0.0033790086150786085,0.014091251601739841,-0.006137459073215723,-0.0031116721220314503,-0.004333808086812496,-0.19049351513385773,-0.4743862138688564,-9.794456346631053
2.41,0.0,216.0,23.08656311035156,0.07951773703098297,-79.7828037395569,40.458979739181814,269.0251302137375,0.01242133788764477,0.02219074219465256,-0.7861679196357727,0.6174896359443665,-0.0015101145791858745,-0.0031388504436523986,0.016274921870008164,0.004117948003113271,0.002337693003937602,0.005727138835936785,-0.1930813648737967,-0.460057611912489,-9.793102716207505
2.5,0.0,209.0,23.08781433105469,0.04771064221858978,-79.7828037421944,40.458979740972744,269.02677285814286,0.012421885505318642,0.022191394120454788,-0.7861697673797607,0.6174870729446411,-0.002868493119125025,-0.0027308538705918877,0.016371578692511036,-0.0042391642928123465,-0.00010320836736354976,-0.0009026644402183592,-0.1874106803163886,-0.4738775791972876,-9.79512819170952
2.7,0.0,205.0,23.082807540893555,0.04771064221858978,-79.78280379002905,40.458979653338034,269.02816540145875,0.0124314296990633,0.02219577878713608,-0.7861713171005249,0.6174848675727844,0.0016820755275956175,-0.004187718011086141,0.014496879945072863,0.0056563266552984715,0.0008872621692717074,0.005802130792289972,-0.1920427714660764,-0.462553495913744,-9.791825684309009
2.8,0.0,201.0,23.075294494628906,0.039758868515491486,-79.78280379472939,40.45897965275724,269.0296185626984,0.0124314296990633,0.02219577878713608,-0.7861713171005249,0.6174848675727844,0.000376088782407979,-0.003850426334047318,0.014613461877580548,-0.00398310087621212,-0.00011078536772402005,0.001643141731619835,-0.18794862415641547,-0.4737460533902049,-9.795543344020844
3.0,0.0,200.0,23.08781433105469,0.05566241592168808,-79.78280385180747,40.458979595376135,269.03235906505586,0.012429785914719105,0.022179244086146355,-0.7861831784248352,0.617470383644104,-0.002718983223285745,-0.007238705291210231,0.01630652482425907,0.003684283467009664,0.0027286014519631863,0.003006861079484225,-0.1918888435140252,-0.4668471429124475,-9.792523257136343
3.11,0.0,190.0,23.08781433105469,0.05566241592168808,-79.7828038587827,40.458979599166796,269.0340196504593,0.012428632006049156,0.022179307416081432,-0.7861745357513428,0.6174814105033875,-0.003736426192767304,-0.006982328392772362,0.016345533804013972,-0.002749160397797823,-0.0011317082680761814,0.0014826504047960045,-0.18825892858207227,-0.472734558172524,-9.795138131976126
3.3,0.0,179.0,23.07404327392578,0.03180709481239319,-79.78280389796558,40.45897949732248,269.0343250050545,0.012411770410835743,0.0221871230751276,-0.7861669659614563,0.6174910068511963,0.0012277025810259368,-0.003569677891838722,0.013844551221620885,0.005573139991611242,-0.001466649817302823,-0.0009927840437740088,-0.1926454914920032,-0.4711496338248253,-9.792826727628707
3.41,0.0,106.0,23.07404327392578,0.039758868515491486,-79.78280393112591,40.45897941300552,269.03322684907914,0.012410269118845465,0.022187883034348488,-0.7861568927764893,0.6175038814544678,0.0009775233851204868,-0.0019222750278182828,0.012147971700418777,-0.0007131058955565095,-0.0001236096868524328,0.00439122598618269,-0.18802885891869664,-0.4710086428374052,-9.79500481545925
3.6,0.0,64.0,23.07654571533203,0.05566241592168808,-79.78280393497738,40.45897941252645,269.0356436982155,0.012405368499457836,0.02218608185648918,-0.786159098148346,0.6175013184547424,-0.0006398901612210282,-0.0017572014933946974,0.011938228392033163,0.002803727984428405,0.003265900304540992,-0.005689879879355432,-0.19063425030559306,-0.4734549351409078,-9.793805551528932
3.71,0.0,37.0,23.08531188964844,0.04771064221858978,-79.78280398105555,40.45897930505143,269.03478515291215,0.012409948743879795,0.022200774401426315,-0.7861585021018982,0.617501437664032,0.005839397717319666,-0.002589161113795937,0.01165910717818854,0.002946807304397225,0.0017105828737840054,0.0037569694686681032,-0.1910542631149292,-0.4654908812418581,-9.794879685044288
3.91,0.0,34.0,23.08781433105469,0.04771064221858978,-79.78280403749397,40.458979215510375,269.0349621191025,0.012414181604981422,0.02218102477490902,-0.7861577272415161,0.6175029873847961,0.0036675236886699963,-0.005431926749600624,0.010895838538560043,-0.0011078523239120839,-0.001515184761956334,-0.0037376561667770147,-0.18772929875180125,-0.4743418115749956,-9.794679125547413
4.01,0.0,27.0,23.08531188964844,0.04771064221858978,-79.78280404448309,40.45897921301413,269.03604698324204,0.012414748780429363,0.02218168973922729,-0.7861598134040833,0.6175003051757812,0.0036225315031970587,-0.005397647527784886,0.010845770931608541,0.0057016522623598576,0.0005351023282855749,0.003949192352592945,-0.1924107440561056,-0.4606116355955601,-9.793558799028396
4.2,0.0,24.0,23.07779884338379,0.05566241592168808,-79.78280408529787,40.45897913863278,269.03587764644624,0.012414778582751751,0.022182414308190342,-0.7861624360084534,0.6174969673156738,-0.002625926105140067,-0.0040805742191516135,0.010264384833939526,-0.004723458085209131,0.0014152374351397155,-0.006730285007506609,-0.18795708434656264,-0.4734163069725037,-9.796344412565233
4.3,0.0,15.0,23.07028579711914,0.02385532110929489,-79.78280408923506,40.458979141266155,269.0369190587997,0.012414778582751751,0.022182414308190342,-0.7861624360084534,0.6174969673156738,-0.0026479483910094178,-0.0042068885925524695,0.010170063979629123,0.009034730494022371,0.0031000184826552872,0.002969874767586589,-0.19324804706498985,-0.4586669613048434,-9.793924250006675
4.51,0.0,11.0,23.07779884338379,0.11927660554647446,-79.78280415062278,40.45897904849026,269.0366268172264,0.012423827312886715,0.022184943780303,-0.786164402961731,0.6174941658973694,-0.00156355722391012,-0.006194426582256224,0.010011732732648613,-0.007844066247344017,-0.0013424984645098448,-0.0023738709278404713,-0.18882729621604089,-0.4704192069545389,-9.796535031795502
4.6,0.0,3.0,23.08405876159668,0.06361418962478638,-79.78280415736594,40.458979050648345,269.03763669872285,0.012423827312886715,0.022184943780303,-0.786164402961731,0.6174941658973694,-0.0017993378156712075,-0.006393328007950831,0.00986639216818038,0.00508825248107314,0.006304761860519648,-0.000401929544750601,-0.1928021237812937,-0.4603675874322653,-9.793290996551514
4.8,0.0,358.0,23.0715389251709,0.08746951073408127,-79.78280421183851,40.458978934152924,269.03545743370057,0.012434598058462143,0.022193459793925285,-0.7861667275428772,0.6174907088279724,0.0037586537074453022,-0.0055516963777746935,0.0074709004632562016,-0.007392941508442163,-0.0026196506805717945,0.001000288757495582,-0.19094121085479854,-0.4652015902474523,-9.794539377093317
4.9,0.0,349.0,23.072790145874023,0.10337305814027786,-79.78280425045145,40.458978840627154,269.03219705963136,0.01243732124567032,0.02219750918447972,-0.7861662507057191,0.6174910664558411,0.0030367455854605732,-0.003723592034548839,0.0046294166918843605,-0.0012423850130289793,-0.0007813266711309552,-0.007491258904337883,-0.19245330082252626,-0.464913687966764,-9.792778780460358
5.11,0.0,344.0,23.0815544128418,0.18289080262184146,-79.78280426032526,40.458978837095756,269.033105553627,0.01243794709444046,0.022198190912604332,-0.7861688733100891,0.6174877285957336,0.0019265434398571609,-0.0036015380482469633,0.004679258077794469,-0.003363543655723333,-0.0013960555661469698,0.004505685530602932,-0.19326626479625705,-0.4609508837386966,-9.79356581568718
5.2,0.0,338.0,23.07404327392578,0.2624085247516632,-79.78280429588223,40.458978740879715,269.03153276586534,0.012442135252058506,0.022203300148248672,-0.7861708402633667,0.617484986782074,0.0014456486936925775,-0.0022192924331570305,0.006413577474791685,-0.003049102146178484,-0.001177917467430234,-0.005106878932565451,-0.19237290160730489,-0.4689145356416702,-9.792245514392851
5.4,0.0,335.0,23.069034576416016,0.12722837924957275,-79.7828043625447,40.458978642477156,269.03048205518724,0.012450015172362328,0.02220234088599682,-0.7861704826354979,0.6174852848052979,0.0021680458565066407,-0.005908485153354848,0.007876165663851041,-0.001435991725884378,-0.001814087852835655,0.005203355103731154,-0.1923162567056716,-0.4591563732549549,-9.792931392788887
5.5,0.0,327.0,23.079050064086914,0.11927660554647446,-79.78280436976064,40.45897864176753,269.03126484298707,0.012450626119971277,0.022202979773283005,-0.7861731648445129,0.6174818277359009,0.001057675204959565,-0.0058256487727274256,0.007807393861495178,-0.0047256918624043465,-0.003002832643687725,-0.005438927095383407,-0.19285025367513295,-0.4711237598955632,-9.792845438718796
5.7,0.0,324.0,23.06527900695801,0.12722837924957275,-79.7828043980372,40.45897853354373,269.0301107182503,0.012453170493245123,0.02221224270761013,-0.7861754894256592,0.6174784898757935,0.002866586735382733,-0.0013171156255192347,0.008345640416049852,0.0006419072742573918,0.00012841523857787251,0.004630072973668575,-0.18934778977185487,-0.4695390913635493,-9.794784960150722
5.81,0.0,315.0,23.062774658203125,0.08746951073408127,-79.7828044000341,40.45897853146483,269.0309296860695,0.012453170493245123,0.02221224270761013,-0.7861754894256592,0.6174784898757935,0.0015761048662350414,-0.001037199248009647,0.008348126927922516,-0.0043659252114593965,-0.0004516338522080332,-0.001813346170820296,-0.18970951315015555,-0.4728518313914538,-9.794869160056113
6.0,0.0,313.0,23.07028579711914,0.12722837924957275,-79.7828044570875,40.45897843680676,269.02954387807847,0.012462683953344822,0.022212501615285873,-0.7861772775650024,0.6174759864807129,0.0023129221000145555,-0.004558154206493809,0.008595681896567899,0.004973263945430517,-0.0021112915128469467,0.006708795204758644,-0.19318873437121512,-0.4615263959392906,-9.792370644807816
6.11,0.0,313.0,23.07779884338379,0.11927660554647446,-79.78280446257772,40.458978435957604,269.0304073109627,0.012462683953344822,0.022212501615285873,-0.7861772775650024,0.6174759864807129,0.001006429459576174,-0.004283647194434812,0.008721503824142619,-0.004093799274414778,0.0003658938803710043,-0.0010203133570030332,-0.18811748078092927,-0.4740610355883837,-9.794741106033326
6.3,0.0,315.0,23.07654571533203,0.10337305814027786,-79.78280449498727,40.45897835267204,269.0289800181389,0.012462641112506391,0.022213652729988098,-0.7861794233322144,0.6174731850624084,-0.002518532816701925,-0.0036518317489106994,0.008556504280730228,0.00534567190334201,0.0013612461043521762,0.0051482170820236215,-0.1932887400314212,-0.4627534706890583,-9.792275919914246
6.4,0.0,319.0,23.072790145874023,0.11927660554647446,-79.78280452386828,40.45897824615246,269.0262761130333,0.012466538697481155,0.02221859060227871,-0.7861793637275696,0.6174730658531189,-0.0013305470388162073,-0.0018725721669102843,0.008963725398813658,-0.0018267810810357328,-0.0033982323948293924,0.00033343140967190266,-0.1881579179316759,-0.4738076684251428,-9.795753259062767
6.61,0.0,321.0,23.080303192138672,0.14313192665576935,-79.78280452698486,40.45897824904403,269.02804929161067,0.01246708445250988,0.022219270467758186,-0.7861811518669128,0.6174707412719727,-0.0017723183849974336,-0.0018112295936391853,0.008572362040605389,0.005211282055824995,-0.0007658068789169192,0.0011828403221443295,-0.1923583383858204,-0.4653406808897853,-9.792091732621193
6.7,0.0,325.0,23.069034576416016,0.11927660554647446,-79.78280455444329,40.458978141529286,269.02532369041444,0.012474669143557549,0.022226164117455482,-0.7861838340759277,0.6174668669700623,0.0008609174733029782,-0.00046788702782603114,0.008935642958579034,-0.001915720175020397,-6.789766484871508e-05,0.000602751795668155,-0.1884598352573812,-0.4734923207759858,-9.79528314292431
6.9,0.0,327.0,23.0715389251709,0.13518016040325165,-79.78280460454448,40.45897806580197,269.0247412338257,0.012477262876927851,0.02221827022731304,-0.7861838936805725,0.6174672245979309,-0.005550430870345564,-0.005915925404332969,0.012318798616317364,0.005362311843782663,0.005601981654763222,0.002054964890703559,-0.19241666436195373,-0.4668901564925909,-9.792717384696008
7.0,0.0,331.0,23.079050064086914,0.16698725521564484,-79.78280460925747,40.45897807185725,269.02602553510667,0.01247788593173027,0.022218883037567142,-0.7861868739128113,0.6174633502960205,-0.006495174456466839,-0.005626018298343635,0.012503406887959246,-0.0028555961325764656,-0.0004771859967149794,0.0036728475242853173,-0.1886479511484504,-0.4724756726995111,-9.795152165293693
7.2,0.0,335.0,23.079050064086914,0.15903547406196594,-79.78280466235121,40.45897798483848,269.02356892967225,0.012484034523367882,0.02221912331879139,-0.786188542842865,0.6174610257148743,-0.0062550283822286785,-0.008539571605483588,0.010608030857226306,0.00783802941441536,0.002004776382818818,0.002354999771341681,-0.1918643400259316,-0.4684839612990618,-9.793159434199334
7.3,0.0,335.0,23.0715389251709,0.14313192665576935,-79.78280466991164,40.45897799218845,269.02468311929704,0.012484034523367882,0.02221912331879139,-0.786188542842865,0.6174610257148743,-0.00711146077991638,-0.008397153752174492,0.010710366754918672,-0.0022892928682267666,-0.0005994492094032465,0.0030539731960743666,-0.1893139124661684,-0.4719420777261257,-9.795154504179957
7.5,0.0,334.0,23.080303192138672,0.14313192665576935,-79.78280469831593,40.45897786124912,269.0218222155571,0.01249294076114893,0.022232934832572937,-0.7861896753311157,0.6174588799476624,5.231294056059856e-05,-0.004347200245508536,0.0099745885117916,0.005515330005437136,0.003949470818042754,0.004031381569802761,-0.1922010848298669,-0.4714161572232843,-9.792748959660528
7.6,0.0,340.0,23.072790145874023,0.10337305814027786,-79.78280470285176,40.45897786211869,269.0228352560997,0.01249294076114893,0.022232934832572937,-0.7861896753311157,0.6174588799476624,-0.0005195617395956298,-0.004132680394584699,0.010058598293447513,0.00012324695126153531,0.0005141457077115773,0.006065565161406994,-0.18751887207850806,-0.4701606138423086,-9.79550065934658
7.8,0.0,339.0,23.082807540893555,0.05566241592168808,-79.78280472565956,40.45897777250463,269.0221217885017,0.01249550748616457,0.02223527617752552,-0.7861921191215515,0.6174556016921997,-0.003313137989711095,-0.003508946978122341,0.012365807692117273,0.005954134277999401,0.0017593519296497109,0.0012124547502025962,-0.1911702755279839,-0.4729172105714679,-9.793494479656221
7.91,0.0,335.0,23.07779884338379,0.05566241592168808,-79.78280478623002,40.45897765184764,269.01829344177247,0.012510955333709715,0.02223816514015197,-0.7861912846565247,0.6174562573432922,0.0044871339201144,-0.008973444676555526,0.01130182472177453,-0.0009262197418138383,-0.0005216187564656136,0.006291922181844711,-0.1889029628410936,-0.469311488494277,-9.795438094139099
8.1,0.0,333.0,23.082807540893555,0.05566241592168808,-79.78280480863006,40.45897764788092,269.0205482854843,0.01251154951751232,0.02223884128034115,-0.7861936092376709,0.6174532175064087,0.003525901568559495,-0.008979129552466285,0.011317275304867331,0.002829548204317689,-0.00360430870205164,-0.000872007105499506,-0.19146925097331405,-0.4730682880058885,-9.794078031778335
8.2,0.0,322.0,23.079050064086914,0.04771064221858978,-79.7828048254575,40.45897754154867,269.01660508060456,0.012511758133769035,0.02224474772810936,-0.7861965298652649,0.6174492835998535,0.002977771460044979,-0.005381231731223461,0.01064535946872882,0.0019084272207692266,-8.786800754023716e-05,0.0007901047356426716,-0.1883605604991317,-0.4697217437624932,-9.796523337364198
8.4,0.0,316.0,23.07028579711914,0.04771064221858978,-79.78280485107514,40.45897744616651,269.01390552663804,0.012511372566223145,0.0222457442432642,-0.7861964702606201,0.6174495220184326,-0.001795186310667334,-0.00403270466564647,0.009696397661351759,0.0015170957194641232,-0.0023494316264986988,-0.003831319278106093,-0.1902132690511644,-0.4728042496740818,-9.794528267383576
8.5,0.0,301.0,23.079050064086914,0.05566241592168808,-79.78280485487012,40.458977448303386,269.0149026527405,0.01251196675002575,0.022246396169066436,-0.7861989140510559,0.6174463033676147,-0.0018730724387902124,-0.003930344953215718,0.00978143945598613,0.003566092811524868,0.0013131524901837108,0.0049626422114670285,-0.19051816480234265,-0.4672946010902525,-9.795668474435807
8.7,0.0,299.0,23.08405876159668,0.05566241592168808,-79.78280489313215,40.45897734577305,269.01262891435624,0.012519348412752151,0.02224956639111042,-0.7862011790275574,0.6174431443214417,-0.0006772522493850564,-0.005516843545888586,0.009385781335815344,-0.0008761723292991519,0.0009988059755414724,-0.0007544000982306898,-0.1887842643633485,-0.4739425563812256,-9.794515988230703
8.81,0.0,291.0,23.0815544128418,0.06361418962478638,-79.78280489901177,40.45897734719872,269.0135871782303,0.012519348412752151,0.02224956639111042,-0.7862011790275574,0.6174431443214417,-0.0005530166779615851,-0.005478888260197296,0.009413558376927488,0.0046884980984032145,0.0009450631914660336,0.005225989036262035,-0.19178035939112306,-0.4635636389628053,-9.79498318076134
9.0,0.0,289.0,23.07779884338379,0.06361418962478638,-79.78280494020994,40.45897724217996,269.0115484013557,0.012525461614131927,0.02225198410451412,-0.7862032651901245,0.6174402236938477,0.0003670835629579728,-0.0069539273423833295,0.009444307911778114,-1.872181564976927e-05,-0.0006047948263585567,-0.008664241991937159,-0.18894489834085107,-0.4739028684049845,-9.795844475626943
9.1,0.0,286.0,23.075294494628906,0.06361418962478638,-79.78280494809583,40.45897724291693,269.012509824276,0.012525461614131927,0.02225198410451412,-0.7862032651901245,0.6174402236938477,0.00055352651439422,-0.006952395626604737,0.009451586937765679,0.007710375823080541,-0.0012955149868503213,0.0029116750229150057,-0.19099745376035573,-0.4625431536510587,-9.795276710987087
9.3,0.0,284.0,23.082807540893555,0.04771064221858978,-79.7828049556951,40.45897716003449,269.0109126582146,0.012525072321295738,0.022254530340433117,-0.786205530166626,0.6174372434616089,-0.004217533887249635,-0.004735190026139795,0.009324907398719816,0.00012822616554331034,0.0007689750636927782,-0.007430936209857464,-0.1884011438302696,-0.4757724059745669,-9.795781910419462
9.4,0.0,271.0,23.08531188964844,0.04771064221858978,-79.78280496258003,40.458977038727475,269.0087321414948,0.012532643042504787,0.02226553484797477,-0.7862054705619812,0.6174368262290955,0.0026743214988669928,-0.0018175244191099512,0.009392905617559786,0.005789647810161114,0.0019937718752771607,0.0055555058643221855,-0.19230564035475256,-0.4602362443506718,-9.7928302359581
9.6,0.0,264.0,23.07654571533203,0.06361418962478638,-79.78280496713396,40.45897703531845,269.0106003894806,0.012533302418887615,0.02226623706519604,-0.7862083911895752,0.6174330711364746,0.001113454377683637,-0.0015119046014110571,0.009344051989221513,-0.0009010868961922824,-0.0020599369890987873,-0.006173943635076284,-0.18825834386050705,-0.4736655445396901,-9.794701344966887
9.7,0.0,255.0,23.08405876159668,0.04771064221858978,-79.7828049926605,40.458976958852546,269.0087951436043,0.012534687295556068,0.022261762991547585,-0.7862112522125244,0.6174295544624329,-0.002668680745283142,-0.005041630295279965,0.008818717479095746,0.005450864788144828,0.003474938217550516,-0.0006069884402677418,-0.19252050725743167,-0.4593814910575748,-9.791974203586578
9.9,0.0,251.0,23.08405876159668,0.05566241592168808,-79.78280500151695,40.45897696606887,269.01059711122514,0.01253452245146036,0.02226154319941997,-0.7862112522125244,0.6174295544624329,-0.004176549088566853,-0.0046157825655976405,0.008761780883338049,-0.001219053054228425,-0.004732145927846432,-0.003334171371534467,-0.18795315574854607,-0.4717845318093896,-9.79456627428532
10.0,0.0,239.0,23.07654571533203,0.04771064221858978,-79.78280500164713,40.458976850875636,269.0090005412102,0.012540082447230816,0.022270875051617626,-0.7862140536308289,0.6174255609512329,0.0017131832519951661,-0.0020702532197084994,0.009190405228117373,0.005318596959114075,0.003351307939738035,-0.0022828246001154184,-0.19322997551411392,-0.4582700815424323,-9.793630135059358
10.21,0.0,231.0,23.06653022766113,0.05566241592168808,-79.78280499975537,40.45897671591752,269.0086046471596,0.01255017425864935,0.02228376083076,-0.7862169146537781,0.6174212098121643,0.008591104900515758,0.001215510390464974,0.009818663041807056,-0.006075466051697731,-0.0012853170046582818,-0.0057996902614831924,-0.18898036535829307,-0.4687598402425647,-9.795957911610603
10.3,0.0,214.0,23.07404327392578,0.039758868515491486,-79.78280500090487,40.458976707475756,269.00953233385087,0.01255017425864935,0.02228376083076,-0.7862169146537781,0.6174212098121643,0.008724496433895905,0.0010665632407677074,0.009655138742986671,0.0038474660832434893,0.00026052031898871064,-0.002426442690193653,-0.1930741472169757,-0.4600493892654777,-9.792276504635812
10.5,0.0,203.0,23.0815544128418,0.04771064221858978,-79.78280498969896,40.45897660483058,269.0094670071602,0.0125500513240695,0.022284697741270062,-0.7862197160720825,0.617417573928833,0.0052631173909535285,0.0014213568126880429,0.009739291691368224,-0.004920217674225569,-0.0011847794521600008,0.0011629334185272455,-0.1905868147686124,-0.4647705773636699,-9.795105387568476
10.6,0.0,188.0,23.079050064086914,0.05566241592168808,-79.78280498971003,40.458976599371105,269.0104020252228,0.0125500513240695,0.022284697741270062,-0.7862197160720825,0.617417573928833,0.005132216763307407,0.001228110165954048,0.009590368787401505,-0.0009241480147466065,0.0018795664655044675,-0.0056859240867197505,-0.19280840953812006,-0.4619745119288564,-9.792425023913383
10.8,0.0,189.0,23.080303192138672,0.039758868515491486,-79.78280497576796,40.45897650459335,269.01059395217897,0.01255127228796482,0.022286485880613327,-0.7862226366996765,0.6174137592315674,0.0038142779393453546,0.0015778944550316047,0.00963529489554367,-0.006236031651496886,-0.0018408130854368208,0.0008126887260004878,-0.19235444633290166,-0.4631839353963733,-9.793830694556236
10.91,0.0,155.0,23.080303192138672,0.02385532110929489,-79.7828050033159,40.45897641260355,269.01043474817277,0.012562398798763752,0.02228025533258915,-0.7862221002578735,0.6174144744873047,0.004588190067869015,-0.007537006315576078,0.009592169469336298,-0.0027929407078772783,-0.0017516892403364182,-0.008049922063946724,-0.19159635482355952,-0.4668871963396669,-9.793045413494113
11.1,0.0,134.0,23.082807540893555,0.11927660554647446,-79.78280502273948,40.45897640683543,269.01234632873536,0.012562942691147327,0.02228087373077869,-0.7862243056297302,0.6174116730690002,0.0042904573625091695,-0.007283825068316939,0.009672600549585159,-0.0037193603347986937,-0.0013034078292548654,0.003381201531738043,-0.1929759139940143,-0.4597514370828867,-9.793740062713622
11.2,0.0,100.0,23.080303192138672,0.04771064221858978,-79.78280499361138,40.45897632762342,269.01267099523545,0.01255958527326584,0.022282848134636882,-0.7862267494201659,0.6174085140228271,-0.0010623324709077768,-0.004868242194235672,0.009592499824652241,-0.0054182298481464395,-0.0013635971117764716,-0.006877379026263952,-0.19212755609303714,-0.4701265172660351,-9.793265268802644
11.4,0.0,86.0,23.082807540893555,0.05566241592168808,-79.78280496951145,40.45897621567817,269.014396668911,0.01256302371621132,0.022292442619800568,-0.7862269282341003,0.6174079179763794,0.0039170375420627965,-0.0013907182360433687,0.009903223091313277,0.0013222977286204696,-0.004008027724921703,0.003481956431642175,-0.19277871664613488,-0.45870167914778,-9.792899817824363
11.51,0.0,77.0,23.0815544128418,0.039758868515491486,-79.78280497197925,40.4589762122799,269.0153676285744,0.01256355457007885,0.022293131798505783,-0.7862285375595093,0.6174058318138123,0.0030967856531509763,-0.001184995882466392,0.009888991799678002,-0.0044558998197317115,-0.00321352481842041,-0.004630988463759422,-0.1916033897548914,-0.4714868354424834,-9.793319647908213
11.7,0.0,75.0,23.080303192138672,0.039758868515491486,-79.7828049742515,40.45897620913551,269.01633525037767,0.01256355457007885,0.022293131798505783,-0.7862285375595093,0.6174058318138123,0.0035127760594442035,-0.0013168376812005918,0.009718176994247906,0.007272455841302872,0.0010137457866221666,-0.00028070955886505544,-0.19254641773179174,-0.4582506760954857,-9.79291502058506
11.8,0.0,80.0,23.07779884338379,0.03180709481239319,-79.78280496397187,40.458976116005616,269.0185294761658,0.012569130398333073,0.022294241935014725,-0.7862318754196167,0.6174014806747437,0.002455651326885777,-0.0030596596992678816,0.00996956213745528,-0.00456967344507575,-3.4839849831769236e-05,-0.005836020223796368,-0.1919495814666152,-0.4731377236917615,-9.794184451103213
12.0,0.0,83.0,23.0715389251709,0.04771064221858978,-79.78280493025946,40.458976006501075,269.021043838501,0.012548947706818579,0.02228439785540104,-0.7862410545349121,0.6173904538154602,0.005954544411564703,-0.0006495546433445918,0.01016576935108654,0.002783905016258359,-0.0009546828223392367,0.0038723705802112813,-0.19297726616263391,-0.4588226434215904,-9.79297173857689
12.11,0.0,100.0,23.08656311035156,0.06361418962478638,-79.78280493236632,40.45897600128475,269.0220283880234,0.012559161521494387,0.022285036742687225,-0.7862386703491211,0.6173932552337646,0.00497212691446986,-0.0003459672247250042,0.010153794847284537,-0.007965104654431343,-0.0017601626459509136,-0.0064988993108272535,-0.1901644630730152,-0.4724876594915986,-9.793941206932068
12.3,0.0,111.0,23.07779884338379,0.039758868515491486,-79.78280492085797,40.458975905878965,269.0251073255539,0.012562986463308334,0.022286621853709214,-0.7862433195114136,0.6173872351646423,0.004728384154418496,-0.003894379756401837,0.010125538920838265,0.004485794808715582,-2.514897278160788e-05,0.005203204229474068,-0.19276550559327008,-0.4596924167498946,-9.793055938482283
12.4,0.0,123.0,23.07779884338379,0.04771064221858978,-79.78280486567449,40.45897583118172,269.0297039165497,0.012557344511151314,0.0222972109913826,-0.7862221002578735,0.6174139976501465,-0.0014357638248070571,-0.0023612513169668273,0.014292311082447828,-0.008412557654082775,-0.0030773309990763664,-0.001240336219780147,-0.18922335371375085,-0.4748913036659361,-9.795302438735963
12.6,0.0,126.0,23.0715389251709,0.05566241592168808,-79.78280487015455,40.45897583314682,269.03256046915055,0.012525160796940328,0.0223257876932621,-0.7862290143966675,0.6174048185348511,-0.0011910412207107243,-0.0024346675716099488,0.014106703376812932,0.004034952260553837,-0.003487836802378297,0.006375314202159643,-0.19255091277882452,-0.4612311846390367,-9.79374181687832
12.7,0.0,137.0,23.072790145874023,0.04771064221858978,-79.78280481757196,40.45897576194393,269.03686195755006,0.012521792203187944,0.02231728099286556,-0.7862285375595093,0.6174057126045227,-0.004374580746423801,-0.0015977021461520654,0.015913502562375444,-0.005108110141009092,-0.0036191097460687156,-0.0004342359607107937,-0.18918984185904267,-0.4755788265913725,-9.795131115317343
12.91,0.0,147.0,23.07654571533203,0.015903547406196594,-79.78280477983056,40.4589756682236,269.04202872657777,0.01255510002374649,0.022344186902046204,-0.7862364053726196,0.6173941493034363,0.002594136989085713,-0.0029317412629505045,0.013879871760962352,0.003809215035289526,0.0027104567270725965,0.005211803130805492,-0.19300944412127136,-0.4617095599696041,-9.791977127194405
13.0,0.0,156.0,23.072790145874023,0.015903547406196594,-79.78280478338195,40.45897566638303,269.0434200778008,0.012555640190839771,0.022344861179590225,-0.7862382531166077,0.6173917651176453,0.0016054899811906026,-0.002468518723333874,0.014099443395043381,-0.005996185354888439,-0.0005272937705740333,-0.0004708464257419108,-0.18840426843613384,-0.4753873668238521,-9.795409442782402
13.2,0.0,158.0,23.07028579711914,0.11132483184337616,-79.78280471809096,40.45897555051508,269.04855525636674,0.012560494244098663,0.02235605381429196,-0.786240816116333,0.6173880100250244,0.009021133223114056,0.0010386457002147008,0.013192484448281215,0.008722783997654915,0.0016554396133869884,0.0043396176770329475,-0.1931024148501456,-0.4622578095272184,-9.792572373747824
13.31,0.0,162.0,23.079050064086914,0.02385532110929489,-79.78280471883744,40.458975542224685,269.04983705425263,0.012560494244098663,0.02235605381429196,-0.786240816116333,0.6173880100250244,0.008094336259993177,0.0016312434876537651,0.013329755852930931,-0.006656400859355927,-0.003836616408079864,0.0022334239911288023,-0.18856278279796249,-0.4746258400753141,-9.794100835919382
13.51,0.0,164.0,23.08405876159668,0.04771064221858978,-79.7828046201281,40.45897543968257,269.055155397892,0.012559531256556513,0.022364446893334392,-0.7862435579299927,0.6173841953277588,0.009125397471279936,0.006875041452957036,0.012587655565468918,0.0028593195602297787,0.0018986733630299566,0.0002247350785182789,-0.19170692201703787,-0.462698104865849,-9.792045539617538
13.61,0.0,168.0,23.0715389251709,0.02385532110929489,-79.78280461429601,40.458975430074936,269.0563629283905,0.012559531256556513,0.022364446893334392,-0.7862435579299927,0.6173841953277588,0.008328645652846644,0.0073300819813190985,0.012692736371002086,-0.007548499852418899,-0.0023905024863779545,0.0035081352107226853,-0.1885323590040207,-0.4734377954900265,-9.795180231928828
13.8,0.0,169.0,23.0815544128418,0.03180709481239319,-79.7828045705522,40.458975374020746,269.06203663492204,0.012553459033370018,0.02236417680978775,-0.7862517237663269,0.6173739433288574,0.0036816136489935952,0.001477537748962514,0.011685941889382044,0.005743042100220919,0.0039885398000478745,0.003469849471002817,-0.19171737391501667,-0.4638347670435906,-9.793039566278457
13.91,0.0,165.0,23.082807540893555,0.03180709481239319,-79.78280447928691,40.45897531855322,269.06687915468217,0.012541388161480429,0.02236835844814777,-0.7862558960914612,0.6173686385154724,-0.002628895391187614,0.0049121826966636575,0.01133582462699734,-0.005866133607923985,0.00035982494591735303,0.001252300338819623,-0.1877771545574069,-0.4739635698124767,-9.794980257153512
14.11,0.0,165.0,23.07028579711914,0.3578298389911652,-79.78280446591398,40.458975319959016,269.0691325082779,0.012552483938634396,0.022384751588106155,-0.7862546443939209,0.6173694729804993,-0.002149484857906721,0.005323738903057147,0.011257242653116716,0.010722523555159569,0.0053774239495396605,0.00347506208345294,-0.19175755525007845,-0.4642723214998842,-9.791851996779442
14.2,0.0,168.0,23.06027030944824,0.3498780429363251,-79.78280444245905,40.45897522925317,269.0743035092354,0.012542759068310259,0.02237421274185181,-0.7862573266029358,0.6173665523529053,0.005645253158562827,-0.002656042759279732,0.011419396866745491,-0.00030379931558854883,-0.007337646558880806,0.003886074759066105,-0.1874772106669844,-0.4933477475121618,-9.795137547254562
14.4,0.0,170.0,23.06402587890625,0.3498780429363251,-79.78280432628,40.45897514453391,269.080684961319,0.012563624419271946,0.02242202684283256,-0.7862722277641296,0.6173455715179443,0.005157329734061111,0.00733469070740024,0.011447635121999129,0.0027806812431663275,0.002235169755294919,0.00378605118021369,-0.18959556553512813,-0.4645356654748321,-9.790856215953829
14.5,0.0,175.0,23.06027030944824,0.3498780429363251,-79.78280431845657,40.45897513769011,269.08179968738557,0.012559761293232441,0.022424675524234768,-0.7862740159034729,0.6173431277275085,0.0046594190167876465,0.007733399276554798,0.011641081399011316,-0.0022225775755941868,-0.0015499168075621126,0.005089623387902975,-0.19243340201675893,-0.4746930099651218,-9.793493310213087
14.7,0.0,173.0,23.067781448364247,0.3498780429363251,-79.78280425132355,40.45897508108572,269.08820682907105,0.012547906488180159,0.022413508966565132,-0.7862674593925476,0.6173522472381592,0.0017593017019989113,0.0035440307388875914,0.01115302055899038,0.0055236839689314365,0.0033147681970149287,0.0035685405600816007,-0.19689561327919364,-0.4772070568799973,-9.791374863982199
14.8,0.0,186.0,23.059017181396484,0.3816851377487183,-79.78280424776986,40.45897507860316,269.0893169059753,0.012531200423836708,0.022419555112719536,-0.7862515449523926,0.6173726320266724,0.001686429537601466,0.004121535815999777,0.011257948698543073,6.983826460782439e-05,-0.0013187958393245935,0.004424470476806164,-0.1814040001295507,-0.4753423798084259,-9.796202325224876
15.0,0.0,195.0,23.06402587890625,0.4532511234283447,-79.78280416817753,40.458975039244606,269.09585982704164,0.012530512176454069,0.022415170446038246,-0.7862588167190552,0.6173635721206665,-0.002576002888604189,0.002334320082017161,0.010820067540936729,0.007832527160644531,0.001967781223356724,-0.0009046015911735594,-0.18930532436817885,-0.4669651470333338,-9.792175347805022
15.11,0.0,202.0,23.05526161193848,0.4850582182407379,-79.7828041638435,40.45897504057847,269.0969549431801,0.012521544471383095,0.02242027409374714,-0.7862440347671509,0.617382287979126,-0.003184933518680265,0.002597253980433189,0.010849095586931052,0.00018371683836448932,0.0029855594038963322,0.005637580994516611,-0.19433889996260406,-0.4766987511143089,-9.794640533924099
15.3,0.0,202.0,23.02145576477051,0.6997560858726501,-79.7828041064917,40.45897499356828,269.1033880724907,0.012610047124326227,0.02262129262089729,-0.7862911820411682,0.6173131465911865,-0.0015263096904671446,-0.0005928914572858242,0.010984838596564092,-0.0014295651344582438,-0.02746815606951714,-0.0038689409848302603,-0.15677010085433726,-0.4850516813993454,-9.78939265787601
15.4,0.0,207.0,23.052757263183594,0.3101191818714142,-79.7828040461426,40.45897495320435,269.108841003418,0.012565894983708858,0.022635487839579586,-0.7862579822540283,0.6173557639122009,-0.00043255450118725037,-0.004490887272613907,0.010226633906253831,-0.004501408897340298,-0.016005627810955048,0.0012055654078722,-0.19754580538719893,-0.4738158545270562,-9.800357941389084
15.6,0.0,213.0,22.833648681640625,3.101191759109497,-79.78280405531578,40.45897495511794,269.1109929695129,0.012570596300065516,0.02264997176826,-0.7862468957901001,0.6173693537712097,7.554742707023633e-05,-0.0026544123037822113,0.011778192474279234,0.003685022704303265,-0.007579912431538105,0.002186605241149664,-0.1863512196578085,-0.4690161310136318,-9.786009458899498
15.7,0.0,224.0,23.02396011352539,0.6440936923027039,-79.78280398196908,40.458974933571504,269.11655295038224,0.012593891471624373,0.022683123126626008,-0.7862527370452881,0.6173601746559143,-0.0019176835490555086,-0.005489515785829671,0.010307678964702992,-0.00373068917542696,-0.0057018310762941855,-0.01790078543126583,-0.15965221172198654,-0.5241367366164923,-9.821911947727203
15.9,0.0,227.0,23.06027030944824,0.2385532110929489,-79.78280391525172,40.45897491003904,269.1229893579483,0.012553405947983265,0.022589383646845814,-0.7862368226051331,0.6173847317695618,-0.0010457876018267027,-0.005271119720709721,0.011127088657442094,-0.009343834593892096,0.0074879783205688,-0.00020584475714713327,-0.2137636244483292,-0.4478068180382252,-9.77709245502949
16.01,0.0,236.0,23.032724380493164,0.8826469182968141,-79.78280392067623,40.458974912486156,269.1240862622261,0.012590480968356129,0.022560227662324902,-0.7861944437026978,0.6174389719963074,-0.0033446467327772123,-0.0076663158569938205,0.010715234532030231,-0.0014257525326684115,0.023880936205387115,-0.0031729983165860176,-0.19584779223427176,-0.4335735987871885,-9.785007246136663
16.2,0.10000000149011612,233.0,22.88498306274414,4.437089920043945,-79.78280380908869,40.45897487022585,269.13025516414643,0.012553852051496506,0.022553279995918274,-0.7862232327461243,0.6174032688140869,0.0015370519917932881,0.0037219871348853546,0.011140927140272018,0.0027708301786333323,-0.003428930649533868,0.0063477479852736,-0.18137185871601105,-0.4757829309627414,-9.805956065654756
16.3,0.10000000149011612,234.0,22.8424129486084,5.3038330078125,-79.782803805626,40.45897486814104,269.1313741221428,0.012560016475617886,0.022587662562727928,-0.7862104773521423,0.6174182295799255,0.003279472511709464,0.00403773928064105,0.011009818770372931,0.01946011558175087,0.007100295275449753,0.013691970147192478,-0.17225111592561007,-0.4788378818705678,-9.806285263895989
16.5,0.10000000149011612,231.0,22.734737396240234,7.395149707794189,-79.78280374133759,40.45897484159997,269.14050561332704,0.012575903907418251,0.02268371917307377,-0.7862600684165955,0.617351233959198,-0.0008038511760409579,-0.002861431864556876,0.014768733526031941,0.007378487382084131,0.017514806240797043,-0.0004432256682775914,-0.2129086153395474,-0.4842394300550223,-9.782008209228515
16.61,0.10000000149011612,232.0,22.68715858459473,8.341410636901855,-79.78280374233302,40.458974839825956,269.1420612051487,0.012599537149071692,0.02272656001150608,-0.7862748503684998,0.6173302531242371,0.0052552496946245844,-0.002007195208626733,0.014869905928064812,0.054302114993333817,-0.0020186216570436954,-0.06229037046432495,-0.22229378018528226,-0.4761761927604676,-9.773436191082002
16.8,0.20000000298023224,235.0,22.54818153381348,11.068869590759276,-79.78280366853816,40.458974854216706,269.14897626781465,0.012827779166400429,0.02315184287726879,-0.786335825920105,0.617232084274292,-0.010545050771615149,0.0011151424895633883,0.0162441089100491,-0.08242223411798477,-0.07234630733728409,0.003206949448212981,-0.2528702230006457,-0.4617765471339226,-9.787009917497638
16.9,0.20000000298023224,240.0,22.481822967529297,12.460430145263672,-79.78280359171475,40.458974875825945,269.1512857987881,0.013283844105899334,0.023524334654212,-0.7862166166305542,0.6173602938652039,-0.01229179525801521,-0.002744514717913357,0.015359545529369602,0.031225245445966717,-0.0652516782283783,0.021693438291549686,-0.17685294773429633,-0.5176358753442765,-9.83646449804306
17.1,0.20000000298023224,241.0,22.33282852172852,15.37873077392578,-79.78280359443464,40.45897488947597,269.15435165309907,0.014252306893467903,0.024002153426408768,-0.7862113118171692,0.6173270344734192,-0.0014421393391906756,-0.0045228592532812655,0.017443029630063285,0.05653682723641396,-0.032945334911346436,0.04607288166880608,-0.2636865486949682,-0.6419212214648724,-9.774003371000287
17.2,0.30000001192092896,243.0,22.24894142150879,16.849809646606445,-79.7828035081645,40.45897487021993,269.1580173983574,0.015425000339746475,0.024529369547963142,-0.7863261103630066,0.6171319484710693,0.01322997394824432,-0.00932307407720743,0.014227280592507191,0.08063819259405136,-0.005041005089879036,0.0016486599342897534,-0.10172647750005126,-0.6565691544860601,-9.849038350582124
17.4,0.30000001192092896,245.0,22.09368705749512,20.110036849975586,-79.7828034083186,40.45897484991559,269.163826079607,0.01793222874403,0.024367103353142745,-0.7864549160003662,0.6169062852859497,-0.014412899533310418,0.0022023965355763685,0.020232520885628488,-0.14701157808303833,0.0659034475684166,-0.0573280081152916,-0.13591959678567947,-0.4708110800385476,-9.803663372397423
17.51,0.30000001192092896,246.0,21.998531341552734,22.026412963867188,-79.78280340860583,40.45897484244215,269.1658405377865,0.019276730716228485,0.023599451407790184,-0.7868853807449341,0.6163464188575745,0.03192150502077317,0.0042306053528154645,0.017419850977403367,0.1642279475927353,-0.012495345436036587,0.07561782747507095,0.004294514944776893,-0.4837910947948694,-9.769032652974133
17.7,0.4000000059604645,246.0,21.82699966430664,25.30254554748535,-79.78280327862201,40.458974820394396,269.1709786965847,0.015250526368618013,0.022483067587018013,-0.7888280749320984,0.6140131950378418,0.05129375628870831,0.04634711404760335,0.04212445332483241,-0.06365270912647247,-0.07650896161794662,0.023798547685146332,0.13077283188700678,-0.3375527795031667,-9.835911351442338
17.8,0.4000000059604645,250.0,21.72683525085449,27.11554908752441,-79.78280321982629,40.45897475814749,269.17592743182183,0.002734270179644227,0.018485119566321373,-0.7912498116493225,0.6112074851989746,0.06484807783436837,0.0746894703049514,0.07529889494176653,-0.2739095687866211,0.02025642991065979,0.014234949834644794,-0.005938477898016573,-0.16445933561772108,-10.126475869417193
18.0,0.5,249.0,21.89210700988769,24.332427978515625,-79.78280306434289,40.458974520111006,269.2135688080788,-0.016370341181755066,0.00625762902200222,-0.7960583567619324,0.6049661040306091,0.08804987553769132,0.12201205221502585,0.24688183136149064,0.03662984073162079,0.01316097192466259,0.09822409600019456,-0.18224331311881545,-0.05396457452327013,-10.588621083498
18.1,0.5,243.0,21.91339111328125,21.597017288208008,-79.78280291279965,40.458974420847994,269.2414911105633,-0.01590823009610176,0.0027405559085309505,-0.7978665828704834,0.6026179790496826,0.06813540411457351,0.16429472977276127,0.30690412488203944,-0.0021300551015883684,0.18573175370693207,0.027105655521154404,-0.009829397918656469,0.402072784267366,-10.3780932533741
18.3,0.6000000238418579,239.0,21.850788116455078,24.21315193176269,-79.78280196262097,40.45897429807453,269.2827362134457,-0.0016864214558154347,-0.005349749699234962,-0.7981585264205933,0.6024214625358582,0.05575728513393936,0.20470982447391714,0.23403196922455696,0.27311021089553833,0.08986002206802368,0.11017601937055588,0.1516577888466418,-0.19662887061014767,-9.990600610971454
18.4,0.699999988079071,235.0,21.791942596435547,24.28471755981445,-79.78280163163353,40.45897440348247,269.3010497107506,0.00486752251163125,-0.008556745015084743,-0.7972648739814758,0.6035494804382324,0.05094229054161,0.17002895152582262,0.15544011309376873,0.16497233510017395,0.1955344080924988,0.04493195563554764,0.045929257683455946,0.3204438630491495,-9.464629529714584
18.6,0.699999988079071,233.0,21.796951293945312,24.904956817626953,-79.78280128874651,40.458974261786295,269.3282186701298,0.01165726874023676,-0.016154387965798378,-0.7947591543197632,0.606597900390625,0.02038919307214369,0.1472842854834189,0.10899147362346108,-0.2022058218717575,-0.002880785148590803,-0.107192724943161,-0.08550302135758102,0.2066453154757619,-9.513956640958787
18.7,0.8000000119209291,230.0,21.71932411193848,25.811458587646484,-79.78280088178333,40.4589743920611,269.35830992603303,0.009515791200101377,-0.016759857535362244,-0.7941967844963074,0.607354998588562,0.03367062324909022,0.1475866040236345,0.1025669828136708,0.15809987485408786,-0.11606937646865845,0.13908550143241882,0.2160048987530172,-0.06716893963515759,-9.732852421402931
18.9,0.8000000119209291,226.0,21.82073974609375,22.86134910583496,-79.78280027764374,40.45897414111857,269.40700034940244,0.0018365444848313925,-0.008523005992174149,-0.7943660020828247,0.6073769330978394,0.010914598647090296,0.1706922404358969,0.10882489893608266,-0.19921627640724185,-0.1939334720373153,-0.059625431895256036,0.08947991372086109,0.3308452191576362,-9.69477710723877
19.0,0.8000000119209291,218.0,21.629175186157227,27.544944763183594,-79.78280010278058,40.45897408918943,269.4172761901617,-0.0023258088622242212,-0.004562945105135441,-0.7946611046791077,0.6070316433906555,0.03920763174656472,0.15206465389684795,0.09227704459091422,0.2335681468248368,-0.06462206691503525,0.08376943320035933,0.10689441114664078,-0.11948761431500315,-9.682406737804412
19.2,0.8999999761581421,216.0,21.679258346557614,26.32832336425781,-79.78279960608545,40.45897383545461,269.45275874578954,0.0019716089591383934,-0.0061762300319969645,-0.7951493859291077,0.6063790321350098,-0.025867882245807914,0.14965168668374085,0.12084969168688985,-0.19494177401065824,0.1562795639038086,-0.11646386235952375,0.06835994437336923,0.35123128071427345,-9.712341558337213
19.3,0.8999999761581421,211.0,21.676753997802734,26.272661209106445,-79.78279943298476,40.45897381259364,269.4643792822361,0.003790967864915729,-0.009612475521862509,-0.7953437566757202,0.6060706973075867,-0.0053115570764878575,0.14622855850635558,0.11448452906271707,0.09617900103330612,0.010097906924784185,0.02392115071415901,0.2513687859289348,-0.2587058355845511,-9.787819172143935
19.51,0.8999999761581421,210.0,21.69803810119629,26.12952995300293,-79.78279902315094,40.45897376484271,269.506526113987,0.006866477429866791,-0.01527912076562643,-0.7954607009887695,0.6057737469673157,-0.018674263478577768,0.1269680257458841,0.13078731668969568,-0.041172679513692856,-0.03696568310260773,-0.07144570350646973,0.07090128134004772,0.1377382361702621,-9.72267709672451
19.6,0.8999999761581421,211.0,21.566574096679688,28.96036148071289,-79.78279888907883,40.45897374976488,269.51898732924457,0.009283353574573994,-0.01575283519923687,-0.7954849600791931,0.6056975722312927,-0.013372401165476087,0.1143058423863324,0.1156049137909172,0.0855584442615509,0.07896028459072113,-0.014214993454515934,0.2285262177139521,0.20968795068562032,-9.67809675514698
19.8,0.8999999761581421,211.0,22.008546829223643,19.839675903320312,-79.78279848314304,40.45897370056681,269.56806845360995,0.00852749217301607,-0.014062492176890371,-0.7953799366950989,0.6058880686759949,-0.043840431099001806,0.09293243112199336,0.15160195388550793,-0.04462352767586708,0.08368700742721558,-0.045207343995571136,0.3069747652485967,-0.2942752158455551,-9.964450693130493
19.9,0.8999999761581421,213.0,21.57032966613769,28.610483169555664,-79.7827982062717,40.45897374370154,269.58671799072624,0.007026352453976871,-0.01404412556439638,-0.7951134443283081,0.6062573790550232,-0.0466952426287017,0.10819689314559612,0.06183234352984601,-0.14933615922927854,-0.160837322473526,-0.034384746104478836,0.3141992194578052,-0.17833413882181048,-9.111192825436593
20.1,0.8999999761581421,213.0,21.383773803710934,31.322036743164066,-79.78279798078779,40.458973759815336,269.59742200890184,0.00318506034091115,-0.004977716132998466,-0.7952857613563538,0.6062060594558716,-0.02567890148791353,0.08422612818995673,0.09339103074010216,0.13210569322109222,-0.012952372431755066,0.007940539158880709,0.3327685511112213,-0.18292433101683853,-9.561421414017678
20.21,0.8999999761581421,214.0,21.357481002807614,33.98588180541992,-79.78279769364545,40.458973667115394,269.64094191827905,0.0032014467287808657,-0.005445170681923628,-0.7954727411270142,0.605956494808197,-0.034680349946079096,0.08848096834156892,0.2131772846642576,-0.0358111672103405,-0.05876913666725159,0.01471484359353781,0.12861501744948328,-0.046971651781350376,-10.496671278476716
20.4,0.8999999761581421,216.0,21.039459228515625,37.16659164428711,-79.78279758561071,40.45897367621362,269.66747843617196,0.003816186217591168,-0.00623745284974575,-0.795609176158905,0.6057661771774292,-0.02710816214161179,0.08811055930345654,0.3324431617904832,0.05152781307697296,0.07340031117200851,0.010106685571372507,0.1758895093202591,0.0897175208106637,-10.966262336969377
20.5,0.8999999761581421,218.0,20.928028106689453,40.94368362426758,-79.78279726008275,40.45897360841868,269.7567769377829,0.0066645704209804535,-0.008741042576730251,-0.7954354286193848,0.6059387922286987,-0.023203726439800364,0.08052545624969447,0.6930260583402433,0.021318171173334118,0.06525344401597978,-0.009708990342915058,0.20557238794863225,0.035231995917856695,-11.836059054136276
20.71,1.0,220.0,20.970598220825195,39.17839050292969,-79.78279702615559,40.45897364428557,269.9433322265148,0.0049013043753802785,-0.006734969094395638,-0.7962819933891296,0.6048682332038879,-0.034472263962876365,0.0893359232867092,1.1438629166360528,-0.06799554824829103,0.013031809590756891,-0.02363917604088784,0.23837585248053075,0.12857157446444034,-12.044171984195714
20.8,1.0,221.0,20.91926383972168,39.86224365234375,-79.78279693458006,40.458973657442826,270.0694811060429,0.001316725159995258,-0.006653853692114353,-0.7968094348907471,0.6041926741600037,-0.03512385705628141,0.08805029968164539,1.3791631503895343,-0.02205590531229973,-0.0050448733381927005,-0.057583805173635476,0.13182710314169527,-0.0009148018852283713,-12.157274676561356
20.9,1.100000023841858,221.0,20.884206771850586,40.94368362426758,-79.78279681787511,40.45897369972838,270.2207506313324,-0.002246378688141704,-0.007280191406607628,-0.7973325848579407,0.6034920811653137,-0.0429408773104967,0.09292182663007599,1.5994066279737902,-0.07626115530729294,-0.002682544523850084,0.12041055411100388,0.1824068889766932,-0.04320162294432521,-12.186223071813586
21.1,1.2000000476837158,222.0,20.825359344482425,42.486328125,-79.78279656619574,40.458973780482005,270.58853906536103,-0.0067532677203416824,-0.006721448618918657,-0.7990276217460632,0.6012189388275146,-0.04788577343055202,0.11900479013795268,2.0829404038291126,0.06315460056066513,-0.050102774053812034,0.0034717018716037273,0.2117698518186808,0.1127284614276141,-12.251295565366744
21.2,1.2000000476837158,225.0,20.794057846069336,41.91379928588867,-79.78279637430981,40.458973831786345,270.8066286458969,-0.005865039303898811,-0.0031898675952106714,-0.80042964220047,0.5993896126747131,-0.055916397760849376,0.13398780713066352,2.3092269000128183,0.0810840055346489,-0.05490918457508087,0.12915301322937012,0.2660823174007237,0.060168529716320335,-12.242228872776037
21.41,1.2999999523162842,232.0,20.831619262695312,41.34922409057617,-79.7827957910717,40.458973870150274,271.33817249679566,0.00027865386800840497,0.0026372859720140696,-0.8033196926116943,0.5955422520637512,-0.10120009345616376,0.15767337225203848,2.7718944735119795,0.09619692713022232,0.0564626082777977,-0.07149866223335266,0.0915395680256188,0.012220370080322028,-12.02484108924866
21.6,1.399999976158142,237.0,20.330799102783203,37.906105041503906,-79.78279555176171,40.45897391798708,271.6258556261063,0.005763799417763949,0.0006002694135531782,-0.8041157126426697,0.5944446921348572,-0.10930318915710947,0.16738322764805091,2.9757167381066933,0.1388702094554901,0.1573922485113144,0.03881919756531715,0.10869416585192083,0.03719486966729165,-11.848118351697922
21.7,1.2999999523162842,245.0,20.380882263183594,37.34948348999024,-79.78279477611412,40.45897393320125,272.312017501831,0.029804274439811707,-0.011888629756867886,-0.801179051399231,0.5975639224052429,-0.11056420287985327,0.24023410084222385,3.243642804348649,0.22410127520561213,0.25918179750442505,0.056809153407812125,0.19281286804005504,0.12625744750723245,-10.96643892288208
21.8,1.2999999523162842,257.0,20.397157669067386,37.45285415649414,-79.7827946117574,40.45897393026621,272.64165765190126,0.040811877697706216,-0.01607099547982216,-0.7978634238243103,0.6012403964996338,-0.13590940408495136,0.29825251388476903,3.326810444407218,0.009939765557646751,0.12937720119953156,-0.1203107014298439,0.28562130013480785,-0.03815744013525546,-10.76596596479416
22.0,1.2000000476837158,256.0,20.71267509460449,31.00396728515625,-79.78279406436528,40.458973728673094,273.3689864292145,0.029554117470979687,-0.015229595825076103,-0.7908581495285034,0.6110957860946655,-0.11705006663936687,0.32307129479019936,3.4503349141688364,-0.2669377028942108,-0.2336793690919876,-0.2686113417148589,0.321534880399704,-0.046242631897330286,-10.197433000802993
22.1,1.2000000476837158,259.0,20.68387794494629,32.76926040649414,-79.78279403558732,40.45897367086741,273.71540171051026,0.0122050903737545,-0.012305604293942451,-0.7881132364273071,0.6152862310409546,-0.03294954519158855,0.23285667222128115,3.45335329700245,-0.20719750225543976,-0.2548555433750153,-0.20331837236881256,0.19688994878903032,0.10175636225380004,-9.845604865550996
22.3,1.2999999523162842,253.0,20.75774955749512,30.04180145263672,-79.78279363020947,40.4589733125776,274.46864897155757,-0.007451013661921022,-0.008893213234841824,-0.7853944897651672,0.6188869476318359,0.1139264792451569,0.07324707687404078,3.492981896366419,-0.09830578416585922,0.049132343381643295,-0.041831448674201965,0.10879881273955108,0.13215647497214378,-9.891857510805133
22.5,1.2999999523162842,251.0,20.92176818847656,37.802734375,-79.78279317629726,40.458972809434336,275.21066194915767,-0.004450457636266947,-0.010225459933280943,-0.787036657333374,0.6168056130409241,0.12902420972795772,0.0857454172023131,3.443288799367952,-0.1484232395887375,-0.0312238447368145,-0.07811179757118225,0.09451946443878116,0.10279516579583288,-9.593564727902413
22.6,1.399999976158142,253.0,21.29237365722656,30.59047508239746,-79.78279311624945,40.45897274824701,275.5553513183594,0.0012032974045723677,-0.010404014959931374,-0.7887295484542847,0.6146512627601624,0.11279995925010294,0.1060342500664582,3.453873060941378,0.07348576188087462,0.1413998007774353,0.07354266941547394,0.1644130147062242,0.09142627822235228,-9.847813943624496
22.7,1.399999976158142,252.0,21.20097541809082,33.03961944580078,-79.78279278639903,40.45897270696414,275.94525820159913,0.005468880292028189,-0.011267209425568579,-0.7907043695449829,0.6120700240135193,0.0575496671709,0.12861836123746856,3.4562099100361405,-0.02169092930853367,0.06054006516933441,0.009651818312704565,0.12446606162935495,0.027847309727221728,-9.742424313426019
22.91,1.399999976158142,249.0,21.119590759277344,33.55648422241211,-79.78279260645519,40.45897237131629,276.60027939224244,0.008391641080379486,-0.011860718950629234,-0.7936228513717651,0.6082366108894348,0.04286915733419043,0.1412916200513189,3.4274899867979607,0.012672665528953077,-0.01589004509150982,-0.03424592316150665,0.1464789099432528,0.0644802117208019,-9.960644155740738
23.1,1.399999976158142,246.0,21.183446884155273,33.51672744750977,-79.78279256885801,40.45897233790353,276.94469791793824,0.008084292523562908,-0.010045441798865795,-0.7943169474601746,0.6073667407035828,0.0279266142766919,0.13205641313795624,3.4574571983070816,-0.04219409450888634,-0.003107911907136441,-0.060732804238796234,0.0925254816748202,0.056473322398960586,-10.03946813106537
23.21,1.5,241.0,21.17968940734864,30.55071449279785,-79.78279254678684,40.45897234665607,277.6390877380371,0.0045835580676794035,-0.009374846704304218,-0.7945767045021057,0.6070740818977356,9.541905187152032e-05,0.07728851400812091,3.4730698154572943,-0.10320986062288284,0.02670007199048996,-0.0994972214102745,0.07615389911457897,0.013276660451665522,-10.037884705066679
23.4,1.600000023841858,236.0,21.38502693176269,29.1193962097168,-79.78279273127029,40.45897221389817,278.2989473953246,0.002543642418459058,-0.009352985769510273,-0.7942469120025635,0.6075179576873779,0.023486081816884087,0.0399335725596979,3.3765017819582583,0.10200012475252153,-0.08189762383699417,0.08788663893938065,0.10335966878570617,0.006720214085653425,-9.790948601961137
23.5,1.7999999523162842,231.0,21.436359405517575,27.32229423522949,-79.78279275217072,40.45897222714562,278.633815826416,0.004562139511108398,-0.007449578493833542,-0.7942494750022888,0.6075291037559509,0.005667527759914536,0.04375627802519017,3.318635663909589,0.018374940380454063,0.06009231507778168,0.0272290538996458,0.2051515894196928,0.04512852718122304,-9.264496879577637
23.6,1.8999999761581416,230.0,21.387529373168945,29.071685791015625,-79.78279276971072,40.45897224272801,278.9622183456421,0.007317784707993269,-0.00473139388486743,-0.7942604422569275,0.6075150370597839,-0.002262117566898295,0.036429435463402035,3.2489025012529016,0.13995467126369476,-0.0945131778717041,0.03182656690478325,0.2478409597277641,-0.05189321665093303,-9.167352408170698
23.8,1.8999999761581416,225.0,21.214746475219727,30.773365020751953,-79.78279309651414,40.45897238379509,279.6896019592285,0.011319437995553015,-0.003818765049800277,-0.7938669323921204,0.6079742908477783,-0.04691238588095925,-0.01277571319981778,3.1747772068518776,0.14176085591316226,0.04737765714526177,0.015398966148495674,0.16058091402053834,-0.025143612027168274,-9.303249886035921
24.0,2.0,224.0,21.296131134033203,29.453371047973643,-79.78279300236309,40.45897247865713,280.090828956604,0.011226887814700605,-0.005484562832862139,-0.7936539053916931,0.6082412004470825,-0.08636469310639452,-0.005094206845533189,3.185169616886279,-0.1326807737350464,-0.11017052084207536,-0.02946138381958008,0.22539349883794785,-0.2548711767420173,-9.402366038560867
24.11,1.8999999761581416,220.0,21.185949325561523,32.013843536376946,-79.7827931503063,40.45897256658734,280.7210121765137,0.008195454254746437,-0.006366559769958258,-0.7937604188919067,0.608142077922821,-0.0374108493385387,-0.007181453139306425,3.1264842426317454,0.13505253195762634,-0.02736641280353069,0.017497727647423744,0.18130373865365984,-0.02179394317790866,-9.571648778915408
24.3,1.8999999761581416,222.0,21.25982093811035,29.779394149780273,-79.78279307196235,40.45897226825351,281.40238863372804,0.0072021144442260265,-0.0020024741534143686,-0.794420063495636,0.6073227524757385,-0.0016033086484743293,-0.01752645560760941,3.155127318924013,-0.050483740866184235,-0.016843795776367188,-0.00454544834792614,0.203095872849226,-0.0914045704342425,-9.718247246146204
24.41,1.8999999761581416,222.0,21.23352813720703,30.002042770385746,-79.78279310349922,40.45897220307585,281.75539308929444,0.007189990486949681,-0.0008612232049927115,-0.7945684194564819,0.6071314811706543,-0.012536390949293257,-0.04090808965632678,3.1787855053880514,0.019732678309082985,0.09267546236515044,0.0989130362868309,0.08060566761530936,0.0369070861581713,-9.695301017761233
24.61,1.8999999761581416,223.0,21.26482963562012,30.240596771240234,-79.78279319280566,40.458972206423134,282.072482170105,0.0072020022198557845,-0.0010038992622867227,-0.7946153879165649,0.6070696711540222,-0.012288562398392072,-0.043886880984116604,3.160370774420401,0.00887419655919075,0.03413577005267143,-0.018973801285028458,0.08837497268803418,-0.06754477855749429,-9.621999737620355
24.7,1.8999999761581416,222.0,21.119590759277344,32.586368560791016,-79.7827932766716,40.4589720705992,282.72372442626954,0.004538463428616525,-0.0024672860745340586,-0.7948070764541626,0.6068403720855713,0.010535756547173623,-0.010433293043601612,3.1493837547159362,-0.04113782569766045,-0.008971162140369415,-0.05336912348866464,0.19566102851182224,-0.10613352393731476,-9.723503308296204
24.9,1.8999999761581416,221.0,21.1020622253418,33.58829116821289,-79.7827933575889,40.45897203172535,283.3580170288086,0.0042583802714943894,-0.003583682933822274,-0.7946984767913818,0.6069789528846741,0.0062129111051932645,-0.019397370221649755,3.1599764306865636,-0.0513639897108078,0.06921125203371048,-0.013947625644505024,0.15246600195765495,-0.0624910026602447,-9.828592976331713
25.0,2.0,225.0,21.13461685180664,32.626129150390625,-79.78279341149631,40.458972027087675,283.674608291626,0.006536517292261125,-0.005503749009221792,-0.7947457432746887,0.6068823933601379,0.0118701420923525,-0.007552189684604922,3.1740578633672905,0.04336266592144966,0.027871359139680862,0.025980006903409958,0.13224244731478393,0.0749909016257152,-9.879350316524508
25.1,2.0,226.0,21.267333984375,29.453371047973643,-79.78279346064066,40.45897202111343,283.99292475128175,0.008658511564135551,-0.006584372837096453,-0.7948016524314879,0.6067718863487244,0.010930274129435454,0.01463085810830631,3.185673315404002,0.0820210874080658,0.004035843070596457,0.015427909791469576,0.20238468697294595,0.034130142945796256,-9.853063573837279
25.3,2.0,227.0,21.1208438873291,32.79311752319336,-79.78279354864846,40.45897208209249,284.6339607849121,0.008389259688556194,-0.004646581131964922,-0.7946006655693054,0.607056736946106,-0.03186408871045536,0.022089656977080308,3.1337686986038022,-0.08326214551925659,-0.061389826238155365,-0.07016487419605255,0.19562716947868464,-0.132476664846763,-9.568538060188294
25.4,2.0,229.0,21.276098251342773,28.825180053710927,-79.78279354036192,40.4589720286969,284.94801432037355,0.007497559767216444,-0.0031749967020004988,-0.7943212389945984,0.6074435114860535,-0.022927168047319015,0.011527601555624722,3.12137722803998,-0.040644075721502304,0.02298513799905777,0.017565207555890083,0.17016402538865805,0.032529184436425565,-9.682261142134667
25.61,2.0,229.0,21.337448120117188,28.76156616210937,-79.782793642472,40.458972028823574,285.5693913116455,0.006638630758970976,-0.0004736943519674241,-0.7942370176315308,0.6075717210769653,-0.007571261451082622,-0.004224146281723656,3.0996837022476944,0.07188519090414047,-0.05775676667690278,0.003214698750525713,0.1576104005612433,0.08544116877950729,-9.729173938035963
25.8,2.0,228.0,21.147136688232425,32.300106048583984,-79.78279356158701,40.45897200268403,285.88468367004396,0.006560875102877617,-0.00025769317289814353,-0.7943711280822754,0.6073972582817078,-0.013187356535305929,0.0051085930432711825,3.0876330381562096,0.041069939732551575,0.0210623349994421,-0.0237045306712389,0.14902857005596162,-0.18269058857113124,-9.682701437473296
25.91,2.0,224.0,21.21975517272949,29.92252540588379,-79.78279363207591,40.45897184326053,286.50499349975587,0.007850482128560543,-0.0014004767872393133,-0.7943925261497498,0.6073524951934814,0.011340382802618535,0.024991717749212737,3.08513028236886,-0.08542237430810927,0.07010170072317122,-0.0571155846118927,0.0939315269049257,0.0012217026203870773,-9.79870785713196
26.0,2.0999999046325684,221.0,21.02568817138672,35.16274261474609,-79.78279365411052,40.45897179991647,286.81262594604493,0.008231601677834988,-0.001888327184133232,-0.7944620251655579,0.6072551608085632,0.023620952095643657,0.029846196072576374,3.0721434049319685,-0.0019089410779997702,0.045803822576999664,0.0029563754796981807,0.08872450827620924,0.0062273851688951255,-9.69137227356434
26.2,2.0,216.0,20.96934509277344,35.39334487915039,-79.78279368514707,40.45897164336576,287.42724043273927,0.006872669793665409,-0.002979345852509141,-0.7943803071975708,0.6073746085166931,0.029084978613462827,0.03523589876067322,3.1298011627870284,-0.07203096896409987,-0.015620088204741478,-0.03232593834400177,0.11962013597600166,0.04292765348218382,-10.154616179466247
26.41,2.0,213.0,21.204730987548828,30.542762756347656,-79.78279370919148,40.45897159097178,287.74269110107423,0.0064195916056633,-0.002803456969559193,-0.7939656376838684,0.6079224348068237,0.027294432754463232,0.04313086975042908,3.18213920467498,-0.14999066293239596,-0.018600733950734145,-0.06493985652923584,0.18741292783990504,-0.24088936949148776,-10.299932352304461
26.51,2.0,206.0,21.192211151123047,29.61240577697754,-79.78279370096398,40.458971529983046,288.35511976623536,0.0015450466889888046,-0.0020169427152723074,-0.7938461303710938,0.6081134676933289,0.03362099953265952,0.04219326839971328,3.1565601930261384,-0.1532231569290161,-0.04305929318070412,-0.06441430747509003,0.14113587959669532,-0.11334787342697382,-9.789846401810646
26.7,1.8999999761581416,199.0,21.1208438873291,31.186857223510746,-79.78279365458556,40.4589713404973,288.9656582489014,0.0013686587335541849,-0.0022784320171922445,-0.7946743965148926,0.6070301532745361,0.06688152330972197,0.030294620560137764,3.0613681791244303,0.062127817422151566,-0.005842162296175957,0.017369424924254414,0.045079620704054836,0.11797290223650635,-9.46470028102398
26.81,1.7000000476837158,193.0,21.202226638793945,31.377700805664066,-79.78279364960606,40.458971283288506,289.271194519043,0.002986937062814832,-0.0029418799094855785,-0.7951080799102783,0.6064533591270447,0.06280557016755682,0.03527548109963774,3.0411409866603845,0.052087847143411636,-0.011217240244150162,-0.026493337005376816,0.08306673327460885,0.04069646105635912,-9.565803902149199
26.9,1.7000000476837158,187.0,21.189706802368164,30.4711971282959,-79.78279363182152,40.45897112784247,289.5711403503418,0.00449997466057539,-0.0038059430662542577,-0.795197606086731,0.6063218712806702,0.06474819454774329,0.04852624432520755,3.018477396549784,0.041323691606521606,-0.02203252539038658,-0.013302817940711977,0.13105652234517035,0.015080412277020516,-9.574533795118333
27.11,1.7000000476837158,179.0,20.910499572753906,36.32370376586914,-79.78279361578394,40.45897100599064,290.1707306518555,0.004635119345039129,-0.005091320723295212,-0.7947026491165161,0.6069599390029907,0.05915495211384469,0.057734447649569226,2.990148874848178,0.011240312829613686,0.03771107271313666,0.09191926568746568,0.0871122207865119,-0.06571832765825092,-9.745899313688279
27.3,1.7000000476837158,175.0,21.046972274780273,31.775287628173828,-79.78279358777053,40.45897091309315,290.78294187927247,0.005244849715381861,-0.005427909549325705,-0.7932724952697754,0.6088200211524963,0.04989603327547332,0.052860861408906966,3.091586763882919,0.065887451171875,-0.02895621210336685,0.0667312815785408,0.10489982538856568,-0.035394731238484384,-10.093565400838852
27.4,1.7999999523162842,167.0,21.133363723754886,30.773365020751953,-79.7827936732415,40.458970797839285,291.0779362335205,0.00380527600646019,-0.004023685120046139,-0.7928764820098877,0.6093572974205017,0.035985339828734836,0.041227787935298715,3.0894629737389754,0.017457926645874974,-0.08028538525104523,0.011213437654078008,0.09395710847340524,0.0305406834371388,-10.00480115890503
27.6,1.7999999523162842,165.0,21.033199310302734,32.562515258789055,-79.78279368334951,40.45897076732936,291.38650709533687,0.0011302725179120898,-0.0018413905054330824,-0.7925480008125305,0.609805703163147,0.0330214682591753,0.035119112960964774,3.0780155259275017,0.02609730698168277,-0.14057466387748718,0.07140481472015381,0.16991328947246076,0.009431248214095831,-9.779401520490646
27.7,1.7999999523162842,162.0,21.155900955200195,29.95433235168457,-79.7827936879453,40.45897074023435,291.6941815032958,-0.0008172164089046419,-0.00019687447638716551,-0.7922712564468384,0.6101685762405396,0.031721417771610166,0.020138729150972482,3.072920534820002,0.024545831605792046,-0.07706177234649657,0.08794032782316208,0.05700095138512552,-0.151253618337214,-9.777150342464447
27.81,1.8999999761581416,161.0,21.271089553833008,28.4912052154541,-79.78279377661086,40.45897049744855,292.29114920043946,-0.0006963825435377657,-0.0016494455048814414,-0.7920429110527039,0.6104629635810852,0.03860494018984896,0.0044866261032121225,3.033319288678728,-0.02796576358377933,0.11870236694812775,0.04000165313482285,0.021758435047231614,-0.03227369994157925,-9.564264914989472
28.0,1.7999999523162842,160.0,21.0281925201416,34.272144317626946,-79.7827937260653,40.45897039822473,292.885883392334,0.003453374840319157,-0.004361147992312908,-0.7923389077186584,0.6100558042526245,0.02072685060716491,0.04304519532923552,2.9575492796648377,-0.053935904055833817,-0.059914197772741325,-0.06303449720144272,0.1727582705207169,-0.1528119743987918,-9.544734629988671
28.2,1.7999999523162842,160.0,21.215999603271484,29.683971405029297,-79.78279370897644,40.45897037762999,293.18124395751954,0.0040916064754128465,-0.004782962147146463,-0.7928448915481567,0.6093910336494446,0.013959711650426277,0.057138331919897686,2.9551180865639592,-0.034094758331775665,0.03114895522594452,-0.045648787170648575,0.12988259330391885,-0.09515784334391356,-9.757752204537393
28.3,1.8999999761581416,163.0,20.90048217773437,36.347557067871094,-79.78279367600463,40.45897013887747,293.78194052124024,0.002583047607913613,-0.005541377700865269,-0.7937966585159302,0.6081525683403015,0.030001385536321482,0.062019079872467575,2.9371880134731834,0.05853687226772308,0.058275178074836724,0.0690636932849884,0.0443296833196655,0.06953532608225943,-9.583588793277741
28.5,1.8999999761581416,160.0,21.159656524658203,29.58059883117676,-79.78279359258279,40.458970078658474,294.3802204742432,0.002597694052383304,-0.007721093948930502,-0.7944929003715515,0.6072189211845398,0.01960156931513956,0.06780235989075947,2.9871096610566368,0.039091665297746665,-0.01795419305562973,0.02317699603736401,0.0811793982423842,0.05257453604601324,-9.899979293346403
28.61,1.7999999523162842,166.0,21.148387908935547,31.210712432861328,-79.78279356151394,40.45897007368906,294.6781845703125,0.002121324883773923,-0.006675939541310072,-0.7946702241897583,0.607001006603241,0.01975682846596812,0.0690432620737684,2.9639214154017366,0.12038684636354445,-0.04501952975988388,0.03874081745743752,0.1695665313117206,-0.001212365347892046,-9.640555876493458
28.8,1.7999999523162842,165.0,20.904237747192386,35.56828308105469,-79.78279343097162,40.45896997165902,294.9659386291504,0.002285077003762126,-0.0058706910349428645,-0.7948716282844543,0.6067449450492859,0.0041607879858529,0.07561576593937497,2.9421926104686533,0.010191410779953005,0.02211909182369709,-0.008727145381271841,0.1049359867628664,-0.11966911554336547,-9.663243073225024
28.9,1.7000000476837158,169.0,20.941801071166992,35.03551483154297,-79.78279336645448,40.45896989603477,295.5546131744385,0.005537224002182485,-0.007371107582002878,-0.7949401736259459,0.6066178679466248,-0.0018154936489428973,0.07225925738132613,2.9964871127807444,0.07298360019922256,0.014739017002284529,0.02771797031164169,0.1880364968441427,-0.08753337563015523,-10.148857841491699
29.1,1.7000000476837158,170.0,21.13461685180664,30.45529365539551,-79.78279330517692,40.45896991628812,296.16312605285646,0.005786031018942594,-0.0058952439576387405,-0.7948028445243835,0.6068115234375,-0.02645573866465741,0.07663338232953032,3.080815516774476,0.0010629220632836225,-0.06865782290697098,-0.028977733105421063,0.1765541001968086,-0.02742280187085271,-10.20664821267128
29.21,1.5,172.0,21.130859375,30.87673759460449,-79.78279326325237,40.458969852640244,296.45043379211427,0.003890156978741288,-0.004853395745158196,-0.7948027253150941,0.6068361401557922,-0.029764415411122926,0.05643154688244732,3.0418937629301124,0.02646488510072232,-0.046297963708639145,-0.028638971969485283,0.03531307121738792,0.06344808222725988,-9.805433324575425
29.31,1.399999976158142,172.0,21.00440216064453,33.51672744750977,-79.78279324606233,40.45896987198218,296.75362593078614,0.003389306599274277,-0.004249518271535635,-0.7947814464569092,0.6068713665008545,-0.01912159258345224,0.041847731163210784,3.016238586456666,0.11656354367733004,-0.058356236666440964,0.03149750456213951,0.09857636315748096,0.01757886813953519,-9.609897755384443
29.51,1.5,172.0,20.93929672241211,34.582263946533196,-79.78279321454654,40.45896984713193,297.34429556274415,0.006138929165899754,-0.0044529601000249395,-0.7943651080131531,0.6073932647705078,-0.021639375006913868,0.030103100639702424,3.0061440170965836,0.15449285507202148,0.0691480040550232,0.02770947478711605,0.11690049547702075,-0.03607929401099682,-9.937785050868989
29.61,1.5,171.0,21.0281925201416,32.308055877685554,-79.78279320719886,40.45896987136703,297.64604193115235,0.007826044224202633,-0.0039653535932302475,-0.7941450476646423,0.6076650023460388,-0.028705625960172367,0.03796500872931418,3.0272113709369837,0.16574381291866302,0.026927895843982697,0.03549456596374512,0.16028303492814305,0.022613832447677853,-9.997523714303973
29.8,1.5,172.0,21.123348236083984,31.62420463562012,-79.78279310197992,40.45896984149157,298.2433586730957,0.005743847694247961,-0.0018022485310211773,-0.7944348454475403,0.6073196530342102,-0.045730264480454745,0.05052323071288403,2.9876764680690147,0.06424994021654129,-0.07580249011516571,0.038855839520692825,0.18739500246942045,-0.17493454936891795,-9.563558571338652
30.0,1.5,172.0,21.185949325561523,29.683971405029297,-79.78279313588921,40.458969795988615,298.5347233428955,0.004667174536734818,-0.0016562348464503884,-0.7945462465286255,0.6071835160255432,-0.04897670041173503,0.02957393341521987,2.9595240578420263,-0.11295457184314728,0.02718534879386425,-0.07099609076976776,0.16542507637292148,-0.16562351625412702,-9.574506897926332
30.1,1.7000000476837158,172.0,20.87418937683105,35.32973098754883,-79.78279312836302,40.45896982696232,299.12144285583486,0.0067375092767179,-0.0021841905545443296,-0.7949724793434143,0.6066041588783264,-0.023727333953013286,0.02574770679108485,2.901742339768388,0.07797881960868835,0.015383880585432053,-0.004547226242721082,0.09162994405254722,0.042907032910734416,-9.491470588445665
30.2,1.7000000476837158,171.0,21.02318382263184,32.51480484008789,-79.78279311772377,40.45896972892046,299.41868215942384,0.009445343166589735,-0.002657403703778982,-0.7950115203857422,0.6065149903297424,-0.0244692810681875,0.03635865825398227,2.926145778572508,0.049584507942199714,-0.028047619387507442,0.021339822560548786,0.09665041822940112,0.029654346043244007,-9.71971255838871
30.4,1.7999999523162842,171.0,21.006906509399414,32.66588592529297,-79.78279318295486,40.45896973839013,300.0095387115478,0.008799755014479159,-0.004697701893746853,-0.7950572371482849,0.6064525246620178,-0.04486226228878447,0.037065646854585695,2.9457416064400364,-0.04218555986881256,-0.04242522269487381,0.002355061937123537,0.06340704208239914,0.049280324382707484,-9.789466332793236
30.5,1.8999999761581416,171.0,21.065753936767575,31.083484649658203,-79.78279320203524,40.458969751759966,300.3045902862549,0.00575024401769042,-0.00678334990516305,-0.7948998212814331,0.6066756248474121,-0.03245684955039215,0.02709784127170981,2.949319536650893,-0.015330072492361069,-0.03863385319709778,-0.028959555551409718,0.029441151078790424,0.07045814005192369,-9.788165912032127
30.7,2.0999999046325684,172.0,21.00440216064453,32.66588592529297,-79.78279321366392,40.45896967694086,300.88546759033204,0.0016589239239692688,-0.005274014547467232,-0.7941073775291443,0.6077523827552795,0.0061854620203960035,0.016714595118453718,2.939920953699718,0.09824243187904358,-0.07701792567968369,0.0039569507353007785,0.12076146678999068,0.06348756920546292,-9.876963483095171
30.9,2.299999952316284,170.0,20.968093872070312,33.0078125,-79.78279328127023,40.45896968824629,301.46751791381837,0.003632157575339079,-0.0013133208267390724,-0.793384313583374,0.6087087988853455,-0.022887433684487483,-0.007140821176583855,2.976014761522252,0.07791373133659363,-0.007820887491106987,0.0014658131403848527,0.13193761551752686,-0.05432514216285199,-9.98393361568451
31.0,2.5,167.0,20.820350646972656,36.48273849487305,-79.78279330069495,40.45896971826775,301.76678091430665,0.0047906101681292074,0.0006821883143857121,-0.7931531071662903,0.6090031862258911,-0.039097292391535116,-0.003907730828231072,3.009000561858137,0.09377970546483994,-0.06094902753829956,0.022370515391230583,0.19517099529504772,-0.1196112646535039,-10.178959307670594
31.2,2.5999999046325684,166.0,21.11082649230957,30.4711971282959,-79.78279331415213,40.45896974892045,302.07031256103517,0.005761494394391775,0.002500393427908421,-0.7930974960327148,0.6090624332427979,-0.05103183428117386,-0.004517496849309171,3.0658177623488947,0.11918306350708008,0.002246837830170989,0.013927632942795752,0.0818738007824868,-0.10941919318400324,-10.357761315107346
31.3,2.799999952316284,164.0,20.934288024902344,33.83479690551758,-79.78279342098028,40.45896987048457,302.66876226806636,0.007601429242640735,0.0015774809289723635,-0.7938573956489563,0.608054518699646,-0.07734964443865594,-0.016004855970997472,3.1064006090364025,0.007961614988744259,0.005114324390888214,0.034324195235967636,0.021322657596319915,-0.12559389816597105,-9.958481855392458
31.5,2.799999952316284,164.0,20.970598220825195,32.562515258789055,-79.78279335345128,40.45896972765046,302.95669943237306,0.00828309915959835,-0.0005240794271230699,-0.7943602204322815,0.6073904633522034,-0.061129517876753275,-0.01495367086217114,3.06099002632828,0.039164911955595016,-0.007605140563100576,0.0020129340700805187,0.006962818717584014,-0.1222550466656685,-9.860710562467576
31.61,2.9000000953674316,161.0,21.08077812194824,30.23264503479004,-79.78279342914875,40.45896978099882,303.568801940918,0.007199058774858712,-0.0008339386549778283,-0.7952693700790405,0.6062130331993103,-0.04857609186228037,-9.390558402841767e-05,3.050426372554772,0.055517520755529404,-0.11971072107553482,-0.005776510573923589,0.16541296167299152,-0.05269229348748922,-9.768204687237741
31.8,3.0,163.0,20.95181655883789,33.01576614379883,-79.78279359605143,40.458969699290826,304.15227896118165,0.006729794200509787,0.0038142201956361532,-0.7955787777900696,0.6058008074760437,-0.032863747116935266,-0.03739791801858355,2.9589479409239905,-0.012580418027937412,0.02795034274458885,0.05782730877399445,0.0650833611516282,-0.07898731363937259,-9.601422216296195
31.91,3.2000000476837163,163.0,20.87919807434082,33.90636444091797,-79.78279362313303,40.45896964969019,304.4449997558594,0.006763314828276634,0.004586599767208099,-0.7954207062721252,0.6060026288032532,-0.04129245020307458,-0.04007494336122035,2.9508143092448504,-0.013271504081785679,0.06359388679265976,0.0013717978727072475,0.020374910733662547,-0.20614612771198154,-9.656287810206413
32.0,3.2000000476837163,163.0,21.00440216064453,31.17095375061035,-79.78279367693501,40.458969650589815,304.7406464233398,0.007403359748423099,0.0052472930401563644,-0.7950754761695862,0.6064426898956299,-0.03742579992449744,-0.041273076194982924,2.96619695843432,-0.03972996771335602,0.0644066259264946,-0.055653225630521774,0.013621344678103924,-0.1760138905607164,-9.886892055273057
32.2,3.2000000476837163,163.0,21.05824089050293,30.638185501098643,-79.78279374708238,40.458969559164174,305.335044921875,0.007714192848652601,0.005672415252774954,-0.7941924929618835,0.6075908541679382,-0.03453829483447552,-0.030808402746127325,2.970515889657076,-0.09623897075653076,0.055317021906375885,-0.1054604798555374,-0.016014265150297434,-0.06699892270378767,-9.692947513461114
32.3,3.2000000476837163,162.0,20.83287239074707,36.347557067871094,-79.78279379044751,40.45896953696234,305.6307831420898,0.00773621816188097,0.005193626973778009,-0.7936885952949524,0.6082530617713928,-0.019168582771658248,-0.030851811441041068,2.9505345022331726,-0.010803629644215107,0.004065715242177248,-0.07423599064350128,-0.04409000686369837,-0.013755435494240374,-9.647580721378327
32.5,3.2000000476837163,159.0,20.95932960510254,31.830951690673828,-79.78279384656145,40.4589694717514,306.2344627990723,0.008974406868219377,0.0019293000223115087,-0.7932801842689514,0.6087875366210938,-0.01707774815582978,0.001660635467645394,3.042102697978524,-0.09412185847759247,-0.0406201034784317,-0.12292210757732393,0.11585034468211235,-0.10856569156050684,-10.183392666578293
32.7,3.2000000476837163,160.0,21.021930694580078,31.4890251159668,-79.78279384544976,40.458969337382115,306.83863455200196,0.004197892732918263,-0.0008741146302781999,-0.7934989929199219,0.6085564494132996,0.004300786009948496,0.013193806189708977,3.0464850714655114,-0.10415107756853104,-0.07419808954000473,-0.12447266280651093,0.04830398098099977,-0.11919927349314095,-9.988724824190141
32.8,3.2000000476837163,159.0,21.019428253173828,31.80709648132324,-79.78279387416026,40.45896930140896,307.1426163330078,0.0038222884759306908,-0.0015649863053113222,-0.7936570644378662,0.608351469039917,0.02505794704704816,0.007657583452213122,3.030192841020796,-0.006784866563975811,-0.10421202331781387,-0.0367434062063694,0.06512519158422947,0.023169285957701503,-9.663917257189752
32.9,3.2000000476837163,158.0,20.876693725585934,33.98588180541992,-79.78279386588358,40.45896923646211,307.447780670166,0.0044398680329322815,-0.0016342935850843787,-0.7937510013580322,0.6082245707511902,0.02550501654008176,0.01853550183528092,3.0236577245608336,0.042038273066282265,-0.05785151943564415,0.1081593707203865,0.11799410752952097,0.004458776023238897,-9.653750703334811
33.1,3.2000000476837163,158.0,20.824108123779297,34.21648406982422,-79.78279390164522,40.45896917729196,308.05492025756837,0.006775003392249346,0.0007134288316592574,-0.793971061706543,0.6079175472259521,0.025905223611212308,0.019577833085430263,3.059904830944286,0.1358000934123993,-0.02261913754045964,0.16659992933273315,0.12075158134102824,0.0038097168132662776,-9.996353101730348
33.31,3.2000000476837163,159.0,21.02568817138672,30.74950981140137,-79.78279399495719,40.458969080661795,308.6829262390137,0.00836951844394207,0.00021466842736117545,-0.7939988970756531,0.6078616380691528,-0.011070663459170129,0.008540044027864152,3.1625415999686988,0.0619523674249649,0.003203105879947543,-0.037567798048257835,0.07883355927653611,-0.04010879304260016,-10.152921656370165
33.41,3.2000000476837163,160.0,21.041963577270508,30.407583236694336,-79.78279400244121,40.458968916749846,308.98812109375,0.006360250525176525,-0.0011639725416898727,-0.7943504452705383,0.6074254512786865,0.0035645093722059024,0.01957447110997896,3.1443828621966725,0.021559884771704674,-0.048539802432060235,-0.013901711441576479,0.13031925240531564,-0.055477843070402745,-9.883115923404693
33.6,3.2000000476837163,160.0,20.963085174560547,31.70372200012207,-79.78279405812368,40.4589688511621,309.6132431640625,0.007472564000636339,-0.0019025584915652871,-0.7955350875854492,0.6058586239814758,0.0209997154603302,0.018810720230663318,3.1132763182859318,0.025224804878234863,0.0637156218290329,0.07855421304702759,0.10433315710164608,-0.13069330975413326,-9.651605944633484
33.71,3.2000000476837163,161.0,21.10581970214844,28.91264915466309,-79.78279408335712,40.45896887763982,309.9126854553223,0.00796335656195879,-0.0017614138778299093,-0.7963020205497742,0.6048442125320435,-0.01507548157543371,0.016569947533423918,3.092169596077444,-0.045066263526678085,0.0510508269071579,0.00018346266006119552,0.1389135813340545,-0.2766805236786604,-9.672280529737472
33.8,3.2000000476837163,161.0,21.04947662353516,30.63023376464844,-79.78279411572882,40.4589688672351,310.2200356140137,0.007102288771420717,-0.0017043648986145856,-0.7969902157783508,0.603948175907135,-0.020045398610786518,0.0159718142081458,3.0545595471986497,-0.08162900060415268,0.04498177766799927,-0.039569661021232605,0.0827771042380482,-0.1426610709819943,-9.475219421982764
34.0,3.2000000476837163,161.0,20.949312210083008,32.538658142089844,-79.78279423129256,40.45896873110629,310.8275871887207,0.006951672025024891,0.0003361866401974112,-0.7975140810012817,0.603260338306427,0.006831332841091702,-0.005403238821052209,3.018195983690014,0.07598984986543655,-0.003965835087001325,-0.03757255896925926,-0.0018366743903607129,-0.09537784483283758,-9.655939900875092
34.2,3.2000000476837163,161.0,20.98562240600586,31.886613845825195,-79.78279427648617,40.458968710111115,311.1292381896973,0.006457985378801823,0.00019120654906146228,-0.7972726225852966,0.603584885597229,-0.001411456013781379,-0.00791769722637888,3.0126774697179157,0.010474283248186113,-0.03819271922111511,-0.06953881680965424,0.10001544515602293,-0.05930201803799719,-9.744017094969749
34.3,3.2000000476837163,162.0,20.79280662536621,35.09117889404297,-79.78279433043714,40.45896866431188,311.74061209106446,0.005668338388204575,-0.0012485379120334985,-0.7957283258438109,0.6056259870529175,0.01594414721033974,-0.011051005333716037,3.0170135507199385,0.11731935292482375,0.04232381284236908,0.09417877346277237,0.07162813135888428,0.04669116815552117,-9.797308618426325
34.5,3.2000000476837163,160.0,20.973100662231445,31.62420463562012,-79.78279434117124,40.45896863206282,312.35852056884767,0.006536950822919607,0.00036138243740424514,-0.7936294674873352,0.6083663105964661,0.002863209465951975,0.0015064243595709313,3.0756657285597497,0.1337437629699707,0.02132994681596756,0.06992146372795105,0.10010142663493753,0.01564711254090071,-9.976053907871247
34.61,3.2000000476837163,161.0,20.93929672241211,32.268299102783196,-79.7827943757418,40.458968618849724,312.6663132324219,0.005587246268987657,0.0008401861996389923,-0.7928028702735901,0.6094520688056946,3.376737526621825e-05,-0.002269374446166738,3.0785037900681917,0.09511430561542512,0.04274635761976242,0.03186031058430672,0.07063922557979822,-0.18780496537685398,-9.87253246307373
34.8,3.2000000476837163,160.0,20.91550636291504,32.761306762695305,-79.78279442171753,40.45896852796836,312.9741860046387,0.00431264378130436,0.0010412815026938915,-0.7923733592033386,0.6100204586982727,0.004613206778694175,-0.010079088831243895,3.0865571894725683,0.04345015808939934,0.04259902983903885,0.0070043890736997145,0.08820185855962337,-0.22635964158922434,-9.867936551570892
34.91,3.0999999046325684,157.0,20.975605010986328,31.592397689819336,-79.78279449238491,40.458968440237825,313.59140783691413,0.004721224308013916,0.001563752768561244,-0.7925588488578796,0.609775185585022,0.0041366714238675285,-0.01657926904884031,3.09006391434294,-0.054186344146728516,0.03940922766923904,0.016401521861553192,0.08646529946476221,-0.1236983861681074,-9.797105720043184
35.1,3.0999999046325684,158.0,20.800317764282227,35.289974212646484,-79.7827945665652,40.4589683882196,314.2086563720703,0.005457770079374313,-0.00019482999050524086,-0.7931904792785645,0.6089491844177246,0.0019485597913648969,-0.003947589995336318,3.102734702499588,-0.08203639090061188,-0.024734297767281532,-0.0947955921292305,0.07715945575386286,-0.1066727651283145,-9.755406301617624
35.21,3.0999999046325684,157.0,20.7802848815918,34.431182861328125,-79.78279459012685,40.458968300228186,314.5238762512207,0.0055830851197242745,-0.001010525389574468,-0.7932382822036743,0.6088849902153015,-0.002567308942320075,0.009332602243025387,3.1485342288367284,-0.12315566092729567,-0.03755908831954002,-0.08733000606298448,0.16241109251976013,-0.10969970421865582,-10.15426417708397
35.31,3.0999999046325684,157.0,21.041963577270508,30.0736083984375,-79.78279462010086,40.458968275557226,314.8407402648926,0.003982477821409702,-0.00215276051312685,-0.7933560013771057,0.6087412834167479,-0.002310861445771265,0.012988398094696787,3.1816412974437456,-0.11784635484218595,-0.02048781327903271,-0.026913372799754143,0.1654985868372023,-0.10572450206615032,-10.095229518413543
35.5,3.0,156.0,21.015670776367188,30.495052337646484,-79.78279456958059,40.45896820956796,315.46440130615235,0.0007492692093364892,-0.002809314057230949,-0.7941428422927856,0.6077243089675903,0.008024065630426565,0.00874856163517381,3.1371989390479,-0.08845317363739014,-0.03934235870838165,-0.11635205894708632,-0.002661910664755851,-0.04694202741142363,-9.707866099476817
35.61,3.0,157.0,21.05198097229004,29.94638061523437,-79.78279458865255,40.458968204379566,315.77700048828126,0.0001781023747753352,-0.0031733601354062557,-0.7944363951683044,0.6073391437530518,0.011009332265862695,-0.0001688236170538284,3.115654683421452,-0.01825055293738842,-0.04095752537250519,-0.08296050131320952,-0.00460723134689033,0.043332664528861635,-9.613568637371065
35.8,3.0,158.0,20.89297103881836,33.071426391601555,-79.78279471007629,40.458968144784286,316.3999977722168,0.0012349243042990565,-0.0021916136611253023,-0.7943371534347534,0.6074720621109009,0.006207345637969222,-0.00969537131068425,3.055711017090434,0.07759801298379898,0.10182807594537736,0.022297298535704613,0.05636355006136001,-0.07721567125059664,-9.53498849093914
36.0,2.9000000953674316,158.0,20.953067779541016,31.46516990661621,-79.78279459044379,40.458967999518606,317.0251312866211,0.005013633519411087,-0.0023778583854436874,-0.7941938638687134,0.6076393127441406,-0.0012613208258190284,-0.00380559715163889,3.0866614017884557,-0.015855176374316216,0.0582418218255043,-0.013387770392000677,0.07886226545087993,-0.08584885675460101,-9.751262379884722
36.11,2.799999952316284,156.0,20.929279327392575,32.60227203369141,-79.78279461602507,40.458967999485324,317.33372885131837,0.00614045187830925,-0.00246604229323566,-0.7942336797714233,0.6075764894485474,-0.017887755817986867,0.009732509065574178,3.0871442886203804,-0.07310225069522858,0.019757572561502457,-0.0592544749379158,0.16381263356655834,-0.11025490648113193,-9.826437692642212
36.2,2.700000047683716,158.0,20.87418937683105,32.761306762695305,-79.78279464704262,40.458967911901865,317.6480141296387,0.0056170979514718064,-0.0025611130986362696,-0.7941992282867432,0.6076261401176453,-0.01759133939145079,0.014460816358821025,3.0973075450066334,-0.10793209820985794,-0.022347908467054367,-0.07652870565652847,0.09594519834034146,-0.12685745405964555,-9.77547336101532
36.41,2.5999999046325684,158.0,20.821603775024414,34.04154586791992,-79.78279466325797,40.458967854648,318.2688713684082,0.0029540357645601034,-0.0021222562063485393,-0.7937843799591064,0.6081884503364563,-0.013493778183452187,0.01138804484441338,3.1214318793332385,-0.09643982350826263,-0.035272207111120224,-0.1418813169002533,0.07200704006943852,-0.06416381796821953,-9.977025715112687
36.6,2.5,158.0,20.8629207611084,33.747329711914055,-79.78279471185981,40.45896785116329,318.8960915222168,0.0052393777295947075,-0.0011939961696043608,-0.7933325171470642,0.6087648272514343,-0.015824170508124603,0.010248604350652793,3.141020872553133,-0.07642444968223573,-0.030136859044432637,-0.1278054267168045,0.10441824322566393,0.00858575453516096,-9.956131274700166
36.7,2.5,156.0,20.92427062988281,31.67191505432129,-79.78279471875355,40.458967793860026,319.2078133239746,0.006195357535034418,-0.0016910077538341286,-0.7934908270835876,0.6085484623908997,-0.019621842526681643,-0.0004863865417102549,3.1373631935486594,-0.07094409316778183,-0.007566638756543399,-0.1184486448764801,0.0937831538077444,-0.010843195477500558,-9.883210648298263
36.8,2.5,157.0,20.954320907592773,31.04372596740723,-79.78279475393263,40.45896779404252,319.52113348388673,0.005894191563129425,-0.003445841604843736,-0.7938306331634521,0.6081006526947021,-0.023901868602401247,0.0037479911457951962,3.127550632999433,-0.09580394625663756,-0.015247448347508909,-0.13731439411640167,0.08723755219951272,-0.026998193515464664,-9.74097011089325
37.0,2.4000000953674316,158.0,20.954320907592773,32.31600952148437,-79.78279479758025,40.45896773572476,320.13921743774415,0.002616670448333025,-0.0053068907000124454,-0.7944321036338806,0.6073241829872131,0.002363078007781374,-9.88407697468073e-05,3.0481681329383274,0.05090640112757683,-0.053572986274957664,0.1007167026400566,0.09960929207503796,0.03643310537561775,-9.415390711426737
37.1,2.4000000953674316,159.0,20.989377975463867,30.57457160949707,-79.78279483646129,40.45896775018423,320.44225317382814,0.0013083377853035927,-0.0051690875552594644,-0.79450523853302,0.6072339415550232,0.0011335521667812634,-0.002408200063385801,3.017486118637595,0.04664043709635735,0.055725276470184326,0.026888523250818253,0.07046115959063172,-0.12811662454158068,-9.50183477818966
37.3,2.4000000953674316,160.0,20.855409622192386,33.20660781860352,-79.78279470426266,40.45896770447945,321.05390173339845,0.0010481937788426876,-0.0037006188649684186,-0.7943711876869202,0.6074205040931702,-0.008191597883770163,-0.005913285502234043,2.990439778160141,-0.03926891088485719,-0.03273123502731323,-0.12267781794071198,0.036540863164700566,-0.10349517800845208,-9.57307023704052
37.5,2.5,159.0,20.986873626708984,31.250471115112305,-79.78279472905267,40.45896768693249,321.3636551513672,0.0018273836467415094,-0.002589327748864889,-0.7943537831306458,0.60744708776474,-0.033048054990951106,-0.013539814803207043,3.0165928493242933,-0.015317356213927269,-0.05488559603691101,-0.11948715150356293,0.03109289813786745,-0.034640723643824464,-9.634993420243264
37.61,2.5,161.0,20.880449295043945,33.691665649414055,-79.78279476213764,40.45896778259324,321.9619103088379,0.0018095041159540415,-0.0005913535715080798,-0.7942782640457153,0.6075512170791626,-0.054243243562661775,-0.008767435368508106,2.9665574926299545,0.059667780995368964,0.04145433381199837,0.03334510326385498,0.07093412167858333,-0.1962754612416029,-9.593827267885207
37.7,2.5999999046325684,161.0,20.87418937683105,32.23649215698242,-79.78279474481549,40.45896777575803,322.2688942565918,0.0026760746259242296,0.0003239363722968846,-0.794089138507843,0.6077954173088074,-0.056034105115924486,-0.013952402545522824,2.9969560828605584,0.0348520502448082,0.058854799717664726,0.0012386169983074071,0.12824383802711964,-0.2604883775487542,-9.80055031478405
37.9,2.5999999046325684,160.0,20.867929458618164,33.691665649414055,-79.78279480214655,40.45896779404574,322.86944204711915,0.006386517081409693,-0.00010824868513736874,-0.7937716245651245,0.6081824898719788,-0.07249392853533343,-0.002018967472505906,2.9857091790676327,-0.10029296576976776,0.02880549244582653,-0.08701543509960175,0.09043598829768598,-0.162423225492239,-9.66320272743702
38.0,2.700000047683716,160.0,20.71267509460449,35.178646087646484,-79.78279480861231,40.45896782886806,323.1678925170898,0.007403424009680749,-0.0007106568082235754,-0.7936556339263916,0.6083219051361084,-0.07251146133397184,0.010251628998151073,2.9914392284290865,-0.1109754666686058,-0.012349488213658331,-0.11518131196498872,0.08628107562661172,-0.08149393276311458,-9.878355120420457
38.2,2.5999999046325684,158.0,20.896726608276367,32.14107131958008,-79.78279477234541,40.45896787345636,323.7671852722168,0.007430862635374068,-0.0008238670416176317,-0.7933497428894043,0.6087203025817871,-0.07163866797854528,0.02012445393878591,3.0573180328945733,-0.07665801048278809,-0.029228353872895237,-0.05412760749459267,0.16056242220103742,-0.13479332255199553,-10.165832308530806
38.4,2.5999999046325684,158.0,20.831619262695312,33.214561462402344,-79.78279481909486,40.45896791578808,324.36153036499024,0.003119050059467554,-0.001688023330643773,-0.7932881116867065,0.6088361740112305,-0.05701374909270888,0.012489238239297488,3.04632094001479,-0.08717678487300873,0.03439915180206299,-0.016161324456334114,0.11365406652912498,-0.2375428252480924,-10.016863964796066
38.5,2.5999999046325684,157.0,20.805326461791992,33.739376068115234,-79.78279482285022,40.45896794116005,324.6672211303711,0.0010201516561210155,-0.0022156932391226287,-0.7933054566383362,0.6088190674781799,-0.035626972545833094,0.0116414623391761,3.0684231295143487,-0.04342414066195488,0.037753652781248086,-0.020496765151619908,0.13254930736497045,-0.20468456134200091,-10.05621221780777
38.6,2.5999999046325684,157.0,20.80282211303711,33.66781234741211,-79.78279481829094,40.458967965336115,324.97508627319337,-0.00011809889110736548,-0.0014471480390056968,-0.7934041023254395,0.608693540096283,-0.023295576001856312,0.013369762742801187,3.0915009914124423,0.01917556114494801,0.02146979793906212,-0.008446644060313702,0.12953431852161884,-0.15587116453796626,-10.082323544025419
38.8,2.5999999046325684,156.0,20.835376739501953,33.88250732421875,-79.78279486874797,40.458968072065026,325.57127767944337,0.0009459710563533008,-0.000599717372097075,-0.7934308648109436,0.6086595058441162,-0.058963042579053375,0.006711634559365954,3.088876949584737,-0.01804377324879169,0.031699247658252716,0.06311681121587752,0.10856871566735207,-0.2688501152023673,-9.941544810533523
39.0,2.5,155.0,20.880449295043945,32.196731567382805,-79.78279483171016,40.45896803132,325.8654099121094,-0.0002878141240216792,-0.0013326879125088453,-0.7935984134674072,0.6084405183792114,-0.05721137342792256,0.020306523598892904,3.06216250608424,-0.051139142364263535,-0.02521597594022751,0.0781496912240982,0.15814567660912873,-0.26990128012374043,-9.857175335884095
39.11,2.5,152.0,20.949312210083008,30.741558074951172,-79.78279475339785,40.45896813424967,326.4767304077148,-0.0038482472300529476,-0.002479983959347009,-0.7939691543579102,0.6079409122467041,-0.055721762167357185,0.022277435459932004,3.0458099304561976,-0.0557844415307045,0.04700327664613724,-0.015573603101074697,0.06316982328426092,-0.14539543001912536,-9.723088740706444
39.3,2.4000000953674316,152.0,20.8629207611084,33.65985870361328,-79.78279466780039,40.45896822589002,327.0741348876953,0.0016262937569990756,-0.003355680499225855,-0.7941293716430664,0.6077374219894409,-0.06872938202258097,0.03334147494877663,2.9698222789143767,0.036626335233449936,-0.002462922595441341,-0.057665426284074776,0.02284043032675981,0.057883049547672275,-9.423762754797936
39.42,2.4000000953674316,152.0,20.85916519165039,32.97600555419922,-79.78279466937872,40.458968229604466,327.375198425293,0.00375351426191628,-0.002325921785086393,-0.7941208481788635,0.6077439188957214,-0.07381027036840952,0.04366027819800426,2.980812672688319,0.08482080698013306,-0.024641221389174458,0.014904368668794632,0.016528621413744986,0.14692282324656844,-9.611540238261224
39.5,2.299999952316284,152.0,20.94430351257324,30.42348670959473,-79.78279461271522,40.45896829625395,327.67322927856446,0.0047699143178761005,-0.0010276889661327004,-0.7941116094589233,0.6077523827552795,-0.08774608773752751,0.0473481014828846,2.9755596212933435,0.09584321081638336,-0.015486410818994044,0.06212636828422545,0.02555829838849604,0.10048286609351637,-9.713454868197443
39.7,2.200000047683716,152.0,20.817846298217773,35.34563446044922,-79.7827945193871,40.4589684497848,328.2679405822754,0.0010699051199480893,0.0015026049222797155,-0.7940090894699097,0.6079031825065613,-0.10854768208029447,0.025281324517749684,2.936255215804696,-0.016189660876989358,-0.04061472043395042,-0.02071512490510941,0.07988358216360211,-0.1302252949588001,-9.56308787047863
39.8,2.200000047683716,153.0,21.02318382263184,29.34999847412109,-79.78279446947398,40.45896852496138,328.5611534729004,0.0017096420051530006,0.0008391680312342943,-0.793776273727417,0.6082068681716919,-0.10099686068559464,0.01906759559433177,2.932033849282378,0.007174983154982328,0.08608201146125792,-0.054721489548683167,0.0581761046871543,-0.08150247517973185,-9.727626764774323
40.01,2.299999952316284,151.0,20.861669540405273,33.15094375610352,-79.78279424641308,40.45896864159798,329.15326696777345,0.0052134287543594855,-0.003078218316659332,-0.7934214472770691,0.608642578125,-0.1096122885038052,0.05336716685976189,2.8958013016686857,0.07814768701791762,0.052051838487386703,0.02316196821630001,0.038307594805955886,-0.03504727872088552,-9.455205572247506
40.2,2.299999952316284,150.0,20.78904914855957,34.45503616333008,-79.78279419028577,40.45896875620559,329.7338486328125,0.009610756300389768,-0.003983746282756329,-0.7931481003761292,0.6089399456977844,-0.09906244076961544,0.07945372556548203,2.9272300550841304,0.0921059176325798,-0.05463486909866333,-0.024736847728490836,0.13542246468365193,-0.05025597342755647,-9.662578829526902
40.31,2.299999952316284,150.0,20.71017074584961,36.36346054077149,-79.78279413171019,40.458968816142246,330.028274597168,0.011346770450472832,-0.0022191943135112524,-0.7930478453636169,0.6090496778488159,-0.10519631402257262,0.08094028174879746,2.956700233069544,0.07030700892210008,-0.0535249225795269,-0.05840134620666504,0.12774179060943425,-0.0265708077326417,-10.052204536199572
40.41,2.200000047683716,150.0,20.7064151763916,34.948047637939446,-79.78279405612444,40.458968884116466,330.3188095703125,0.012104570865631105,0.00020728046365547925,-0.7929596304893494,0.6091540455818176,-0.1275686782652284,0.0651210067420496,3.0050720799714736,-0.018916787579655647,-0.04268347844481468,-0.09399962425231934,0.01284223973751068,-0.028203380035702136,-10.279174736738208
40.6,2.200000047683716,150.0,20.97936248779297,29.914573669433594,-79.78279399517643,40.458968996253866,330.92894750976564,0.009139509871602058,0.0012733045732602475,-0.7928082346916199,0.6094014048576355,-0.12103369515196535,0.040823467473306896,3.0641117899745707,-0.09209451824426652,0.04364121705293656,0.04313194751739502,0.04973266133107245,-0.13093578647822146,-9.961155202388763
40.8,2.299999952316284,150.0,20.74272346496582,33.86660385131836,-79.78279390312096,40.45896911370528,331.5068588867188,0.0048140441067516795,0.0002784741809591651,-0.7925819754600525,0.6097464561462402,-0.08567724303606013,0.024968569710434454,2.9972162247291587,-0.003837576135993004,-0.028230685740709305,-0.0757489874958992,-0.031006286256015307,-0.03102016425691545,-9.691523131728172
40.9,2.4000000953674316,150.0,20.79656219482422,35.02756500244141,-79.7827938629996,40.458969065517415,331.79491049194337,0.006147722713649273,-0.0002088226756313816,-0.7925689816474915,0.6097513437271118,-0.0590099195734646,0.02889117726996075,3.0009400715404984,0.03142416104674338,0.004321073647588491,-0.08534260094165802,0.05899361852556467,0.049253162238746886,-9.976611732244493
41.1,2.4000000953674316,148.0,20.8529052734375,32.300106048583984,-79.78279383063492,40.45896909055553,332.09629064941413,0.0075095435604453096,0.00011516399536048992,-0.7925335168838501,0.6097822189331055,-0.06247497792872143,0.038806359552890864,3.024851028704996,0.01018041092902422,-0.01106300298124552,-0.08795280009508133,0.0231878371629864,-0.06033508399967105,-10.030190938711167
41.21,2.5999999046325684,149.0,20.88670921325684,31.767335891723643,-79.78279379865394,40.45896911635692,332.39979177856446,0.006912198383361101,-0.0008004947449080646,-0.7925066947937012,0.6098236441612244,-0.07253627745567952,0.04037811735773135,3.0421388002124976,-0.04479219019412994,-0.00567005993798375,-0.09452860057353972,0.048607154544442886,-0.13934649456292392,-9.827692505121233
41.3,2.700000047683716,149.0,20.86542510986328,32.196731567382805,-79.78279376019522,40.45896910312021,332.9936180725098,0.003803825238719583,-0.00355560565367341,-0.7927576899528503,0.6095146536827087,-0.04988249128613046,0.04516200625867487,3.019242815901752,-0.03026750311255455,-0.07818128913640976,-0.02214532904326916,0.15215832877904178,-0.11972301956266165,-9.77536518752575
41.5,2.799999952316284,151.0,20.825359344482425,32.68178939819336,-79.78279373271167,40.45896911792643,333.58929067993165,0.005071809981018305,-0.00305607495829463,-0.7934067845344543,0.6086630821228027,-0.04270218236793456,0.0380377113222786,3.0041301580313267,-0.01023303996771574,-0.020258640870451927,0.02372121624648571,0.08385471867397427,-0.16895633781328798,-9.77346835076809
41.7,2.799999952316284,151.0,20.91550636291504,31.20276069641113,-79.78279372187845,40.45896915041596,333.88954931640626,0.0057952371425926685,-0.0019195940112695094,-0.7936146259307861,0.608390212059021,-0.055822320069624086,0.03542644084970085,2.9985598130544084,-0.03700312972068786,-0.024511376395821568,0.07184270769357681,0.10087996512651444,-0.15371573466807606,-9.752667465806008
41.8,2.9000000953674316,151.0,20.846643447875977,33.47696685791016,-79.78279374351254,40.458969223538865,334.48034674072267,0.006510178558528422,-0.0007796138525009155,-0.7936484217643738,0.6083414554595947,-0.06893017871278298,0.014841499229844034,2.9654573590485316,0.01950678601861,0.051331430673599236,0.04060746729373932,0.044420995814725764,0.006754470546729863,-9.629568373560907
42.0,2.9000000953674316,151.0,20.711421966552734,34.955997467041016,-79.78279375318482,40.4589692445802,335.07919317626954,0.00943395122885704,0.0006154460133984685,-0.7933225631713867,0.6087282299995422,-0.06679587939055706,0.000666233053588941,3.0158099267003817,-0.01218376774340868,0.03178979828953743,-0.05755366384983063,0.031039240797981617,0.009603414454031735,-9.79546265244484
42.1,2.9000000953674316,150.0,20.861669540405273,31.329988479614247,-79.78279377559473,40.45896927139716,335.38275915527345,0.010691498406231405,0.00014930558972992006,-0.7931703925132751,0.6089060306549072,-0.07232964873691887,0.002316140563434953,3.054567435946136,-0.06388360261917114,0.05805482715368272,-0.04787029325962066,0.05212624189909548,-0.1330931349657476,-10.147753887176512
42.3,3.0,151.0,20.85791206359864,32.72949981689453,-79.78279378715875,40.4589692171685,335.68434912109376,0.009494497440755369,-0.0009329669992439448,-0.7933338284492493,0.6087121367454529,-0.06192053429037445,0.013127174318204014,3.0570292507888515,-0.06394539028406143,0.05799537897109985,-5.8210811403114355e-05,0.08197353235445917,-0.14489711933769284,-9.896247600317002
42.41,3.0,152.0,20.850400924682614,32.506851196289055,-79.78279380675212,40.45896915990925,336.2914887084961,0.00848563387989998,-0.0012256073532626033,-0.7929525971412659,0.6092230677604675,-0.028746889872195338,0.01542451687749246,3.0380220624848504,-0.048853743821382516,-0.01983332633972168,-0.06205426901578904,0.09830208306200802,-0.07732102163136005,-9.702670848369598
42.6,3.0999999046325684,152.0,21.065753936767575,28.96036148071289,-79.78279387629655,40.458969144714395,336.8955307617188,0.00906229205429554,-0.0007635368383489549,-0.79278963804245,0.6094275712966919,-0.016630717319325423,0.0023259238042962274,2.9838318878769434,0.009343402460217476,-0.071108378469944,-0.010349703021347523,0.05308298342395574,-0.07508212732616812,-9.677167632579804
42.7,3.0999999046325684,153.0,20.85791206359864,32.54661178588867,-79.78279395146838,40.4589690991814,337.19525915527345,0.0095056165009737,-0.0007647110614925622,-0.7927895188331604,0.6094210743904114,-0.025544809272771102,-0.0008784174321431923,2.9396641053812718,-0.13539080321788788,-0.02403116039931774,-0.04004988446831703,0.12745790828950704,-0.1902083171904087,-9.319574142694474
42.8,3.0999999046325684,153.0,20.9167594909668,32.11721420288086,-79.78279401046491,40.458969084229174,337.4872666015625,0.009377175942063332,-0.0013306925538927314,-0.7927017807960509,0.6095361709594727,-0.011997789861003241,-0.007974422883026723,2.9034421479133488,0.007594947703182697,0.07730533927679062,0.032843023538589484,0.05520644090138376,0.02688273841515184,-9.410149267315864
43.0,3.0999999046325684,154.0,20.880449295043945,31.385652542114247,-79.78279401039042,40.45896895479493,338.0859680786133,0.008144086226820946,-0.004208384547382593,-0.7929384708404541,0.6092328429222107,0.015376227490783963,-0.0013113709828615173,2.9159531357131363,-0.01650003157556057,-0.04420342296361923,-0.0856945812702179,0.05854167443700136,-0.06247547099366784,-9.60356580555439
43.1,3.0999999046325684,154.0,20.69639778137207,36.37936401367188,-79.78279408311538,40.45896892820342,338.37665563964845,0.006621146108955145,-0.005956589709967375,-0.7930184006690979,0.6091326475143433,0.022702895376530537,-0.008368208220238626,2.899014983094548,-0.010767487809062004,-0.05887549743056297,0.0853630006313324,0.1082667343877256,-0.04555370198562742,-9.65974234521389
43.3,3.0999999046325684,155.0,20.88921356201172,29.89071846008301,-79.7827942489197,40.45896890079065,338.97284704589845,0.00439613638445735,-0.007253642659634352,-0.7930718064308167,0.6090692281723022,0.03635599780124572,-0.010112750319404805,3.0200691055486786,0.06755653768777847,-0.05198543146252632,-0.014899515546858309,0.05264420927502216,0.08340949888341129,-10.307518529891967
43.5,3.0999999046325684,156.0,20.765260696411133,34.367565155029304,-79.7827944025704,40.45896880360977,339.57004553222663,0.0018934524850919843,-0.0029054088518023487,-0.7927902936935425,0.6094847321510315,0.038970883104706214,-0.03962208428602504,3.0227685401242104,0.08421719074249268,-0.051949840039014816,0.0036510904319584365,0.01483131632208824,0.09767386369407176,-9.984584995508195
43.6,3.0999999046325684,157.0,20.831619262695312,32.76926040649414,-79.78279449099352,40.458968799094464,339.8728790893555,0.0013089003041386606,-0.0014063764829188585,-0.792730450630188,0.6095694899559021,0.03042731482633788,-0.05451717276906886,3.0371594881210178,0.08741026371717453,-0.017361804842948914,-0.012519863434135914,-0.010626848498359324,0.14356182541698218,-9.934327007532119
43.7,3.0,158.0,20.867929458618164,32.10131072998047,-79.7827946459864,40.45896872223458,340.162681640625,0.0021644372027367353,-0.0005546780885197221,-0.7927675843238831,0.6095200777053833,0.03700319462490639,-0.07044131856042234,3.0188571214485176,0.09571431577205658,-0.003503656480461359,0.013853795826435087,0.045613325312733655,0.07798343807458878,-9.864251636266706
43.91,2.9000000953674316,157.0,20.815343856811523,33.103233337402344,-79.78279482571664,40.45896866300861,340.7569656982422,0.003702614922076464,-0.0005330442218109965,-0.7927343249320984,0.6095559597015381,0.01728536778267244,-0.057975943432586524,2.9836440706047838,0.040227457880973816,-0.004498681519180536,0.11547429114580154,0.13845472108572726,-0.13690642406232656,-9.723824320435524
44.1,2.799999952316284,158.0,20.855409622192386,31.43336296081543,-79.7827949975419,40.458968650249616,341.3529511108398,0.005462897941470146,-0.002413020236417651,-0.7925360798835754,0.6097958087921143,0.0053418389554551905,-0.038520040669222766,2.9721657938254573,-0.046393688768148415,0.028765341266989708,0.053150199353694916,0.11508511774241925,-0.23037558238953354,-9.725270921587942
44.21,2.700000047683716,158.0,20.936792373657227,30.328065872192386,-79.78279516792799,40.45896874787493,341.6445160522461,0.005492883734405041,-0.003023590426892042,-0.7926395535469055,0.6096583008766174,-0.03126631367056642,-0.03465540610447878,2.961821151720708,-0.07931960374116898,0.03674779087305069,0.012957990169525143,0.127615911019966,-0.14128248025663198,-9.56753994047642
44.3,2.700000047683716,158.0,20.66008949279785,37.10297775268555,-79.78279524625786,40.45896877069512,341.93869024658204,0.005020881537348032,-0.0028087703976780176,-0.7927124500274658,0.60956871509552,-0.025567506038714192,-0.03541011373733543,2.9249975794418224,-0.013939518481492994,-0.00916012842208147,-0.02712518349289894,0.1037624049000442,0.011144804453942926,-9.481216326355934
44.5,2.5999999046325684,159.0,20.70265769958496,34.192626953125,-79.78279544013179,40.45896874976759,342.5390854492188,0.0034757365938276052,-0.0001876961177913472,-0.7928475141525269,0.6094101667404175,-0.030101038960354563,-0.04441609476697345,3.0160687002851194,-0.09929236769676207,-0.033293068408966064,-0.07261257618665695,0.06569069956429302,-0.06970810216851532,-10.232938463687898
44.6,2.5999999046325684,158.0,20.884206771850586,31.4810733795166,-79.78279551574146,40.4589687678481,342.8426819458008,0.0021026488393545146,0.0005144354072399436,-0.7927461266517639,0.6095482110977173,-0.020148766639231874,-0.05009015043559337,3.0489293581475483,-0.02275331504642964,0.010293047875165941,-0.0284494087100029,0.05639862421900034,-0.2267057236656547,-10.108882766962052
44.8,2.5,159.0,20.73896789550781,34.00973892211914,-79.78279563462627,40.458968703668816,343.4423676147461,-0.001143234083428979,0.0007253651274368168,-0.7928584218025208,0.6094043254852295,-0.0017121534514918494,-0.04266600112854664,3.010436068779536,-0.017871195450425148,0.0704883262515068,-0.008851424790918827,0.034930784369353214,-0.027552121267654,-9.741206923127175
45.0,2.5,159.0,20.820350646972656,31.39360427856445,-79.78279570196412,40.45896872760549,343.74011236572267,0.00024600577307865024,0.000290165189653635,-0.7927006483078003,0.6096111536026001,0.0003647695017089678,-0.05483000108436637,3.0070839231230733,0.0247988160699606,0.09663926810026167,-0.051911644637584686,0.06813970534130931,0.02115953855216503,-9.880020407438279
45.1,2.5,157.0,20.87544059753418,31.16300201416016,-79.78279578116187,40.45896875555932,344.34457403564454,0.003710920456796885,0.0007707590120844543,-0.7924802303314209,0.6098859310150146,-0.031616831900811423,-0.021540471503319215,3.027549751483224,-0.04951826855540276,0.029053850099444382,-0.0476539321243763,0.1347510033287108,-0.14204845637083055,-9.846856169700622
45.3,2.5,156.0,20.790302276611328,32.47504425048828,-79.78279586505873,40.45896878559367,344.9403458251953,0.0017189541831612587,0.0014900066889822485,-0.7925512194633484,0.609801173210144,-0.031676913896187264,-0.019196406470495808,2.9809023557675207,-0.05287601053714752,0.002223828574642539,-0.06104241311550141,0.09470880459062757,-0.1151801167242229,-9.679736314415932
45.41,2.5999999046325684,155.0,20.827863693237305,32.952152252197266,-79.78279587336496,40.458968804914115,345.2399521484375,0.002514782594516873,0.0012451604707166553,-0.7926133871078491,0.6097181439399719,-0.0326126658553388,-0.018324639110906142,2.9689639138937403,-0.029239440336823463,-0.048134643584489815,-0.029072934761643413,0.06259211837779731,0.00017967854160815482,-9.575989167094232
45.51,2.5999999046325684,154.0,20.81909942626953,32.228538513183594,-79.7827958870456,40.458968822986044,345.53602606201173,0.0036875158548355103,0.000616768142208457,-0.7925696969032288,0.6097698807716371,-0.034365337806806666,-0.009005959228993034,2.952974737268815,0.004674641415476799,-0.05500171333551407,0.009404768235981464,0.10528686538338662,-0.014991530030965806,-9.630437269806864
45.71,2.5999999046325684,154.0,20.870433807373047,32.33191299438477,-79.78279590617376,40.458968817389696,346.1278153076172,0.004402324091643095,-0.0014246535720303655,-0.7923254966735841,0.6100810170173645,-0.023035858392420564,0.009246346545132894,2.9268515367693047,0.06490536779165268,-0.02253559976816177,0.04819042980670929,0.17383655190467834,-0.06189717222936453,-9.599626536369323
45.9,2.700000047683716,154.0,20.66384506225586,34.8685302734375,-79.78279591525998,40.458968828072464,346.4195099487305,0.004141582176089287,-0.0017150762723758815,-0.7922458052635193,0.6101857423782349,-0.024565609861133614,0.017084529378603303,2.9073386626705666,0.023345455527305603,0.008385748602449894,0.017956409603357315,0.11526208737865093,-0.11965415032580495,-9.62496603012085
46.0,2.5999999046325684,154.0,20.811586380004886,33.190704345703125,-79.78279586702638,40.45896887280031,347.0159226074219,0.002734803128987551,-0.0010464343940839171,-0.7920523285865784,0.6104462742805481,-0.03013979827337768,0.013030138045900558,2.973643940625163,0.06952497363090515,-0.0014658375876024365,0.05256781727075577,0.07831111969426274,0.0643370234593749,-10.02853851556778
46.2,2.5999999046325684,154.0,20.628787994384766,34.14491653442383,-79.78279578701698,40.45896893268759,347.6131439819336,0.0033196951262652874,0.0001437661703675985,-0.792159914970398,0.610304594039917,-0.033304467089255343,0.017983590598953006,3.0276735457713984,0.09312130510807036,0.03361774608492851,0.019100693985819817,0.09847314152866604,0.0826068954449147,-10.061530845165251
46.3,2.5999999046325684,151.0,20.91550636291504,30.4711971282959,-79.782795760662,40.458968960000526,347.9181442871094,0.0030071125365793705,0.0010565920965746043,-0.7921372652053833,0.6103346943855286,-0.04871714678511043,0.021479772014364545,3.061475600454332,0.0208139605820179,-0.0073071522638201705,0.005744840018451214,-0.006255362725351006,0.009925226017367094,-10.062999665737152
46.51,2.5999999046325684,152.0,20.907995223999023,30.72565460205078,-79.78279573722051,40.458968946052046,348.211021484375,0.002304598689079285,0.0009856498800218103,-0.7921249270439148,0.6103538274765015,-0.0459465193727913,0.017418269821935603,3.01375219101698,0.03532442077994346,-0.013835866935551168,0.007906541228294374,0.007505531692877413,0.0037615229655057203,-9.744352725148204
46.6,2.5,152.0,20.826610565185547,32.17287826538086,-79.7827956629798,40.458968996845385,348.8081131591797,0.001669541816227138,-0.000677588686812669,-0.7922942042350769,0.6101366281509399,-0.044585754755647175,0.034642614228149606,2.9481381598253003,-0.00147467537317425,0.012399483472108841,0.005514312535524368,0.10099988786503672,-0.1837254361063242,-9.474852801561356
46.8,2.4000000953674316,153.0,20.73020362854004,35.54442977905273,-79.78279562422875,40.45896902748522,349.39111334228517,0.004779284819960594,-0.0015435396926477554,-0.792496383190155,0.6098560690879822,-0.049807186310736634,0.04012177500448883,2.900027606889397,-0.049655064940452576,0.01880839094519615,0.014771929010748863,0.08073085284791888,-0.13119207724928855,-9.503560291528704
