time,wind_speed,wind_angle,battery_voltage,battery_current,position_x,position_y,position_z,orientation_x,orientation_y,orientation_z,orientation_w,velocity_x,velocity_y,velocity_z,angular_x,angular_y,angular_z,linear_acceleration_x,linear_acceleration_y,linear_acceleration_z
0.0,0.6000000238418579,195.0,25.754682540893555,-0.08746951073408127,-79.78283973809059,40.45891723903876,269.40173503780363,0.014298927970230581,-0.007678737398236991,0.6271425485610962,0.7787354588508606,0.0007120987475816759,0.007691818156110091,0.011768264819715846,0.00046120185288600624,-0.002373729133978486,-0.0049618049524724475,0.12337053095921875,0.3039812831953168,-9.804471457600592
0.2,0.6000000238418579,191.0,25.760942459106445,-0.09542128443717957,-79.78283974673622,40.45891724089678,269.4029310646057,0.014319370500743387,-0.007693000603467227,0.6271693706512451,0.7787132859230042,0.0014101646472313605,0.007596725175866145,0.011908991938627423,0.001654385938309133,0.0044153910130262375,0.006050086580216886,0.1285556590743363,0.28458605060353875,-9.806256027817726
0.3,0.6000000238418579,189.0,25.76469993591309,-0.08746951073408127,-79.7828397466301,40.45891725761122,269.41102120304106,0.014333999715745447,-0.007703805342316627,0.6271781325340271,0.7787058353424072,0.0012344950172880696,0.008082503780554057,0.012128315452113193,0.007805238477885723,0.0041671497747302055,0.006160566117614508,0.12684700216166675,0.2878005756810308,-9.805547930002213
0.5,0.6000000238418579,186.0,25.76469993591309,-0.07951773703098297,-79.78283975575638,40.458917259568146,269.41227063560484,0.014336079359054562,-0.007695628795772791,0.6271886229515076,0.7786974906921387,0.0003572580201137412,0.008430055577856758,0.01264603131196774,-0.005425582639873028,-0.004502727650105953,-0.0069715771824121475,0.12061702229082585,0.2977654919587076,-9.804602435231208
0.6,0.6000000238418579,188.0,25.75593566894531,-0.08746951073408127,-79.78283975791865,40.45891727338565,269.4206003847122,0.014342330396175385,-0.007696334272623062,0.6272130608558655,0.7786777019500732,-0.00016339217717477745,0.008792591231251843,0.012442945306837415,-0.004563200287520886,-0.0015232509467750788,-0.002402672078460455,0.122227546479553,0.2899294372648001,-9.803427144885065
0.81,0.6000000238418579,190.0,25.762195587158203,-0.08746951073408127,-79.78283976767422,40.45891727491772,269.4218624534607,0.01434189174324274,-0.007691858801990747,0.627211332321167,0.7786790728569031,0.00047060044821355373,0.008480092851012946,0.012607142516664971,6.427639891626313e-05,0.002528393175452948,0.004174648784101009,0.12068160661496224,0.30070322446525105,-9.80337978243828
0.91,0.6000000238418579,191.0,25.75969123840332,-0.11132483184337616,-79.78283975729762,40.458917275489114,269.4282970132828,0.014366483315825462,-0.007692691870033741,0.6272235512733461,0.7786688208580017,-0.0022141169459205428,0.005374418342519876,0.010328003943715872,-0.0019535189494490623,-0.0005476648220792413,-0.006051653996109962,0.1204883835464716,0.3069077415391803,-9.80146072626114
1.1,0.6000000238418579,191.0,25.748422622680664,-0.12722837924957275,-79.78283976050855,40.458917288348,269.4346656503677,0.014374257065355778,-0.007698543835431337,0.6272374391555786,0.7786574959754944,-0.0019901466700390285,0.00644521088204068,0.008189816242697316,-0.009003651328384876,-0.004985135514289141,-0.004582356195896864,0.1275619521830231,0.28888444846495986,-9.805044484734537
1.2,0.6000000238418579,191.0,25.75593566894531,-0.14313192665576935,-79.78283976799344,40.458917288136455,269.43549463176726,0.014382853172719482,-0.007689430844038725,0.6272268295288086,0.7786659598350525,-0.000898876190358401,0.0060709406555474865,0.008325887322142315,0.004941169638186693,0.0047096493653953075,0.0025143485981971025,0.12281713767908516,0.29690330173820256,-9.804325861930847
1.4,0.5,192.0,25.75969123840332,-0.09542128443717957,-79.78283978904194,40.45891730600104,269.4406280221939,0.014378626830875875,-0.007689234800636768,0.627240777015686,0.7786546945571899,-0.002389731974544141,0.011708811456225494,0.005690064633616714,-3.673434093798278e-06,0.00012009854981442912,0.003195831086486578,0.12392294665798545,0.2875173511728645,-9.804975487589836
1.5,0.5,192.0,25.75593566894531,-0.08746951073408127,-79.7828397781297,40.4589173179897,269.44820043468474,0.014384322799742222,-0.007690091151744126,0.6272556185722351,0.7786427736282349,-0.00042438553533570886,0.007106776151361986,0.008137700100373959,0.006418581586331129,0.003975752741098404,0.004964021965861321,0.12753434236161412,0.28791529074311256,-9.80594554066658
1.71,0.5,191.0,25.75969123840332,-0.11132483184337616,-79.78283978654498,40.45891731825621,269.44903776073454,0.014392445795238018,-0.007690418977290392,0.6272622346878052,0.7786372303962708,-0.0014452021220433366,0.007271733800225859,0.00853924555272491,-0.005272918380796909,-0.0045523312874138355,-0.004395904019474983,0.11889039432629946,0.299009633269161,-9.803495557308198
1.8,0.5,194.0,25.763446807861328,-0.11132483184337616,-79.78283977491034,40.45891733825507,269.4549624624252,0.014385410584509373,-0.007705971598625183,0.6272614002227783,0.7786378860473633,0.0020482418500507326,0.005521726577703964,0.006920848935407389,-0.0031786100007593627,-0.00138926412910223,0.0013126765843480823,0.12592898016795515,0.2866714783385396,-9.805435663461685
2.0,0.4000000059604645,187.0,25.762195587158203,-0.11927660554647446,-79.78283978050351,40.45891734105619,269.4556764068604,0.014378828927874562,-0.007713528349995612,0.6272686719894409,0.7786320447921753,0.00210706792177372,0.00531281582060395,0.00710040793477145,-0.0009784616995602846,-0.0007854915456846356,-0.004237635526806115,0.120927673894912,0.3045214745588601,-9.802452414035796
2.1,0.4000000059604645,181.0,25.75969123840332,-0.11132483184337616,-79.78283981501339,40.45891733176319,269.46316906833647,0.014369149692356588,-0.007732992060482502,0.6273009181022644,0.7786059975624084,-0.004837380691256684,0.010270247491371705,0.009349240065310979,-0.005611651577055454,-0.0008015991770662367,-0.008548591285943985,0.1193962058890611,0.30644716367125513,-9.80133150279522
2.3,0.30000001192092896,175.0,25.749675750732425,-0.09542128443717957,-79.78283982765011,40.45891732967536,269.4641090335846,0.014365923590958118,-0.007732505444437265,0.6273033618927002,0.7786042094230652,-0.003635177616330468,0.009877246246576977,0.00946718513859151,0.006080258637666702,0.002405347069725395,0.005605291575193404,0.12737622999586165,0.2879448009096086,-9.805869526863098
2.4,0.30000001192092896,177.0,25.76595115661621,-0.08746951073408127,-79.78283983594788,40.458917339309146,269.4689116182327,0.01435087248682976,-0.007754507474601269,0.6272932887077332,0.7786123156547546,-0.0027025169037347484,0.009624322539415238,0.006745482104858711,0.007551770191639663,0.0028873125556856394,0.004413882736116648,0.12607653100043534,0.29315757539123305,-9.804621731042863
2.61,0.30000001192092896,170.0,25.75969123840332,-0.07951773703098297,-79.78283981752949,40.458917351887976,269.47367319488524,0.014345232397317888,-0.0077557857148349285,0.6272960305213928,0.7786102294921875,-0.001160689422526058,0.00530281770669311,0.004902383175740314,0.003912061918526888,0.0011296719312667847,0.0037602700758725405,0.12487946891225875,0.29443029496818784,-9.804611790776251
2.7,0.30000001192092896,166.0,25.75969123840332,-0.09542128443717957,-79.78283982410733,40.45891735153862,269.47418281459807,0.014345332048833368,-0.007773629855364561,0.6273064613342285,0.7786015868186951,-0.0014842501018944635,0.005574134718698882,0.005187229579338932,-0.0002505421871319413,-0.002582208253443241,-4.995356357540004e-05,0.1253039310872555,0.2887472581677139,-9.804618807435038
2.9,0.20000000298023224,162.0,25.760942459106445,-0.07951773703098297,-79.78283982225565,40.458917346348265,269.4805381002426,0.014341359958052637,-0.007747318595647813,0.6273114085197449,0.7785980105400085,-0.004640446215380996,0.0059145715957537506,0.007553264037893906,-0.001035026623867452,-0.000582503795158118,0.00024661931092850864,0.1208597639668733,0.30317120628431443,-9.802960537075997
3.0,0.20000000298023224,160.0,25.75969123840332,-0.07156596332788467,-79.78283983278773,40.45891736821293,269.48593160533903,0.01431573089212179,-0.007746981456875802,0.6273350715637207,0.7785794138908386,-0.0004269824979462239,0.008074459655461072,0.005683154287406944,-0.0038968080189079046,-0.00045865032006986434,-0.008128689602017403,0.12213309567421675,0.30841142613440753,-9.802714369297028
3.2,0.30000001192092896,152.0,25.75593566894531,-0.09542128443717957,-79.782839842034,40.45891736949689,269.486521572113,0.014331444166600702,-0.007766924798488617,0.6273537278175354,0.7785637974739075,0.0006149046641124925,0.007862762419269738,0.005859128837604409,0.004693672060966493,0.0023510970640927553,0.003764673136174679,0.12833194825798275,0.284539912417531,-9.805552607774734
3.3,0.30000001192092896,148.0,25.763446807861328,-0.08746951073408127,-79.78283985424329,40.45891738353935,269.493401140213,0.014309539459645746,-0.0077577182091772565,0.6273466348648071,0.7785701155662537,0.00027506942336720053,0.008804836292687503,0.008438218653146675,0.005412804428488015,0.0025619808584451675,0.003957596141844988,0.12487847305834295,0.2920936196856201,-9.804365038275721
3.5,0.5,143.0,25.762195587158203,-0.09542128443717957,-79.78283986454801,40.45891738488013,269.4942727985382,0.014296365901827812,-0.007766053546220064,0.6273637413978577,0.7785564064979553,-0.0005333356791053267,0.009179911759363562,0.00878495496306286,-0.0038706753402948384,-0.006221037358045578,-0.0034249741584062576,0.12124684964306652,0.29359394213184714,-9.803075142502783
3.6,0.5,148.0,25.760942459106445,-0.07951773703098297,-79.78283985808542,40.458917391949505,269.5010631980896,0.014290922321379185,-0.00774743128567934,0.6273553967475891,0.7785634398460388,0.0002948286742550647,0.006218639575532457,0.010101509264080159,-0.0034513308200985193,-0.0004685705935116856,0.0013871946139261127,0.12421410145238042,0.28563935341313484,-9.805509338378906
3.8,0.6000000238418579,153.0,25.75969123840332,-0.10337305814027786,-79.7828398650438,40.45891739322245,269.5020917358398,0.014294533059000969,-0.0077427634969353685,0.6273534893989563,0.7785649299621582,0.00026563611624370995,0.006316185532790883,0.010330249046275823,-0.0011365406680852175,-0.003353249514475465,-0.003952953033149242,0.1222865576762706,0.305545066203922,-9.803030118942262
3.9,0.6000000238418579,152.0,25.754682540893555,-0.09542128443717957,-79.7828398864486,40.45891739971024,269.5085079374313,0.014268524944782257,-0.00774108525365591,0.6273817420005798,0.778542697429657,-0.0008064846966783948,0.008401972737511377,0.011198235783363042,-0.004469032865017653,-0.004037038888782264,-0.00482621556147933,0.12025765607133508,0.3064763083867729,-9.802503284811976
4.1,0.699999988079071,148.0,25.758440017700195,-0.10337305814027786,-79.78283990109355,40.45891740700459,269.51463267230986,0.014266624115407469,-0.007733729202300309,0.6274265646934509,0.7785066366195679,-0.0008815436617662783,0.009053407598316,0.011660651784004744,-0.006095681339502336,-0.001986608374863863,-0.00635475292801857,0.12693753350526096,0.28835032358765605,-9.806196970939636
4.2,0.699999988079071,152.0,25.752178192138672,-0.09542128443717957,-79.78283991123823,40.45891740821372,269.5158111753464,0.01425742544233799,-0.0077362521551549435,0.6274240612983704,0.7785089015960693,0.0003876844691084594,0.008830659816834362,0.011687561125088328,0.006317404564470053,0.0006017046980559826,0.0039049033075571065,0.1263383857626468,0.2929109142534435,-9.804783698916435
4.4,0.8999999761581421,151.0,25.758440017700195,-0.08746951073408127,-79.78283991829814,40.45891739833928,269.51870235824583,0.014254567213356497,-0.007745335344225169,0.6274412870407104,0.7784948945045471,-0.005215870849668094,0.008640518263408925,0.0077459087968508936,-0.0057675428688526145,-0.0034735566005110736,-0.003489241702482105,0.12356038274243475,0.2889934990368784,-9.804904151558878
4.5,0.8999999761581421,146.0,25.75969123840332,-0.07951773703098297,-79.78283995485295,40.4589174038129,269.5225687923431,0.014230613596737385,-0.007740685250610112,0.6274616122245789,0.7784790396690369,-0.003804839561272065,0.013423849622490342,0.004967608147191825,0.003289093030616641,-0.0010598247172310946,0.006807390600442886,0.12431045260280373,0.2833205852285028,-9.804937480688096
4.7,0.8999999761581421,150.0,25.758440017700195,-0.10337305814027786,-79.78283997130302,40.458917402855846,269.5230810346603,0.014217128045856953,-0.007734347134828566,0.6274697184562683,0.7784727811813354,-0.0042682082456402615,0.013755331686648822,0.005257634205921325,-0.005919468589127064,-0.004891020711511374,-0.0078439274802804,0.12068259333260355,0.3064875642769039,-9.801264259815218
4.8,1.0,150.0,25.762195587158203,-0.08746951073408127,-79.78283997383545,40.45891740872239,269.5284912290573,0.014218074269592762,-0.007708389312028884,0.6274656057357788,0.7784764170646667,-0.002223643658864528,0.009400758289516321,0.007825217959946432,-0.006507433950901032,-0.0048393867909908295,-0.007969058118760586,0.12162339205853642,0.298505493644625,-9.804465025663378
5.0,0.8999999761581421,152.0,25.760942459106445,-0.07156596332788467,-79.78283998484204,40.45891740879861,269.5292865934372,0.014191905967891216,-0.007694275584071875,0.6274824738502502,0.7784633040428162,-0.0008468601004504169,0.00918655257872704,0.007965342288307305,0.004837175365537405,0.002029856899753213,0.00799361616373062,0.1241565977409482,0.2950745850428939,-9.805113481879237
5.1,0.8999999761581421,152.0,25.75593566894531,-0.09542128443717957,-79.78283998839133,40.45891742761624,269.5343163909912,0.014187422581017016,-0.007668464910238981,0.6275052428245544,0.7784453034400941,0.0025617448935480783,0.0076196221164790265,0.009167129001978384,-0.0011313465656712653,0.0004994479822926222,-0.0018198863836005328,0.12093620717525486,0.3037953234650195,-9.803440593481065
5.3,0.8000000119209291,151.0,25.762195587158203,-0.07951773703098297,-79.78283999647634,40.45891743133175,269.5352595748901,0.014186694286763668,-0.00766727002337575,0.6275072693824768,0.7784437537193298,0.003331047620618666,0.007637978846440391,0.00931259179591552,0.0010436162119731307,0.002737154019996524,0.0041768066585063926,0.12492153231985867,0.2839160145074129,-9.804842755794525
5.4,0.8000000119209291,148.0,25.762195587158203,-0.08746951073408127,-79.78284001149372,40.458917418671724,269.53842028999327,0.014217905700206757,-0.007672984618693591,0.6275283694267273,0.7784261107444763,-0.0016114754038260401,0.0074618418647102785,0.006270181692185357,0.005510469432920218,0.0024418151006102558,0.005388457793742418,0.12782196141779426,0.2862271995842457,-9.805813393592835
5.6,0.8999999761581421,147.0,25.762195587158203,-0.08746951073408127,-79.78284002552395,40.45891740787134,269.54162165546416,0.014238344505429268,-0.00764979887753725,0.6275666952133179,0.7783949971199036,-0.004705801544011623,0.007588532340756753,0.004541738378983037,0.007239580620080233,0.0021351254545152187,0.007983878254890442,0.11831955989822746,0.3010724395886064,-9.802343071103095
5.7,0.8999999761581421,146.0,25.76845550537109,-0.03180709481239319,-79.78284003573049,40.458917404682325,269.54209300899504,0.014235496520996094,-0.007640162482857705,0.6275815963745117,0.7783831954002379,-0.0054332231391225954,0.008062893901000767,0.005003388212023591,-0.005743689835071564,-0.004507341887801886,-0.0017481736140325663,0.12332799246534705,0.29347803935408595,-9.804488999247551
5.9,0.8999999761581421,148.0,25.762195587158203,-0.07156596332788467,-79.78284003975023,40.458917428891134,269.54681012058256,0.01422425638884306,-0.0076250447891652575,0.6275869011878967,0.7783793210983276,0.0012101382899272315,0.009173550074207351,0.0071900409453048856,0.004903604742139578,0.0014325258089229465,0.0025420347228646287,0.12437798794358967,0.2975781252421439,-9.804556242227557
6.0,0.8999999761581421,147.0,25.749675750732425,-0.07156596332788467,-79.7828400396348,40.45891742310033,269.55061945343016,0.014221773482859138,-0.00762950675562024,0.6276028752326965,0.7783663272857666,-0.0020702106726694773,0.005415851418749247,0.005649951635565976,-0.0014303866773843765,-0.00011038925731554629,-0.004809008911252022,0.12013246170245112,0.3049489242956042,-9.802392772436145
6.2,0.8999999761581421,151.0,25.754682540893555,-0.14313192665576935,-79.78284004636498,40.45891742231913,269.55119547271727,0.0142256086692214,-0.007632996421307325,0.6276267766952515,0.7783470153808594,-0.001065915664470191,0.005381467738615896,0.005837813112464344,0.003078610869124532,0.0008329016272909937,0.0064507438801229,0.1244843615870923,0.2854516943357885,-9.804849772453313
6.3,1.0,151.0,25.760942459106445,-0.05566241592168808,-79.78284008116282,40.458917427588055,269.55467745685576,0.014213288202881813,-0.00761793926358223,0.6276462078094482,0.7783316969871521,-0.0010478947539827714,0.010956452025029229,0.004151661452040618,0.004381480626761913,0.0019750515930354595,0.00724661396816373,0.12679527257569134,0.28710568891838195,-9.806625571846963
6.5,1.0,155.0,25.758440017700195,-0.04771064221858978,-79.78284009937813,40.45891741963053,269.5581085386276,0.014203197322785853,-0.007620455231517553,0.6276582479476929,0.7783221602439879,-0.004420374106121291,0.009516945930051,0.0031798442840347803,0.0073904828168451795,0.0005212079850025475,0.008838079869747162,0.12155194639228285,0.30454093482345346,-9.803521869778633
6.61,1.0,157.0,25.749675750732425,-0.09542128443717957,-79.78284011184691,40.45891741702143,269.55844685459135,0.014192445203661919,-0.007624044083058834,0.6276761293411255,0.7783079147338867,-0.0050596544794251465,0.009965985702610534,0.0036226922962049367,-0.006786828394979239,0.0004126326530240476,-0.004149878863245249,0.1235126731172204,0.29523390339687466,-9.804907659888267
6.8,1.0,159.0,25.762195587158203,-0.08746951073408127,-79.78284012425611,40.45891741499143,269.55881878757475,0.014191679656505585,-0.007605493068695068,0.6276742219924927,0.7783096432685852,-0.0037270175472533563,0.009722715113286231,0.0038051689534315,0.0025843351613730192,0.004284810740500689,0.0033522660378366713,0.12605428417213266,0.29438686111941936,-9.805603478550912
6.9,1.100000023841858,160.0,25.762195587158203,-0.08746951073408127,-79.78284013936363,40.45891742131585,269.5620339813232,0.014176475815474987,-0.007612597197294234,0.6277148127555847,0.7782770991325378,-0.0021036141495324808,0.0098007554935946,0.0029301911332699545,0.004533374216407538,-0.0009151549311354756,-0.00030432696803472936,0.12302713494747874,0.2973834495060146,-9.805047408342364
7.1,1.0,161.0,25.754682540893555,-0.11132483184337616,-79.7828401332545,40.45891741887818,269.5650119485855,0.014188728295266628,-0.007619862444698811,0.6277250051498413,0.7782686352729797,-0.003938811432197565,0.006613550882340228,0.002606042730453454,-0.002145607955753804,0.0011833779281005265,0.0014038141816854475,0.12317687848582864,0.2884036428853869,-9.805590614676477
7.2,1.0,165.0,25.75593566894531,-0.11927660554647446,-79.78284014985142,40.458917415460036,269.5655535163879,0.01418155524879694,-0.007625330705195665,0.6277514100074768,0.7782474160194397,-0.002578911208851496,0.006573009280195961,0.002943075156199625,-0.0008094582590274513,-0.00039387663127854466,0.0008442090475000441,0.12486806684173644,0.2848416470177472,-9.805073136091233
7.4,1.0,164.0,25.760942459106445,-0.11927660554647446,-79.78284016891386,40.45891742190951,269.5706988277435,0.014188158325850962,-0.007632686290889978,0.6277858018875122,0.7782194018363953,-0.0007249056105192875,0.007999771665136848,0.006288597799058148,0.0024421310517936945,0.0038952424656599756,0.0048716324381530285,0.12045129940845073,0.3067323616147041,-9.800992949008943
7.5,1.0,163.0,25.75593566894531,-0.11132483184337616,-79.78284018056729,40.45891743792053,269.57470855140684,0.014202394522726538,-0.007625963073223829,0.6277908682823181,0.7782151103019714,0.001867883130520861,0.009595618118294682,0.008039750281084893,-0.0055696098133921615,-0.002069034613668918,-0.008853129111230373,0.11996846557594835,0.305791836977005,-9.80158117890358
7.7,0.8999999761581421,161.0,25.758440017700195,-0.11927660554647446,-79.78284019081865,40.458917441753314,269.5755370559692,0.014197106473147869,-0.0076160728931427,0.6278078556060791,0.778201699256897,0.003378812185020871,0.00939241079912193,0.00815004596056635,0.007702514994889499,0.001658276654779911,0.004820685833692551,0.12654578832909466,0.2861786859668791,-9.805575411915779
7.8,0.8999999761581421,160.0,25.74717140197754,-0.10337305814027786,-79.78284021201138,40.45891746420822,269.5804210605621,0.014203008264303209,-0.007602950558066369,0.6278113722801208,0.7781988382339478,0.006657291117961294,0.010445965233050645,0.009371907010694826,0.008167417719960213,0.00444622291252017,0.004591591656208038,0.1255908101052046,0.2924805226363242,-9.8046749407053
8.0,0.8000000119209291,156.0,25.74591827392578,-0.09542128443717957,-79.78284022251006,40.45891747152243,269.5814096632004,0.014204427599906918,-0.007611903827637434,0.6278298497200012,0.7781838178634644,0.00618708393007816,0.010823413826368828,0.009798982659748837,-0.006126624997705221,-0.0015660548815503714,-0.006113330367952585,0.1247954882774502,0.29529316127300265,-9.805136286020279
8.1,0.8000000119209291,155.0,25.754682540893555,-0.11132483184337616,-79.78284022734044,40.45891746267346,269.58606097126005,0.014222105965018272,-0.007619164418429136,0.6278323531150818,0.7781814336776733,0.0018037877190932301,0.006655728597434282,0.010514544258823873,-0.0013783000176772475,-0.0050110919401049605,0.0027808989398181447,0.12331981549970808,0.2872593610547483,-9.805714575648306
8.3,0.8000000119209291,149.0,25.749675750732425,-0.12722837924957275,-79.78284023429441,40.45891746558369,269.58713659667967,0.014227079227566719,-0.007615674752742051,0.6278309226036072,0.7781825065612793,0.0023416540360066216,0.00652080375844701,0.010733681537664307,-0.0027536689303815365,0.0003119238535873592,-0.0006988763925619423,0.12076579738408327,0.30123166657984257,-9.80310905635357
8.4,0.8000000119209291,148.0,25.758440017700195,-0.11132483184337616,-79.78284028344396,40.45891747447875,269.591736287117,0.0142503185197711,-0.007618261501193047,0.6278567314147949,0.7781611680984497,0.0003690712807090322,0.0121245633285979,0.01116011497127582,-0.0024521881714463234,-0.0035654327366501093,-0.008237885311245918,0.1203864318598062,0.3070098119974137,-9.80144844710827
8.6,0.699999988079071,146.0,25.758440017700195,-0.10337305814027786,-79.78284029769695,40.45891748195661,269.59373435401915,0.01423570513725281,-0.007627907209098339,0.6278737783432007,0.7781476974487305,0.0004008071830636661,0.011010160773700487,0.006702581669039536,0.0028315053787082434,0.0006814277148805559,0.008346011862158775,0.12610279778949918,0.2844308253005147,-9.804266220331193
8.7,0.8000000119209291,143.0,25.75718688964844,-0.11132483184337616,-79.78284032292142,40.458917486450034,269.59515699768065,0.014262547716498375,-0.0076360837556421765,0.6278949975967407,0.7781299352645874,0.001335896575857562,0.010906230262779737,0.007140132443240448,0.004306435585021973,0.0027253173757344484,0.006589658092707396,0.12861980485729874,0.28706430159509183,-9.805901101827622
8.9,0.8000000119209291,144.0,25.762195587158203,-0.07951773703098297,-79.78284033680706,40.45891749222251,269.5991894903183,0.014252240769565104,-0.0076117459684610375,0.6279089450836182,0.7781191468238831,-0.00032970532274893637,0.010759544776233795,0.008854337667379216,-0.005321817472577095,-0.0011622386518865824,-0.0074748294427990905,0.12017182990908624,0.3037477965652943,-9.802382247447966
9.0,0.699999988079071,143.0,25.762195587158203,-0.09542128443717957,-79.78284035890402,40.458917492014905,269.60280725383757,0.014275033958256243,-0.007620330434292555,0.6279317140579224,0.778100311756134,-0.0031820127269718322,0.009761881864218284,0.006950872659062226,-0.0058314111083745965,-0.0035810302942991257,-0.0032823537476360802,0.12097077883780005,0.3009570118971169,-9.80421242594719
9.2,0.8000000119209291,144.0,25.75718688964844,-0.11927660554647446,-79.78284037048913,40.45891749153303,269.6035082044601,0.014272898435592653,-0.00760613102465868,0.6279537677764893,0.7780826687812805,-0.0016184321564882474,0.009318456895694688,0.007002522813823028,0.006984347477555275,0.0034164090175181627,0.005538082215934992,0.1231350526213646,0.2891669968888164,-9.806315084695816
9.3,0.699999988079071,142.0,25.75718688964844,-0.09542128443717957,-79.78284039841958,40.458917516026986,269.6084309520721,0.014266304671764376,-0.007584022358059883,0.6279548406600952,0.7780821323394775,0.0028957698641935573,0.010081403564451969,0.008424354456908796,0.00521677080541849,0.0018979739397764208,0.002119851531460881,0.1237530667707324,0.29415604228153824,-9.804292532801627
9.5,0.699999988079071,140.0,25.762195587158203,-0.07951773703098297,-79.78284042629609,40.45891751267601,269.61149475002287,0.014251817017793655,-0.007568754255771638,0.6279674172401428,0.7780724167823792,-0.003048002229204957,0.00911398927099559,0.005468246697277597,-0.0009467560448683797,-0.0005542507860809567,-0.003343833610415459,0.12455393431708214,0.29148156238719825,-9.805036883354187
9.6,0.699999988079071,142.0,25.75343132019043,-0.09542128443717957,-79.78284043758906,40.45891751155536,269.612054318428,0.014252527616918087,-0.007580969482660294,0.6279928684234619,0.7780517339706421,-0.002285100859045451,0.009000087985415923,0.005624496336632368,0.0022025685757398605,0.0016032037092372775,0.003879192285239697,0.1258035756647587,0.28617923414334656,-9.804667339324954
9.8,0.6000000238418579,141.0,25.75593566894531,-0.015903547406196594,-79.78284044857878,40.45891751106275,269.61263927841185,0.014238937757909296,-0.00755926501005888,0.6279985308647156,0.7780475616455078,-0.002550305411802133,0.009102246290173107,0.0060485825032894,-0.006088210269808768,-0.0011332674184814095,-0.006114548072218895,0.12111052729189395,0.30810623802244663,-9.802271735072138
9.9,0.6000000238418579,141.0,25.75343132019043,-0.015903547406196594,-79.78284050537273,40.458917502862406,269.61521300697325,0.014245642349123957,-0.0075577483512461185,0.628018319606781,0.7780315279960632,-0.0064889005959561435,0.01294488174782513,0.004186756045992618,-0.006499606650322676,-0.003277369542047381,-0.003253973554819823,0.1201015445496887,0.29777915982529524,-9.804146352410317
10.1,0.6000000238418579,138.0,25.74591827392578,-0.039758868515491486,-79.78284051248465,40.458917502278474,269.6175423564911,0.01425051689147949,-0.007529734168201684,0.6280068755149841,0.7780409455299377,-0.0062938602217741365,0.008104720704077924,0.003354713139322075,0.0035317493602633476,0.0016459202161058786,0.003508587367832661,0.1237644505687058,0.29669256443157793,-9.80477317392826
10.31,0.6000000238418579,137.0,25.73965835571289,-0.007951773703098297,-79.78284053436606,40.45891749419547,269.61824199581145,0.014251037500798704,-0.007511556614190341,0.6280159950256348,0.7780337333679199,-0.0058527189654398295,0.00817258036724803,0.003757896708603981,-0.00410919776186347,-0.0002634154807310552,-0.006592034827917814,0.12115375100634992,0.3068541664257646,-9.800852031111717
10.41,0.6000000238418579,140.0,25.749675750732425,0.0,-79.78284056919044,40.458917506225056,269.62249264144896,0.014235367998480797,-0.007490189280360937,0.6280465126037598,0.7780095934867859,-0.0033421703403964053,0.008835963619835536,0.0067737791212061785,-0.003900203155353666,-0.004964502528309822,-0.004683979321271181,0.12231339091435076,0.29757112685590986,-9.802598009705543
10.6,0.699999988079071,142.0,25.7434139251709,0.07951773703098297,-79.78284057703,40.45891750052417,269.6241817178726,0.014233740046620369,-0.007484555710107087,0.6280324459075928,0.7780210375785828,-0.004681675709907792,0.004541874629594353,0.004771554346708665,0.003640556009486317,-0.0006154541042633357,0.002386118983849882,0.12373141380026938,0.2987927198410034,-9.803520700335502
10.7,0.699999988079071,142.0,25.75092697143555,-0.02385532110929489,-79.78284058961596,40.45891749431504,269.62517389678953,0.014242082834243774,-0.007479030173271894,0.6280606985092163,0.777998149394989,-0.004129510015351432,0.0043731385963697335,0.005322316319460262,-0.009214709512889385,-0.001197408651933074,-0.007009414024651051,0.11983316648751498,0.3049664659425617,-9.801799280047415
10.9,0.699999988079071,142.0,25.75343132019043,-0.007951773703098297,-79.78284062026859,40.4589175235233,269.628651350975,0.014236021786928175,-0.007468303199857473,0.6280639171600342,0.7779957056045532,0.002346711284455341,0.0070044504710126965,0.007274847761489937,0.004796374123543501,0.001402475987561047,0.009143444709479807,0.12466469337232412,0.2904265785031021,-9.804361529946329
11.0,0.699999988079071,144.0,25.75718688964844,-0.007951773703098297,-79.78284064516136,40.458917544742974,269.63219437026976,0.014235408976674082,-0.007451885845512152,0.6280903220176697,0.7779746055603027,0.00488318803297412,0.0057155383454035,0.008460219101067954,-0.0024841593112796545,0.00046543512144126,-0.006561518181115389,0.11980819704942405,0.3050361574441195,-9.802079946398736
11.2,0.699999988079071,143.0,25.75343132019043,-0.02385532110929489,-79.7828406503197,40.458917550141045,269.63306245231627,0.014233952388167381,-0.007463047746568919,0.6281064748764038,0.7779614925384521,0.006364363407834833,0.005328615998367707,0.008387431352774016,0.007269092369824649,0.006214992143213749,0.0091370465233922,0.1266993782389909,0.28842662975192074,-9.803214306235311
11.3,0.699999988079071,143.0,25.75343132019043,-0.02385532110929489,-79.78284067048962,40.458917561490146,269.6365166606903,0.014224775135517119,-0.007462142035365105,0.6281263828277588,0.7779455780982971,0.004894620511739014,0.002721483016385598,0.009486978243492586,0.0010257832473143935,0.0013575867051258685,-0.0015685304533690214,0.12206741499714555,0.3021557093784213,-9.80290966629982
11.5,0.8000000119209291,145.0,25.752178192138672,0.007951773703098297,-79.78284067223363,40.45891756618949,269.637497633934,0.014232842251658441,-0.007450694218277931,0.6281599402427673,0.7779183387756348,0.005752458543021832,0.0024738508318882593,0.009710818121179418,0.0035146989393979307,7.737533451290801e-05,0.0030628417152911425,0.1256697475165129,0.28570725420489906,-9.805009986162188
11.6,0.8000000119209291,147.0,25.752178192138672,-0.02385532110929489,-79.78284073839647,40.45891757630189,269.6430806818008,0.014251068234443663,-0.007478834129869938,0.628186047077179,0.7778967022895813,0.003358505072883655,0.009452237941448735,0.01441038391617529,0.005646438803523779,0.001576932962052524,0.0034970240667462358,0.12452588595449925,0.2925484782457352,-9.803668050169943
11.8,0.8999999761581421,152.0,25.748422622680664,-0.015903547406196594,-79.78284078265824,40.458917585548456,269.64628383541105,0.014287169091403484,-0.007491884753108025,0.6282257437705994,0.7778638005256653,0.0017143189710741304,0.009487434458734907,0.012783257019182237,-0.001974612940102816,5.2727969887200736e-05,-0.007913111709058285,0.1242684257403016,0.2885603117197752,-9.804249848127368
11.9,0.8999999761581421,153.0,25.758440017700195,-0.015903547406196594,-79.78284079285477,40.45891758885864,269.6475873889923,0.014307094737887384,-0.007504553999751806,0.6282517313957214,0.7778424024581909,0.00314399270595918,0.00913269619548105,0.012854273225050923,0.005892531014978886,0.0036844511050730944,0.0058750342577695855,0.1282371959555894,0.2874781382828951,-9.804521743655208
12.1,0.8999999761581421,157.0,25.752178192138672,-0.039758868515491486,-79.78284082775043,40.458917604462364,269.65054282569884,0.014315590262413025,-0.0075106294825673095,0.6282563209533691,0.7778384685516357,0.004105876178160113,0.010112887456581432,0.014917149020675962,-0.009420067071914671,-0.005004803650081158,-0.003981847316026689,0.12126144940964878,0.29831363188102844,-9.803884981870652
12.2,0.8999999761581421,156.0,25.74717140197754,-0.03180709481239319,-79.78284084725769,40.458917616126215,269.65359208011625,0.014309556223452091,-0.007514628581702709,0.628275454044342,0.7778231501579285,0.005740124576062767,0.009482942623386177,0.015080524570852303,-0.0020679340232163668,-0.0005823962856084107,0.004208626225590706,0.12519954915158452,0.2854868872649968,-9.804335802197457
12.42,0.8999999761581421,157.0,25.75343132019043,-0.03180709481239319,-79.78284086703567,40.45891763106891,269.65633496665953,0.014318828471004963,-0.007509627379477023,0.6282740831375122,0.7778241038322449,0.007205478216365326,0.007281924233940941,0.016695372112863486,-0.0052455421537160865,0.0005974790547043085,-0.007475858554244042,0.12029059234075247,0.3055423070490361,-9.800949679613113
12.5,0.8999999761581421,157.0,25.754682540893555,-0.02385532110929489,-79.78284089605114,40.45891764152986,269.6591314973831,0.014355608262121676,-0.007518533151596785,0.6283109188079834,0.7777935862541199,0.005514540728044357,0.0045632218952169935,0.014545719848216803,-0.0020994211081415415,0.0011396404588595033,-0.0011524908477440474,0.12222411124035715,0.2927479779347777,-9.803916556835173
12.7,1.0,157.0,25.75092697143555,-0.03180709481239319,-79.7828409022799,40.4589176533889,269.66209849739073,0.014347474090754988,-0.007520140148699283,0.628337562084198,0.7777721285820007,0.007161055930773571,0.003713459944524392,0.014739786636975881,0.00237937574274838,0.0008399623911827803,0.005776241887360811,0.12291932690888645,0.3039632299169898,-9.801705139875413
12.8,1.0,158.0,25.749675750732425,-0.02385532110929489,-79.78284095261232,40.458917675867475,269.6649124326706,0.014341292902827263,-0.007508165668696166,0.6283514499664307,0.7777612209320068,0.007587360817317767,0.007632791445398725,0.01719372764472686,-0.008310261182487011,-0.006133244838565588,-0.00838501937687397,0.12141658334992825,0.3029203241877258,-9.802598009705543
13.0,1.0,156.0,25.75969123840332,0.07156596332788467,-79.78284095888591,40.45891768397021,269.6666745843887,0.014341493137180803,-0.007517264690250157,0.6283604502677917,0.7777538895606995,0.00906901653859798,0.006962430355257092,0.017387606449212542,0.003734046826139093,0.00521925138309598,0.0034547527320683,0.1239315164834261,0.2958701352775097,-9.804557996392253
13.1,1.0,155.0,25.74717140197754,-0.10337305814027786,-79.78284100274692,40.458917698688815,269.6707565488815,0.014362010173499584,-0.00750208692625165,0.6283899545669556,0.7777297496795654,0.006795156926880517,0.007463097603507984,0.01864187324442815,-0.005033213645219803,-0.0028890138491988178,-0.008698550052940845,0.1211159816477448,0.30634756000712515,-9.802026736736297
13.3,1.0,154.0,25.752178192138672,-0.09542128443717957,-79.78284105567906,40.45891770666452,269.67477282905577,0.014367063529789446,-0.007498276885598899,0.6283978223800659,0.7777234315872192,0.003395832971512281,0.008403616692547942,0.019643783801735388,-0.005246173124760389,-0.002244976814836264,-0.004657929763197899,0.1265891673602164,0.28944702370092273,-9.805112312436103
13.4,1.0,153.0,25.752178192138672,-0.10337305814027786,-79.78284106396893,40.4589177110734,269.6767632665634,0.014373773708939552,-0.007475183345377445,0.6284175515174866,0.7777075767517091,0.004152191377976593,0.007906892772254195,0.01969655658410922,-0.0004187444283161312,0.0016289844643324616,0.0005102262948639691,0.12116132497787475,0.2993583465926349,-9.801646667718886
13.6,0.8999999761581421,154.0,25.75593566894531,-0.11132483184337616,-79.78284110311222,40.45891773253931,269.6773768367767,0.01438096631318331,-0.0074869999662041655,0.6284359693527222,0.7776924371719359,0.006421308682510239,0.009155777837423423,0.016467734704585155,0.003119563916698098,-0.001368503435514867,0.006333666853606701,0.12506901919841767,0.2851413899101317,-9.804480813145636
13.7,0.8000000119209291,154.0,25.754682540893555,-0.11132483184337616,-79.78284112007017,40.45891774640807,269.6807793083191,0.014382511377334596,-0.007455806713551283,0.6284458041191101,0.7776846885681152,0.0075140299126543264,0.008383985731410299,0.016825527963157654,0.004730772227048874,0.0023452418390661482,0.0036020651459693904,0.12479064605198804,0.2924941905029118,-9.804431111812592
13.9,0.8000000119209291,156.0,25.758440017700195,-0.10337305814027786,-79.78284113498654,40.45891774759177,269.68308743858336,0.014410066418349743,-0.007456286344677209,0.6284465193748474,0.7776836156845093,0.004151896840492222,0.004301970687977647,0.0186781280754857,-0.005644471850246191,0.0004728014464490116,0.0019910726696252823,0.12424384002573788,0.28856849782168864,-9.804551564455034
14.0,0.8000000119209291,154.0,25.758440017700195,-0.07156596332788467,-79.78284117752347,40.45891776100449,269.68581542396544,0.014449470676481726,-0.007449707016348839,0.6284610033035278,0.7776712775230408,0.003922151615578248,0.005035345804359419,0.01651337342113129,0.005252697039395571,0.004938235506415367,0.007325350772589445,0.12736800734885034,0.2878905862569809,-9.805093601346016
14.2,0.699999988079071,156.0,25.752178192138672,-0.08746951073408127,-79.78284118224683,40.45891776463225,269.68750366592405,0.01445826143026352,-0.007435566745698452,0.6284899115562439,0.7776477932929993,0.0033626166043067467,0.004856535980796536,0.016873994801082315,-0.007000903133302927,-0.0016046511009335518,-0.004945286549627781,0.12241517814807595,0.2969907358847559,-9.803027780056
14.3,0.699999988079071,158.0,25.75092697143555,-0.07951773703098297,-79.78284122597222,40.458917787018976,269.68978425884245,0.014471067115664482,-0.007429651450365781,0.6284958720207214,0.7776429057121277,0.0061087943803774395,0.0065842407625204295,0.014485157501424328,0.0017070341855287552,-0.0006387929315678775,0.003139767562970519,0.12577077643945814,0.2852264486253261,-9.804284931421279
14.51,0.699999988079071,159.0,25.749675750732425,-0.09542128443717957,-79.78284123173904,40.45891779321865,269.6912610235214,0.014471798203885557,-0.007418063934892416,0.6284999251365662,0.7776396870613098,0.005898483004003467,0.0061819965051324935,0.014680403080068915,-0.00663408637046814,-0.002088814508169889,-0.007453265134245156,0.12105803025886418,0.3029839674755931,-9.801363662481313
14.6,0.699999988079071,158.0,25.75718688964844,-0.10337305814027786,-79.78284127492019,40.45891780716652,269.69335636520384,0.014465508982539175,-0.007429097779095174,0.6285163164138794,0.7776263952255249,0.003869952822326401,0.0066900097055929645,0.013301567476223916,0.0005507183377631009,-0.0028441455215215683,0.0010224414290860297,0.12479940773919225,0.28991286406293515,-9.804370300769808
14.8,0.699999988079071,155.0,25.75092697143555,-0.11927660554647446,-79.78284129525674,40.45891779816733,269.69500598335264,0.014479953795671463,-0.007421919610351323,0.6285232305526733,0.7776206731796265,-0.0013804202173188075,0.0015789127821761958,0.012092937176715715,0.00719335675239563,0.0039754509925842285,0.005414091981947422,0.12067291801795366,0.30407794497907165,-9.801249641776083
14.9,0.699999988079071,155.0,25.75092697143555,-0.12722837924957275,-79.78284129733673,40.458917796559035,269.6962269248962,0.014476782642304897,-0.007415070198476314,0.6285334229469299,0.777612566947937,-0.0020782005038988333,0.0013018344514932735,0.012435717038845013,-0.006689826026558876,-0.002319523366168141,-0.005144938826560974,0.12145528460852804,0.2969260876066983,-9.802917852401734
15.1,0.8000000119209291,148.0,25.754682540893555,-0.09542128443717957,-79.7828413258312,40.45891782273999,269.69714388275145,0.014474187977612019,-0.007390078157186508,0.6285275220870972,0.7776175141334534,0.0033925748833274717,0.0035664433333830185,0.011716726836109087,0.0036955424584448338,0.002763654571026564,-8.998202247312292e-05,0.12046007936820388,0.3001853804290295,-9.802379323840142
15.2,0.8000000119209291,145.0,25.75092697143555,-0.11132483184337616,-79.78284133126292,40.45891782957171,269.69955810928343,0.014486787840723991,-0.00738642504438758,0.6285342574119568,0.7776119112968445,0.003617842767487508,0.002620401774784307,0.012186891410526738,-0.0037290034815669055,-0.002944385632872581,-0.007694309577345848,0.1195984830055386,0.3047627087496221,-9.801720927357676
15.4,0.8000000119209291,139.0,25.758440017700195,-0.15108370780944824,-79.78284136912075,40.458917828105605,269.70197436237333,0.014509797096252441,-0.007390606682747602,0.6285483837127686,0.7776001095771791,-0.0007746743988311527,0.0039739708875740146,0.015493895216337197,0.007284939754754305,0.003246174659579993,0.0067237778566777715,0.12756980024278164,0.288510464206338,-9.804923447370527
15.5,0.8000000119209291,137.0,25.744667053222656,-0.12722837924957275,-79.78284139359329,40.45891784284318,269.7055833044052,0.014479354023933409,-0.007354549132287501,0.628577470779419,0.7775774598121643,0.0006067004522769839,0.001971250323579864,0.0171909361577117,0.003457583952695132,0.001250613247975707,-9.247352136299014e-05,0.12377799052745105,0.2960717911273241,-9.804007188677787
15.7,0.8000000119209291,135.0,25.752178192138672,-0.10337305814027786,-79.7828413966929,40.458917843291815,269.70909175300596,0.01449647732079029,-0.007331035099923611,0.6286122798919678,0.777549147605896,0.00100373247422595,0.0007332257252566644,0.01772076874388203,-0.0004747402272187173,0.0007573456387035549,7.455946615664288e-05,0.12514402801170946,0.2894843179732561,-9.805342692732813
15.8,0.8000000119209291,133.0,25.75593566894531,-0.11132483184337616,-79.78284143694115,40.45891785806275,269.7112922372818,0.014507150277495384,-0.00734497420489788,0.6286271810531616,0.7775368690490723,0.0009483081509799637,0.00395100107962363,0.018849645572012404,0.004490120802074671,0.000926385633647442,0.0038758765440434217,0.1263030466530472,0.2859442857094109,-9.804417663216592
16.0,0.8999999761581421,131.0,25.74717140197754,0.015903547406196594,-79.78284144088819,40.45891785904296,269.7131925525665,0.014506848528981209,-0.007326391991227865,0.6286312341690063,0.7775336503982544,0.0007393945699550247,0.0033346255480022693,0.01906233140972038,-0.002908739959821105,-0.0006387053872458638,-0.008677085861563683,0.1200146037619561,0.3083753561228514,-9.801657777428627
16.1,0.8999999761581421,130.0,25.75718688964844,-0.09542128443717957,-79.7828414637231,40.45891788442648,269.7169264259338,0.014522356912493706,-0.007309664506465197,0.6286569237709045,0.777512788772583,0.004004015808840321,0.0019054075853172348,0.01973822679786415,-0.008143112994730474,-0.0075883325189352036,-0.01039671804755926,0.11977537041530012,0.30217199021950364,-9.802157714366912
16.3,0.8000000119209291,124.0,25.75343132019043,-0.10337305814027786,-79.78284146395094,40.45891788837575,269.7189130487442,0.014527563937008381,-0.007314141374081373,0.6286658048629761,0.7775055170059204,0.005697618368833906,0.0008438035182253656,0.01967988082221061,0.00555333448573947,0.003650705795735121,0.004260149784386158,0.12564226560294628,0.28968758180737497,-9.803729445934296
16.4,0.8999999761581421,121.0,25.75343132019043,-0.11132483184337616,-79.78284150398996,40.458917907502034,269.72264835262297,0.014540320262312887,-0.00733581045642495,0.6286835074424744,0.7774907946586609,0.004423237803915226,0.0024079253516702892,0.02024880735294517,0.0070237889885902405,0.0018883432494476442,0.006265532225370407,0.1256043774727732,0.2952098932676017,-9.804461517333984
16.6,0.8999999761581421,120.0,25.74591827392578,-0.10337305814027786,-79.78284153876055,40.458917922766716,269.7243708076477,0.014545678161084654,-0.00734473392367363,0.6287049055099487,0.7774732708930969,0.002559434249733232,0.0048292615566929405,0.02027777817402025,-0.002375403186306357,-0.0003890942898578942,0.0018616456072777512,0.12422935903072355,0.2893457024171949,-9.804491338133811
16.7,0.8000000119209291,123.0,25.74591827392578,-0.11132483184337616,-79.78284154620829,40.4589179288036,269.72847947502135,0.01453225873410702,-0.007350954227149486,0.6287217140197754,0.7774598598480225,0.003993170875429502,0.003165486776938919,0.02052249515433281,0.005698257125914097,0.0032017393968999386,0.0067914221435785285,0.12593206822872166,0.28407887773588303,-9.803606654405597
16.9,0.8000000119209291,123.0,25.75718688964844,-0.09542128443717957,-79.78284155884019,40.45891794219036,269.72991821193693,0.014532274566590788,-0.00732845813035965,0.6287267208099365,0.7774559855461121,0.002581191430173798,0.001316218136068753,0.020417246745240543,-0.005612588487565517,-0.0036260965280234814,-0.007239438127726317,0.12189690470695495,0.3042824330739677,-9.801240870952604
17.0,0.8000000119209291,124.0,25.75343132019043,-0.07156596332788467,-79.78284159184791,40.45891797304184,269.7337566318512,0.0145212821662426,-0.007320966105908155,0.6287739276885986,0.7774181365966797,0.005164329496196492,0.002787257314405697,0.02044124534175017,-0.006548037752509117,0.0004197069793008268,-0.0032896969933062787,0.12316169399768115,0.2934645907580853,-9.80312250494957
17.2,0.699999988079071,123.0,25.7434139251709,-0.11132483184337616,-79.78284159298747,40.45891798346693,269.7378985586166,0.014518950134515762,-0.0072970250621438035,0.6288064122200012,0.7773920893669128,0.00692850086057431,0.0010899526675199394,0.02067176079039864,0.006291957572102547,0.0013327175984159116,0.00248596235178411,0.12228109418414533,0.3021737443841994,-9.800923951864243
17.3,0.699999988079071,121.0,25.749675750732425,-0.09542128443717957,-79.78284162699481,40.45891802350194,269.7396862211227,0.01449710316956043,-0.007265912368893623,0.6288150548934937,0.7773858308792114,0.01064987825389875,0.004465416148328943,0.02062199343327312,-0.005802062340080738,-0.003390153869986534,-0.007829232141375542,0.12232711359858515,0.30762099221348765,-9.803165189623831
17.51,0.699999988079071,118.0,25.75343132019043,-0.08746951073408127,-79.78284162891975,40.458918033664325,269.7417869272232,0.014494909904897213,-0.007261203601956366,0.6288480162620544,0.7773593068122864,0.012363423057238936,0.003553748356524754,0.020623803096791498,0.007579158525913955,0.001308365142904222,0.00582324480637908,0.1274664324335754,0.28601242404431104,-9.805812224149703
17.6,0.699999988079071,122.0,25.754682540893555,-0.09542128443717957,-79.78284167274037,40.458918074504616,269.7458898725509,0.014515493065118791,-0.007286008913069963,0.6288778185844421,0.7773345112800598,0.012587808276371154,0.005229122550453144,0.02075714406313049,0.005958275869488715,-0.0009437766275368633,0.0053136697970330715,0.12394659133628012,0.2947372555173934,-9.804256864786147
17.8,0.699999988079071,122.0,25.754682540893555,-0.09542128443717957,-79.78284167528486,40.45891808582653,269.7480224075317,0.014515483751893044,-0.007292001508176327,0.6288902759552002,0.7773244380950928,0.012601292216471782,0.0047649796206245786,0.02101973410445983,-0.0024614785797894,-0.001549944863654673,0.0014820457436144352,0.12477129542268815,0.29105254121124746,-9.804646874070167
17.9,0.699999988079071,123.0,25.75092697143555,-0.09542128443717957,-79.78284172228065,40.45891809950274,269.75221344852446,0.01450764387845993,-0.007308501284569502,0.6289049386978149,0.7773125171661377,0.007978130070608791,0.005534152009224468,0.02086092661781475,-0.001799602992832661,0.001628441852517426,0.002397611504420638,0.12639091934077445,0.2862901667878032,-9.80467377126217
18.1,0.699999988079071,119.0,25.754682540893555,-0.09542128443717957,-79.78284175885548,40.45891813115573,269.7532008590698,0.014505084604024887,-0.007298878394067286,0.6289108991622925,0.7773078680038452,0.00837316934317878,0.006802570074957964,0.01815044950689686,-0.0012493102112784982,-0.00047760893357917677,-0.0035067158751189713,0.1247393001895398,0.3052357850410045,-9.803681498765943
18.2,0.699999988079071,119.0,25.75343132019043,-0.09542128443717957,-79.78284176827998,40.458918148415655,269.7569502296448,0.014509649947285654,-0.0072893998585641375,0.6289417147636414,0.7772829532623291,0.00920790510250641,0.005380227906586291,0.01872386071876576,-0.006315577309578657,-0.0003451559750828892,-0.008796882815659046,0.11839112433604895,0.3056167494133115,-9.802406221032145
18.4,0.699999988079071,118.0,25.754682540893555,-0.09542128443717957,-79.78284180546471,40.45891816348848,269.7575438919067,0.01450703572481871,-0.007276035379618406,0.6289542317390442,0.7772729396820068,0.006467130121730006,0.006340287974792457,0.015212994511031868,0.005215655080974102,0.004253911320120096,0.0072883893735706815,0.1259991193469614,0.2873568633757532,-9.804804164171221
18.5,0.699999988079071,118.0,25.75593566894531,-0.07156596332788467,-79.78284185353293,40.458918170144095,269.7582264842987,0.014523455873131754,-0.007276358548551799,0.6289991140365601,0.7772364020347595,-0.00021648427136758652,0.0059137875875194005,0.009090240017440571,0.008361440151929855,0.00444412836804986,0.007571448106318712,0.12629142531193793,0.2920935648679733,-9.803747572302818
18.7,0.699999988079071,116.0,25.758440017700195,-0.10337305814027786,-79.78284186596227,40.45891817112045,269.7601073684692,0.0145224928855896,-0.007280898746103048,0.6290249824523926,0.7772154211997986,0.0008992312888971158,0.004379132659089015,0.00940837640227562,0.004973174538463354,0.005863884463906288,0.0025246234145015482,0.12326494303531944,0.29715665062889457,-9.802486912608147
18.8,0.699999988079071,117.0,25.75593566894531,-0.09542128443717957,-79.78284192558479,40.4589181964529,269.75986060523985,0.014528833329677582,-0.00729837268590927,0.6290460824966431,0.7771979570388794,-0.0010236775753739405,0.01024377927731334,0.005862063190006607,-0.0022233203053474426,-0.0034143023658543825,0.003058344358578325,0.1258052293304354,0.2917745078913868,-9.803548766970637
19.0,0.699999988079071,119.0,25.75593566894531,-0.007951773703098297,-79.78284193705656,40.45891819764724,269.760456413269,0.014526350423693657,-0.0072751231491565704,0.6290345191955566,0.7772076725959778,3.426002334246828e-05,0.009255766205872536,0.005867852693804446,0.0046153636649250976,0.0010588030563667417,-0.00031104698427952815,0.12425330520607533,0.29976412508636713,-9.802341316938401
19.1,0.699999988079071,119.0,25.75343132019043,-0.10337305814027786,-79.78284196287376,40.45891822275573,269.7629790010452,0.014528191648423672,-0.007272575050592422,0.629052996635437,0.7771927118301392,0.0011812565043157414,0.0059937884150923285,0.00731015307625548,-0.0005080089322291317,0.0020022727549076076,-0.0007046182872727512,0.12408060221001505,0.3033353668637574,-9.803320725560187
19.3,0.6000000238418579,116.0,25.734649658203125,0.3419262766838074,-79.78284196889422,40.45891822500904,269.7637320461273,0.01452773716300726,-0.0072675361298024654,0.6290661692619324,0.7771820425987244,0.00211154936532422,0.005240663057435973,0.007578341664789411,0.002514019375666976,0.0007354700937867165,0.0068825380876660356,0.12701107137836518,0.28497885558754205,-9.806682289838793
19.41,0.6000000238418579,117.0,25.71461677551269,0.2306014448404312,-79.78284203019989,40.45891828014472,269.76492497348784,0.014526743441820143,-0.00726489070802927,0.6290929913520813,0.7771604657173157,0.008584031857787191,0.010482630514224378,0.005164116097380889,0.0004906445974484086,-0.008589733392000198,0.0013261267449706793,0.12662136359140275,0.2883854251541197,-9.805638561844829
19.6,0.6000000238418579,116.0,25.73840713500977,0.20674611628055573,-79.78284203691925,40.45891828062527,269.7657895984649,0.014534409157931803,-0.0072525725699961185,0.6291226148605347,0.7771363854408264,0.0013165969140322205,0.00496872193401998,0.0034576990328165345,-0.008513322100043297,-0.00534257758408785,-0.01037794817239046,0.12012141594663266,0.3077347205579281,-9.800692402124403
19.7,0.6000000238418579,116.0,25.7333984375,0.18289080262184146,-79.78284204438765,40.45891828564197,269.7665124835968,0.014530315995216368,-0.00724970968440175,0.6291757822036743,0.7770934700965881,0.002308077069385672,0.0031419538274513,0.00374758247156704,-0.0043548052199184895,-0.0009961730102077127,-0.008976975455880165,0.1229595356527716,0.3101528731361032,-9.800937400460244
19.9,0.6000000238418579,113.0,25.73715400695801,0.20674611628055573,-79.78284208262076,40.458918306211174,269.7702041568756,0.014519932679831982,-0.0072250282391905785,0.6292085647583008,0.7770673036575317,0.002382725789815257,0.003737833550989936,0.006562002682010134,-0.007598632946610452,-0.006659727543592453,-0.004601234104484321,0.1263566948566586,0.2900109876506031,-9.80175133287907
20.0,0.6000000238418579,111.0,25.73715400695801,0.2385532110929489,-79.78284210772973,40.45891833178879,269.7730502786636,0.014520813710987568,-0.007208929397165775,0.6292105913162231,0.7770658731460571,0.005180011747253564,0.004710910839803814,0.0075012104781588705,0.00507773132994771,0.007346132770180701,0.00793176144361496,0.12341953793540596,0.2857389936223626,-9.801931427121163
20.2,0.5,110.0,25.73089408874512,0.2942156493663788,-79.78284211537215,40.458918342569646,269.77464267635344,0.014518244192004204,-0.0072003407403826705,0.6292374730110168,0.7770442366600037,0.006946226423433025,0.003764979630677005,0.0077978175250535435,0.007607480976730584,0.0013053485890850425,0.0068757631815969935,0.12056088902056218,0.2982768857851625,-9.803932344317435
20.3,0.5,110.0,25.72588539123535,0.3419262766838074,-79.78284217410669,40.45891833639121,269.7772508563995,0.014520044438540937,-0.007211223710328339,0.6292552351951599,0.7770296335220337,-0.0012479397732574813,0.008950901627627716,0.009144828943909656,-0.004790961276739836,-0.007619684562087059,-0.002843582537025213,0.12172520670108496,0.2971051951311529,-9.800047454237939
20.5,0.5,110.0,24.95712661743164,8.166471481323242,-79.7828421836199,40.45891833715779,269.77818378829954,0.014516994357109068,-0.007195988204330206,0.6292619109153748,0.7770244479179382,0.000129488253268317,0.0076917807406636785,0.009297955840085059,0.0033376601058989768,-0.0009621107019484043,0.0018328707665205,0.13207731829024852,0.3030158896185458,-9.808924112319945
20.6,0.5,111.0,25.66203117370605,0.7236114144325256,-79.7828422166737,40.45891834568822,269.78237625980375,0.014957106672227384,-0.007161511108279228,0.6291369795799255,0.7771176099777222,0.0018287990350239261,0.01066316422598343,0.009128026046381174,0.020229469984769814,-0.03642082586884498,-0.001338437432423234,0.13610390285030008,0.3086320123448968,-9.770196833610537
20.8,0.6000000238418579,112.0,25.735902786254893,0.14313192665576935,-79.78284225658486,40.45891837237507,269.78668198013304,0.014843547716736794,-0.00716894818469882,0.6292164325714111,0.7770553827285767,0.004113017049370395,0.007726407522242622,0.010697828474775578,-0.0037393136881291866,-0.007467818912118673,-0.0021282113157212734,0.13760233408771455,0.3057538118027151,-9.824140906333923
20.9,0.6000000238418579,112.0,25.369050979614247,4.0554046630859375,-79.78284226267941,40.458918378075644,269.78785201931,0.014902171678841112,-0.007154035847634076,0.6293696761131287,0.7769302725791931,0.004256729055060407,0.004534450277417305,0.010330546746066278,0.006303940434008837,-0.004684335086494684,0.013122327625751495,0.11003416495397687,0.3086555108428001,-9.804694236516953
21.0,0.6000000238418579,111.0,25.68456840515137,0.6361418962478638,-79.78284231205058,40.45891839704781,269.78901395225523,0.014925257302820684,-0.0071614631451666355,0.6294161677360535,0.7768921256065369,0.011529480158344941,0.010300560154864859,0.008236792344340523,0.035918060690164566,0.023845909163355827,0.03093857504427433,0.13788569563999772,0.2787832737900317,-9.81810657978058
21.2,0.699999988079071,111.0,25.722129821777344,0.14313192665576935,-79.78284233072283,40.458918413044636,269.791044801712,0.014854371547698975,-0.007183318957686423,0.629519522190094,0.7768095135688782,0.005365697640718792,0.006371837026519127,0.010289179470739622,-0.008499374613165855,0.03883380815386772,0.0037080771289765843,0.12148758133873346,0.27786924434825777,-9.812784444093703
21.3,0.699999988079071,112.0,25.71211242675781,0.5963830351829529,-79.78284236236284,40.45891839010104,269.7957364025116,0.015006868168711662,-0.0072037316858768454,0.6295341849327087,0.7767945528030396,-0.00027217363851803175,0.00907402556244789,0.013902661262739415,0.0025345806498080488,-0.028305152431130413,0.006427331827580929,0.13603108674287798,0.30851031716912986,-9.794938741922381
21.5,0.8000000119209291,112.0,25.45168685913086,4.675642967224121,-79.78284237067905,40.45891839166946,269.79726085090635,0.015000024810433388,-0.007135082501918078,0.6295871138572693,0.7767524123191833,0.0017666421783864691,0.006750355200470718,0.01496793160234779,0.010625013150274757,-0.003501757746562361,-0.004251414909958839,0.1206698482297361,0.2905568435043097,-9.790933399200439
21.7,0.8999999761581421,110.0,25.323978424072266,7.116837501525879,-79.78284241318295,40.45891842250757,269.80345889949797,0.014757608063519,-0.00712577300146222,0.6296256184577942,0.7767258882522583,0.006125383914469494,0.008619178857074982,0.017785248688252774,-0.01164706889539957,-0.01435110904276371,-0.008498862385749817,0.13898238661698994,0.3255683993920684,-9.787074236869811
21.8,0.8999999761581421,115.0,25.256366729736328,8.420928955078125,-79.78284241938832,40.45891843104138,269.805256814003,0.01465332228690386,-0.007092548068612814,0.6296288371086121,0.7767256498336792,0.010720384560348906,0.005422274967552544,0.017809092718532354,-0.006242133211344481,0.013427338562905787,0.0068336050026118755,0.12233821417205035,0.2950526031665504,-9.809961408376694
21.9,1.0,116.0,25.15495109558105,9.53417682647705,-79.78284245042575,40.45891840357237,269.81145772361754,0.014359565451741219,-0.006899100728332996,0.6296938061714172,0.7766800522804259,-0.012470949894217893,0.0031871319851154807,0.02113240677951377,-0.0917811393737793,0.07652541249990462,-0.011179702356457709,0.21520403120666745,0.4762427413836122,-9.842519874572757
22.1,1.100000023841858,115.0,24.96088218688965,12.730790138244627,-79.78284248065613,40.4589184395337,269.81242212677,0.015046285465359688,-0.005457544233649969,0.6298679709434509,0.7765373587608337,0.015162406508993491,-0.00010652051219687144,0.03108544610126194,0.02961831539869308,0.05118856579065323,-0.0002979951386805624,0.11675566725432872,0.2270968475751579,-9.848461815118787
22.2,1.2000000476837158,111.0,24.85946655273437,14.432469367980955,-79.78284247521042,40.45891844776264,269.8153814973831,0.015293383970856668,-0.0040297340601682646,0.6296919584274292,0.7766839265823364,0.019990403340189016,-0.003286330605952923,0.023329446288914577,0.07414349168539047,-0.06062112376093864,0.016185816377401352,0.1478665273077786,0.2835499788075685,-9.714223192334176
22.41,1.2000000476837158,111.0,24.63409805297852,18.750282287597656,-79.78284253020234,40.45891844638757,269.81787046813963,0.0144323343411088,-0.002637814963236451,0.629351794719696,0.7769821286201477,0.01932051617086621,0.007916287863382762,0.02935048881640185,0.0712781473994255,0.05601799115538597,0.017346631735563278,0.22135056948289275,0.23502031814306976,-9.889991079568864
22.6,1.2999999523162842,113.0,24.404972076416016,22.105932235717773,-79.7828425700551,40.458918440966784,269.82398495101927,0.007755022030323744,0.0010243732249364257,0.6269577741622925,0.7790139317512512,-0.004591133593997522,0.03158374038373855,0.053850097299083376,-0.00490789907053113,-0.14968347549438474,0.07982023805379868,0.3004562161490321,0.010005741720087826,-9.995071392059328
22.71,1.2999999523162842,112.0,24.27475929260254,24.658451080322266,-79.78284266778103,40.458918427671726,269.85214814567564,-0.001124381087720394,-0.002786062192171812,0.6230406761169434,0.7821837067604065,-0.022419394854187227,0.04371016848526077,0.2746250760864213,0.0439155213534832,-0.08283466845750809,0.12317271530628204,0.035953227127902214,-0.24006810978055002,-11.13258521676064
22.8,1.399999976158142,113.0,24.79060363769531,15.323068618774414,-79.78284260603293,40.45891851574274,269.86441800022124,8.33472586236894e-05,-0.0032886932604014874,0.6218838095664978,0.7831026315689087,-0.03448473574896805,0.04861059313711871,0.29357856770095625,0.10611191391944884,0.03456941619515419,0.04799135401844978,0.12570610988885164,-0.24020498944446445,-10.459272487163542
23.0,1.5,109.0,24.60029220581055,18.853656768798828,-79.78284283126963,40.45891840607719,269.91171953105925,0.001692910213023424,-0.00154417275916785,0.621624767780304,0.7833119034767151,-0.07861726701750052,0.07936736038344366,0.2280248431930854,-0.006220599170774221,-0.0059632426127791405,-0.035254523158073425,0.08054752436466515,0.16647737419232728,-9.644524966478349
23.2,1.5,110.0,24.58777236938477,18.941125869750977,-79.78284294504293,40.45891835330685,269.93433675193785,0.0006529688835144043,0.002235173480585217,0.6216896772384644,0.7832602858543396,-0.09183070989618328,0.09299015106069357,0.22337776644880566,-0.02690434828400612,-0.010810631327331066,-0.018897708505392075,0.15364971594884996,0.04353138763457537,-9.723267080783843
23.31,1.399999976158142,110.0,24.52391815185547,19.00473976135254,-79.78284350151269,40.458918332556756,269.96221372509,0.006040623877197504,0.0031681868713349104,0.6223334074020386,0.7827225923538208,-0.06396070599871033,0.14194365541356962,0.16665219279497984,0.04552697017788887,0.05217323079705238,-0.07039319723844527,0.20371273582801225,0.011040886184200646,-9.670997650623322
23.5,1.399999976158142,111.0,24.491363525390625,20.14979553222656,-79.78284368034483,40.45891829871872,269.9785314502716,0.006335244048386811,0.004788433201611042,0.6232318878173828,0.7819967865943909,-0.07121001131821003,0.14305760150659827,0.1580290519509088,0.10313264280557632,0.029402125626802444,0.04220794513821602,0.21486138436943286,-0.09548180649988354,-9.710593240857127
23.6,1.399999976158142,107.0,24.4362735748291,20.2531681060791,-79.78284375648266,40.45891808071098,269.99660763168333,0.006596048362553121,0.006474066060036421,0.6242313981056213,0.7811848521232605,-0.11496955281501516,0.11301307674101155,0.15478414086854966,0.032071854919195175,0.011651024222373962,-0.020860673859715455,0.18287243697792294,-0.0016937099676579235,-9.70382099568844
23.7,1.2999999523162842,105.0,24.445037841796875,20.33268547058105,-79.78284407728117,40.45891792534133,270.0294137897491,0.004500461742281914,0.010004364885389805,0.6255761981010437,0.7800859212875366,-0.12291368844437145,0.13190582455042174,0.16740059082642247,-0.056277401745319366,-0.11079733818769456,0.01053210999816656,0.2728679563477636,-0.01651598137803376,-9.84659304499626
23.9,1.2999999523162842,106.0,24.492616653442386,20.062326431274414,-79.78284447346856,40.458917845922564,270.0771745147705,0.0023904715199023485,0.016515729948878292,0.6256369948387146,0.7799358963966371,-0.07455472596287738,0.12585687932254025,0.19057342066515992,0.11963217705488205,0.08909966796636581,-0.02811295725405216,0.2526665571704507,0.009120395611971616,-9.809793008565904
24.0,1.399999976158142,102.0,24.309816360473643,22.17749786376953,-79.78284479652334,40.458917782722345,270.07757541561125,0.0034011311363428827,0.01978781819343567,0.6250605583190918,0.7803180813789368,-0.06341946166676149,0.13588980312232904,0.20230654027760986,0.13033966720104218,0.13616050779819489,-0.010541390627622604,0.2205504876561463,0.0010271182470023633,-9.968037375211717
24.2,1.2999999523162842,98.0,24.41498947143555,19.990758895874023,-79.78284496283645,40.45891775504515,270.09974893951414,0.005064975004643203,0.02072471939027309,0.6248083710670471,0.7804867029190063,-0.0522675983432576,0.12477681389310268,0.2270699074232092,0.04423438012599945,0.14780375361442566,-0.02859696373343468,0.2124282117560506,0.0287703475356102,-10.027864916324617
24.4,1.2000000476837158,99.0,24.369915008544922,20.99268341064453,-79.78284524215351,40.45891768446712,270.1518470945358,0.007455314509570599,0.020499976351857185,0.6242436170578003,0.7809252142906189,-0.029709746874134187,0.09404088313628424,0.25106242889471514,-0.03124294988811016,0.09076281636953354,-0.04245840385556221,0.18429564926773312,0.03720790713094175,-9.872582749128345
24.5,1.2000000476837158,102.0,24.36741065979004,21.310754776000977,-79.78284534106909,40.45891768892693,270.1775438489914,0.008102432824671268,0.02117146924138069,0.6244382262229919,0.780745267868042,-0.010959497437437644,0.07988894248538086,0.256407469501108,-0.011581060476601124,0.0714491605758667,-0.03943828493356705,0.2377708483859897,0.03354256172664464,-9.858172870874403
24.6,1.100000023841858,108.0,24.382434844970703,20.451963424682614,-79.78284560294702,40.45891750924096,270.2380770149231,0.009603917598724363,0.01864486373960972,0.6246759295463562,0.7806024551391602,-0.030935455551044117,0.0825121276740251,0.31677252799462946,-0.2057754546403885,-0.05399613082408905,-0.11851607263088225,0.22412077926099305,0.08966739920899272,-10.139995801448825
24.8,1.100000023841858,111.0,25.32522964477539,7.3712944984436035,-79.7828456304641,40.4589176268854,270.29620918655394,0.009478135965764524,0.019717410206794742,0.6242483854293823,0.78091961145401,0.02869573457360366,0.023912327776857745,0.2205152355469176,0.021095462143421173,0.02059444785118103,-0.010143020190298556,0.18291950706392526,-0.05094560226425529,-8.922897863388062
25.0,1.100000023841858,112.0,24.332353591918945,21.724246978759766,-79.78284564389156,40.45891765087487,270.3097070159912,0.010508401319384577,0.013609610497951508,0.6243389844894409,0.7809643149375916,0.02630655803119638,0.019048929900057538,0.07685192226904207,-0.14482197165489194,-0.13502441346645355,0.05548563227057457,0.2362076866440475,-0.15625830503180624,-8.70798228263855
25.1,1.100000023841858,113.0,24.12576484680176,24.78567886352539,-79.78284598555973,40.45891746007543,270.3571911754608,0.007912442088127136,-0.003171044401824475,0.624081552028656,0.7813127040863037,0.01794884795567815,0.011999498772153859,0.16795758049361953,0.06318047642707825,-0.043863832950592034,0.08109838515520096,0.08589799163863063,0.007004690263420344,-10.23415585398674
25.2,1.2000000476837158,126.0,24.12576484680176,25.11170196533203,-79.7828460072883,40.45891746900868,270.37927636528013,0.006038238294422626,0.0002855166676454246,0.6242632865905762,0.7811907529830933,0.013584126690237971,0.025687485467467696,0.2814738665543081,0.21329936385154724,0.02811951003968716,0.05601218342781067,0.3057083131559193,-0.2308865559473633,-10.798810944557193
25.4,1.2000000476837158,129.0,23.98929214477539,27.25868034362793,-79.78284612818595,40.45891749322432,270.4823132457733,0.00740528292953968,0.006814999971538782,0.6256777048110962,0.7800168395042419,-0.017398070637510848,0.06345718326351449,0.6320420396963704,-0.026497578248381608,0.0025240695104002953,-0.01138555258512497,0.3604301934689284,-0.10233438692986964,-11.496009550094605
25.5,1.100000023841858,132.0,23.89538764953613,29.69987487792969,-79.78284631363582,40.458917485166545,270.5499354305267,0.008768764324486256,0.007057409733533859,0.6260578632354736,0.7796953916549683,-0.009298428229069958,0.07254433899497306,0.8052891467731497,-0.06318687647581099,-0.07284837961196901,0.06443384289741516,0.34482931047677995,-0.1423302921652794,-11.762230939865113
25.7,1.100000023841858,132.0,23.74514198303223,31.44926643371582,-79.78284637926987,40.45891749412952,270.64262303733824,0.009038738906383514,0.006566271651536225,0.6261646747589111,0.7796108722686768,-0.001833089777744163,0.07860870183523372,1.0401231137566629,-0.01116060558706522,-0.04279268905520439,-0.0529981441795826,0.22141406659036875,0.1199114826321602,-12.07276954650879
25.9,1.2999999523162842,124.0,23.662506103515625,31.838903427124023,-79.78284653708091,40.45891746210234,270.8879333438873,0.010868577286601068,0.005207981448620558,0.625222384929657,0.7803536653518677,-0.00022679169880122135,0.07402932611825794,1.5016124045928798,-0.003589992411434651,0.10204623639583588,0.007642982061952352,0.16706730343401432,0.18104830669239164,-12.272185328006744
26.0,1.399999976158142,123.0,23.7000675201416,31.12324333190918,-79.7828466562502,40.45891745168628,271.23960360908507,0.008661133237183094,0.0061616371385753155,0.6254027485847473,0.7802297472953796,-0.007797224766053844,0.08431333797360112,2.0208039968008413,0.05236472934484482,0.041506327688694,0.0228598490357399,0.1899768039956689,-0.04442872510291637,-12.395733486413956
26.1,1.5,114.0,23.696311950683594,31.43336296081543,-79.7828467060213,40.45891738429183,271.4325426521301,0.006769447587430477,0.010181482881307602,0.6259917616844177,0.7797338366508484,-0.025420356401330776,0.08383003851532014,2.2480146551566547,0.1114318072795868,-0.002154444344341755,0.024805046617984768,0.36866504654288296,-0.1754290228150785,-12.372520040273669
26.3,1.600000023841858,112.0,23.817760467529297,28.10951995849609,-79.78284688797758,40.458917290823436,271.9064289035797,0.0015143436612561345,0.012448742054402828,0.6275140643119812,0.7785042524337769,-0.0708661031961607,0.11102127319576234,2.6451845872303537,-0.06502319127321242,-0.08486329019069673,-0.020665658637881282,0.4103489333018661,-0.16717845534905793,-11.802053986787795
26.4,1.600000023841858,105.0,23.72385597229004,29.38975715637207,-79.78284693969348,40.45891729239651,272.18076023483275,0.0011029266752302649,0.01279214769601822,0.6287175416946411,0.7775278687477112,-0.06223760065615218,0.10127523186254396,2.8321979082881947,-0.13855671882629395,-0.05397440120577812,-0.07145032286643982,0.2418875622935593,-0.05526061900891364,-11.682892409563065
26.6,1.600000023841858,99.0,24.24345779418945,22.48761749267578,-79.78284717378483,40.45891726702856,272.74396404647825,0.003091535996645689,0.01156548410654068,0.629480242729187,0.7769243121147156,-0.01844179874077311,0.09453319338241713,3.011671342862143,0.01552884466946125,-0.01813648454844952,-0.04648976027965546,0.1541399136185646,-0.008377337842248379,-10.655943585634233
26.8,1.7999999523162842,95.0,24.14579772949219,22.81363868713379,-79.78284720851414,40.45891730818664,273.04635605239866,0.0040144668892025965,0.010393012315034866,0.6296789050102234,0.7767757177352905,0.002536808748403813,0.0907739391884096,3.0315637271836544,-0.03226272389292717,0.11860816925764085,-0.10020039975643158,-0.027409819224849342,0.3941122021526097,-10.095711328983306
26.9,2.0,93.0,24.03186225891113,24.83338928222656,-79.78284734816222,40.45891734086846,273.62755236053465,0.0019463268108665945,0.009713108651340008,0.6281667947769165,0.7780156135559082,0.034454476224020494,0.0710740376388879,3.0377263484197723,0.015193127095699309,0.08939043432474136,0.06441114097833632,0.09266000417992472,0.17745040526613595,-10.02227614760399
27.01,2.200000047683716,79.0,23.99555206298828,24.92881202697754,-79.78284745131259,40.4589173859124,273.9385512771606,0.0038727030623704212,0.005915048997849226,0.6261383295059204,0.7796800136566162,0.039272567795857,0.07295753889205019,3.0521249136409714,-0.08829135447740555,-0.08304344117641449,0.0904223844408989,0.2048021634668112,-0.17065000209957362,-10.113614333868028
27.2,2.299999952316284,62.0,24.23469352722168,21.040393829345703,-79.78284747864116,40.45891754053846,274.55182108306883,0.007027311716228724,-0.001566443359479308,0.6221952438354492,0.7828290462493896,0.09007748745544418,0.07216388737928826,3.0720542003802978,-0.1646616905927658,-0.04960040375590325,0.08019887655973433,0.14373687643557784,-0.019115913840942085,-9.780580319166184
27.4,2.299999952316284,311.0,23.980527877807607,25.159412384033203,-79.78284755932896,40.45891760904389,274.8341005744934,0.009726297110319138,-0.0059866453520953655,0.6211075782775879,0.7836421132087708,0.11276843709293258,0.058567355491279637,3.008669426039228,-0.10043877363204956,-0.10199936479330064,0.07764408737421036,0.07377696027047932,-0.09379211649298667,-9.628519383072852
27.5,2.4000000953674316,293.0,24.334857940673828,20.348588943481445,-79.78284757528395,40.458917679182704,275.1354349555969,0.010610430501401423,-0.007606768980622291,0.6209971308708191,0.7837041616439819,0.13207323792534906,0.05769882021177199,3.0189542115358425,-0.007466922048479319,0.05099370703101158,-0.02719912864267826,0.0035769747896119953,0.3699566964805127,-9.845490260124206
27.7,2.0999999046325684,306.0,24.12576484680176,23.13966178894043,-79.78284791691065,40.458917682768714,275.6923221054077,0.00866689532995224,-0.003166967770084739,0.6219581365585327,0.7829961776733398,0.0919420536364979,0.06396403543672853,2.955640526672944,-0.017274100333452225,0.1442897915840149,-0.10689300298690796,-0.031232281140983108,0.3196964792534709,-9.680018734931947
27.8,2.0,310.0,24.13452911376953,22.55918312072754,-79.78284846618556,40.458917819124586,276.2309440078735,0.00936124287545681,0.0029108994640409946,0.6239429712295532,0.781408429145813,0.017772740596065706,0.13402902811859554,2.875394587429719,-0.10891362279653548,-0.019096545875072483,-0.05806372687220573,0.20359520679339768,-0.03480588007718325,-9.688172092437744
27.9,1.8999999761581416,318.0,24.198383331298828,21.4379825592041,-79.78284856093802,40.45891784373858,276.51836237335203,0.009485273621976377,0.00440244423225522,0.6248180866241455,0.7807003259658813,0.017365163851491883,0.14154543829702082,2.85807572129378,0.05912519991397858,-0.047817587852478034,0.044168148189783096,0.3133463665097952,-0.05441307423636318,-9.650486202836037
28.11,1.8999999761581416,306.0,24.08194351196289,24.730016708374023,-79.78284839653685,40.458917956878025,277.19378981018065,0.00909903272986412,0.0060167391784489155,0.625910758972168,0.7798184752464294,0.01853748166231453,0.11392806248169007,2.8287841768871718,0.10669703036546707,-0.08065773546695709,0.07097131013870239,0.20573590898886324,-0.1750257659330964,-9.590615392327312
28.2,1.8999999761581416,285.0,24.010576248168945,24.07001876831055,-79.78284845511345,40.45891796643123,277.4769385757446,0.010049500502645971,0.00554899824783206,0.6258878111839294,0.7798286676406859,0.0009567341466218107,0.11371994506320053,2.83072845190332,-0.04411116242408752,0.03580837324261665,-0.08912236243486404,0.054640375608578325,0.3313008634373546,-9.684722819924355
28.4,1.7999999523162842,276.0,24.05439758300781,24.252910614013672,-79.78284852866052,40.45891830629808,277.8707707824707,0.00965747982263565,0.004054042510688305,0.6259585022926331,0.7797859907150269,0.031482208282547754,0.12373599723796246,2.8603950617098963,0.12823966145515442,-0.01376611553132534,0.06500735133886337,0.15568399881944062,-0.016940635414794087,-9.723675801157952
28.6,1.600000023841858,274.0,23.95673751831055,25.23097801208496,-79.7828487811692,40.458918551228386,278.5225566329956,0.01033257320523262,0.005815547425299883,0.6266070008277893,0.7792453169822693,0.0614885908396632,0.1297566724519081,2.8974206736105828,0.14886926114559176,0.02380276843905449,0.021980319172143936,0.2565895637869835,0.016839706990867852,-9.830057119131089
28.7,1.5,262.0,24.00932502746582,23.847370147705078,-79.78284885763256,40.4589185957288,278.81340727233885,0.01071323361247778,0.007149506360292435,0.6273356080055237,0.7786425352096558,0.03649589965967635,0.1462175989948174,2.917224225393678,-0.12698957324028015,-0.0605790950357914,-0.04061328247189522,0.2413146447949112,-0.031141137667000295,-9.920239895582199
28.8,1.600000023841858,195.0,23.95924186706543,24.83338928222656,-79.78284911464185,40.458918844842906,279.48850187683104,0.011006586253643036,0.004933374933898449,0.6262132525444031,0.7795585393905641,0.06612903163595292,0.14920452889244631,2.9836214812535884,-0.06992687284946443,-0.1151304543018341,0.054051049053668976,0.341270110309124,-0.08193259270861745,-9.961297874450684
29.0,1.7000000476837158,180.0,24.103227615356445,22.82954216003418,-79.7828491215672,40.45891898067204,280.1566832962036,0.011328225955367088,0.005986317992210388,0.6251704096794128,0.7803832292556763,0.08406350631873119,0.12699545641317314,2.998988928054791,0.14625726640224454,0.014368041418492794,0.046412333846092224,0.2071658821217716,0.04496196832973511,-9.644688103795053
29.2,1.8999999761581416,194.0,24.04187774658203,23.74399757385254,-79.78284920542181,40.45891909367847,280.75215181732176,0.016427336260676384,0.008582744747400284,0.626520574092865,0.7791845202445984,0.08573108216034334,0.1216753423192848,2.945959511845552,0.1146836206316948,0.04225185886025429,0.015766849741339684,0.06922391616739333,0.34457108281552795,-9.54693552196026
29.3,2.0999999046325684,208.0,23.95924186706543,25.22302627563477,-79.78284912846723,40.45891915494249,281.10539945983885,0.017560956999659542,0.006300559267401695,0.6274260878562927,0.7784525752067566,0.07952395172605617,0.12215348115253602,2.9728004359878337,-0.15074701607227325,-0.08024902641773224,-0.06600664556026459,0.1978765385225416,0.18398505248129368,-9.645916603803633
29.41,2.299999952316284,220.0,24.05189323425293,22.2331600189209,-79.78284910962087,40.45891921605728,281.4029525222778,0.015773378312587738,0.003538060933351517,0.6280542016029358,0.7780017852783203,0.10294575470936887,0.09751348191211932,2.9681344390016933,-0.01837797835469246,-0.06626265496015549,0.08468350768089294,0.19184429503977304,0.02327723332447932,-9.711423545479775
29.6,2.4000000953674316,219.0,24.09321212768555,23.07604789733887,-79.78284918636254,40.45891939680229,282.06084856414793,0.012772105634212494,-0.0003253575705457479,0.6285645365715027,0.7776525616645813,0.09769811780094716,0.05549798597978022,3.001764501544473,-0.09319154918193816,-0.11525341123342515,-0.07011081278324127,0.10904103364795446,0.21261561501771206,-9.676743124723435
29.71,2.5,229.0,24.048137664794922,23.457733154296875,-79.78284914079512,40.4589194431622,282.3608544769287,0.008614234626293179,-0.0009784400463104248,0.6285267472267151,0.7777396440505981,0.11666672745039415,0.029267737171880817,2.9956916905761837,0.1454782634973526,-0.04328017681837082,0.03416308760643005,0.11972786178812385,0.16262564878910782,-9.750591119527817
29.9,2.5,227.0,24.034364700317386,23.39411926269531,-79.78284909317995,40.45891966700993,282.7139905395508,0.00562997255474329,-0.0007408398087136447,0.6285377144813538,0.7777584791183472,0.11083190689139537,0.009151619987296494,3.0480611982021535,0.057893056422472,-0.01423438172787428,0.057341761887073524,0.01758426082553342,0.08875810235738754,-9.959277076721193
30.1,2.4000000953674316,238.0,24.090707778930664,23.02833747863769,-79.78284883568722,40.4589198513026,283.3585656585693,0.007165739778429271,0.0019006460206583144,0.6283977627754211,0.7778568863868713,0.11225671958815844,-0.0102229073463717,3.0683865021196284,0.1253453940153122,0.053098972886800766,0.03026203066110612,0.2429089429602027,-0.025079112213570627,-9.898387681245804
30.2,2.4000000953674316,234.0,24.04939079284668,22.821590423583984,-79.78284877930065,40.45891991509928,283.66607412719725,0.010840453207492828,0.00261561363004148,0.6281516551971436,0.7780110836029053,0.08410992921502647,0.01354182771169099,3.0786009045327827,-0.1771124303340912,0.027803514152765274,-0.032340619713068015,0.1463139088265598,0.18166666802018885,-9.823224062919616
30.3,2.4000000953674316,256.0,23.99930763244629,23.38616752624512,-79.78284849982671,40.458920027588526,284.30622991943363,0.012762976810336113,0.0023129265755414963,0.626228928565979,0.7795313000679016,0.10246375290238746,0.0249256434716953,3.0634291281059687,-0.057593364268541336,-0.14763756096363068,0.015730585902929306,0.2414350243471563,0.04783396077342331,-9.729083306193353
30.5,2.4000000953674316,266.0,24.04312896728516,22.447856903076172,-79.78284839384999,40.45892013646399,284.94395956420897,0.006990053225308657,-0.002332413801923394,0.625542938709259,0.7801549434661865,0.08790142932089952,-0.01766048119411287,3.079913956209764,0.11609913408756255,-0.004898264538496733,0.01050154771655798,0.05975144965108485,0.15620028968900446,-9.909562879800797
30.61,2.4000000953674316,282.0,24.096967697143555,21.891233444213867,-79.78284831556795,40.45892016444614,285.25291952514647,0.003152220044285059,-0.0035741229075938468,0.6261345744132996,0.7797004580497742,0.08402211056530665,-0.035152957069790464,3.1020263360688083,0.02886178530752659,-0.08360451459884644,-0.058050647377967834,-0.05707240161951632,0.22962417863309384,-9.969476959705354
30.81,2.299999952316284,288.0,24.05815505981445,22.097980499267575,-79.78284804448595,40.458920224399975,285.8849767150879,-0.0006277405773289503,-0.004455755464732647,0.6274983286857605,0.778605043888092,0.05350923555340185,-0.06529105187832672,3.0966034018161483,-0.07139308750629425,-0.05407378822565079,-0.006080821622163057,0.060346591137349616,-0.11972049795091153,-9.843020396232603
31.01,2.200000047683716,286.0,24.078187942504893,22.77388000488281,-79.78284790585822,40.45892036646947,286.51659712219237,0.004133440088480711,-0.0044722454622387895,0.6279109120368958,0.7782613635063171,0.06628419963231427,-0.019464132388522043,3.095541358579319,-0.02386588230729103,-0.08420813828706741,0.012870436534285544,0.09344893061555924,0.08893317164853215,-9.815034452676773
31.1,2.200000047683716,286.0,24.16082191467285,20.396299362182614,-79.7828478772577,40.45892039987164,286.8262151184082,0.004723149817436934,-0.00516463490203023,0.6275326609611511,0.7785588502883911,0.06883832875118383,0.0026600965153152677,3.089482482682224,-0.13186420500278473,-0.07092743366956711,-0.034821078181266785,0.06583054394926878,0.13143249831162393,-9.690888708829881
31.2,2.200000047683716,289.0,24.08820343017578,22.670507431030273,-79.78284785878417,40.45892043177126,287.1339391174316,0.006746100261807443,-0.005810583475977182,0.6265444755554199,0.7793348431587219,0.07919119993854871,-0.00281996077160657,3.0637656310482866,-0.007267328910529613,0.07111678272485733,0.0338720940053463,-0.0006723475735634566,0.16458479493856432,-9.594107934236527
31.4,2.299999952316284,291.0,24.13327789306641,20.714370727539066,-79.78284780312879,40.45892056786572,287.76374945068363,0.009477620013058186,-0.0033036081586033106,0.6258086562156677,0.7799120545387268,0.10072062227540528,0.02956847771464722,3.0753765354712117,0.04399750009179115,0.03193535655736923,-0.02647409774363041,0.04057378373108805,0.2278454921767116,-9.773404031395913
31.6,2.5,292.0,23.966754913330078,23.799659729003906,-79.78284782591496,40.458920607160934,288.09105429077147,0.008734120056033134,-0.004216015338897705,0.6263489723205566,0.7794825434684753,0.06605021420152822,0.03979709956522261,3.06040864946923,-0.006609332747757435,0.032432496547698975,-0.05588769167661667,0.02383299518376589,0.2455084323137999,-9.532172471880914
31.7,2.5999999046325684,289.0,24.086952209472656,22.153642654418945,-79.78284783013444,40.4589206203456,288.3963654937744,0.009310810826718807,-0.005827976856380701,0.627815306186676,0.7782849073410034,0.06670084924027604,0.028768336037170945,3.0482753299629213,0.0007043391233310102,-0.10644644498825072,-0.014662236906588078,0.08293621245771647,-0.026582849342376,-9.701266931891444
31.9,2.700000047683716,289.0,24.117000579833984,22.455808639526367,-79.78284774432484,40.45892075798231,289.02479872131346,0.007081424817442894,-0.004330383613705635,0.6306732296943665,0.7760041356086731,0.0836422844493807,0.012761351224264887,3.048372923990416,0.07674191892147064,-0.11243847012519836,0.03036297671496868,0.17291992776095869,-0.01332571539329365,-9.772012978792187
32.0,2.799999952316284,285.0,24.04312896728516,22.535327911376953,-79.78284772538083,40.458920771925136,289.32922872924803,0.004412315785884857,-0.005418613087385893,0.6318122744560242,0.7750899791717529,0.051217161429802656,0.010983435789578815,3.0351716251097285,-0.1428551822900772,-0.07901380211114882,-0.11279942095279695,-0.07403850439935923,0.3441197874024511,-9.618969710469246
32.1,2.9000000953674316,280.0,23.904151916503906,23.99845314025879,-79.78284762279196,40.45892068797132,289.95952543640135,0.0016289709601551294,-0.007434946484863758,0.6323128938674927,0.7746757864952087,0.04386349828293281,-0.02090493714422318,3.0842449150376248,0.010096015408635141,0.0922476053237915,-0.03320265933871268,-0.14511073457077148,0.4146172910928727,-9.955682208538057
32.3,3.0,279.0,24.07443046569824,22.28087043762207,-79.78284759345182,40.45892072820534,290.58284124755863,0.0023144534789025784,-0.007303671445697545,0.6307904720306396,0.7759153842926025,0.033901663197107794,-0.0025257578349853343,3.0581444471090258,-0.1005631610751152,0.09437529742717744,-0.06513526290655136,-0.09117501240223648,0.3254158601537347,-9.534411955475807
32.5,3.0,280.0,23.988039016723643,23.147613525390625,-79.78284761525593,40.45892073505989,290.8872693481445,0.005102268885821104,-0.0063468278385698795,0.6301225423812866,0.7764530777931213,0.05088933521486884,0.010968917466303279,3.0341289835063128,-0.00340635608881712,-0.07850349694490433,0.04317362233996391,0.09400083468295636,-0.0632983204163611,-9.655717706680297
32.6,3.0,283.0,23.976770401000977,23.871225357055664,-79.78284758967433,40.45892073602821,291.1984151306152,0.005847885273396969,-0.004747903905808926,0.6293416023254395,0.7770923972129822,0.03703642674915245,0.03612975365173312,3.0427061539563107,-0.03020634315907955,0.0016757805133238435,-0.02869142219424248,0.08883880306966603,0.29106750642880796,-9.720010181665419
32.8,3.0,285.0,24.03060913085937,22.36833953857422,-79.78284767066533,40.45892074066053,291.8093675079345,0.007228452246636151,-0.0038802684284746647,0.6294180154800415,0.7770235538482666,0.03516649897768913,0.05359237245796554,3.0802314817992205,-0.046943385154008865,0.013135503977537157,-0.031997933983802795,-0.009626055284170435,0.2145516646653414,-10.023961315155027
32.9,3.0,285.0,23.93545341491699,24.03026008605957,-79.78284775097615,40.45892084958617,292.4359868469238,0.006722697522491218,-0.00026509031886234885,0.6275591850280762,0.7785398960113525,0.05660822830958639,0.07038322493114338,3.134249553070604,0.061637710779905326,0.05420033261179924,0.033009465783834464,0.14554724749177694,0.10100538790225984,-10.088978844881057
33.1,3.0,284.0,24.14579772949219,20.65870857238769,-79.78284776618379,40.45892090284971,292.73924002075194,0.008630219846963879,-0.00027911405777558684,0.6268474459648132,0.7790941596031189,0.04299489800727496,0.07127843311253845,3.1259963696633166,0.017739098519086838,0.02374971657991409,0.052571550011634834,0.16505414362996818,0.054803732195869086,-10.091952738761902
33.2,3.0999999046325684,288.0,24.01558494567871,22.018461227416992,-79.78284781025405,40.45892091943721,293.0520318450928,0.011832574382424356,-0.0004815541324205697,0.6266884803771973,0.7791799306869507,0.04905283194660658,0.08187967691580167,3.118295560448784,-0.0633980929851532,0.028279813006520268,0.03087334707379341,0.11431619974784556,0.06958085213787854,-9.763890026807788
33.41,3.0999999046325684,286.0,24.02810478210449,22.94086837768555,-79.7828478826701,40.45892098149571,293.97287306213383,0.011437978595495224,-0.006037638988345861,0.625922441482544,0.7797780036926271,0.08543129552862942,0.06635999212623464,3.0050290710816814,-0.004593914374709129,-0.15638741850852966,0.03731014207005502,0.12937037721276284,0.2332000799104572,-9.504483566880227
33.5,3.2000000476837163,284.0,24.014331817626953,22.956771850585927,-79.78284791644053,40.458920988760866,294.2801736297607,0.010345605202019216,-0.008390234783291817,0.6266939640045166,0.7791516780853271,0.08049899665398763,0.039480890353962135,2.996471111422267,-0.0816425010561943,0.002658384619280696,-0.07851016521453857,-0.03992812321521342,0.5867167814075948,-9.532608089447024
33.6,3.2000000476837163,281.0,24.02059364318848,21.620872497558594,-79.78284791423329,40.458921006859896,294.58001455688475,0.009465916082262993,-0.009347233921289444,0.6279025077819824,0.778178334236145,0.1052355155556781,0.014369807326453866,3.0017565540853206,0.04882365092635155,0.02912310138344765,0.003247031243517995,-0.07654639346525073,0.4304860496520996,-9.767748604416846
33.8,3.299999952316284,280.0,24.08069038391113,21.294851303100586,-79.7828478714121,40.458921096557155,295.1838067474365,0.009601820260286331,-0.011760832741856577,0.6302839517593384,0.7762162685394287,0.11696413042086565,0.013445127770137287,2.9903141430128706,-0.06288907676935196,-0.05273913964629173,-0.09937117248773576,0.019586619269102813,0.352679051309824,-9.661664909720422
33.9,3.4000000953674316,280.0,24.04939079284668,21.23123550415039,-79.78284786089903,40.45892112989048,295.4824136199951,0.010062159039080143,-0.01331697404384613,0.6319235563278198,0.7748510241508484,0.13032269333089452,-0.00616013291931366,2.9766852398232477,0.03228570148348808,0.0524691753089428,0.049207691103219986,-0.09969268798828124,0.3820053228735924,-9.618366277813912
34.1,3.4000000953674316,280.0,23.97802352905273,23.33050537109375,-79.78284776819463,40.4589211554651,296.0846131744385,0.009461239911615849,-0.012547834776341915,0.633044958114624,0.7739555835723877,0.1241752229159939,-0.01184576523894992,2.9585879289842065,-0.09147343784570694,0.02708395011723041,0.000619624275714159,-0.09833480919711292,0.4353204910084605,-9.643721559047698
34.3,3.5999999046325684,276.0,24.03060913085937,21.84352302551269,-79.78284774774887,40.45892118942484,296.38054594421385,0.008320605382323265,-0.015089082531630991,0.6324506402015686,0.7744090557098389,0.14643017518375664,-0.019130679409164655,2.95950628163475,0.09072655439376832,-0.03239590302109718,0.04470740258693695,0.05641749519389123,0.2622798913344741,-9.842372524738312
34.4,3.700000047683716,278.0,24.083194732666016,21.81966781616211,-79.78284768453817,40.45892126050507,296.9839547576904,0.013201745226979256,-0.012194471433758736,0.6319394707679749,0.7748094201087952,0.13862532449157586,-0.02149638880119119,2.9785164690241115,-0.1107233539223671,0.07014558464288713,0.013369414024055004,-0.004433030001819134,0.2847607909888029,-9.642395410537722
34.5,3.799999952316284,276.0,23.89538764953613,23.50544357299805,-79.78284763036906,40.458921278752,297.27949461364744,0.015786893665790558,-0.01425384171307087,0.6315813064575195,0.7750178575515747,0.1350506793378789,0.0038472791926484336,2.964193139424012,-0.11536440253257753,-0.03764372691512108,0.07837177067995071,0.01635383077897131,0.3171131428331137,-9.678565117120744
34.71,3.799999952316284,275.0,23.891632080078125,23.410022735595703,-79.78284759910383,40.458921340458105,297.87150701904295,0.011576595716178415,-0.01843800023198128,0.63153475522995,0.7750419378280641,0.16166318944573788,-0.007037233161335851,2.9607687573344754,0.003908636514097452,-0.010363449342548849,0.05724464729428291,-0.051741435723379255,0.24322869429364802,-9.891221333742145
34.91,3.799999952316284,276.0,23.87159919738769,23.8076114654541,-79.78284761758688,40.4589214387831,298.46608290100096,0.011901640333235264,-0.01241618860512972,0.6317726969718933,0.7749630212783813,0.14755797788313732,0.008761840937023379,2.9854095316219653,0.046461671590805054,0.07928889244794846,0.004443237558007239,-0.031737686139531436,0.5479140370711685,-9.792216278314587
35.0,3.799999952316284,274.0,23.83278465270996,25.07194328308105,-79.78284767386134,40.45892158623558,298.7588685455322,0.010421949438750744,-0.008774200454354286,0.6317945122718811,0.775016188621521,0.14898651672257138,0.04314984317741237,2.995972200722392,0.03365787118673325,-0.03903623670339584,-0.031052712351083755,0.11151343742385507,0.24487781010568144,-9.988471055030823
35.2,3.799999952316284,273.0,23.756410598754893,26.79747772216797,-79.7828477048532,40.45892163948169,299.0605672302246,0.008346432819962502,-0.006913674995303154,0.6320320963859558,0.77486652135849,0.1344951325459214,0.05614177749690893,3.03715289615437,0.010571104474365713,-0.030085785314440724,-0.036026306450366974,0.1553985450603068,0.19714519802480931,-10.214227373600007
35.3,3.799999952316284,272.0,23.91542053222656,23.250986099243164,-79.78284782951819,40.4589217495638,299.6635220947265,0.01307041384279728,-0.007315240800380706,0.6323232650756836,0.7745598554611206,0.11219874560094832,0.06169995526292391,3.1070066272444588,-0.039563275873661034,0.06713549792766571,-0.0775061622262001,0.10273127582855524,0.3179396467655897,-10.235242266654973
35.4,3.799999952316284,268.0,23.91416931152344,23.42592620849609,-79.78284787033871,40.458921798032925,299.97521910095213,0.0161912739276886,-0.006441272795200348,0.6326724886894226,0.7742235064506531,0.13833325186027146,0.07536852688808489,3.1165706774828044,0.05620601400732994,-0.00854381453245878,-0.012180117890238762,0.10795111265033484,0.2732696966081858,-9.989199618101118
35.6,3.799999952316284,269.0,23.79397201538086,25.286640167236328,-79.78284792582788,40.45892178062928,300.5751393737793,0.014042910188436508,-0.006858447100967169,0.6332111954689026,0.7738212943077087,0.11756884712868446,0.08613658374668973,3.068504595094056,0.02036611177027225,-0.008232065476477146,-0.05657415091991425,0.048264539684168994,0.4573541883006692,-9.75701428592205
35.8,3.799999952316284,268.0,23.994298934936523,21.70039176940918,-79.78284794416895,40.45892180949805,300.88303503417967,0.01101465430110693,-0.006637345068156718,0.6330204606056213,0.7740283012390137,0.12042951532969147,0.05865337048039599,3.086946211668124,0.01945863664150238,0.0012497907737269998,0.08034712821245192,-0.0166854592692107,0.2434499565884471,-9.941733090877532
35.9,3.799999952316284,268.0,23.84029769897461,24.507368087768555,-79.78284797387767,40.45892179176509,301.48281225585936,0.010012082755565643,-0.010649265721440315,0.6323122382164001,0.7745758295059204,0.1017994634094407,0.030765103379025688,3.0268893268540324,0.02879774011671543,-0.06736491620540619,0.10172663629055023,0.05756330278236418,0.12501815755851567,-9.623220051527023
36.1,3.799999952316284,268.0,23.85281753540039,24.403993606567386,-79.78284802638095,40.45892171747819,301.7843869628906,0.011113359592854977,-0.012738504447042942,0.6318650841712952,0.774894118309021,0.08403440246773132,0.02432515393623456,3.019903431839108,-0.08812594413757324,0.008725941181182861,-0.031260479241609566,0.0197243874357082,0.2793316695280373,-9.6660935908556
36.2,3.799999952316284,270.0,23.89914321899414,22.88520622253418,-79.7828480663888,40.45892171204073,302.38976034545897,0.011929493397474287,-0.00999278388917446,0.6316463947296143,0.7751004695892334,0.0900693955881757,0.02872460469016245,3.041778322629116,-0.006443796679377556,-0.015395443886518478,0.017354488372802734,0.040691308197565376,0.29544073037803176,-9.922563579082487
36.4,3.799999952316284,270.0,23.8365421295166,24.68230628967285,-79.78284806435407,40.458921672307774,302.69329580688475,0.011313734576106071,-0.007581479381769894,0.6313654780387878,0.7753658890724182,0.07691540425114737,0.037279767992955806,3.0505829039328285,0.03297584503889084,-0.02757037803530693,0.014273293316364288,0.037969680558890107,0.19527299266308548,-9.849548227787018
36.5,3.799999952316284,270.0,23.855321884155273,24.2052001953125,-79.78284808604188,40.458921658465854,302.9989217224121,0.01139522809535265,-0.0069918339140713215,0.6316743493080139,0.7751185297966003,0.06302497652747661,0.038064256449336,3.061884265189972,0.017152084037661552,-0.02558480761945248,-0.033674973994493484,0.07807208734564483,0.24352889399975536,-9.924504854679107
36.7,3.799999952316284,266.0,24.05189323425293,20.20545768737793,-79.78284817210198,40.45892167056945,303.6144307556152,0.013787787407636642,-0.00923011265695095,0.6307895183563232,0.7757766842842102,0.09341663370184576,0.04968596509577417,3.1045630273898417,0.07364603877067566,-0.022848336026072502,0.051857415586709976,0.11877017922699452,0.3230274187400937,-9.96795317530632
36.8,3.799999952316284,269.0,23.865339279174805,23.21122741699219,-79.78284819735859,40.458921672262676,303.9249585571289,0.012658515945076942,-0.009030596353113651,0.6300351023674011,0.7764109969139099,0.09778304891996877,0.052808845596229725,3.0967011708357584,0.02965608984231949,-0.05002499371767044,0.037427816540002816,0.0553773623239249,0.2836872787401081,-9.767281996607784
36.9,3.799999952316284,270.0,24.018089294433594,20.937021255493164,-79.7828482203763,40.458921598505576,304.5295575561523,0.012124132364988329,-0.009301315993070602,0.6302365064620972,0.7762528657913208,0.08236220949844672,0.03844206456981468,3.040779360529378,-0.010784964077174664,-0.018102087080478668,-0.010270114056766031,0.12264724865555765,0.2500653501972556,-9.627878528237344
37.1,3.799999952316284,269.0,23.95298194885254,22.272918701171875,-79.78284828302834,40.45892148126243,305.1409543457031,0.015755120664834976,-0.013947512023150921,0.6327636241912842,0.7740591764450073,0.08344801314505755,0.029303285657807238,2.9743681029172024,-0.06658274680376053,0.0068055111914873114,-0.04283217340707779,-0.03827825822867453,0.5463087205588818,-9.257088457345963
37.2,3.799999952316284,271.0,23.79021644592285,25.07194328308105,-79.78284829434115,40.458921468487354,305.4358342590332,0.01580391637980938,-0.013064893893897532,0.6339484453201294,0.7731035351753235,0.11216166015221284,0.02313358536411116,2.924427262073188,0.0939432457089424,-0.05728969722986221,0.044481251388788216,0.17103653959929946,0.2812995134107769,-9.420924516320227
37.4,3.799999952316284,271.0,23.911664962768555,22.193401336669922,-79.78284832469951,40.4589214367356,305.7435277404785,0.01511096116155386,-0.010264020413160324,0.6342995166778564,0.7728716135025024,0.10518086050399207,0.032738354045092684,2.9542699443335514,-0.010586501099169254,-0.010638094507157804,0.02115084789693356,0.04711294883396477,0.3706313920766116,-9.658631374239922
37.6,3.799999952316284,270.0,23.92293357849121,22.90906143188477,-79.78284835714848,40.45892150523935,306.3470548095703,0.014349360950291157,-0.007001274265348911,0.6332270503044128,0.7738013863563538,0.10203524363141143,0.038528402590587686,2.9641836031233737,-0.040012847632169724,-0.009983845055103302,0.10934840887784958,-0.004046346321702004,0.34086650624871256,-9.634565988779068
37.7,3.799999952316284,270.0,23.802736282348643,24.793630599975586,-79.78284833971743,40.45892154917171,306.9401601257324,0.012879217974841595,-0.010114199481904508,0.6320361495018005,0.7747658491134644,0.12407577974537838,0.025958961840917,2.9650089883075323,0.010423870757222177,-0.036993499845266335,-0.01935996487736702,0.058191878465004274,0.4124473893642426,-9.850673232078552
37.8,3.799999952316284,269.0,23.78771209716797,24.54712677001953,-79.78284837294045,40.458921509723524,307.24543127441405,0.012921754270792007,-0.010956056416034698,0.6311145424842834,0.7755046486854553,0.14233818261935444,0.012503892950730995,3.0198390769430064,0.06590782850980759,0.00960727874189615,-0.04987678304314613,0.07820890305563807,0.5061183223128319,-10.045615893602374
38.0,3.799999952316284,266.0,23.81275177001953,23.9825496673584,-79.78284832711337,40.45892155201524,307.84448751831053,0.013176909647881985,-0.012197221629321577,0.6307209730148315,0.775801956653595,0.1372761231537491,0.01760800632065692,3.0648853415898314,-0.100637748837471,-0.09332539141178132,-0.0025276187807321553,0.07336286776699126,0.3014253555983305,-10.049057564735413
38.2,3.9000000953674316,266.0,23.74514198303223,25.5649528503418,-79.78284831279186,40.45892159257858,308.15205511474613,0.012691891752183436,-0.015357437543570997,0.6315928101539612,0.775044322013855,0.15882029249540253,0.01838255229024184,3.072738670969111,-0.011691662482917307,-0.0523696206510067,0.0004009794211015105,0.06712007883936168,0.397273608930409,-9.853561756610867
38.3,3.9000000953674316,266.0,23.97426605224609,21.86737823486328,-79.7828483704015,40.45892158918701,308.7520192565918,0.014317213557660581,-0.01665407977998257,0.6334661841392517,0.77345871925354,0.177109623007778,0.011702638530288051,3.0655088198933966,0.031926900148391724,0.031612370163202286,-0.015659654513001442,0.09227538529783487,0.4398620234057308,-9.83909574508667
38.5,3.9000000953674316,268.0,23.97051048278809,21.445934295654297,-79.78284838232919,40.45892162945592,309.0584004821777,0.015461153350770472,-0.01448317524045706,0.6344247460365295,0.7726944088935852,0.1757849736220406,0.02511630810315476,3.0516687895865404,-0.002838965272530913,0.08539145439863205,-0.01112252939492464,0.05116791523061693,0.5630001092702149,-9.718081185221672
38.6,3.799999952316284,264.0,23.84154891967773,23.56905746459961,-79.78284836822762,40.45892166312742,309.3539594116212,0.016363414004445076,-0.010609152726829052,0.6348318457603455,0.7724042534828186,0.17980400989085082,0.030262777835848294,3.031943097036048,0.10349039733409884,0.08656688779592514,-0.0010904966620728374,0.09315400253981353,0.4695019249990583,-9.7148722332716
38.7,3.700000047683716,262.0,23.887874603271484,22.60689353942871,-79.7828483926378,40.458921755722415,309.96000799560545,0.018941033631563187,-0.008991440758109094,0.6360896229743958,0.7713304162025452,0.14779513877203654,0.07324584941146849,3.031875087308636,-0.11660391092300415,-0.019346581771969795,0.01485992502421141,0.2102510558255017,0.3746981305629015,-9.867854690551756
38.9,3.700000047683716,260.0,23.96550178527832,21.310754776000977,-79.78284844853842,40.458921815052534,310.55969747924803,0.01707516796886921,-0.010126705281436443,0.6376265287399292,0.7700898051261902,0.17729623504653105,0.06710293569154008,3.0172952445703936,0.10200058668851852,-0.07348090410232544,0.08390303701162337,0.2439975117892027,0.2589396876655519,-9.747334220409394
39.1,3.5999999046325684,258.0,23.89413642883301,22.54327964782715,-79.78284850914694,40.45892181868725,310.85264334106444,0.01837160624563694,-0.010033803060650829,0.6383731365203857,0.7694424390792847,0.14988423266404302,0.06162456710789301,2.9969943525373197,-0.07525522261857986,0.08357975631952286,-0.04935266450047493,-0.028124961107969287,0.5499703200906515,-9.55938424408436
39.2,3.5,259.0,23.83403778076172,23.88712882995605,-79.7828485236522,40.45892186059599,311.15164694213865,0.021163376048207283,-0.01055833324790001,0.6398668885231018,0.7681217789649963,0.17061871728417902,0.06627302970962158,2.9788224430064667,-0.011525125242769718,-0.02752794325351715,0.01997514255344868,0.07778969423845411,0.17318572025746107,-9.685347302556039
39.41,3.4000000953674316,258.0,23.957990646362305,22.93291664123535,-79.78284861926446,40.458921932582854,311.74636206054686,0.020957602187991142,-0.010497548617422579,0.6402639150619507,0.7677974104881287,0.15268931131036192,0.08458577543797466,2.9786253155607616,-0.10888177156448364,-0.14023897051811218,-0.044689442962408066,0.05106523264199495,0.3552441517263651,-9.71853902220726
39.5,3.4000000953674316,259.0,23.73637771606445,24.507368087768555,-79.78284866075327,40.45892197700768,312.3395627441406,0.01610567793250084,-0.011133826337754726,0.6375589370727539,0.7701528668403625,0.1369108799483296,0.06449684096616054,3.0114887028481547,-0.025779834017157555,-0.14181135594844818,0.01027138065546751,0.08036589522846044,0.2741698754578829,-10.108434870243073
39.7,3.299999952316284,258.0,23.99054336547852,21.45388603210449,-79.78284867324629,40.458921995753,312.64322409057615,0.014595950022339819,-0.009268316440284252,0.6358658671379089,0.7716059684753418,0.12863572326122816,0.04836111374426988,3.0516332562108737,0.012260026298463345,0.029988668859004974,0.03709420189261437,0.050387156624346965,0.3642677576467395,-10.101557375192645
39.8,3.299999952316284,259.0,23.783954620361328,24.38809013366699,-79.78284868355173,40.45892201229969,312.9491628112793,0.014755846001207829,-0.007183138281106949,0.6347522139549255,0.7725414037704468,0.12522562246467767,0.0433069195942612,3.0570906338335706,0.07884909957647324,0.04517759382724762,0.038989167660474784,0.09057364454492928,0.2950445997901261,-9.875888764858246
40.0,3.2000000476837163,259.0,23.861581802368164,23.39411926269531,-79.78284871193756,40.458922021274454,313.5423329772949,0.015691231936216354,-0.005430215504020453,0.6344361901283264,0.7727968692779541,0.10894483044480384,0.05611934599438381,3.0603261318441937,-0.034238487482070916,-0.014313940890133381,-0.010260593146085741,0.044535345425829286,0.3730639799684286,-9.925446256399155
40.1,3.2000000476837163,259.0,23.86408615112305,23.537250518798828,-79.78284876644152,40.458922006375104,313.8380330505371,0.016179462894797325,-0.007248738314956427,0.6345583200454712,0.7726715803146362,0.10846438005580004,0.07042767890254538,3.0537785941786586,-0.05649692937731742,0.039548877626657486,-0.0146246999502182,0.05294027938507498,0.41739822685718536,-9.886326044797896
40.21,3.299999952316284,257.0,23.9003963470459,22.503520965576172,-79.78284878571301,40.4589220590737,314.4505284729004,0.01787958666682243,-0.009770312346518041,0.6361415386199951,0.7713034152984619,0.13396928563048896,0.05849085926897541,3.0718180295555406,-0.10727092623710632,0.017146263271570206,-0.07898195087909697,0.05270290070213378,0.4933500863984228,-9.911279622316359
40.4,3.299999952316284,256.0,23.955486297607425,21.024490356445312,-79.7828488215948,40.45892207127096,315.0533536376953,0.02034986391663552,-0.0112703125923872,0.6372634768486023,0.7702948451042175,0.1464060040572423,0.060413261635110474,3.047060490678656,-0.05352594703435898,-0.12368245422840116,0.01901245303452015,0.07438207400031388,0.2478408500924707,-9.711345777511598
40.6,3.299999952316284,257.0,23.84530639648437,22.821590423583984,-79.7828488986583,40.45892211480263,315.3555539550781,0.01933648809790612,-0.012059132568538187,0.6373814940452576,0.7702113389968872,0.15278540219485626,0.07110715678857239,3.0408053622853752,0.04380349069833756,0.0421609953045845,0.04760272055864333,0.17721448838710785,0.5044107160717249,-9.694681797623637
40.7,3.4000000953674316,256.0,23.885372161865234,21.62882423400879,-79.78284893252044,40.45892215612066,315.9654210510254,0.01862138882279396,-0.012225594371557236,0.6373853087425232,0.7702232599258423,0.1492021667127548,0.051968959044839634,3.0454597991270016,0.02291148155927658,0.07342203706502914,0.03310637176036835,0.006938342638313771,0.5109733385592701,-9.794316598176957
40.91,3.4000000953674316,255.0,23.94046211242676,22.241111755371094,-79.7828489587981,40.458922174914534,316.5728848876953,0.01944906823337078,-0.012159931473433971,0.6364139914512634,0.7710066437721252,0.13557689196475847,0.06144151301678447,3.0513443618438636,-0.08395795524120331,0.052646037191152566,0.013119708746671677,0.12385935818776488,0.5831336442008614,-9.763248587250713
41.0,3.4000000953674316,254.0,23.937957763671875,22.24906349182129,-79.78284897968166,40.458922158653934,316.8742307128906,0.019010629504919045,-0.012607604265213013,0.6358312964439392,0.7714909911155701,0.1512144922009992,0.06110080703227465,3.0308155217777855,0.14252915978431702,-0.014919275417923927,0.01090252585709095,0.2603970330767333,0.3007780140079558,-9.67937378704548
41.2,3.4000000953674316,254.0,23.88036346435547,22.535327911376953,-79.78284900705975,40.458922166852815,317.17761740112303,0.018455391749739647,-0.012109855189919472,0.6360149979591371,0.7713610529899597,0.12466959889635748,0.06996432398965184,3.029132063580206,-0.07034856826066971,0.02411777526140213,-0.08374658972024918,0.1846094985678792,0.5646285953745246,-9.700892710089683
41.4,3.4000000953674316,252.0,23.83403778076172,23.13966178894043,-79.7828490618427,40.45892217184771,317.7836202087402,0.02047777734696865,-0.010413212701678276,0.6361819505691528,0.7711969614028931,0.12365677160207222,0.08645580168467826,3.0332539180961646,-0.11020832508802414,-0.023267466574907303,-0.05991705134510994,0.15868100747466088,0.3599693597853184,-9.714404456019404
41.51,3.4000000953674316,251.0,23.865339279174805,22.137739181518555,-79.78284913855623,40.45892220349504,318.3859723510742,0.024703165516257286,-0.010090928524732591,0.6373143792152405,0.7701418995857239,0.1351314076647519,0.09686871700742697,3.017075745070987,-0.1231965348124504,0.013739645481109621,-0.028630515560507774,0.09397680628113447,0.4495916806161404,-9.681355993151666
41.6,3.4000000953674316,249.0,23.92543792724609,21.25509262084961,-79.78284917324831,40.458922211442975,318.6876538696289,0.026093604043126103,-0.008807593956589699,0.6376087069511414,0.769868016242981,0.14992662459622155,0.10028005102624818,3.0089583251641536,0.0732307955622673,0.10911024361848833,0.05777297541499137,0.10069567733444272,0.4331383466720581,-9.66765070438385
41.8,3.4000000953674316,249.0,23.796476364135746,23.457733154296875,-79.7828492653248,40.45892222845399,319.29089483642576,0.02556069754064083,-0.009550509974360466,0.6373046040534973,0.7701287865638733,0.13659090585692565,0.11308119101350335,3.0094421966104434,-0.07776808738708496,-0.01374817080795765,-0.02784206159412861,0.16772449392825367,0.5003018776327371,-9.720494331121444
41.9,3.4000000953674316,248.0,23.891632080078125,22.153642654418945,-79.7828492843152,40.458922236843684,319.59195455932615,0.02464918792247772,-0.011242294684052469,0.6378212571144104,0.7697078585624695,0.15211080103204158,0.09221089167865668,2.9991095187516645,0.027623182162642482,-0.071526899933815,0.08900503069162369,0.2780550396256149,0.2794757851213217,-9.760488701462746
42.1,3.4000000953674316,247.0,23.86033058166504,22.31267738342285,-79.78284936923798,40.45892228760293,319.8948491516113,0.025266408920288086,-0.01170613244175911,0.6382259130477905,0.7693454027175903,0.1293220288371262,0.08916865563176729,2.9981052801192796,-0.17877091467380524,0.05427203327417374,-0.1345260888338089,0.10496349608525636,0.7984782278537751,-9.590095574855804
42.3,3.5,247.0,23.82402038574219,23.950742721557607,-79.78284939188185,40.45892229253664,320.49064764404295,0.02611937373876572,-0.009415119886398315,0.6388413906097412,0.7688374519348145,0.1519408625296626,0.07704784240640324,2.955879519006083,0.05729470774531365,0.0996381938457489,0.02832101285457611,0.07197593562304974,0.5213836116716266,-9.626132549643515
42.4,3.5,243.0,23.816509246826172,23.75194931030273,-79.78284942578264,40.45892240621645,320.79452642822264,0.02500568889081478,-0.00809522345662117,0.6389643549919128,0.7687872648239136,0.16547165045168413,0.08777033968359838,2.9722806135367454,0.08167374134063721,-0.030329633504152295,0.11375030130147935,0.19500155394896865,0.2676449857838452,-9.80383469581604
42.5,3.5,242.0,23.96049499511719,20.984731674194336,-79.78284949124206,40.45892241402375,321.39094671630863,0.0230496283620596,-0.011569037102162838,0.6389672160148621,0.7688015699386597,0.15379152063106016,0.07461054302714566,2.9886973193000395,0.024545058608055115,-0.01681024208664894,0.01890222728252411,0.1919333188980818,0.39617287058383227,-9.769496337175367
42.7,3.5,242.0,23.86408615112305,22.535327911376953,-79.78284948009967,40.45892244466759,321.9886601867676,0.024069737643003464,-0.014314315281808375,0.6392419338226318,0.7684956192970276,0.17343485744052128,0.04693271285310386,2.982564657656795,0.08784998953342438,0.07112409174442291,0.03802982345223427,0.12145854625850915,0.4588511851429939,-9.753045780658724
42.9,3.5,245.0,23.798980712890625,23.00448226928711,-79.78284955014578,40.45892241716332,322.2860196533203,0.02560051530599594,-0.013185989111661913,0.6392396092414856,0.7684682607650757,0.159893521734694,0.05732152026557572,2.982493291805024,-0.08655223995447159,0.014996979385614397,0.0106264753267169,0.0361201468622312,0.4061096654087305,-9.702593080401419
43.0,3.5,245.0,23.696311950683594,25.024232864379893,-79.78284955293982,40.45892241832488,322.5837605895996,0.026562336832284927,-0.011733697727322578,0.6388421058654785,0.7687897682189941,0.15187497343461434,0.06657308851418348,2.968084276935305,0.04162231832742691,0.09193439781665802,0.011090440675616264,0.09475517118349673,0.5306164017319679,-9.600802411437037
43.11,3.5999999046325684,244.0,23.79021644592285,23.266889572143555,-79.78284957114245,40.45892246560828,323.1741803588867,0.0218829307705164,-0.00618679728358984,0.6381270885467529,0.7695952653884888,0.14450838651141104,0.07369407162327822,2.9785304570732523,-0.001824504346586764,-0.050801683217287064,0.09165813028812407,0.11516367143020036,0.292666372731328,-9.910580295324326
43.3,3.5999999046325684,244.0,23.816509246826172,22.583038330078125,-79.78284965041674,40.458922492595136,323.7682736816406,0.025631234049797055,-0.01257892232388258,0.6375749111175537,0.7698591947555542,0.12759501545175986,0.07225980666408695,2.9969387473880222,-0.17413820326328278,-0.01840961165726185,-0.07501488924026489,0.10402404952794314,0.5756935739144683,-9.872354707717896
43.41,3.5999999046325684,241.0,23.83278465270996,21.92304039001465,-79.78284963814157,40.458922507638604,324.0680821838379,0.02706153690814972,-0.016417056322097782,0.6382119655609131,0.7692098021507263,0.17762503135470126,0.05611802597859196,2.9878673137829264,0.024807443842291832,-0.037665218114852905,-0.04331577941775322,0.21547166923061006,0.4612688626348973,-9.839583402872085
43.6,3.5999999046325684,244.0,23.825273513793945,23.083999633789066,-79.78284971569134,40.45892255327494,324.6589864196777,0.025716429576277733,-0.01752564311027527,0.6392654776573181,0.768356204032898,0.2017847535841408,0.04956080844246632,2.9725171856507813,0.1493593156337738,0.03820028528571129,0.08745316416025163,0.21654229441657666,0.3807373907044529,-9.794508386850357
43.8,3.5999999046325684,244.0,23.84154891967773,22.94086837768555,-79.78284971904614,40.458922552451,324.9576161804199,0.024855934083461758,-0.016736885532736778,0.6395630240440369,0.7681544423103333,0.16329434172097032,0.05630303270354465,2.986138636521925,-0.06060245633125305,-0.03994331136345863,0.003149009542539716,0.14439813257195055,0.5043254198133946,-9.866348447799684
43.9,3.5999999046325684,244.0,23.77644348144531,23.839418411254893,-79.78284980242782,40.45892253557768,325.25013479614256,0.02358626201748848,-0.01541159860789776,0.6398817896842957,0.7679566740989685,0.1593222470224263,0.057096042014393986,2.9828646907342096,0.11636126041412355,0.08511058241128923,0.07947568595409392,0.17295223362743856,0.4111877894774079,-9.797535490393637
44.1,3.5999999046325684,244.0,23.79021644592285,23.577009201049805,-79.78284987912099,40.45892243519551,325.83796820068363,0.020404363051056862,-0.009293592534959316,0.640453577041626,0.7676694989204407,0.11472017838461718,0.06376473182298564,2.9801572943223764,0.11079856008291243,0.07959040999412538,0.0434456579387188,0.14441296074539425,0.38126075305044654,-9.825382854938509
44.2,3.5999999046325684,241.0,23.8465576171875,23.05219268798828,-79.78284989455842,40.458922406258324,326.13696417236326,0.02093256264925003,-0.008516831323504448,0.6407186985015869,0.7674431204795837,0.09456118713031414,0.06550603403598221,2.9937231715229533,0.019547224044799805,-0.03719140589237213,0.05308809876441956,0.15399313023313882,0.3368916421383619,-9.906971393823623
44.31,3.5999999046325684,241.0,23.78520774841309,23.17942047119141,-79.78285002397064,40.458922379996366,326.7275708618164,0.022220108658075333,-0.010319158434867859,0.6401603817939758,0.7678505778312683,0.10529213485090924,0.07862333391152851,2.98522238280204,0.08757075667381288,-0.06222274899482728,0.0685742124915123,0.26073019646108153,0.2351966847851873,-9.862476421594618
44.5,3.5,241.0,23.75390625,24.483510971069336,-79.78285010256046,40.45892233974625,327.31909689331053,0.02173489890992641,-0.009250100702047348,0.640694260597229,0.7674326300621033,0.11461213754035254,0.0766377333410508,3.0007637963087457,0.13262929022312164,-0.08315374702215195,0.08312404900789261,0.2845200684294105,0.2373534302785993,-10.004829225540162
44.7,3.5,242.0,23.84029769897461,22.193401336669922,-79.78285012198656,40.45892231652349,327.6208814086914,0.021767538040876392,-0.0077687595039606094,0.6409534215927124,0.767231822013855,0.08776012803651577,0.08128995036282173,3.0252956848294934,-0.08364800363779068,0.017026402056217194,-0.10798835009336473,0.1709182613901794,0.5745517223328352,-9.91772676229477
44.8,3.4000000953674316,240.0,23.70758056640625,24.300621032714844,-79.78285023896125,40.458922286098364,328.21441015625,0.02242220751941204,-0.005513044539839029,0.6409748792648315,0.7672145962715149,0.08359760704170736,0.09531500610901354,3.0090173656836168,-0.09547524154186247,-0.003408572403714061,-0.08161903172731401,0.23319224098697305,0.6690512788295746,-9.830059458017349
45.0,3.4000000953674316,239.0,23.7251091003418,24.276765823364247,-79.78285025183584,40.45892226625861,328.51568350219725,0.021418718621134758,-0.00530405854806304,0.6412109136581421,0.7670474648475647,0.10257581778320726,0.08355874275078834,3.0060391661365085,0.11192619800567627,-0.03946532681584358,0.04961230978369713,0.3382611331343651,0.2404915761016309,-9.862960571050644
45.1,3.4000000953674316,239.0,23.68128776550293,25.11170196533203,-79.78285039255418,40.458922297259676,329.1152623596191,0.019218994304537773,-0.006051098462194204,0.6411561965942383,0.7671459913253784,0.11200637253337643,0.09020531158233457,3.0153963671386066,0.16341786086559296,-0.05799204856157302,0.04432453215122223,0.3352187537401915,0.29271607406437394,-9.959411562681199
45.3,3.299999952316284,240.0,23.80524063110352,22.73412132263184,-79.78285041439412,40.45892229450202,329.4184735717773,0.017881553620100018,-0.0068471631966531285,0.6406955718994141,0.7675562500953674,0.08644323509682945,0.08912762729047394,3.0355794042902544,-0.14735925197601318,-0.020932884886860847,-0.0858222246170044,0.17268000919371845,0.6731441836059093,-9.867839487791064
45.4,3.299999952316284,237.0,23.80023193359375,22.55918312072754,-79.78285051961085,40.45892222500739,330.01657232666014,0.018478423357009888,-0.0062497430481016645,0.6391137838363647,0.7688648104667664,0.08612963214597216,0.08344560988048788,3.0405870437607394,-0.13168181478977206,-0.03897647187113762,-0.04703828692436218,0.21777702536433927,0.4430900153517723,-9.858654681444168
45.6,3.2000000476837163,235.0,23.70883178710937,24.45965576171875,-79.78285051137844,40.45892213835979,330.31406530761717,0.018997037783265117,-0.006338589359074831,0.6385866403579712,0.7692893743515015,0.08500907413077025,0.06441768714611677,3.0273051975486216,0.04158857837319374,0.0293236393481493,0.04370199516415596,0.15017844328656793,0.3281095993146301,-9.788642460107804
45.7,3.2000000476837163,234.0,23.69380760192871,24.316524505615234,-79.78285051891446,40.45892212707209,330.6173642578125,0.020288560539484024,-0.006235424894839525,0.6390084028244019,0.7689069509506226,0.08881197325473418,0.0667748930778201,3.0377941385058147,-0.04193048179149629,-0.05667717382311821,0.020219409838318825,0.2823187379166484,0.21106025565415626,-9.93871241927147
45.8,3.2000000476837163,232.0,23.726360321044922,23.34640884399414,-79.78285049435286,40.458922025903284,331.2190106811523,0.02194205299019813,-0.0054403776302933676,0.6405404210090637,0.7675917148590088,0.09180794424973396,0.06870673219808855,3.055653306728656,0.12526804208755493,0.09184277802705763,-0.0072750672698020935,0.2927158913388849,0.2073534863814712,-9.99148003220558
46.0,3.0999999046325684,231.0,23.644977569580078,25.44567680358887,-79.78285059106803,40.45892202273125,331.82181295776365,0.019935190677642826,-0.0020585320889949803,0.6420682072639465,0.7663856148719788,0.09926248481735817,0.08463142725778723,3.0386269945918922,0.19973774254322046,0.03697996214032173,0.01934812217950821,0.31784751657396554,0.13064979367889465,-9.855176757574082
46.1,3.0999999046325684,230.0,23.81275177001953,22.17749786376953,-79.7828505966104,40.45892200845051,332.1270078125,0.01826096884906292,-0.0006829951889812946,0.6420552134513855,0.7664405703544617,0.06536841470920632,0.0881134041932463,3.0559538737653047,-0.08939416706562042,-0.06574524194002151,-0.03795600682497025,0.147088774535805,0.3447220140695572,-9.857936643362043
46.3,3.0999999046325684,230.0,23.726360321044922,23.131710052490234,-79.78285059602574,40.458921998153684,332.4325269165039,0.017730489373207092,-0.0009025510516948998,0.6412397623062134,0.7671352028846741,0.07266688167641078,0.07320219792327347,3.0520601036943447,0.09682972729206084,0.04675824195146562,0.07279543578624725,0.18585102690383792,0.2510845381580293,-9.808185608983038
46.5,3.0999999046325684,227.0,23.8465576171875,20.96087646484375,-79.78285066954679,40.45892200713704,333.0475705566406,0.01792917773127556,-0.001667078584432602,0.6399281620979309,0.7682238221168518,0.07793744187111677,0.08539839513797691,3.1102013558161152,-0.055136267095804214,0.017404431477189064,-0.024574030190706253,0.20907695319503547,0.4723793032765389,-10.094606205224991
46.6,3.0999999046325684,230.0,23.80524063110352,22.209304809570312,-79.78285071792372,40.458922070893614,333.3545087280273,0.01839747652411461,-0.002703000325709581,0.6394898295402527,0.7685747146606445,0.10545954251257322,0.08542756720169167,3.1246689455998182,-0.004682280123233795,-0.01306591648608446,0.0321660041809082,0.2262027169391513,0.2488148683123291,-10.020132558345797
