time,wind_speed,wind_angle,battery_voltage,battery_current,position_x,position_y,position_z,orientation_x,orientation_y,orientation_z,orientation_w,velocity_x,velocity_y,velocity_z,angular_x,angular_y,angular_z,linear_acceleration_x,linear_acceleration_y,linear_acceleration_z
0.0,1.2000000476837158,179.0,23.74138641357422,-0.05566241592168808,-79.7828167993583,40.458939111385824,268.866645613432,0.00905232597142458,0.011993443593382835,0.8194007277488708,0.5730241537094116,-0.003379088900547244,0.007874484646070597,-0.01298438390955207,0.0037671406753361225,0.0014880432281643152,0.0005212678224779665,0.2877241233363748,0.009589041952276604,-9.806530262231828
0.1,1.2999999523162842,182.0,23.742637634277344,-0.07156596332788467,-79.78281693794254,40.45893907449479,268.8470173568726,0.009047847241163256,0.011990532279014587,0.8193992972373962,0.5730263590812683,-0.001889531324538662,0.009225867052964052,-0.010518588259862488,-0.001499727601185441,-5.5098344091675244e-06,0.004955235868692398,0.2889057908020914,0.002913492828374729,-9.806429105401039
0.3,1.2999999523162842,184.0,23.74388885498047,-0.06361418962478638,-79.78281695623023,40.45893906509061,268.84496782135966,0.009040271863341331,0.011994141153991222,0.8193924427032471,0.5730363130569458,-0.002703076515512323,0.008328969641371075,-0.01044470063949022,-0.0020942161791026592,-0.0008097251993604004,0.005950704216957092,0.28509994776919484,0.011326168638188392,-9.805248552560807
0.4,1.399999976158142,183.0,23.73637771606445,-0.04771064221858978,-79.78281707068572,40.458939029397634,268.8256340117455,0.009025312960147858,0.012004543095827104,0.8193839788436891,0.5730483531951904,-0.002511881440180166,0.0066328503799646076,-0.008982134492918716,-0.0001961660891538486,-0.00013342425518203527,-0.003342673648148775,0.2859682227484882,0.013162268585292623,-9.805819240808487
0.61,1.399999976158142,183.0,23.74764633178711,-0.05566241592168808,-79.78281719895469,40.45893899050124,268.8036397190094,0.00901387631893158,0.012022265233099459,0.8193765878677368,0.5730587244033813,-0.002685251562361886,0.005299360816200281,-0.010445656428014068,-0.001594053697772324,2.528026743675582e-05,-0.007191970478743316,0.2899863927997649,0.0019416124967392536,-9.809063860774039
0.71,1.399999976158142,184.0,23.74013328552246,-0.04771064221858978,-79.78281720369175,40.458938986580684,268.80261100244525,0.009021318517625332,0.012014830484986305,0.8193826675415039,0.5730501413345337,-0.0026969113477400275,0.004616937514175711,-0.01044990624021468,0.0019734762609004974,-0.0016989315627142787,0.004029048606753349,0.2902207930572331,0.0010543346375925468,-9.809202439785004
0.9,1.399999976158142,182.0,23.74138641357422,-0.07156596332788467,-79.7828173325032,40.458938998164136,268.7823134453297,0.009000868536531925,0.012042115442454815,0.8193793296813965,0.5730545520782471,0.005308652572064144,0.000981138066126494,-0.009022183791767708,0.0013622967526316645,0.004148626234382391,0.005184113048017025,0.28617687698453664,0.014814890442648903,-9.806365370750427
1.0,1.399999976158142,185.0,23.742637634277344,-0.03180709481239319,-79.78281733563807,40.458939001977356,268.78142195355895,0.008985718712210655,0.012061139568686484,0.8193789720535278,0.5730549097061157,0.0044021040005593854,0.0005803512034979982,-0.008807444137735267,-0.0027518076822161674,-0.0012697457568719985,-0.007698201574385165,0.28623065309599044,0.014517413346329703,-9.806156625151637
1.2,1.399999976158142,185.0,23.74764633178711,-0.04771064221858978,-79.78281752509953,40.45893896810296,268.76161296081546,0.008975265547633171,0.012049291282892229,0.819379985332489,0.5730538964271545,0.00448325463600391,0.007042759323773656,-0.00795922092664409,-0.004537747241556645,-0.0011839255457744002,-0.0075091011822223655,0.2902559494413436,0.00022875432536238809,-9.807840623259542
1.31,1.399999976158142,186.0,23.74764633178711,-0.03180709481239319,-79.78281753467343,40.45893896993656,268.7608373553753,0.008975265547633171,0.012049291282892229,0.819379985332489,0.5730538964271545,0.004927746105538036,0.006311679818020604,-0.007993654984791106,0.003166913753375411,-0.001116682426072657,0.004245671909302473,0.2904956670105457,0.0002386106524500065,-9.808822955489159
1.5,1.399999976158142,185.0,23.748897552490234,-0.02385532110929489,-79.7828176871154,40.458938927834566,268.7396916986704,0.008972560986876488,0.012043209746479988,0.8193774819374084,0.5730576515197754,0.00228474998727077,0.007597881812906519,-0.009665201389145535,0.0053840442560613155,0.0028807090129703283,0.0024397503584623337,0.28624280434101823,0.015001203061547131,-9.8066097843647
1.6,1.399999976158142,186.0,23.74639320373535,-0.03180709481239319,-79.78281778831119,40.45893887969073,268.7198689223528,0.008977461606264114,0.01204166654497385,0.8193745017051697,0.573062002658844,-0.0038623246878084576,0.0036764875685283134,-0.010868125060895528,-0.002477413974702359,-0.0017792308935895562,-0.006776128895580769,0.2873955646343529,0.01418685722630471,-9.805725685358047
1.8,1.2999999523162842,186.0,23.74639320373535,-0.02385532110929489,-79.78281779272922,40.4589388713064,268.7177006543875,0.008977461606264114,0.01204166654497385,0.8193745017051697,0.573062002658844,-0.004373530242978674,0.002561047067421144,-0.010842588323685877,-0.0038469738792628046,-0.00042582707828842087,-0.009746907278895378,0.2898986480198801,0.0007740273133094889,-9.8080786049366
1.91,1.2999999523162842,186.0,23.748897552490234,-0.03180709481239319,-79.78281795643234,40.45893884590007,268.69809711885455,0.008969007059931755,0.012037467211484907,0.8193720579147339,0.5730655193328857,-0.0011555316729063428,0.005375871339995225,-0.012103544538813042,0.008028720505535603,0.0016669476171955464,0.007360666990280151,0.2897953898459673,0.0006125639333913567,-9.8074745875597
2.1,1.2000000476837158,186.0,23.742637634277344,-0.02385532110929489,-79.78281812439677,40.45893884110136,268.68009802114966,0.00895924773067236,0.012037642300128937,0.8193705081939697,0.5730680823326111,0.003962091693569603,0.0060942179088663215,-0.00884125188869272,0.006155091803520918,-0.0002909813483711332,0.006648066453635693,0.28715950157493353,0.0137416819750797,-9.805954896211622
2.2,1.2000000476837158,184.0,23.74764633178711,-0.03180709481239319,-79.78281813272265,40.458938842082574,268.6792423517704,0.008956908248364925,0.01204377133399248,0.8193578720092773,0.5730859637260437,0.0029385579061996948,0.005851294846213297,-0.008615804450113777,-0.003713075537234545,-0.002350481227040291,-0.0056971097365021706,0.2873721757717431,0.013975283950567245,-9.80576720058918
2.4,1.2000000476837158,183.0,23.748897552490234,-0.03180709481239319,-79.7828182897288,40.458938820150216,268.66118427526953,0.00896085612475872,0.012057814747095108,0.8193588256835938,0.5730842351913452,0.0027050173029807066,0.0066892249745321465,-0.007683549735589212,-0.005199715495109558,-0.002419885247945785,-0.0054941922426223755,0.28979714401066303,0.0018373736008652488,-9.807902019023896
2.51,1.2000000476837158,183.0,23.75015068054199,-0.03180709481239319,-79.78281829814392,40.45893882066551,268.6604284064174,0.008962824009358883,0.012055912055075169,0.8193595409393309,0.573083221912384,0.003287782321122301,0.005852397081269677,-0.007850582663125483,0.0037554642185568814,0.0005814548349007964,0.004759236238896847,0.28899373658001426,0.0017839450961037073,-9.80784120798111
2.7,1.100000023841858,181.0,23.75015068054199,-0.03180709481239319,-79.7828184434413,40.45893881092852,268.64259813886883,0.008982912637293339,0.0120698232203722,0.819361686706543,0.5730794668197632,0.004392820850968993,0.0037483768865547032,-0.00693468145617065,0.006588050164282322,-0.0009671399020589887,0.004817587789148092,0.2858522468805313,0.014042737064883114,-9.807028445005418
2.8,1.100000023841858,178.0,23.75015068054199,-0.039758868515491486,-79.78281844919238,40.458938813032645,268.641928778708,0.00899382773786783,0.01208417396992445,0.8193612694740295,0.5730796456336975,0.0033279453383645284,0.003395967957005645,-0.006702737592714832,-0.005462792702019215,-0.0005702970083802937,-0.0073929792270064345,0.2868981127627194,0.013900979772442952,-9.806035587787626
3.0,1.100000023841858,175.0,23.74388885498047,-0.02385532110929489,-79.7828185907133,40.45893877321087,268.6224012614489,0.009009338915348051,0.012072484008967876,0.8193472027778625,0.5730998516082764,-0.0008008751980337537,0.0033706284511151857,-0.009050888345725223,-0.006066334899514914,-0.001849577645771205,-0.005509688053280115,0.29024458391591906,0.0008692756868549622,-9.808183854818344
3.1,1.0,174.0,23.74514198303223,-0.02385532110929489,-79.78281876213092,40.45893875398596,268.60671445515754,0.009005225263535976,0.012066016905009748,0.8193508386611938,0.5730947852134705,0.0012973812191410456,0.0062380376925763965,-0.0071615592515782735,0.0030752366874367,0.0015869541093707087,0.004967006389051676,0.2888858737237752,0.001200331732397899,-9.807904357910155
3.3,1.100000023841858,174.0,23.75015068054199,-0.015903547406196594,-79.78281877597247,40.458938751299975,268.6053403892816,0.009020764380693436,0.012070266529917715,0.8193615078926086,0.5730791687965393,0.0006409929121468905,0.005087014468581815,-0.0071394810787316606,0.00786386989057064,-0.0011111506028100848,0.006200494710355997,0.2875923051685095,0.011752025237074122,-9.806081780791283
3.4,1.100000023841858,174.0,23.74639320373535,-0.03180709481239319,-79.78281891238599,40.45893874733433,268.58962277111414,0.009015128947794436,0.012071427889168262,0.8193590641021729,0.5730827450752258,0.001545809564125882,0.003963494993895858,-0.006464635691551633,-0.004570288583636285,0.0032953317277133465,-0.004310889169573785,0.286768231485039,0.009011050966219044,-9.80656300663948
3.6,1.100000023841858,172.0,23.75140190124512,-0.03180709481239319,-79.78281908846549,40.45893869634131,268.57336172622445,0.009011481888592243,0.012058135122060776,0.8193574547767639,0.5730853080749512,-0.003983056381478886,0.010020511210484436,-0.006204640271468228,-0.002367118140682578,-0.0036888292524963617,0.00027049504569731653,0.2886316477507353,0.005161200212314725,-9.806655977368356
3.7,1.100000023841858,171.0,23.74013328552246,-0.03180709481239319,-79.78281909779345,40.45893868998383,268.5727653798908,0.009011481888592243,0.012058135122060776,0.8193574547767639,0.5730853080749512,-0.004010039410976733,0.009412308112986557,-0.006251959876466486,0.0031500631012022487,0.0015892898663878439,-0.004893661942332983,0.2870144540816545,0.009793789288960398,-9.80552746474743
3.9,1.100000023841858,175.0,23.74764633178711,-0.04771064221858978,-79.78281924464805,40.458938707102455,268.5569181858823,0.008996410295367241,0.01206514611840248,0.819355309009552,0.5730886459350586,0.002066411875595945,0.005139865488949553,-0.0054826062525940395,0.001611568732187152,-0.0013796825660392642,-0.005070157814770937,0.28981037333607673,0.0016730151639785618,-9.808713027834893
4.0,1.100000023841858,170.0,23.75140190124512,-0.039758868515491486,-79.78281925115668,40.45893870737297,268.55637979016456,0.008989877067506313,0.012064959853887558,0.8193536400794983,0.5730910301208496,0.0023864221094561265,0.004507480384411586,-0.0056186436936260286,0.003535423893481493,0.000254910293733701,0.004478443413972855,0.2891321876831353,0.001699118356627878,-9.808347576856614
4.21,1.100000023841858,170.0,23.74764633178711,-0.039758868515491486,-79.7828194294392,40.45893868867197,268.54108224457883,0.008962287567555904,0.012087554670870304,0.8193514943122864,0.5730940699577332,0.0029408853063208123,0.006741118669803896,-0.0047468287801421755,0.008247433230280876,-0.00011158300912939011,0.00716834282502532,0.2869558174721897,0.01279901602305472,-9.80601453781128
4.3,1.100000023841858,169.0,23.75140190124512,-0.03180709481239319,-79.78281943780163,40.458938688659075,268.54063978207114,0.008956953883171082,0.0120899248868227,0.8193616271018982,0.5730796456336975,0.002017193896116903,0.006373211201218084,-0.0045553725623754026,-0.004435684997588396,-0.0018824411090463398,-0.0029713106341660023,0.2875740326195955,0.00879340035491623,-9.807581006884575
4.5,1.100000023841858,170.0,23.742637634277344,-0.02385532110929489,-79.78281958514815,40.45893870598812,268.52554556888344,0.00895522255450487,0.012104894034564495,0.8193656206130981,0.5730735063552856,0.00580953129578177,0.003245101025339011,-0.004374045943864101,-0.0036577619612216962,0.00023504822456743568,0.005793908145278692,0.2880948002636433,0.007040419377735818,-9.807117322683334
4.61,1.100000023841858,169.0,23.75766181945801,0.03180709481239319,-79.78281975948066,40.458938665852855,268.5109650732279,0.008973106741905212,0.01210150681436062,0.8193621039390564,0.5730785131454468,0.0020907111591398518,0.009008182971911978,-0.004479548639906821,0.0017237910069525242,0.002996010472998023,-0.0035680688451975584,0.28598797537386417,0.013167395177297295,-9.806723220348356
4.8,1.0,167.0,23.75265312194824,-0.02385532110929489,-79.78281977996647,40.458938663849636,268.51011701461675,0.008993715979158878,0.012130304239690306,0.8193615674972534,0.5730782151222229,0.0014316528272162905,0.007827846478223103,-0.00439559843497699,-0.005094422958791256,0.0009521471802145244,-0.0065259654074907286,0.29002721367403866,0.0016802790731890126,-9.808623565435411
4.9,1.0,168.0,23.74138641357422,-0.039758868515491486,-79.7828199145782,40.458938648618286,268.4956059546471,0.008996673859655857,0.012125656008720398,0.8193657994270325,0.5730722546577454,0.0015792078942102805,0.005923775118277261,-0.004192302812226173,0.0043332502245903015,-0.000374109746189788,0.005570654757320881,0.28983588181436065,0.0008455382182728499,-9.80924220085144
5.1,1.0,167.0,23.74013328552246,-0.02385532110929489,-79.78282008243514,40.45893863750933,268.4805582405329,0.008989871479570866,0.012130996212363243,0.8193630576133728,0.5730761289596558,0.002275756234065617,0.007413037598732878,-0.0041653089934226215,0.005088075995445252,0.0018827792955562472,0.004354892764240503,0.2872911187447608,0.011972264269134027,-9.806934304833412
5.21,1.0,165.0,23.74639320373535,-0.03180709481239319,-79.78282009124871,40.45893863670847,268.48017145854243,0.008992214687168598,0.012118487618863584,0.8193646669387817,0.5730741024017334,0.0012976466437137092,0.0070547516344819095,-0.004038716301734165,-0.00726295355707407,0.00026919628726318484,-0.0032402186188846827,0.28824991593137383,0.007081265947781503,-9.807057681083679
5.4,1.0,165.0,23.742637634277344,-0.02385532110929489,-79.7828200993525,40.45893863590117,268.47978625607493,0.008991108275949955,0.01212403830140829,0.8193488717079163,0.5730966925621033,0.0016868982098738328,0.006259957353161106,-0.0040387174147153496,0.0014397717313840985,0.0022795957047492266,0.001892873435281217,0.28829572521150115,0.007160439760191368,-9.807155914306641
5.5,1.0,165.0,23.74764633178711,-0.03180709481239319,-79.78282023554117,40.458938638192095,268.46517859560254,0.00902559608221054,0.01211527269333601,0.819349467754364,0.573095440864563,0.0028986161458356943,0.0040619416957136,-0.004015833265956359,0.0004049417329952121,-0.002333905315026641,0.00011952093336731197,0.28581511706113816,0.01176621387130581,-9.807203276753429
5.7,1.100000023841858,165.0,23.74388885498047,-0.02385532110929489,-79.78282038616798,40.45893862836493,268.45019405496123,0.009018358774483204,0.012116002850234509,0.8193453550338745,0.5731012225151062,0.0024811493983781558,0.005165573946186766,-0.004208587881446561,-0.0011917410884052515,1.28791816678131e-05,-0.007304877974092958,0.29017341233789923,0.001643716273829341,-9.809261496663094
5.8,1.100000023841858,163.0,23.74388885498047,0.039758868515491486,-79.78282039268295,40.45893862901335,268.4497805030346,0.009016581811010838,0.01210279669612646,0.8193287253379822,0.5731254816055298,0.002761570350877633,0.004375621276300564,-0.00435149062157475,0.0016061082715168595,0.0022461018525063987,0.006012981757521629,0.28970786433666945,0.0008334562090749388,-9.808135907649994
6.0,1.100000023841858,165.0,23.74138641357422,0.03180709481239319,-79.7828205173427,40.458938643173305,268.4354373158217,0.008995253592729568,0.012117084115743635,0.8193151354789734,0.573144793510437,0.004731676435264479,0.0017186211870224436,-0.0042460964211996155,0.005976129323244096,0.0010917970212176444,0.0020721484906971455,0.2873203913681209,0.011771029829978944,-9.805770708918573
6.1,1.2000000476837158,165.0,23.74013328552246,0.039758868515491486,-79.78282065817355,40.45893863505307,268.4194499642849,0.008995999582111834,0.01211993582546711,0.8193172812461853,0.5731417536735535,0.003999873629002471,0.004534653671736621,-0.007058517994235556,-0.0018310672603547575,-0.0028263013809919357,-0.00032605128944851463,0.2863561306893826,0.005542579143075273,-9.808247589468957
6.3,1.2000000476837158,169.0,23.738882064819336,0.04771064221858978,-79.78282066472434,40.45893863725168,268.41875931036475,0.008996410295367241,0.0121240746229887,0.8193082809448242,0.5731545090675354,0.004229848932134941,0.003939219638391624,-0.0070134361857901685,0.00026049933512695134,0.0002755371097009629,-0.0012566056102514267,0.2879366148076952,0.010770501567749308,-9.8063355499506
6.4,1.2000000476837158,170.0,23.738882064819336,0.015903547406196594,-79.78282078107226,40.458938652324136,268.40300401461127,0.008996933698654175,0.012127961963415146,0.8193023204803467,0.5731629133224487,0.005316619622686964,0.001668714312497284,-0.008642364482170834,-0.0030962207820266485,-0.003355004126206041,-0.0077158287167549125,0.2858082648552954,0.014861360960640013,-9.806523245573043
6.6,1.2000000476837158,170.0,23.726360321044922,0.15903547406196594,-79.78282092824662,40.4589386445002,268.3892736823559,0.008978133089840412,0.012144448235630987,0.8193032145500183,0.5731617212295532,0.003143507819681513,0.006728102356969563,-0.00753876062099415,-0.005851594265550375,-0.0013916731113567948,-0.004864998161792754,0.2910425826720894,0.0008758503783610651,-9.809067953824998
6.7,1.2000000476837158,171.0,23.73387336730957,0.02385532110929489,-79.7828209369119,40.45893864540412,268.3885291756392,0.008981564082205296,0.012146191671490673,0.8192967772483826,0.5731707215309143,0.003756890223223949,0.0058544119162128,-0.00776071952313948,0.004616812337189914,-0.0001842215424403548,0.0023085472639650106,0.28907643813639883,0.0019440079136984426,-9.807718416452408
6.9,1.2000000476837158,172.0,23.74013328552246,0.02385532110929489,-79.78282109951456,40.458938648180286,268.376118937254,0.008995527401566505,0.01215925719588995,0.8192902207374573,0.5731795430183411,0.005010171280797431,0.009998538486655087,-0.006337459199176952,0.0036974677350372076,0.0021857153624296197,0.0005732235731557013,0.2869671647250652,0.009135251765255821,-9.806965295076367
7.0,1.2000000476837158,171.0,23.74514198303223,0.03180709481239319,-79.78282111240323,40.45893864903268,268.37552345705035,0.00901278667151928,0.012135825119912623,0.8192898035049438,0.5731804370880127,0.0043862106699733535,0.009510055507220058,-0.006186214510619198,-0.0039296369068324575,0.0004227169847581536,0.002263213042169809,0.28776116179302336,0.0035418817884055897,-9.808270393610002
7.2,1.2000000476837158,172.0,23.737628936767567,0.02385532110929489,-79.78282119000927,40.45893861648089,268.3632534981966,0.009016400203108788,0.012147050350904465,0.8192814588546753,0.5731920599937439,-0.004009350435165999,0.0050652438528557215,-0.005320050977001371,0.0028520524501800537,0.0004273309314157814,0.0036098174750804897,0.28645544199272993,0.011698586025740951,-9.806149023771287
7.31,1.100000023841858,175.0,23.74138641357422,0.03180709481239319,-79.78282119371684,40.458938611441695,268.36274274599555,0.009002548642456532,0.012139360420405865,0.8192706108093262,0.5732079744338989,-0.0044819692242541774,0.004407566167204581,-0.005138845302182979,-0.003393014194443822,0.0013580790255218744,-0.005527244880795479,0.2852869307622314,0.013724047823343426,-9.80622854590416
7.5,1.100000023841858,175.0,23.742637634277344,0.04771064221858978,-79.78282129111159,40.45893863858501,268.35149342727664,0.009013053961098194,0.012142882682383059,0.8192691802978516,0.5732097625732422,-0.0015852787196238894,0.0018839230165887328,-0.004557170373157087,-0.0028798358980566268,-0.002559796208515764,-0.005882208701223135,0.2894845737889409,0.0010182948899455366,-9.80916735649109
7.6,1.100000023841858,176.0,23.74013328552246,0.04771064221858978,-79.7828213643158,40.45893865727529,268.3430519939661,0.00902286358177662,0.012139396741986276,0.8192672133445741,0.5732124447822571,-0.0012059474151962276,-0.0011252748654111762,-0.001597964278233421,0.005499882157891989,0.00029840518254786735,0.0045455959625542155,0.2904623561538756,0.0010895380592410222,-9.80823121726513
7.8,1.100000023841858,176.0,23.748897552490234,0.039758868515491486,-79.78282135907419,40.458938655145396,268.34273503136643,0.009030064567923546,0.01212973427027464,0.8192668557167053,0.5732129812240601,-0.0018370458608655668,-0.002554841359526651,-0.0015801652508534436,0.005011642351746559,0.0030568747315555807,0.002177575835958123,0.28671787234023216,0.010847622002474964,-9.806503365039823
7.9,1.100000023841858,176.0,23.74138641357422,0.08746951073408127,-79.78282149258825,40.45893864682977,268.3349579663277,0.009022398851811886,0.012119131162762642,0.8192648887634277,0.5732161998748779,-0.004850241516868906,0.00488803277375391,0.0004580379397161193,-0.0031214626505970955,-0.002371356822550297,0.0014866547426208856,0.28767970276996496,0.006243233178975061,-9.807237775325776
8.1,1.100000023841858,177.0,23.74013328552246,0.04771064221858978,-79.78282160605994,40.458938669844265,268.3281799347401,0.009014406241476536,0.012117632664740086,0.8192629218101501,0.5732191801071167,-0.0020034727783702698,0.006159756072534116,0.002547922542385392,-0.0030120208393782373,-0.0015594704309478402,0.0029857964254915714,0.2871498719416559,0.0078043101372895765,-9.806304559707645
8.2,1.100000023841858,178.0,23.74138641357422,0.05566241592168808,-79.7828216115433,40.45893866643042,268.32845323693755,0.009014406241476536,0.012117632664740086,0.8192629218101501,0.5732191801071167,-0.002096276144004773,0.0053916526937007655,0.002596096740536681,0.0007034518639557064,0.0021341955289244647,-0.0037428801879286775,0.28548237394541504,0.01262807861203328,-9.806318593025207
8.4,1.100000023841858,178.0,23.74514198303223,0.039758868515491486,-79.78282171132803,40.458938695875396,268.3226611406804,0.009008940309286121,0.012115050107240677,0.8192608952522278,0.5732221603393555,-0.0009568828495098176,0.0057301703660628716,0.003705530131450976,-0.002969971159473061,0.0003761651460081339,-0.005729328375309707,0.2883466142602265,0.000794308843323961,-9.808390846252443
8.5,1.100000023841858,177.0,23.74514198303223,0.04771064221858978,-79.78282171677482,40.45893869351146,268.3230428786278,0.009008940309286121,0.012115050107240677,0.8192608952522278,0.5732221603393555,-0.0006845201125391063,0.004998796659658578,0.0035410867099064398,0.0017219010042026641,-0.002513060579076409,0.004871796350926161,0.2913793092034757,0.0008508823678130285,-9.808400201797486
8.7,1.2000000476837158,176.0,23.737628936767567,0.04771064221858978,-79.78282181788491,40.45893872981205,268.31876217734816,0.009002180770039558,0.012112945318222046,0.8192528486251831,0.5732338428497314,0.0008857289258681114,0.0055446631196922076,0.004899123638370126,0.005763258785009384,0.0013658542884513734,0.0054311794228851795,0.2860587084107101,0.01435444162460044,-9.806400454044342
8.81,1.100000023841858,173.0,23.74764633178711,0.015903547406196594,-79.78282182378216,40.45893872850663,268.3192786217928,0.009030177257955073,0.012120384722948073,0.8192638754844666,0.5732176303863525,-0.00018925670249909086,0.005161336228505046,0.005024114159614458,-0.006276463158428669,-0.0005541770369745791,-0.004216363187879324,0.28787425059825184,0.011639866047771648,-9.806177090406418
9.01,1.2000000476837158,171.0,23.748897552490234,-0.02385532110929489,-79.7828218981613,40.45893879026079,268.3182246924639,0.009027991443872452,0.012141861021518707,0.8192700743675232,0.5732083320617676,0.0031067387363218927,0.001902499163118461,0.00907919649430573,-0.0045609944500029104,-0.002506077056750655,-0.0013101425720378757,0.2889191845804453,0.003987247759359889,-9.806994531154633
9.1,1.2000000476837158,169.0,23.74138641357422,-0.03180709481239319,-79.78282198533775,40.45893881705627,268.3143782706261,0.008998574689030647,0.012130294926464558,0.8192564845085144,0.5732283592224121,0.0015666320402904154,0.004894553542759251,0.008796309607860188,0.001418815110810101,0.003811210626736283,-0.0006418325938284397,0.2874317442812025,0.00988751604454592,-9.806617970466617
9.31,1.2000000476837158,170.0,23.748897552490234,-0.02385532110929489,-79.78282199521735,40.458938816452935,268.3161726982594,0.009014122188091278,0.012110266834497452,0.8192681074142456,0.5732119083404541,0.0008222595939652991,0.00376871978705104,0.00892813767185429,-0.003001635894179344,-0.0018856199458241465,-0.004166296683251858,0.2888908438570797,0.0022530943597666928,-9.808905985951423
9.4,1.2999999523162842,170.0,23.74639320373535,-0.039758868515491486,-79.78282203250039,40.45893888544274,268.3136319459677,0.009016819298267365,0.012101206928491592,0.8192682862281799,0.5732117891311646,0.004532925692390074,-0.000945644363967382,0.008835339245920395,0.0012871724320575595,0.0007072956068441273,0.003041856689378619,0.29058874737471346,0.0007432262197835371,-9.807854656577113
9.6,1.399999976158142,169.0,23.75015068054199,-0.02385532110929489,-79.78282210697229,40.4589389493504,268.3124914110899,0.00902047660201788,0.012122053653001784,0.8192654848098755,0.5732153058052063,0.0076399402659426685,0.0005895952639611862,0.008950668500277086,0.004840114153921604,0.0017797917826101184,0.004671276081353426,0.2861869086138904,0.014268674848135562,-9.805391224622726
9.7,1.399999976158142,169.0,23.748897552490234,-0.039758868515491486,-79.78282210998276,40.45893895537725,268.3133992494345,0.009014909155666828,0.012135030701756477,0.81926429271698,0.5732167959213257,0.006748525007473379,0.00014655578633030516,0.009205144436303594,-0.0063698277808725825,-0.00253493944182992,-0.006350201554596424,0.2869051476940513,0.014470353538636118,-9.807328991889953
9.9,1.5,166.0,23.75015068054199,-0.007951773703098297,-79.78282218228323,40.4589389902715,268.3150713683367,0.00901568029075861,0.012140372768044472,0.8192776441574097,0.5731976628303528,0.003291214524894085,0.003273947114043845,0.012183587408960571,-0.006462242919951677,-0.0016666748560965061,-0.005672483704984188,0.2914447066560388,0.003439014761243016,-9.807869274616245
10.0,1.600000023841858,165.0,23.74514198303223,-0.039758868515491486,-79.78282218636325,40.45893899258821,268.31629020881655,0.009019956924021244,0.012156419456005095,0.8192873597145081,0.5731832981109619,0.003900616019485625,0.0023128954555041194,0.01201253921581577,0.005435426253825426,0.002353866817429661,0.0026651106309145693,0.2896923143975437,0.005646223324583844,-9.807322559952736
10.2,1.7000000476837158,165.0,23.748897552490234,-0.02385532110929489,-79.78282222670384,40.45893906580772,268.3188221843243,0.009034651331603529,0.012150898575782776,0.8192910552024841,0.5731779336929321,0.005883226932924929,-0.000701976198382926,0.014316805299876306,0.004538285080343485,0.002138662850484252,0.00040663016261532903,0.2871416127495468,0.007194090372067877,-9.806513890028
10.3,1.7000000476837158,166.0,23.74388885498047,-0.015903547406196594,-79.78282222749931,40.458939070864076,268.3202525020838,0.009041610173881054,0.012159828096628187,0.8192949295043945,0.5731721520423889,0.0053415249050487714,-0.0011205770080312482,0.014274311553602204,-0.006652777548879385,-0.0057913376949727535,0.0013080287026241422,0.28853125836700205,0.004114682799554429,-9.80730618774891
10.5,1.8999999761581416,168.0,23.748897552490234,-0.03180709481239319,-79.78282225783731,40.45893912528813,268.32324399960044,0.009043773636221886,0.012156376615166664,0.8192886114120483,0.5731812119483948,0.004352696257154142,-0.002323371925635155,0.01549057317252142,0.0016727920155972242,-0.0016920528141781688,0.004841283895075321,0.2867264604382217,0.011193955326452851,-9.805140379071236
10.6,2.0,167.0,23.74388885498047,-0.02385532110929489,-79.78282233061566,40.45893919266332,268.32301101994517,0.009022170677781105,0.0121663985773921,0.8192880153656006,0.5731822848320007,0.008543974820719641,0.002826708473141879,0.01362914264151106,-0.002413160400465131,0.0022735185921192174,-0.0033724638633430004,0.2880057764053345,0.014048998838989064,-9.805842044949532
10.8,2.0,169.0,23.74388885498047,-0.015903547406196594,-79.7828223407672,40.458939205962295,268.32573174846175,0.009013183414936066,0.012202703393995762,0.8192977905273438,0.5731675028800964,0.008326258158794243,0.0010592188694908402,0.013501957560126848,0.00094060436822474,0.00043441305751912296,-0.004720914177596569,0.2900428367033601,0.00019708143139723688,-9.8076260304451
10.9,2.0999999046325684,170.0,23.738882064819336,-0.03180709481239319,-79.78282233520586,40.458939278587096,268.32802858364585,0.009026605635881424,0.012192225083708765,0.8193035125732422,0.5731594562530518,0.008484617921141975,-0.0036278616697856154,0.01527657256239878,0.0004475959576666356,0.002438168972730637,0.004926090594381094,0.288913940358907,0.002651497024926357,-9.808159296512605
11.1,2.0999999046325684,172.0,23.75015068054199,-0.039758868515491486,-79.78282236860213,40.458939344034206,268.330101528883,0.00901355128735304,0.012206101790070534,0.8192985653877258,0.5731663703918457,0.007461976314058389,-0.001069871073529259,0.01345013405781975,6.0920397118024985e-06,-0.00048676188453100616,0.006220501381903887,0.28436124343425034,0.013628610300365836,-9.804093727469443
11.21,2.0999999046325684,172.0,23.74514198303223,-0.03180709481239319,-79.78282236951847,40.45893935095639,268.33144243967536,0.009012672118842602,0.012224138714373112,0.8192926645278931,0.5731745362281799,0.007575839266478033,-0.0018646153991127355,0.01347324082354332,-0.0004194055800326169,-7.839013051125221e-06,-0.002485666889697313,0.2863379495032132,0.01406371623510495,-9.80558769106865
11.4,2.200000047683716,175.0,23.74138641357422,-0.039758868515491486,-79.7828223546137,40.458939429577946,268.3340289385319,0.009012755937874315,0.012222349643707277,0.8192958831787109,0.5731698274612427,0.007694891488766976,-0.005854939058844124,0.012882823726002178,0.0017735149012878535,0.001944962190464139,-0.004315879661589861,0.2891756032593548,0.002310939539456741,-9.807900849580763
11.5,2.200000047683716,174.0,23.74764633178711,-0.03180709481239319,-79.78282235025259,40.458939438067475,268.33529666972163,0.009020674042403698,0.01221675518900156,0.8193008303642273,0.573162853717804,0.0073327811350017424,-0.00665476516073185,0.012906074110845942,-0.0016994558973237872,0.0009511623647995293,0.0035809753462672234,0.2889314271882177,0.002570238428888843,-9.808453996181491
11.71,2.200000047683716,178.0,23.74764633178711,-0.03180709481239319,-79.78282233975108,40.45893950791395,268.337769726038,0.009040018543601036,0.012213301844894886,0.8193011283874512,0.5731621384620667,0.00540356663480667,-0.006525747282710833,0.012146603822759566,-0.0049219573847949505,-0.002556800143793225,-0.003499483922496438,0.2873160242289305,0.008529383150744252,-9.80701558113098
11.81,2.200000047683716,179.0,23.75265312194824,0.03180709481239319,-79.78282233397469,40.458939514960655,268.3389514477253,0.009051806293427944,0.012216847389936449,0.8192928433418274,0.5731737017631531,0.0060805665388215645,-0.0072941829706471735,0.011940636843284787,0.005656734108924866,0.004015696700662375,0.0030229173135012393,0.2901727362535894,0.0041317031078506265,-9.807415530681613
12.0,2.200000047683716,176.0,23.75015068054199,-0.03180709481239319,-79.78282234028374,40.458939629713186,268.33932977330693,0.00906326062977314,0.012226595543324949,0.8192976713180542,0.5731664299964905,0.011844912402325792,-0.006665711189552229,0.008102865394146794,0.007227195892482995,0.002469764091074467,0.0070387162268161765,0.28831235323101284,0.014342656972585247,-9.806146100163463
12.11,2.200000047683716,175.0,23.74764633178711,-0.03180709481239319,-79.78282233429232,40.45893965070943,268.3400766940117,0.009069482795894146,0.012218756601214407,0.8193030953407288,0.573158860206604,0.002132177930747076,-0.001199984009806909,0.006136250142259638,-0.008784541860222816,-0.0015747520374134185,-0.010492187924683094,0.2867986918240786,0.015360765710938725,-9.805929168462754
12.3,2.0999999046325684,175.0,23.748897552490234,-0.02385532110929489,-79.78282233094032,40.458939656115774,268.3412650765181,0.009104703553020954,0.012226307764649393,0.819301187992096,0.5731608867645264,0.0018276920732854035,-0.003096675959673504,0.005996288163706114,-0.0037490190006792545,-0.0022994042374193677,-0.004470118787139654,0.2906388507038355,1.3751806109212341e-05,-9.807624861001967
12.41,2.0999999046325684,176.0,23.74388885498047,-0.03180709481239319,-79.78282231823506,40.45893970928592,268.3444493354559,0.009106301702558994,0.012225039303302765,0.8193061947822571,0.573153555393219,0.000376271879217782,-0.00022546133316033175,0.007112142942125551,0.002737639704719186,-0.0004722343001049012,0.004414800554513931,0.2884579671733081,0.00018885878438595682,-9.80756580412388
12.6,2.0,175.0,23.75015068054199,-0.03180709481239319,-79.78282228146149,40.45893978368849,268.3481526614428,0.009119903668761252,0.012238344177603722,0.8193167448043823,0.5731379985809326,0.00040311581262966176,-0.002167661039617453,0.008036319294966125,-0.004301969427615404,-0.0024786349385976787,0.0031877553556114435,0.28758238317444923,0.010247490968322382,-9.805284805297852
12.7,2.0,172.0,23.74013328552246,-0.039758868515491486,-79.78282227828659,40.45893978492949,268.34894665491584,0.009124990552663805,0.012244552373886108,0.8193108439445496,0.5731462836265564,0.00042983605143985087,-0.003282380786742209,0.008004045514366521,0.0044503798708319655,0.0028734011575579643,-0.0005145323229953647,0.28672011986374857,0.008483271802542729,-9.806080611348152
12.9,1.8999999761581416,166.0,23.742637634277344,-0.02385532110929489,-79.78282225180092,40.458939862954175,268.3528526217939,0.009130612947046757,0.012249775230884552,0.8193156123161316,0.5731392502784729,0.0018053487245997305,-0.0023324809073643977,0.008524056407059501,0.0028109848499298096,0.0028091727290302515,0.00034212012542411685,0.28894396215677265,0.006065257410518826,-9.807727187275887
13.01,1.7999999523162842,166.0,23.75140190124512,-0.02385532110929489,-79.78282224905047,40.45893986497458,268.353699231267,0.009142477996647358,0.01224159263074398,0.8193277716636658,0.5731218457221985,0.0009414980478043186,-0.003216392544206296,0.008576824494976716,-0.002883660839870572,-0.0025104782544076447,0.0008417515782639384,0.28683991469442843,0.006547615585732274,-9.806847766041756
13.21,1.7000000476837158,164.0,23.738882064819336,-0.03180709481239319,-79.78282222107221,40.45893998279528,268.35760665845874,0.009121637791395187,0.012243040837347507,0.8193339705467224,0.573113203048706,0.007635402402006462,-0.003980166224379828,0.008925935716134707,-0.0031878328882157803,-0.0014344567898660898,-0.0010462375357747078,0.28767182730138297,0.007397979469969868,-9.805284805297852
13.3,1.7000000476837158,164.0,23.742637634277344,-0.04771064221858978,-79.78282221884878,40.45893999090478,268.3584829808474,0.009122217074036598,0.012256358750164507,0.8193217515945435,0.5731305480003357,0.007891415859096923,-0.005100774569377535,0.008874539654301688,0.0035343766212463383,0.0047994647175073615,9.199133637594059e-05,0.2881535830534995,0.008033552396809683,-9.80621743619442
13.5,1.600000023841858,161.0,23.74013328552246,-0.06361418962478638,-79.7828221807794,40.45894005216081,268.3622551800013,0.009132207371294498,0.012252332642674446,0.8193264603614807,0.5731236338615417,0.003923869215519499,-0.003030306428567391,0.009254994557984913,0.0015452710213139653,0.0005875550559721888,-0.00014307293167803434,0.28743419280275706,0.004092623835895211,-9.807830682992936
13.61,1.600000023841858,159.0,23.74639320373535,-0.07156596332788467,-79.78282211734027,40.458940111089404,268.36329896163943,0.009146412834525108,0.012247780337929727,0.8193240761756897,0.5731268525123596,0.0009226934197168553,-0.0032323001625920835,0.007242072749634466,0.003517842851579189,-0.0045246994122862825,0.00400613434612751,0.2894527247361839,0.0009847630496369675,-9.80780670940876
13.81,1.600000023841858,157.0,23.74764633178711,-0.03180709481239319,-79.78282210833416,40.458940114934826,268.3647216947079,0.009147629141807556,0.01223631389439106,0.81932532787323,0.5731253623962402,0.0005959309632286709,-0.005336002904032835,0.007146755739659168,0.001149277202785015,0.00012860391871072352,0.003407384268939495,0.2848620026372373,0.012553675076924266,-9.805018172264099
13.91,1.600000023841858,158.0,23.738882064819336,-0.02385532110929489,-79.78282207636373,40.45894016513343,268.3654236288071,0.009144659154117107,0.0122301634401083,0.8193227648735046,0.5731291174888611,-0.002268007314603279,0.00012982807684463224,0.00540298977909973,0.000598124461248517,-0.0011525523150339725,-0.0038123037666082382,0.2861567589081824,0.015113476454280315,-9.80524562895298
14.1,1.5,158.0,23.74013328552246,-0.039758868515491486,-79.78282199804511,40.45894021442703,268.368630358696,0.00914457067847252,0.012226940132677557,0.8193203806877136,0.5731326341629028,-0.005908639495045654,-0.0012620326796308429,0.006683750962519539,-0.002710107481107116,0.002552764024585485,-0.00467369519174099,0.291418759636581,0.0005729026522021741,-9.80790143430233
14.2,1.5,155.0,23.74138641357422,-0.04771064221858978,-79.78282199345209,40.45894021002445,268.3692887068987,0.00914457067847252,0.012226940132677557,0.8193203806877136,0.5731326341629028,-0.005815080888615578,-0.0022643816432271987,0.006527891075876945,0.007188683375716209,-0.0001138157895184122,0.00607002805918455,0.292129744514823,0.0010341908654663712,-9.808455165624617
14.4,1.5,156.0,23.74514198303223,-0.039758868515491486,-79.78282198182694,40.45894024015864,268.37267544281485,0.009141282178461552,0.012205817736685276,0.8193065524101257,0.5731528997421265,-0.007654089821992005,0.0063523642310115615,0.007250432003057847,0.0034468004014343023,0.0031520428601652392,0.0038519904483109713,0.2871263003535569,0.013638955989154057,-9.805648502111437
14.5,1.5,158.0,23.74764633178711,-0.039758868515491486,-79.7828219850349,40.458940231483396,268.37342437517646,0.00913164671510458,0.01221924927085638,0.8193054795265198,0.5731542706489563,-0.008589121390712379,0.005671623623527463,0.007405222380623569,-0.00570232793688774,-0.0009300463134422898,-0.003249098081141711,0.2860407464951277,0.01492088264669292,-9.806042019724847
14.7,1.399999976158142,163.0,23.748897552490234,-0.02385532110929489,-79.782821923621,40.45894028233899,268.3762789906264,0.009114440530538559,0.01222459226846695,0.8192825317382812,0.5731873512268066,-0.008225851080732855,0.004462180766309932,0.00786560532478927,-0.003767712973058224,-0.00023584888549521563,-0.008357414044439794,0.2908359201438725,-0.0012756390449067112,-9.807071129679679
14.8,1.399999976158142,163.0,23.75140190124512,-0.007951773703098297,-79.78282192446005,40.45894027438622,268.3770667852164,0.009112730622291563,0.012218471616506577,0.8192747235298157,0.573198676109314,-0.007659899819253295,0.0033972119369648987,0.007726198522348178,0.004501767922192812,0.00011000326776411384,0.005876596551388502,0.2901025696657598,0.0025880601597600607,-9.80800609946251
15.01,1.399999976158142,167.0,23.75265312194824,-0.02385532110929489,-79.7828218082625,40.45894036487146,268.3776074589491,0.009095968678593636,0.012218976393342018,0.819263756275177,0.5732144713401794,-0.00396060537854834,-0.004047573614057447,0.005849275266077414,0.00622831005603075,0.003054230706766248,0.001535292249172926,0.2878570561297238,0.01084395264624618,-9.805510507822037
15.11,1.2999999523162842,168.0,23.74514198303223,-0.039758868515491486,-79.78282179486227,40.45894042057839,268.37931666684153,0.00907051283866167,0.01222148071974516,0.8192664980888367,0.5732110142707825,-0.002575011269882388,0.004771744254286262,0.007047517400513978,-0.004869593307375908,0.0015492509119212627,-0.002277995925396681,0.2861003698222339,0.01141664288006723,-9.807316712737084
15.3,1.2999999523162842,171.0,23.71759605407715,0.7474667429924011,-79.78282180071031,40.458940414291746,268.38072436463835,0.009076714515686035,0.01222965493798256,0.8192777633666992,0.573194682598114,-0.0022066658918630487,0.003005877494940478,0.006895266184717586,-0.0034280894324183464,-0.003672638209536672,0.004319608677178621,0.2888198915496469,0.005265296639408917,-9.806945999264718
15.4,1.399999976158142,172.0,23.72761344909668,0.2703603208065033,-79.78282173585171,40.45894051288968,268.3793150575161,0.009056637063622476,0.012235616333782671,0.8192529678344727,0.5732302665710449,0.004473692148837711,0.0017967296487186733,0.003960159490864013,-0.0027638981118798256,-0.003742974251508713,0.0029794415459036827,0.2787021436728537,0.026689204713329674,-9.80359846830368
15.6,1.399999976158142,173.0,23.726360321044922,0.2862638533115387,-79.78282163161802,40.45894060105716,268.38212657880786,0.009050913155078888,0.012220748700201513,0.8192762732505798,0.5731973648071289,0.007490303086748208,-0.004132636243028568,0.007103050354415064,0.008170671761035921,-1.2267524652997965e-05,0.01032339595258236,0.29704635752364994,0.0022144936001859605,-9.807593286037443
15.71,1.5,175.0,23.7251091003418,0.2703603208065033,-79.78282162875651,40.458940607489794,268.3828301073313,0.009055048227310179,0.01221926137804985,0.8192903399467468,0.5731772780418396,0.005225524390338317,-0.005414888370763814,0.007203718701560105,-0.0060399873182177535,-0.003094343934208155,-0.01096066366881132,0.283011760879308,0.0020798603177536283,-9.805919812917713
15.9,1.600000023841858,179.0,23.728864669799805,0.278312087059021,-79.78282162474748,40.45894061409204,268.38352599155905,0.009066199883818626,0.012238587252795695,0.8192942142486572,0.5731711387634277,0.006172248952681053,-0.0059837939365936866,0.0070507299801007735,0.0024165571667253967,0.003185701556503773,0.010194593109190464,0.2916751600429416,0.014942440828308463,-9.807468155622482
16.0,1.600000023841858,177.0,23.73387336730957,0.2942156493663788,-79.78282154598827,40.45894067744255,268.3827250541449,0.009080001153051851,0.012267625890672209,0.8193221688270569,0.5731303095817566,0.005834773993569288,-0.005488466563535197,0.005180369974667432,0.001912803971208632,0.0013201952679082751,0.0033408605959266424,0.2861764384433627,0.0132090063393116,-9.80864929318428
16.2,1.600000023841858,174.0,23.7251091003418,0.3657816052436829,-79.78282145062227,40.45894072216503,268.38117312800887,0.009102699346840382,0.012279692105948923,0.8193316459655762,0.5731160640716553,0.0012534097063719766,-0.006110030639598512,0.003543553393717163,0.002942512044683099,0.0011674086563289163,-0.0007394754793494941,0.29138590559363364,0.004796524675330148,-9.806126804351807
16.31,1.7000000476837158,174.0,23.726360321044922,0.3975887000560761,-79.78282144341371,40.45894072502064,268.38149903130534,0.009120531380176544,0.012288485653698444,0.8193203210830688,0.5731318593025208,0.0006957153649766994,-0.0073958839224666515,0.003507536120891066,-0.005186588037759066,-0.0023380783386528488,0.0009465748444199562,0.2906763459742069,0.00203711511567235,-9.807468740344046
16.5,1.600000023841858,173.0,23.5886344909668,1.916377544403076,-79.78282139045572,40.45894080953701,268.3789703191519,0.00917844194918871,0.012348121963441372,0.8192716836929321,0.5731991529464722,0.005226265575594856,-0.006961752632749068,0.000974166704210159,0.007111589424312116,-0.0171634741127491,0.009975398890674114,0.2886837976053357,0.009551821912173184,-9.80560464799404
16.6,1.7000000476837158,176.0,23.70758056640625,0.3816851377487183,-79.78282130539307,40.458940864460246,268.37629822802546,0.009218300692737104,0.012394051067531107,0.8192529082298279,0.5732243657112122,0.011244960102832956,-0.005490245986281278,-0.0001949176765306488,0.05050073191523552,-0.004150078166276217,0.031121654435992237,0.319296164251864,-0.04385698161553592,-9.809961993098261
16.8,1.7999999523162842,176.0,23.080303192138672,21.64472770690918,-79.78282129242008,40.45894087870608,268.3764065743685,0.009245249442756176,0.012396907433867456,0.8192639350891113,0.5732080340385437,0.005440601236673025,-0.009898187094593766,0.0006306663587384143,0.007407977245748044,0.01882348954677581,-0.006679222919046879,0.28196238666772844,0.05585975761525333,-9.79295712053776
16.9,1.8999999761581416,177.0,23.644977569580078,1.1927660703659058,-79.78282124060402,40.45894093458261,268.370508143425,0.009236421436071396,0.012413744814693928,0.8192641139030457,0.5732076168060303,0.008920699262572574,-0.006700420493161092,-0.0026735266839469037,0.012131953611969948,0.01115536317229271,0.00356729538179934,0.25773252999410035,-0.05788676801137626,-9.782881783246994
17.1,1.8999999761581416,176.0,23.726360321044922,0.21469789743423465,-79.78282116833938,40.45894097848492,268.3662454725504,0.009267627261579037,0.012391660362482073,0.8192809820175171,0.5731834769248962,0.006398583222548939,-0.0046482231318986465,-0.002615774384153009,-0.0067640035413205615,-0.006984822452068329,-0.00202922010794282,0.2913755267858505,-0.010362484686775131,-9.809197177290917
17.21,1.8999999761581416,176.0,23.72010040283203,0.2465049922466278,-79.78282116410405,40.458940985661506,268.36593004477027,0.009249797090888023,0.012405214831233023,0.8192708492279053,0.5731978416442871,0.006478420591179212,-0.005498065785507275,-0.003099535142581533,-0.008750557899475098,-0.0027760525699704885,0.010642070323228836,0.3042989149130881,0.0252533729444258,-9.80233020722866
17.4,2.0,177.0,23.576114654541016,3.8566102981567374,-79.78282108320222,40.458941047933116,268.36174506855014,0.009230351075530052,0.012402581050992012,0.8192741274833679,0.5731936693191528,0.008490923835809669,-0.010690704769573343,-0.002356568484346416,0.00048322498332709074,0.0036942681763321157,0.006321015302091837,0.3010715442337096,0.02179060158552602,-9.794275082945823
17.5,2.0,177.0,23.53104019165039,4.755160808563232,-79.78282107622907,40.458941057174115,268.36151427936557,0.009239187464118004,0.01236947812139988,0.8192767500877379,0.573190450668335,0.007214796298704138,-0.010042174646890431,-0.0016493807270119615,0.000776767497882247,-0.015705196186900142,0.009331848472356795,0.260806758441031,-0.015825567963765934,-9.798605530858039
17.7,2.0,174.0,23.43588447570801,6.782863140106201,-79.78282103918076,40.45894109619936,268.35705255877974,0.009244096465408802,0.012434126809239388,0.8192552924156189,0.5732196569442749,0.00691416688828777,-0.005424132509132825,-0.002952356829307202,0.003703002585098147,0.012493960559368134,0.004855627194046974,0.2913369717076421,-0.03586956626269966,-9.794694913029671
17.8,2.0999999046325684,177.0,23.38705444335937,7.768883228302003,-79.7828210361717,40.45894110409736,268.3568674565554,0.009194100275635721,0.012381614185869694,0.8192702531814575,0.5732001662254333,0.007199458212687922,-0.006033702452474472,-0.001322587067661272,0.005216601304709911,0.0016977704362943769,0.02022401615977288,0.284016239438206,-0.0004098544141743333,-9.815029774904252
18.0,2.0999999046325684,179.0,23.25058174133301,10.544052124023438,-79.78282095802105,40.45894114137272,268.35169393730166,0.00914532970637083,0.01231156662106514,0.819208562374115,0.5732906460762024,0.009153201434853785,-0.006403179361581142,-0.00048562841493164004,0.0010547027923166752,0.04778831824660301,-0.049586232751607895,0.2671872584335506,0.1546978110820055,-9.801135036349297
18.1,2.0999999046325684,178.0,23.19173622131348,12.08669662475586,-79.78282090159792,40.45894118028307,268.34873468589785,0.009137382730841637,0.012292435392737387,0.819346010684967,0.5730947852134705,-0.009285847280788542,-0.011605616082376324,0.00022083309416530517,-0.07584080845117569,-0.0456603541970253,-0.01534493360668421,0.2979672757163644,0.34210684686899184,-9.806097568273543
18.3,2.0,178.0,23.04399299621582,15.48210334777832,-79.78282088524551,40.45894119790733,268.3495326430798,0.00923631340265274,0.013362620957195759,0.8192834854125977,0.5731586217880249,0.008149984462593778,-0.013774500919794616,0.004490817299396976,0.027659911662340164,-0.006836107466369867,-0.08261529356241226,0.224119719453156,-0.08317996826022864,-9.806457756757736
18.4,2.0,178.0,22.95134162902832,16.849809646606445,-79.78282082314297,40.45894124030561,268.34624170672896,0.009060121141374113,0.013820935040712357,0.8193246722221375,0.5730917453765869,0.008555485219070616,-0.011795662351162405,0.010401693028591877,0.03033334575593472,0.05089915916323662,-0.10336381196975708,0.2332119205221534,0.2320052013918757,-9.822886093854905
18.6,1.8999999761581416,177.0,22.80109596252441,20.539432525634766,-79.78282074571472,40.45894128801253,268.34353550684455,0.009453819133341312,0.01641662232577801,0.81949782371521,0.5727691054344177,0.012205955616527158,-0.015525138846561709,0.009294679018732764,0.06452830135822296,0.03990074247121811,0.029245667159557343,0.21202091664075853,0.12107409182935952,-9.807179887890817
18.7,1.8999999761581416,177.0,22.69091415405273,22.20135307312012,-79.7828207266435,40.45894129832493,268.3450617582798,0.010757976211607456,0.01741614006459713,0.8197846412658691,0.5723060369491577,0.0010885685912776623,-0.0218439439381428,0.02120181585299825,-0.08934832364320755,-0.00850697420537472,-0.006926899310201407,0.19078673472628,-0.1807942999899388,-9.88192075252533
18.9,1.7000000476837158,176.0,22.529399871826172,25.85121726989746,-79.78282062033676,40.458941375264274,268.33981103610995,0.013261198997497559,0.018823279067873955,0.8220212459564209,0.5689913034439087,0.03322551935229038,-0.05480254961327087,0.02051019404289647,0.08299368619918822,-0.07027749717235565,0.04237363860011102,0.2546092214807868,0.11083272102288902,-9.780980853438377
19.0,1.7000000476837158,171.0,22.44050407409668,28.35602569580078,-79.78282056110906,40.458941415940586,268.34409106683734,0.012268939055502416,0.012997323647141457,0.8246241807937622,0.5653985738754272,0.029404859910184933,-0.06736108617983227,0.07511143980002445,-0.04978461563587189,-0.06290791928768158,-0.16212664544582367,0.3436365515738726,0.1600409967452288,-10.250178394317627
19.21,1.600000023841858,170.0,22.62330436706543,22.193401336669922,-79.78282035097627,40.45894153845588,268.36567258250716,0.011026624590158464,-0.006184752564877272,0.8283835649490356,0.5600185990333557,0.05263744818221672,-0.06972106432100933,0.2543379199305898,0.1145847663283348,-0.20209777355194086,0.009117414243519306,0.25476897837594153,-0.0052385090827010575,-10.670009647607804
19.3,1.5,169.0,22.614540100097656,22.54327964782715,-79.78282028104607,40.45894160426907,268.39278010439875,0.002690034219995141,-0.00833512470126152,0.8287287354469299,0.5595820546150208,0.042195024091691784,-0.06381606504936024,0.27936712278988673,-0.006465848069638014,-0.17345240712165833,-0.04603797197341919,0.0382081647310406,0.5115115016698838,-10.18665541291237
19.5,1.5,175.0,22.540668487548828,23.720142364501953,-79.78281993445968,40.45894158598029,268.4127999187708,-0.0013412993866950276,-0.0028029836248606443,0.8277981877326965,0.5610175728797913,0.0631817262926488,-0.05715537259344181,0.2355735471858669,0.08313499391078949,0.14670927822589874,0.04847411438822746,0.041748443674296136,-0.03470711695030332,-9.92652682185173
19.6,1.399999976158142,176.0,22.56696128845215,23.354360580444336,-79.78281999122997,40.458941573000146,268.4044299514294,0.005160254426300526,-0.0031910862307995558,0.8271451592445374,0.5619557499885559,0.034505431248746575,-0.027596539520660414,0.19453556646007966,-0.22449690103530884,0.05441030114889145,-0.012245114892721176,0.03787522975355387,0.311489729359746,-9.775347645878792
19.8,1.399999976158142,176.0,22.47681427001953,24.35628318786621,-79.78282002465996,40.45894165685629,268.4391012207866,0.002697078511118889,-0.0016299127601087091,0.8260095119476318,0.563647449016571,0.05166375768862337,0.005896238634160396,0.15514434400797775,0.03919664025306702,0.14155203104019165,-0.00166069355327636,0.17958421871066094,-0.017654991578310728,-9.714804405570028
19.9,1.399999976158142,176.0,22.4567813873291,25.485435485839844,-79.78281975683139,40.45894187867162,268.4368089304566,0.005125047173351049,-0.0030976634006947283,0.8257325291633606,0.5640301704406738,0.0683322554143674,-0.009961189136236188,0.13972548666251475,-0.0802077054977417,-0.06320829689502716,0.07112231850624083,0.08302116153761745,-0.08279882116243244,-9.738220750093461
20.1,1.2999999523162842,178.0,22.366634368896484,27.29048728942871,-79.78281976420438,40.45894182894645,268.47309391361483,0.009185409173369408,-0.0028766300529241558,0.8248982429504395,0.5651994347572327,0.03839550472109229,0.0224907333826677,0.15121233608129658,0.041198592633008964,-0.07274318486452103,0.026703838258981705,0.1663494846224785,0.2317929840087891,-9.743639949560167
20.21,1.2999999523162842,178.0,22.42047119140625,25.49338722229004,-79.78281980744579,40.4589418447296,268.4898648799658,0.008417763747274877,0.00029131444171071047,0.8243195414543152,0.5660621523857117,0.0212967589072368,0.037538431852020826,0.1846179927241111,-0.01756606064736843,0.0617440901696682,0.034069065004587167,0.1409130549989641,0.08152457582764328,-10.033198746442798
20.4,1.399999976158142,178.0,22.395431518554688,26.646394729614247,-79.78281962724343,40.45894188239894,268.5314197984785,0.010507049970328808,0.000188179750693962,0.8237058520317078,0.5669199228286743,0.005615498937687991,0.02146057835610806,0.22321614938287904,-0.029496338218450543,-0.06405876576900482,-0.02410203218460083,0.17187503032386306,0.06871428564190865,-9.963933799266817
20.51,1.399999976158142,179.0,22.453025817871094,25.25483322143555,-79.78281964780584,40.458941878643714,268.55508841735127,0.011665694415569305,-0.0013484911760315301,0.8240932822227478,0.5663323998451233,0.006007607534957221,0.027232223656040992,0.2434288651715041,-0.0296345129609108,-0.10157497972249983,0.013292987830936907,0.2840729208849371,0.1812804776988924,-10.064146889448166
20.6,1.5,178.0,22.426733016967773,26.495309829711914,-79.78281988090295,40.45894190155299,268.57572015908363,0.008841000497341156,-0.0007926043472252786,0.8246769309043884,0.5655344128608704,0.03111869335821145,0.06404801332501328,0.24365692474120795,0.01973645016551017,-0.028799423947930336,-0.08241665363311768,0.128314799470827,0.2266078193485737,-9.820564749240877
20.8,1.600000023841858,179.0,22.39668273925781,25.70013236999512,-79.78282004789061,40.45894191680795,268.62446056467303,0.004213205073028803,-0.0007859706529416144,0.8262062072753906,0.5633515119552612,0.046058611997455035,0.07132724769056986,0.2528374811760259,0.02824544906616212,-0.03068861924111843,-0.046676009893417365,0.1814310983195901,0.17070724999532105,-9.967222273349762
20.9,1.7000000476837158,180.0,22.390422821044922,25.60471153259277,-79.78281987471689,40.45894185308386,268.6550656573177,0.0056237629614770395,-0.0014470637543126939,0.8272051215171814,0.5618700981140137,0.020639642567518542,0.06726318429788508,0.27600925152172,-0.09082502126693726,-0.06774593144655228,-0.029506001621484763,0.04455667405854912,0.19606275049969554,-10.005294663906096
21.11,1.7000000476837158,180.0,22.70969581604004,13.239703178405762,-79.78282021813047,40.45894196014343,268.70210734915736,0.013634175062179564,0.0009755500359460713,0.8277117013931274,0.5609871745109558,0.07050429200002761,0.09589015600146186,0.274128848241792,-0.05762772634625435,0.11094604432582857,0.02621791884303093,0.1068195485137403,0.19403890125453474,-9.776242854595186
21.3,1.7999999523162842,178.0,22.218891143798828,29.84300804138184,-79.78282049098141,40.45894200234096,268.7398870081902,0.01868208311498165,-0.0007401904440484941,0.8280261158943176,0.560377836227417,0.07437974950357677,0.10069596925126904,0.0733183409338289,0.10847476124763487,-0.0112785454839468,0.021392840892076492,0.1618528844229877,0.02011597501114011,-9.008209324479104
21.41,1.7999999523162842,175.0,22.124988555908203,32.48299789428711,-79.78282068089332,40.45894187688955,268.77629205000403,0.017834223806858063,-0.0001341548195341602,0.8285400271415709,0.5596457719802856,0.05472923426118654,0.1083984458474822,0.12618305438908456,-0.014070430770516396,0.07361683249473573,-0.02556063048541546,0.10491875574924052,0.3091371021419764,-9.678530618548391
21.51,1.8999999761581416,172.0,21.982254028320312,35.266117095947266,-79.78282081930328,40.45894188692712,268.79312046778205,0.01712949015200138,0.0009323757840320467,0.8290485739707947,0.5589134097099304,0.05208829113971955,0.1092520069851905,0.21269403478215013,-0.0469667874276638,-0.032812263816595084,-0.008801165036857128,0.1953523503430188,0.16179441226646304,-10.440087772607805
21.71,2.0,171.0,21.987262725830078,35.09912872314453,-79.78282115083309,40.458942194481565,268.8884173424244,0.014751708135008812,8.892675396054983e-05,0.829166054725647,0.5588077902793884,0.09349176899628188,0.11344325094928726,0.5435882757744719,0.012819688767194748,-0.01628253422677517,0.009893729351460934,0.18440292740240694,0.1970329132117331,-11.383831887245181
21.91,2.0,166.0,21.829504013061523,37.09502410888672,-79.78282134767247,40.4589422329915,269.01738286924365,0.013602548278868198,-0.001412277575582266,0.8288314342498779,0.5593312978744507,0.08122892032494172,0.12318583099701005,0.8760288947275998,-0.06637746095657349,-0.039329789578914635,0.01820327341556549,0.2039329565875232,0.28208260176703337,-11.427022930383682
22.01,2.0,169.0,21.8282527923584,37.61188888549805,-79.78282148817446,40.45894224126095,269.11573124837884,0.01809043809771537,-0.004141034558415413,0.828208327293396,0.5601131319999695,0.07500957657721084,0.11744186395769945,1.084839434037531,-0.09753940254449844,0.032856911420822144,0.03075630776584148,0.06268260860815644,0.26438918301835657,-11.84851596236229
22.2,2.0999999046325684,167.0,21.818235397338867,37.5164680480957,-79.78282174899122,40.458942295044096,269.356516787529,0.02314524166285992,-0.0014412157470360398,0.8263631463050842,0.5626599788665771,0.09799663794781197,0.13171597571060062,1.4705726719875365,0.1316322535276413,0.12071263790130615,-0.014214771799743176,0.0979488472826779,0.22270520489662887,-11.873378323316574
22.3,2.0999999046325684,165.0,21.690526962280273,40.95958709716797,-79.78282187722152,40.458942274678016,269.5144447178841,0.01848035678267479,0.0014723060885444286,0.8254743218421936,0.5641351938247681,0.08399368766262229,0.14445094741985187,1.685979611037674,0.1347840130329132,0.02940388955175877,0.014496064744889738,0.18851766787469387,0.4371616330370307,-11.96407331585884
22.4,2.200000047683716,158.0,21.733097076416016,39.408992767333984,-79.78282198362662,40.458942325193306,269.671723315239,0.012652410194277763,0.0046870824880898,0.8249663710594177,0.5650207996368408,0.07821006693118954,0.15398648315188768,1.897827468925524,0.16177017986774445,0.021345727145671844,-0.04678402468562126,0.21794264774769545,0.20364859918132425,-12.15842423915863
22.6,2.200000047683716,161.0,21.49896240234375,42.05693054199219,-79.78282224198949,40.45894232065654,270.07428080749514,0.01584186777472496,0.00705858925357461,0.8252413272857666,0.5645139813423157,0.048581287608185884,0.1744237183599307,2.324078072795018,0.01321789249777794,-0.05065849423408508,-0.03074812889099121,0.4109260900318623,0.14944692006334664,-12.062326419353486
22.8,2.299999952316284,164.0,21.8670654296875,35.24226379394531,-79.78282236594863,40.45894229696035,270.319282242775,0.017643339931964874,0.005255487747490406,0.8255698084831238,0.5639997124671936,0.06274999156500191,0.18941231242572928,2.5608781029022425,-0.01735510118305683,-0.108323872089386,-0.008262491784989834,0.5211246165633202,0.3239929036796093,-12.160595895051957
22.91,2.4000000953674316,163.0,21.88960266113281,31.62420463562012,-79.78282260819032,40.45894222433557,270.8296788425446,0.01598543301224709,0.00015473710664082319,0.8270831108093262,0.5618522763252258,0.08643013898313083,0.19029076976691275,2.883004648687165,0.04041825979948044,-0.17121675610542295,-0.009431571699678898,0.4481072187423705,0.2795944105088711,-11.44463357448578
23.1,2.5,161.0,22.08617401123047,30.12927055358887,-79.78282287343778,40.458942079072024,271.3530579299927,0.009725363925099371,0.005823771003633738,0.8276199102401733,0.5611745715141296,0.07070094998278165,0.1559776291674716,3.0065887378716343,0.06404637545347214,0.0017625294858589766,0.01108939666301012,0.3328300565108657,0.36048544965684415,-10.947545399665833
23.2,2.5,169.0,21.968481063842773,32.053600311279304,-79.78282298646954,40.45894206249017,271.6562238426209,0.009010333567857742,0.00875370018184185,0.8274859189987183,0.5613460540771484,0.05106615740685572,0.1576639352889982,3.0448195436971766,0.03566223755478859,0.007648969069123269,0.0006149789551272987,0.2539487602002919,0.07783913975581527,-10.281348731517793
23.3,2.700000047683716,171.0,22.216388702392575,28.006147384643555,-79.78282310032914,40.45894205408652,271.96260459136965,0.010689550079405308,0.007731604855507612,0.8275163173675537,0.5612867474555969,0.03320268614977321,0.16518513864178833,3.0692251316943646,-0.17910140752792358,-0.006865826435387135,-0.030282150954008106,0.12631985739804805,0.18745966902002686,-10.039549992084504
23.5,2.799999952316284,172.0,22.01981544494629,31.695770263671875,-79.78282342365677,40.458941874386056,272.45222527694705,0.01850980706512928,0.00565294548869133,0.827149510383606,0.5616486072540283,0.07710810683418529,0.1465387016357638,2.952821344882545,-0.08964275568723679,0.0811966210603714,-0.023323599249124527,0.050886755520477896,0.3047781673260033,-9.636104391217232
23.7,2.799999952316284,167.0,22.07615852355957,29.84300804138184,-79.78282340935492,40.45894165265125,272.9794097633362,0.01863976567983628,0.008419724181294441,0.8265421390533447,0.5625032186508179,0.08082426502639456,0.13795609284450666,2.882690437401757,0.03782994300127029,0.042688213288784034,0.045977599918842316,0.08339746640995145,0.30948822744190696,-9.730047512054444
23.81,2.9000000953674316,166.0,21.99602699279785,30.566619873046875,-79.78282344658666,40.458941643262094,273.26737410736087,0.01824796013534069,0.008124027401208878,0.8265718221664429,0.5624768137931824,0.06315958638406115,0.1249744357093208,2.871366833198666,-0.014931277371942997,-0.0700836256146431,-0.00399754149839282,0.12778779175132512,0.13679837848059834,-9.724275725483897
23.9,3.0,168.0,22.124988555908203,30.15312576293945,-79.7828231923312,40.458941302273395,273.4599719734192,0.017455853521823883,0.008053811267018318,0.8267142176628113,0.5622935295104979,0.03591245967702246,0.0930532687981494,2.8086714810202222,0.11509930342435835,0.02298598736524582,0.007723145186901091,0.15380886984989048,0.14111577979288994,-9.804127056598665
24.1,3.0,170.0,22.13249969482422,27.60855865478516,-79.78282309958706,40.458941263826816,273.8920870513916,0.015027966350317,0.008553530089557171,0.8267984986305237,0.5622324943542479,0.012128843704143806,0.061579213381820826,2.686655468934521,-0.0051590274088084715,-0.06790652871131897,-0.08356237411499022,0.16039694599807264,0.2553692681528628,-9.55595602154732
24.3,3.0,175.0,22.09493827819824,29.548791885375977,-79.78282304839361,40.45894124799643,274.1585369796753,0.01335525419563055,0.00795168336480856,0.8268988132476807,0.5621358752250671,0.009810538237433357,0.04038762516868283,2.6396992556689844,0.07193848490715027,-0.01795719750225544,0.01484082546085119,0.18065749341621995,0.16360809065401555,-9.428182665109636
24.4,3.0,177.0,22.13625717163086,27.60855865478516,-79.7828232948727,40.45894151373338,274.6893811912537,0.011552467942237854,0.00911654345691204,0.8270495533943176,0.5619363784790039,0.0343561708946257,0.026449771653907085,2.5700010142546037,0.07276374101638794,0.060824401676654816,0.032809749245643616,0.135526828346774,0.2529110073298216,-9.523054908514023
24.61,3.0,179.0,22.043603897094727,30.542762756347656,-79.78282329613201,40.45894162860401,275.35476405334475,0.011030259542167187,0.009273849427700044,0.8267425298690796,0.5623959302902222,0.03090847772969145,0.030298633024755856,2.564295498612525,-0.07921601086854935,-0.007525470573455095,-0.059100724756717675,0.11313581136055292,0.12575352715328336,-9.470821146368984
24.7,3.0,181.0,22.06363677978516,31.27432632446289,-79.78282324831163,40.458941662514896,275.6104903907776,0.01085352711379528,0.00805127527564764,0.8266814947128296,0.5625079274177551,0.03655730736037067,0.014673348561337115,2.5522089983883642,-0.08588731288909912,-0.012422726489603521,-0.017149070277810097,0.15091868251562118,0.207192340772599,-9.654226081967355
24.8,3.0,182.0,22.068645477294922,29.175058364868164,-79.78282319058283,40.458941704641575,275.86511046600344,0.010369502007961271,0.007115759421139956,0.8266140222549438,0.5626287460327148,0.04970602094584888,0.0011373796581128567,2.5499452925317683,-0.026051152497529984,-0.029700640588998795,0.02776324190199375,0.0985493015125394,0.16315233673900367,-9.794469795227053
25.0,3.0,182.0,22.161296844482425,27.91072654724121,-79.78282327876066,40.45894177196739,276.5617876739502,0.009190493263304234,0.005631488282233478,0.8263494372367859,0.563054621219635,0.06414813038737367,-0.007957116986133425,2.627596282922302,0.04939032718539238,-0.01799033395946026,-0.019954385235905647,0.15385893663391473,0.15437173744663596,-9.875023376941682
25.2,3.0,189.0,22.11246681213379,28.43554306030273,-79.78282352130309,40.45894198512679,276.9756212921143,0.009884269908070564,0.004916030913591385,0.8265538215637207,0.562749445438385,0.0825595358430267,0.012045363210021287,2.66701085510948,-0.0589420273900032,-0.031675539910793304,-0.07907839119434358,0.09842300165444612,0.19954560795798892,-9.634923253655437
25.31,3.0,192.0,21.98976707458496,29.707826614379893,-79.78282346052308,40.4589421178557,277.50170237731936,0.012298557907342907,0.0026199761778116226,0.8276686668395996,0.561076283454895,0.08906960898093591,-0.01430257153073955,2.5867358428199005,-0.031280577182769775,-0.005291711073368789,-0.06464770436286926,0.08118109758943319,0.20961705319583412,-9.424432260990145
25.5,3.0999999046325684,200.0,21.89711570739746,31.98998641967773,-79.78282339428429,40.45894231601349,278.1557694168091,0.007279444485902786,0.001511955983005464,0.8287428021430969,0.5595804452896118,0.10372951186481567,-0.020853027573343653,2.5804560863755297,0.017623092979192734,-0.0226491317152977,0.02805726788938045,0.027938626790419217,0.1694730306789279,-9.433177356719973
25.61,3.0999999046325684,204.0,22.03734397888184,30.773365020751953,-79.78282327584577,40.458942483158935,278.52482993316653,0.005309104919433594,-0.0011872404720634222,0.8288047313690186,0.5595114827156067,0.0864866443929268,-0.04375890049620623,2.6246970413170247,-0.03648116439580917,-0.07940980792045592,0.02230614051222801,0.09681527316570282,-0.0498227358609438,-9.748326492905617
25.8,3.0,211.0,21.90963554382324,33.11118698120117,-79.78282322512734,40.45894255281862,278.7867089004517,0.004388580098748207,-0.004406230058521032,0.8287108540534973,0.5596424341201782,0.08100946622836915,-0.059446671809432076,2.615369820344952,-0.0251830630004406,-0.09757651388645172,-0.0361667275428772,0.05618239601142705,0.09624474023468793,-9.738748753666876
25.9,3.0,215.0,21.76064109802246,34.83672332763672,-79.78282301461225,40.45894267976976,279.4437266082764,0.005665459670126438,-0.005779755301773547,0.8285439014434814,0.5598657131195068,0.06893225780286533,-0.08180051483584502,2.720199830481272,-0.10025235265493393,0.04007580503821373,-0.027899140492081642,-0.013928314363583922,0.12292077044025065,-10.051886447668076
26.1,3.0999999046325684,228.0,21.93592834472656,31.74348068237305,-79.78282270769465,40.458942859112746,280.1099177093506,0.006875379476696253,-0.0004158130323048681,0.8278769254684448,0.5608675479888916,0.05934473167814869,-0.06321635611190073,2.8536419590342765,-0.04487897828221321,0.03524776920676232,0.017428522929549217,0.06023202682379634,0.12126379743218425,-10.208232808113099
26.2,3.0999999046325684,231.0,22.047361373901367,28.76951789855957,-79.78282264014318,40.458942896632855,280.3964815826416,0.007731152232736348,0.0004642700660042465,0.8277900815010071,0.5609846711158752,0.045382922217423176,-0.046800411402196936,2.8737491132320154,-0.028279848396778107,-0.02297787368297577,0.04329902306199074,0.06834981224499644,-0.07061518804170193,-10.032349730730056
26.3,3.0999999046325684,240.0,21.912139892578125,32.65793609619141,-79.78282256312744,40.45894292399303,280.6835270614624,0.00823914259672165,-0.00032568105962127447,0.8283621072769165,0.5601323246955872,0.0379160537448339,-0.0448960397834764,2.8616356631109285,0.05166471749544144,-0.07779967784881593,-0.00477625196799636,0.04660473899915815,-0.02961363480426371,-9.760208619832992
26.51,3.2000000476837163,244.0,21.974742889404297,29.56469535827637,-79.7828222043516,40.45894297783414,281.32822806549075,0.003371336031705141,0.0010551523882895708,0.829227089881897,0.5589007139205933,0.02086180803660287,-0.06418662417082867,2.877381739394841,0.0953434482216835,-0.0859966054558754,-0.024631338194012642,0.06155402289703488,0.13786424366757274,-9.801299927830694
26.61,3.2000000476837163,247.0,21.97348976135254,30.741558074951172,-79.78282220058641,40.458943080029506,281.6868000717164,-0.002213418018072844,0.0017067400040104985,0.8286726474761963,0.5597267746925354,0.007497003173383599,-0.052348426538966215,2.88762685370448,0.02315440960228443,-0.07392886281013489,-0.025712000206112855,0.02349419471807778,0.06893632452003658,-9.650844637155533
26.8,3.2000000476837163,254.0,21.992271423339844,31.01987075805664,-79.78282204805096,40.45894312809392,282.2611370773316,-0.004578466527163982,-0.0034053903073072433,0.8271076679229736,0.562014639377594,-0.016284848371827382,-0.08730195823666739,2.8647952634447784,-0.05149530619382858,-0.035179246217012405,0.04761958122253418,-0.03023070791736245,-0.1329909914173186,-9.764615081548687
27.0,3.0999999046325684,259.0,21.89335823059082,32.363719940185554,-79.78282213853585,40.458943232403094,282.62659175109866,-0.0022242877166718245,-0.005397167522460222,0.8264603018760681,0.5629648566246033,0.01241669260513794,-0.07821637019766578,2.8906017577493297,0.01743978075683117,0.002264453331008553,0.024139879271388054,-0.05563022699207068,-0.032851484790444384,-9.762395478487017
27.1,3.0999999046325684,260.0,21.837017059326172,32.76926040649414,-79.7828218262719,40.45894341025922,283.2733116836548,0.0012041863519698381,-0.0053093056194484225,0.8258258700370789,0.563899040222168,0.0402852694563673,-0.08387977103728632,2.9433635864617886,-0.037111733108758926,0.07034730911254883,0.030545614659786224,-0.03195339814759792,0.04285271775908769,-9.968119236230851
27.21,3.2000000476837163,260.0,21.894611358642575,31.94227600097656,-79.78282178118583,40.45894344473909,283.5689373703003,0.0028892881236970425,-0.00404704874381423,0.8255331516265869,0.5643317699432373,0.044728678675790376,-0.07208491312846893,2.966653843754148,0.0377311073243618,0.039950594305992126,0.08526799082756042,0.012774834588635714,0.012484486070461572,-10.023184804916383
27.4,3.299999952316284,260.0,21.885847091674805,31.52878379821777,-79.78282153383043,40.458943558233436,284.2148981781006,0.004156464245170355,-0.003156020538881421,0.8258064389228821,0.5639296174049377,0.045368934738563516,-0.05452369446301178,3.000738789645156,0.0608854666352272,0.029258152469992638,0.02127999626100064,-0.02385886911302805,-0.012699220497161151,-9.904453582763672
27.5,3.299999952316284,260.0,22.022319793701172,29.16710662841797,-79.78282147956324,40.45894358258556,284.51542098236087,0.002615619916468859,-0.00248942174948752,0.8262510299682617,0.5632905960083008,0.044891244930908264,-0.05748567310435384,3.0052556813826654,0.11052776873111723,0.0073845721781253815,0.044528558850288384,0.04635188346728683,-0.0007736888428917155,-9.889644924402235
27.71,3.299999952316284,258.0,21.803211212158203,33.36564254760742,-79.78282150662587,40.458943660492146,285.15647036743167,-0.00042846391443163157,-0.001855208771303296,0.8271764516830444,0.561939001083374,0.02845694594870306,-0.039255362357164494,2.9863093426391174,-0.08612947165966034,-0.045503754168748856,-0.08358418941497803,-0.08153077935799957,0.17263558862730866,-9.691548274755476
27.9,3.4000000953674316,250.0,21.9309196472168,31.17890548706055,-79.78282156734826,40.45894365583622,285.80431468200686,0.00032315368298441166,-0.005681026261299849,0.8280404806137085,0.5606395602226257,0.04605157863530338,-0.022015668183669408,3.0034415862808297,0.0014256910653784873,-0.05927927792072296,-0.008857300505042076,0.02740669005084783,0.02758406853536144,-9.89704983830452
28.0,3.4000000953674316,250.0,21.90337562561035,31.194808959960927,-79.782821579608,40.458943692191546,286.10464770507815,0.0009562289342284204,-0.007677637971937656,0.8284900784492493,0.5599503517150879,0.06519655948620462,-0.028936961852899918,3.00157780004898,0.030805757269263268,-0.0066322414204478255,-0.05658683180809021,-0.03509237080346793,0.2215196453779936,-9.736747251749039
28.1,3.4000000953674316,246.0,21.78693389892578,34.33575820922852,-79.78282142556172,40.45894369280132,286.4449415893555,0.0017570165218785405,-0.007949884049594402,0.8288308382034302,0.5594401955604553,0.060800118413885,-0.04036125765824507,3.0060446893284283,-0.013517064973711971,0.06445042788982391,0.03385715186595917,-0.06977708560880272,0.13890307461842896,-9.759499352574347
28.3,3.5,245.0,21.849536895751953,31.98998641967773,-79.7828214631912,40.45894376162579,287.0497580261232,5.777020123787224e-05,-0.0019118748605251312,0.8281891345977783,0.5604456067085266,0.0963154355583548,-0.016044240351222625,3.051844480499272,0.16844306886196134,0.05424153059720993,-0.0008421255624853076,0.03635225391481072,0.2719321825727821,-10.088121643066406
28.4,3.5999999046325684,241.0,21.870820999145508,31.822999954223643,-79.78282157300801,40.45894378705252,287.39073474121096,-0.0023738564923405647,0.0017855550395324824,0.8275315165519714,0.5614115595817566,0.07009777725002135,0.015300048522932359,3.0850591346843297,0.03363542631268501,0.02006354741752148,-0.06755950301885605,-0.02551433235174045,0.08566503491252661,-10.001010993719099
28.6,3.5999999046325684,237.0,22.014806747436523,28.23674964904785,-79.78282193582451,40.45894379174924,288.04524142456063,0.003113094484433532,-0.002502255374565721,0.8267098665237427,0.5626143217086792,0.06833237052872854,0.05578203878686661,3.1189069233936064,-0.16039906442165375,0.0072618392296135426,0.057182494550943375,0.019416661723516884,-0.020486469212919474,-9.965755791664124
28.8,3.700000047683716,234.0,21.895862579345703,31.695770263671875,-79.78282211152735,40.458943894190455,288.6655302734375,0.011269853450357914,-0.011064297519624232,0.8271670937538147,0.5617341995239258,0.1403666831865364,0.03902719991000701,3.0738902267270034,-0.11066792905330658,-0.061246559023857124,-0.020507365465164185,0.017303692689165474,0.2811212281510234,-9.737119134664537
28.9,3.799999952316284,233.0,21.83075523376465,31.011919021606445,-79.78282212787694,40.45894386725647,289.0120783538818,0.010106094181537628,-0.0124516561627388,0.8274466991424559,0.5613152980804443,0.1552301310980007,0.02366865646346753,3.053615848951456,0.009369648061692716,-0.03168825805187225,-0.09018013626337053,-0.11280722524970772,0.3346715274453163,-9.538921912908556
29.0,3.9000000953674316,235.0,21.98600959777832,29.66011619567871,-79.78282219058944,40.458943906830285,289.31674105834963,0.007789720315486194,-0.011711414903402328,0.8276192545890808,0.561113715171814,0.15388911701526553,-0.005572524214785018,3.0278633093542062,0.10335712879896164,-0.006055263336747885,0.07901094853878021,-0.20912265283986928,0.05621577539015562,-9.577248657345773
29.2,4.0,234.0,21.872074127197266,30.176982879638672,-79.78282229921233,40.458944027414276,289.9621020050049,0.004879225045442581,-0.011308428831398487,0.8273123502731323,0.5616072416305542,0.12020424432277635,-0.01897004160842176,2.9677313121086986,0.00724935671314597,-0.0037785146851092577,0.028889456763863564,-0.13372009352780878,0.23762982085347176,-9.459845337867737
29.4,4.099999904632568,234.0,21.81447982788086,33.214561462402344,-79.78282248862881,40.45894424372343,290.6138277740479,0.004423920996487141,-0.012907796539366244,0.8260077834129333,0.5634936690330505,0.13080752306229015,-0.018544636829029258,2.9627573456387366,-0.05609270930290222,-0.03140008822083473,-0.04605469480156898,-0.18310528406873347,0.270386836566031,-9.518417481780057
29.5,4.199999809265137,234.0,21.78693389892578,32.33191299438477,-79.78282254560851,40.45894429650818,290.9098673553467,0.0037294880021363492,-0.014802037738263609,0.8257865905761719,0.5637761354446411,0.13426740845062546,-0.022029729414502264,2.95748551531788,-0.027826009318232536,-0.09684790670871736,-0.023646429181098938,-0.10991439753212036,0.3439126863330603,-9.538606747984886
29.6,4.300000190734863,237.0,21.850788116455078,30.74950981140137,-79.78282256096865,40.458944459321906,291.25220782470706,0.004056688398122788,-0.016474317759275436,0.8261088132858276,0.5632553100585938,0.1543462972762338,-0.03441116849132339,2.993819352139542,-0.037589561194181435,-0.05158292502164842,-0.04231318458914757,-0.08754595628008248,0.16102881073951722,-9.85517441868782
29.8,4.300000190734863,237.0,21.6917781829834,33.84275054931641,-79.78282272031699,40.45894460170085,291.8502188415528,0.0010552924359217286,-0.013497487641870977,0.8268110752105713,0.5623167753219604,0.16757158605919606,-0.02197498764730474,2.9900801911639667,0.024316826835274696,0.011279144324362278,-0.013688911683857441,-0.1919129267334938,-0.014329680036753415,-9.898078948259354
29.92,4.300000190734863,236.0,21.805715560913086,32.07745742797852,-79.7828223822448,40.45894470775772,292.1884661407471,0.004053683485835791,-0.013322252780199051,0.8273707628250122,0.5614836812019348,0.13620887896775002,-0.0532030992232207,3.0474614799499458,-0.08051197975873947,0.06325743347406387,0.023935174569487568,-0.08342297488823533,0.19076098870486025,-10.151876174211502
30.1,4.300000190734863,236.0,21.83451271057129,32.14902114868164,-79.7828224277195,40.4589448450041,292.82050234985354,0.01271047256886959,-0.011140152812004093,0.8285768032073975,0.5596203804016113,0.17539307955385947,-0.022682194975166124,3.0574031412119718,-0.11145464330911636,0.027565304189920425,-0.05945436283946037,-0.10801268200390042,0.2850659608282149,-9.75373224377632
30.3,4.400000095367432,230.0,21.7205753326416,35.40129852294922,-79.78282247179436,40.458944917685784,293.1257582397461,0.014001781120896341,-0.01188904605805874,0.8291944265365601,0.5586585402488708,0.18465215603478635,-0.0161673925054297,3.0432265439739217,-0.061549149453639984,-0.02334381639957428,-0.050886381417512894,-0.17025213561952116,0.29868396162986754,-9.702851527333259
30.41,4.400000095367432,227.0,21.716819763183594,34.02564239501953,-79.78282245052851,40.458945059806005,293.7514010162354,0.011656134389340878,-0.016777876764535904,0.8291701674461365,0.5586228966712952,0.19423989732593305,-0.03176550131951533,3.0493485287544733,-0.01493886113166809,-0.07936857640743256,-0.024788137525320053,-0.19428002581000328,0.4208461106568575,-9.707833939790726
30.6,4.400000095367432,224.0,21.731843948364254,32.125167846679695,-79.78282240614446,40.45894516696328,294.3745890350342,0.011005105450749396,-0.01703604869544506,0.8285443782806396,0.5595560073852539,0.17909050793159448,-0.057553033825275525,3.0680035968829937,0.006676554214209318,0.04418846592307092,-0.02115852572023869,-0.2124748067557812,0.2952630115672946,-9.95668676018715
30.71,4.400000095367432,223.0,21.88960266113281,29.365901947021484,-79.78282243528925,40.45894520898796,294.68262583923337,0.012271289713680744,-0.015414600260555744,0.829025149345398,0.5588641166687012,0.1675979226092925,-0.03989076560051424,3.080800537153875,0.059713676571846015,0.008914974518120289,-0.031042570248246193,-0.037750706900842486,0.339418735653162,-9.894133247137072
30.81,4.400000095367432,221.0,21.779422760009766,33.28612518310547,-79.78282246663214,40.45894523757625,294.99030215454104,0.014115925878286362,-0.015045115724205969,0.8300873041152954,0.5572517514228821,0.14640897036560613,-0.0182092432076542,3.0561618638832573,-0.04070353135466576,0.03886755183339119,-0.018963435664772987,-0.04328981996979565,0.2985729558952153,-9.577738654017447
31.01,4.400000095367432,219.0,21.749372482299805,31.68781852722168,-79.78282253555395,40.45894527856175,295.5986948699952,0.013210266828536987,-0.013356000185012816,0.8306134343147278,0.5565325021743774,0.1557619551741834,-0.0010113049054552364,3.0091529214678783,0.16756540536880493,0.006534903775900602,-0.029976041987538338,-0.0776093807257712,0.3342554249614477,-9.709212128520011
31.2,4.5,218.0,21.63167953491211,34.892383575439446,-79.78282263154044,40.45894525777807,296.2155657501221,0.007017107214778662,-0.009770871140062807,0.8298053145408629,0.557923436164856,0.09574829364415753,0.016636363409638918,3.017223319484033,0.0030220188200473785,-0.027087511494755745,0.040577687323093414,-0.04809274117927999,0.19659735046327115,-9.724030727148056
31.3,4.5,218.0,21.785682678222656,32.16492462158203,-79.7828226741466,40.458945256069,296.51947695922854,0.007488084491342306,-0.011593598872423172,0.8293275237083435,0.5585924386978149,0.08122388154105649,0.0076400482641212535,3.055159886923897,-0.029415523633360863,-0.03905211761593819,0.011506824754178524,-0.06584722221828998,0.2252345459349453,-10.104680957794187
31.4,4.5,221.0,21.816984176635746,31.425411224365234,-79.78282277286249,40.45894525272064,296.837548324585,0.00901980884373188,-0.013029251247644423,0.8286514878273009,0.5595406293869019,0.10240320346964883,0.011485918133283634,3.068686220149436,-0.02119072526693344,-0.027498265728354454,0.0986252874135971,-0.0716503416420892,0.18713692098855966,-10.044297931194306
31.6,4.599999904632568,224.0,21.67550277709961,33.34973907470703,-79.78282299120453,40.45894525382853,297.4641657562256,0.01168462261557579,-0.011204890906810759,0.8275122046470642,0.56121426820755,0.13683491805628548,0.02217942384279073,3.062583809311752,0.05731213465332985,0.07181694358587265,-0.020137911662459373,-0.03967730507254602,0.3797620020434261,-9.859565677642825
31.8,4.599999904632568,224.0,21.888351440429688,29.49312973022461,-79.78282305707225,40.45894526681725,297.77154071044924,0.016060344874858856,-0.008708799257874489,0.8281914591789246,0.5601475238800049,0.1351834411484271,0.02141169686255945,3.077323673137712,-0.004758033901453018,0.1085578352212906,-0.017933489754796028,-0.1104083410743624,0.2376165367104113,-9.904726063013078
31.9,4.599999904632568,224.0,21.70805549621582,32.79311752319336,-79.78282315908109,40.458945254811894,298.3956423492432,0.016317743808031082,-0.008176594972610474,0.829598069190979,0.558062732219696,0.15634616053814435,0.04377950891881517,3.01450344116084,0.04148756340146065,-0.13636375963687894,0.002943207742646337,-0.13706975324079396,0.23392111469060184,-9.494631008505822
32.1,4.699999809265137,216.0,21.61164665222168,35.8227424621582,-79.78282321100258,40.45894524437496,299.0191717834473,0.005063996184617281,-0.014443922787904741,0.8290226459503174,0.5590056777000427,0.13020863697967527,-0.014411565975426291,3.0146719232654537,-0.0004220913397148252,-0.16635172069072726,-0.044054802507162094,-0.17586781980469826,0.3196922765672207,-9.61611159145832
32.2,4.699999809265137,223.0,21.619159698486328,35.210453033447266,-79.78282324716336,40.45894528369647,299.3227682800293,-0.0009357771486975252,-0.01833372190594673,0.8289716839790344,0.558989405632019,0.13424659766281294,-0.03764679667862141,3.0587330206653567,0.021950915455818176,-0.13951697945594788,0.005131168756633997,-0.08254147971980275,0.4723831770569086,-9.80972459614277
32.3,4.800000190734863,222.0,21.61289978027344,35.05141830444336,-79.78282330169476,40.458945331648174,299.6321230621338,-0.00300254300236702,-0.02070663683116436,0.8292717933654785,0.5584537386894226,0.13080598605707566,-0.0647648373417019,3.1255040642564516,-0.025006439536809918,-0.06915619969367981,-0.004628407768905164,-0.3147643163055181,0.20542763281613588,-10.380323381423947
32.5,4.800000190734863,223.0,21.92340850830078,28.42759132385254,-79.78282332627043,40.458945302131255,300.27072817993167,0.008526647463440895,-0.018939875066280358,0.8302160501480103,0.5570547580718994,0.14733691942201518,-0.06651690074637084,3.1847610586329402,-0.15217861533164978,0.05754611641168594,0.0062383455224335185,-0.24559164550155396,0.3048072754964233,-9.89629437804222
32.6,4.900000095367432,227.0,21.725584030151367,32.75335693359375,-79.78282361928675,40.45894526044688,300.57805926513674,0.013410503044724464,-0.019986653700470924,0.8298404812812805,0.5574814081192017,0.17035371583043496,-0.007607938665596421,3.1073655344377387,-0.12486466765403748,-0.06258005648851395,-0.09024128317832948,-0.09391731999814512,0.4924863064661622,-9.494584815502169
32.8,4.900000095367432,226.0,21.76189422607422,31.838903427124023,-79.78282380496616,40.45894532737978,301.1962919921875,0.013405663892626762,-0.021971071138978004,0.8279095292091371,0.5602707862854004,0.21724158457367895,0.004505313149578922,3.075455424301276,0.10730209946632384,0.005035394802689552,0.07859361916780473,-0.2109380853921175,0.368903941847384,-9.694217528700829
33.0,4.900000095367432,225.0,21.89711570739746,29.23867225646973,-79.78282394352931,40.45894534081939,301.8181296081543,0.010591409169137478,-0.02115814387798309,0.8270072937011719,0.5616931319236755,0.18163872488867214,-0.0005904128076789049,3.0554425720250444,0.08182036131620407,0.003846137784421444,-0.030558368191123005,-0.16723636105656625,0.3487523170933128,-9.71231349170208
33.1,4.900000095367432,225.0,21.739356994628906,33.166847229003906,-79.78282409954814,40.458945377756585,302.13985736083987,0.010515755973756313,-0.019389905035495758,0.8269689679145813,0.5618148446083069,0.17466158265653228,0.013133194543363293,3.0293223341207947,-0.1074579507112503,-0.002482190728187561,-0.02094477042555809,-0.23615420289337635,0.3831770318001509,-9.501611414551736
33.2,4.900000095367432,227.0,21.79820251464844,30.701799392700195,-79.78282421063196,40.4589453997641,302.442435333252,0.012830352410674095,-0.017765924334526062,0.8269789814949036,0.5618056058883667,0.17358596021386724,0.01970817837035421,3.0191226049656072,-0.05113187059760094,0.06054797768592835,-0.04256678745150566,-0.08233045918866992,0.4136075500398875,-9.717940267324447
33.4,5.0,221.0,21.78192710876465,31.01987075805664,-79.7828245428139,40.45894538835347,303.0644674987793,0.018968887627124783,-0.017500516027212143,0.8277504444122314,0.5605025291442871,0.20557713224482727,0.05557400774083657,3.0105143832204933,-0.04254820942878723,0.02796354331076145,-0.04864470660686493,-0.23318049173802136,0.578455396592617,-9.660447519421576
33.6,5.0,220.0,21.83075523376465,30.495052337646484,-79.782824867346,40.45894534538944,303.6899710388184,0.02207712084054947,-0.01804622262716293,0.8284287452697754,0.5593682527542114,0.22609544937086265,0.07910505459423244,3.0200705856629586,-0.05885409191250801,-0.013609027490019798,0.009619943797588348,-0.02013095850124956,0.4247916290536523,-9.768221644163132
33.7,5.0,220.0,21.695533752441406,32.968055725097656,-79.78282498962844,40.45894536598311,303.9923277587892,0.02222534641623497,-0.01920866221189499,0.8283649682998657,0.5594180822372437,0.22621456353745034,0.06887430710672357,3.0121030784152136,-0.03591376915574074,-0.09084086120128633,-0.04287149757146835,-0.07911997234448791,0.4345252696797252,-9.818739248514175
33.8,5.0,220.0,21.71431541442871,33.0078125,-79.78282510415559,40.458945381145746,304.29444415283206,0.02246680296957493,-0.021296706050634384,0.8284930586814879,0.5591431260108948,0.2292637586157716,0.06029408844363024,3.0142603313868426,0.0010089626302942634,-0.007014920935034753,-0.03177807480096817,-0.10272428657859564,0.5180247517302633,-9.793864023685456
34.0,5.0,217.0,21.86080551147461,30.359872817993164,-79.78282533299634,40.458945385132864,304.918509552002,0.02165357209742069,-0.02131492830812931,0.8291003108024597,0.5582736134529114,0.21930126565385955,0.03227531549127667,3.0414906083809483,9.881906589725986e-05,-0.031125012785196308,-0.09107328206300737,-0.1495978969987482,0.6290390744805336,-9.79027149438858
34.1,5.0,215.0,21.74436378479004,32.594322204589844,-79.782825376866,40.45894530633738,305.23509890747073,0.020570429041981697,-0.01983270421624184,0.8292576670646667,0.5581355690956116,0.19626047922564,0.032024450360318424,3.02325651619335,-0.008609374053776264,0.014634483493864538,0.013270694762468338,-0.13573435882106424,0.5763288008049131,-9.629132171273232
34.3,5.0,215.0,21.650461196899414,33.64395523071289,-79.78282552072207,40.45894528548392,305.8392706604004,0.02216977067291737,-0.017578942701220512,0.8299307823181152,0.5571485161781311,0.16547568763430304,0.02277598650896669,3.0168141131327872,-0.07354174554347992,0.050885915756225586,-0.05981345474720001,-0.2349371780455113,0.35555822029709816,-9.777137478590012
34.5,5.0,212.0,21.660476684570312,33.826847076416016,-79.78282557265761,40.45894520799493,306.15476138305667,0.028635768219828606,-0.015517557039856909,0.8301262259483337,0.5566235780715942,0.15566972565134393,0.026018604478833536,3.0304066872185937,-0.10396574437618256,0.153325617313385,0.053552765399217606,-0.25296841967850925,0.36556964021176097,-9.872794418334964
34.61,5.0,206.0,21.74436378479004,33.198657989501946,-79.78282560859914,40.45894505307171,306.7729101867676,0.03362008556723595,-0.012749508023262024,0.830501914024353,0.5558542013168335,0.16891642802055076,0.06555754375630551,3.038139723423622,0.10085796564817427,0.05966648831963538,-0.029206434264779087,-0.008999477019533516,0.4121723144128919,-9.783969950079918
34.8,4.900000095367432,205.0,21.82574844360352,29.914573669433594,-79.78282555240371,40.458944920088356,307.3827696533204,0.02448622137308121,-0.011361800134181976,0.8310146331787109,0.555595338344574,0.10441107616147954,0.03234922456480429,3.0714552945371296,0.1581590175628662,-0.04468328878283501,0.0514599159359932,0.026383772206027063,0.4341020043566824,-9.832088441848756
34.9,4.900000095367432,205.0,21.75062561035156,31.441314697265625,-79.78282571949323,40.45894500618819,307.7287016601564,0.019927045330405242,-0.010696491226553915,0.8309880495071411,0.5558303594589233,0.09656102597163993,0.02688117715467877,3.0823800066355407,0.013358177617192268,-0.07145891338586807,-0.06176817417144776,0.060222346941009176,0.5948985709995032,-9.728367606997493
35.0,4.900000095367432,206.0,21.7205753326416,32.761306762695305,-79.78282568539423,40.45894495641793,308.03662020874026,0.01639287918806076,-0.011693197302520277,0.8307387828826904,0.5562982559204102,0.07933072716434446,0.005551363018244849,3.0726037486131856,0.0769120454788208,-0.09090204536914824,-0.06877794116735457,0.011149920767638832,0.5713151422888041,-9.728443620800974
35.2,4.900000095367432,208.0,21.736852645874023,31.52878379821777,-79.78282592316378,40.458944845818905,308.6902914733887,0.012566459365189077,-0.015821732580661774,0.8305688500404358,0.5565493106842041,0.0907556387218786,-0.00014357181719148928,3.1160271461081983,-0.06589210778474808,-0.1096544712781906,-0.03923463076353073,-0.09201407871209086,0.4959141635522247,-9.92406280517578
35.4,4.800000190734863,207.0,21.796951293945312,30.956254959106445,-79.78282602146227,40.458944774124866,309.3451452941895,0.008137435652315617,-0.015997640788555145,0.8311694860458374,0.5557295083999634,0.1286968039874169,-0.009366060739996969,3.1668499577355185,0.01027423981577158,-0.0024816165678203106,-0.0569622628390789,-0.01974982967600226,0.5336316281184554,-9.923910777568818
35.5,4.800000190734863,206.0,21.790691375732425,29.64421272277832,-79.78282607988393,40.4589447806756,309.6623945922852,0.008261788636446001,-0.016420790925621986,0.8312252163887024,0.5556319355964661,0.13975309374850806,-0.012281431827858142,3.1687930527800985,0.05110017955303192,0.009790325537323952,0.05489033088088036,0.05385310740675778,0.4599410695955157,-9.849627749919893
35.6,4.800000190734863,212.0,21.7456169128418,30.70975112915039,-79.78282594437202,40.458944608618715,309.99938876342776,0.012485453858971596,-0.014388795010745525,0.8311551809310913,0.5557141304016113,0.1148057508393831,-0.024739780111885448,3.1628930701110263,-0.14233624935150144,0.05363220721483231,0.0005821784143336117,-0.08157544660381973,0.5297196581214667,-9.62804517388344
35.81,4.800000190734863,207.0,21.7205753326416,32.08540725708008,-79.78282602598358,40.458944640854895,310.62903887939456,0.026005648076534268,-0.009979544207453728,0.8307909369468689,0.5558872222900391,0.1832277483693835,0.03674530536445287,3.140209420724632,-0.1206558346748352,0.022672545164823532,-0.04985759034752848,0.0870066328626126,0.609602344930172,-9.743843432664873
36.0,4.800000190734863,207.0,21.753129959106445,30.70975112915039,-79.78282604000715,40.45894456395421,310.9603377075196,0.027423718944191933,-0.010708781890571116,0.8306573033332825,0.5560051798820496,0.1905577655489285,0.05808376701525516,3.1593417508464703,-0.10643626004457474,-0.08349628746509552,-0.16719543933868408,-0.01174787851050496,0.5933551253378392,-9.82536531329155
36.1,4.800000190734863,207.0,21.87833404541016,27.97434043884277,-79.78282597099259,40.45894452213778,311.602290222168,0.020680604502558708,-0.01556683052331209,0.8306479454040527,0.5561961531639099,0.1895369187116104,0.015131754076405138,3.1678583639222038,0.005037941969931126,-0.09294969588518144,-0.019793353974819183,-0.04442884844262153,0.6138545863330365,-9.812052372694016
36.3,4.800000190734863,203.0,21.666736602783203,33.278175354003906,-79.78282595888327,40.458944545734134,312.2324515075684,0.01149414014071226,-0.017861025407910347,0.8302314877510071,0.5570141077041626,0.1472493523327244,-0.050577673794399286,3.1392311514564866,-0.014272605068981647,-0.010867415927350521,0.12234184145927428,-0.14400014732033015,0.3240772497653961,-9.620684698820117
36.4,4.800000190734863,209.0,21.597875595092773,34.097206115722656,-79.7828258361567,40.45894441083775,312.55660922241213,0.013187122531235218,-0.01712646521627903,0.8304333090782166,0.556698739528656,0.11836504512908155,-0.07329759131559149,3.1615149759215897,0.018909843638539314,0.05813853070139885,0.017151998355984688,-0.19490193201228972,0.4514547131583095,-9.78072357594967
36.5,4.800000190734863,210.0,21.695533752441406,31.958179473876953,-79.78282581887811,40.4589444147583,312.8749838562012,0.016462406143546104,-0.01538743171840906,0.8306466341018677,0.5563438534736633,0.14144896643194346,-0.05423205565038697,3.197281851238784,0.03869127109646797,0.05525356903672218,0.11674557626247405,-0.07042136197909712,0.2786469971202314,-10.175143414735793
36.7,4.800000190734863,210.0,21.743112564086914,31.66396331787109,-79.78282607531622,40.458944310828095,313.5082617492676,0.021202642470598217,-0.011915340088307858,0.8307756185531616,0.556075930595398,0.16257645987775474,-0.004324756398922096,3.198965763842055,-0.025924844667315483,0.02108219638466835,0.03468712046742438,-0.01746868466958404,0.5103701251745224,-9.866284128427504
36.8,4.800000190734863,207.0,21.736852645874023,31.44926643371582,-79.78282608947613,40.45894432876153,313.8280859680176,0.022782662883400917,-0.012763048522174358,0.8312098383903503,0.5553452968597412,0.18413594185453808,0.013885578003842193,3.1873381015492432,0.029751952737569805,0.04026314616203308,-0.004718320909887552,-0.03183121646521613,0.5037201233580709,-9.710182181596757
37.0,4.800000190734863,207.0,21.76439666748047,31.457218170166016,-79.78282603656801,40.458944261834,314.4650908203125,0.018592868000268936,-0.017057262361049652,0.8316733241081238,0.5546917915344238,0.1665902304712892,-0.013731289167265286,3.1215447821884954,-0.02243524044752121,-0.07100574672222137,0.024394672363996502,0.03033388843294233,0.6231257852911949,-9.674536385536195
37.21,4.699999809265137,207.0,21.81072425842285,30.62228202819824,-79.78282585307127,40.4589441435302,315.09013278198245,0.01464185770601034,-0.017689161002635956,0.831722617149353,0.5547162890434265,0.12836905578080451,-0.061114466626316574,3.1017932311219067,-0.06339462846517563,0.041497111320495605,-0.05643440410494805,-0.07971799632534385,0.3585014893859625,-9.60499778866768
37.31,4.699999809265137,207.0,21.84703254699707,28.98421669006348,-79.78282583313077,40.458944139216726,315.3998594970704,0.014189045876264572,-0.01600993610918522,0.8316699862480164,0.5548580884933472,0.12216280937837645,-0.05139055110856917,3.0894578853733674,-0.021332727745175358,0.005939447320997715,0.02537672035396099,-0.0054901517741382105,0.4257676024362445,-9.688350432515143
37.4,4.699999809265137,211.0,21.68927383422852,32.228538513183594,-79.78282561399044,40.45894393796823,315.7182341308594,0.01277320459485054,-0.015084616839885712,0.8316184878349304,0.554995596408844,0.09330067508727767,-0.04931281489763916,3.0857813712398467,0.06816822290420532,0.01090006623417139,0.09032167494297028,-0.10797159617766736,0.3420333181321621,-9.675097718238831
37.6,4.699999809265137,213.0,21.791942596435547,31.0914363861084,-79.78282546830167,40.45894389124896,316.3478842468262,0.007338307797908783,-0.014681315049529076,0.831578254699707,0.55516517162323,0.10473441284910344,-0.055346219801246106,3.1430933611460574,-0.008320079185068606,0.02810927107930184,-0.017774436622858047,-0.18936595268547526,0.4710550551116467,-10.13162024974823
37.8,4.599999904632568,212.0,21.78693389892578,29.16710662841797,-79.78282547351728,40.45894391937134,316.9823256225586,0.01231544464826584,-0.015480495989322662,0.8310728669166565,0.5558118224143982,0.13552925778139166,-0.039869819620404916,3.1867543309191806,-0.04133380949497223,0.027045946568250656,-0.0439765527844429,-0.14406583713367582,0.44405433084815743,-10.119845126867297
37.9,4.5,212.0,21.84703254699707,29.381805419921875,-79.78282554765892,40.45894394878518,317.292719909668,0.015573496930301191,-0.01548517215996981,0.8304371833801271,0.5566792488098145,0.1719685602183373,-0.02450623918584753,3.1626872699175546,0.02352365478873253,0.03194478899240494,0.030506394803524017,-0.022024533608928323,0.3777366361767054,-9.803140631318092
38.0,4.5,207.0,21.796951293945312,30.53481101989746,-79.78282558642258,40.45894398036436,317.60863024902346,0.0190310887992382,-0.015695558860898018,0.8297242522239685,0.5576282143592834,0.17228185999070292,-0.005468753530653576,3.147443330248536,-0.10162776708602904,-0.022626621648669243,0.023008432239294045,-0.06036751777399332,0.5212274910137058,-9.667785190343855
38.21,4.400000095367432,207.0,21.793193817138672,28.682048797607425,-79.7828255711847,40.45894392033645,318.2342596740723,0.01720636710524559,-0.017458435148000717,0.8304083943367004,0.5566157698631287,0.17637539005026484,-0.005964642110358569,3.1126267552024727,-0.01534154452383518,-0.0506468191742897,-0.04256054013967514,0.026468147984705863,0.38491497047245504,-9.631202670335773
38.3,4.300000190734863,208.0,21.801958084106445,29.89071846008301,-79.78282558677675,40.45894393181686,318.54475314331063,0.01598498597741127,-0.017473379150032997,0.8315111994743347,0.5550030469894409,0.15021300027184314,-0.025599487004546843,3.0871150719281566,-0.037882059812545776,0.010605882853269577,-0.062375370413064964,-0.18441628463566306,0.3862481721863151,-9.538272871971133
38.5,4.300000190734863,209.0,21.731843948364254,31.89456558227539,-79.78282562531977,40.45894383411532,319.1617155761719,0.01357830874621868,-0.012043486349284649,0.8345049619674683,0.5507014989852905,0.1095153530303448,-0.024241086068753186,3.0301634132139883,0.00874163396656513,-0.027198359370231632,-0.043371956795454025,-0.06805245392024517,0.3446943859755993,-9.473621962666511
38.7,4.199999809265137,211.0,21.67800521850586,32.944198608398445,-79.7828257184307,40.45894372732413,319.4749479980469,0.011594037525355816,-0.012144078500568868,0.8354382514953613,0.5493277907371521,0.09125326901463172,0.008102236006804809,3.024578109423443,0.029778398573398587,-0.011739843524992466,-0.0602373480796814,-0.15124722294509413,0.3492935134470463,-9.53221106350422
38.8,4.199999809265137,214.0,21.7456169128418,29.588550567626953,-79.78282575830609,40.458943674962356,320.07556063842776,0.009072347544133665,-0.01280756201595068,0.8357658982276917,0.548861563205719,0.07418103843878415,-0.004568571373288234,2.9923808435820107,0.06341342628002168,0.0039091655053198355,0.0608711764216423,-0.09974491093307734,0.03643783796578647,-9.749435709714893
39.0,4.199999809265137,215.0,21.70805549621582,32.49094772338867,-79.78282588405719,40.45894363482065,320.6923437805176,0.007543902378529309,-0.009050904773175716,0.8343452215194702,0.551116406917572,0.06945629460877721,0.019204429096546682,3.0071464600816467,-0.09170457720756532,-0.026092253625392917,0.02007272839546204,-0.05135048997122794,0.33582770470529805,-9.74893986582756
39.11,4.199999809265137,215.0,21.801958084106445,29.81120109558105,-79.7828259436004,40.45894354522861,321.0014372558594,0.007057958282530308,-0.007732965517789125,0.8334231972694397,0.552536129951477,0.07672323652885935,0.03380889772079385,3.0323482995526407,0.020158659666776657,0.001693771337158978,0.04065239056944847,-0.0441405533021316,0.2952937277220189,-9.838064296245577
39.2,4.199999809265137,216.0,21.71807098388672,31.711673736572266,-79.78282600124909,40.45894353216043,321.3044844360352,0.010581332258880137,-0.007945595309138298,0.8326542973518372,0.5536351203918457,0.06619958471786226,0.034492234094969355,3.024428187394756,-0.12667500972747806,0.06613526493310927,0.03623577207326889,-0.10357547672465443,0.20861736204475165,-9.715624185204506
39.41,4.199999809265137,217.0,21.561565399169922,34.8685302734375,-79.78282608359571,40.45894343725009,321.91276461791995,0.01636381819844246,-0.010199990123510359,0.8320498466491699,0.5543657541275024,0.12971715795902386,0.03639004506507617,3.027907095867198,0.003005302511155605,-0.014749085530638696,-0.009822099469602108,-0.14226243705488742,0.4894528075307608,-9.754883560538293
39.6,4.199999809265137,218.0,21.706802368164066,32.18082809448242,-79.78282612957497,40.45894344015723,322.21688754272463,0.015577950514853,-0.011801731772720814,0.8320620656013489,0.5543382167816162,0.13528758705393415,0.0353304672629314,3.0548321313296123,-0.0049843662418425074,-0.04971429333090782,0.08422122895717621,-0.10700316935777664,0.21829457703977825,-10.103574664592744
39.71,4.199999809265137,218.0,21.632932662963867,32.570465087890625,-79.78282611861106,40.458943276831434,322.82813555908206,0.019313272088766098,-0.012738176621496677,0.8316812515258789,0.5547713041305542,0.11354053907084,-0.002753646465116319,3.0774906729219165,0.041769396513700485,0.11467739194631575,0.053421802818775184,-0.11296587665565312,0.1537982900440693,-9.928374541997911
39.9,4.300000190734863,219.0,21.664234161376953,32.093360900878906,-79.78282605638623,40.458943114837886,323.43660266113284,0.020844466984272003,-0.01116598304361105,0.8323014974594116,0.5538187026977539,0.10573938607233767,0.013963074910608074,3.0979287669884354,0.013370116241276264,-0.045735664665699005,-0.030988885089755062,-0.0042282346996944395,0.3889079609513283,-9.933477991819382
40.0,4.400000095367432,212.0,21.69428253173828,29.771442413330078,-79.78282601955506,40.45894307302039,323.7472067565918,0.0213723722845316,-0.012736679054796696,0.8324412107467651,0.5535547137260437,0.08677535534169767,0.0032663545846176433,3.1067708664622766,0.0065674055367708215,-0.0425436906516552,-0.05214032530784607,-0.007965113706886769,0.3546174032986164,-9.830023205280305
40.11,4.400000095367432,212.0,21.753129959106445,30.773365020751953,-79.78282595042245,40.458942855367155,324.04065234375,0.020973479375243187,-0.013927998952567577,0.8325071930885315,0.5534419417381287,0.07865825902668974,-0.013983079288042379,3.0607195195760104,0.0378008596599102,-0.04754449799656868,-0.031590867787599564,0.006237453343346715,0.37287584580481054,-9.68060638010502
40.3,4.5,211.0,21.749372482299805,30.2962589263916,-79.78282581255219,40.45894273677351,324.64820391845706,0.014476361684501171,-0.015472003258764744,0.832710862159729,0.5533027052879333,0.05902806967926645,-0.04641013245164704,3.0358086528625154,0.09067563712596892,-0.0784902572631836,0.002757868729531765,-0.11602573374286294,0.3830984963849187,-9.760233178138733
40.51,4.5,216.0,21.71807098388672,30.009994506835927,-79.78282548213268,40.45894248746919,325.2453642578125,0.001895522582344711,-0.016945300623774532,0.8324190378189087,0.5538842678070068,0.013760340956117905,-0.08812102517954874,3.015172184103061,0.1197178065776825,-0.010836285538971424,0.06337539106607437,-0.15843520514667034,0.4744779420644045,-9.716978400349618
40.6,4.5,220.0,21.731843948364254,31.775287628173828,-79.78282520027281,40.458942232909905,325.5377264709473,7.054984598653391e-05,-0.01678662747144699,0.832021951675415,0.5544888377189636,-0.03856325698529475,-0.10975836814072,3.0019471712136467,-0.05716925859451294,0.035169944167137146,-0.022507937625050545,-0.17361163510009647,0.4504209254309535,-9.651509465575216
40.7,4.599999904632568,220.0,21.642948150634766,32.79311752319336,-79.78282513527927,40.45894216359483,325.8369856567383,0.0008085886365734041,-0.017054546624422073,0.8315231204032898,0.5552276968955994,-0.03214137188492769,-0.09763045117961147,2.9883831725439034,-0.04472063481807709,-0.02356567978858948,0.11421024799346925,-0.16862187707796694,0.2249087281152606,-9.75005200624466
40.9,4.599999904632568,220.0,21.630428314208984,32.78516387939453,-79.7828249342313,40.458941893232,326.4371824951172,0.00635405583307147,-0.017468411475419998,0.8310767412185669,0.55584716796875,0.01207507019783258,-0.07401009933502885,3.029926312153464,0.06097570061683655,0.060554608702659614,0.03799663484096527,-0.11996253613382578,0.4285430564358831,-9.98597312450409
41.1,4.599999904632568,227.0,21.809471130371094,28.79337310791016,-79.78282491497102,40.45894183570972,326.7416830749512,0.009409194812178612,-0.015702655538916588,0.8310632109642029,0.5558766722679138,0.040945798835057085,-0.051501119234472106,3.055363800427505,0.08244670927524568,0.05400184169411658,0.1423933207988739,-0.050228623989969495,0.29897385561838746,-10.047563016414642
41.2,4.599999904632568,221.0,21.590362548828125,32.896488189697266,-79.78282480751183,40.45894162290675,327.34210498046883,0.004583439324051143,-0.013634061440825462,0.8311464786529541,0.5558675527572632,0.0396612756136676,-0.027003013522797367,3.030983784214841,0.01324806921184063,-0.12295421212911604,-0.02605969458818436,-0.08290136670693755,0.3413218581676483,-9.660975522994997
41.4,4.599999904632568,221.0,21.72683525085449,30.28830718994141,-79.78282468849144,40.458941416713536,327.936217376709,0.006354966666549443,-0.014387170784175398,0.8318873047828674,0.5547217726707458,0.035876197662811006,-0.043497104772456524,3.009464283256849,-0.047095227986574166,0.04989899694919586,-0.03502404317259788,-0.10337272452190516,0.4115697222948074,-9.660615919232367
41.51,4.599999904632568,222.0,21.67800521850586,32.46709442138672,-79.78282469304509,40.458941391962064,328.23652560424813,0.00830660294741392,-0.013159404508769512,0.8321166038513184,0.5543825030326843,0.06032729677579257,-0.033310702779546134,2.992055853348964,-0.018819181248545647,0.007293942384421825,-0.02056259661912918,-0.1557959547266364,0.36867345191538337,-9.633754979968069
41.6,4.599999904632568,222.0,21.75438117980957,29.143251419067386,-79.78282460240631,40.45894124199751,328.52905184936526,0.00908637698739767,-0.013670332729816437,0.8322735428810121,0.5541222095489502,0.06689036225763513,-0.022948136476626274,2.9827082027599405,-0.04528450965881349,-0.02792080119252205,-0.011166082695126534,-0.09405103851109743,0.31001860644668344,-9.737186962366103
41.8,4.599999904632568,223.0,21.644201278686523,31.457218170166016,-79.78282460586655,40.4589412185096,329.12591082763674,0.010761529207229614,-0.016138287261128426,0.8321505188941956,0.5542106032371521,0.0866707528866592,-0.035189204399763516,2.991045139380983,-0.07514692097902298,-0.004870297387242317,-0.017442421987652782,-0.11986417500302195,0.3994426335766912,-9.89175459980965
42.0,4.599999904632568,223.0,21.676753997802734,30.57457160949707,-79.78282453936353,40.458941057387754,329.7214728088379,0.011395874433219431,-0.017175476998090744,0.8320546746253967,0.5543105602264404,0.10684888325844576,-0.041686012548684336,2.990224844127142,0.013210930861532688,-0.0354333259165287,-0.007303628139197826,-0.1518315151054412,0.502551886215806,-9.866943694353104
42.11,4.599999904632568,223.0,21.69428253173828,31.36179542541504,-79.78282445361572,40.45894093469856,330.012015411377,0.011018021963536741,-0.01781950332224369,0.8322223424911499,0.5540462136268616,0.10210919733940876,-0.043359362509383256,2.9895570897411603,0.038056712597608566,0.047036010771989815,-0.020489152520895004,-0.2093953158147633,0.3744024076312781,-9.802797399759292
42.2,4.599999904632568,225.0,21.58535385131836,33.20660781860352,-79.78282445488063,40.45894091931584,330.3113089294434,0.010697953402996063,-0.01845812238752842,0.8326587677001953,0.5533754229545593,0.10329987691025204,-0.045105039230900736,2.995627581912619,0.05609659478068352,-0.015315230004489422,0.13239850103855133,-0.17285612002015116,0.20262363709509373,-9.884972999095915
42.4,4.599999904632568,225.0,21.547792434692386,33.15094375610352,-79.78282433960996,40.45894076615107,330.90511996459963,0.009533416479825974,-0.01589496061205864,0.8330580592155457,0.5528749823570251,0.08826601826495946,-0.056840861158114535,3.023781439593087,-0.031864892691373825,-0.032175567001104355,-0.15803876519203186,-0.1880552444793284,0.4660621176660061,-9.938986068964004
42.6,4.599999904632568,226.0,21.710559844970703,30.328065872192386,-79.78282433217514,40.45894075043663,331.20859820556643,0.007996431551873684,-0.0162297934293747,0.8331981897354126,0.5526785850524902,0.07814082300387308,-0.04772599626520821,3.0445445842039303,-0.022552477195858955,-0.06540331244468689,0.0870799720287323,-0.1642589953914285,0.2957471792958677,-9.992600358724594
42.7,4.599999904632568,226.0,21.58159828186035,31.870710372924805,-79.78282429996226,40.458940637021726,331.8039694519043,0.0052629695273935795,-0.01630646362900734,0.8330239653587341,0.5529715418815613,0.09319692432162076,-0.06613023217897085,3.0373902268389257,0.09452494233846664,0.018868040293455124,-0.02403217181563377,-0.12355058865621685,0.368509364426136,-9.803711319565773
42.9,4.699999809265137,226.0,21.602882385253906,32.323959350585945,-79.78282426255345,40.45894048859662,332.3977652282715,0.008281753398478031,-0.015743983909487724,0.8337627649307251,0.5518363118171692,0.08810105494174164,-0.06355761281046847,3.022457811688974,-0.08509201556444168,-0.027777906507253647,-0.14355584979057312,-0.2715627847239375,0.1994062249548733,-9.758005973696713
43.0,4.699999809265137,227.0,21.70805549621582,29.827104568481445,-79.78282425647207,40.45894049151986,332.7004805297852,0.008685971610248089,-0.016939396038651466,0.8341491818428041,0.5512103438377379,0.09671116175428447,-0.05877497276037355,3.0259994466132896,-0.026685554534196854,-0.05510585382580757,0.019949477165937424,-0.20819919476285573,0.4644994492828846,-9.725892480611801
43.1,4.599999904632568,227.0,21.632932662963867,32.16492462158203,-79.78282416779109,40.45894039129765,332.99537951660164,0.008144584484398365,-0.01750924065709114,0.8343490362167358,0.5508982539176941,0.11100721420639008,-0.07636456857850896,3.009833741798734,0.08603924512863159,0.06656572967767715,0.022513745352625847,-0.2839762042835355,0.4781129367649555,-9.697751001119617
43.3,4.699999809265137,227.0,21.72933959960937,29.723730087280273,-79.78282413973552,40.45894042181187,333.59671313476565,0.005300962831825018,-0.01712504960596561,0.8335829973220825,0.5521032214164734,0.10140035717389036,-0.07823602776491327,3.0073050635898926,-0.013237513601779938,-0.015523949638009071,0.11637073010206225,-0.24663793165236714,0.18074796080589287,-9.838507515192033
43.4,4.699999809265137,228.0,21.63543701171875,31.194808959960927,-79.78282408471503,40.45894025487791,333.8925657958985,0.0038787552621215578,-0.01852092519402504,0.8330147266387941,0.5529271960258484,0.09066798015271088,-0.07579664132692393,3.011819137789247,-0.02021068334579468,-0.05999565869569778,-0.08518100529909134,-0.1548251890204847,0.4742576116696,-9.831628850698472
43.61,4.699999809265137,233.0,21.642948150634766,31.06758117675781,-79.78282401517485,40.458940150649255,334.49248797607424,0.0027276829350739717,-0.019658111035823825,0.8327508568763733,0.5532920360565186,0.0934929179391911,-0.08760523142855173,3.0160952854623955,0.010379689745604992,0.07715731859207152,-0.005999865476042032,-0.2809133779071272,0.3020010687969625,-9.793612008690834
43.8,4.699999809265137,233.0,21.66798973083496,31.60830116271973,-79.78282404888594,40.45894018329231,335.0985213012696,0.008919625543057919,-0.018851881846785545,0.8326453566551208,0.5534136891365051,0.11375244608731284,-0.06800166233746383,3.0394722737511763,-0.11399468779563905,0.012858375906944277,-0.06312765926122665,-0.16623900879174472,0.10532754007726908,-9.940713336467745
43.9,4.699999809265137,233.0,21.67174530029297,29.636260986328125,-79.78282392465555,40.458940086275675,335.40071398925784,0.009499821811914444,-0.018481429666280743,0.832676351070404,0.5533699989318848,0.1258542928616262,-0.061925870487428564,3.0496376244442662,-0.09695377200841904,-0.07463488727807999,-0.055037885904312134,-0.0951421654969454,0.4749170314148069,-9.935785303115843
44.0,4.699999809265137,229.0,21.684267044067386,30.15312576293945,-79.78282393971631,40.45894010640128,335.7065153808594,0.007976630702614784,-0.02018701657652855,0.8329222798347473,0.5529642701148987,0.13809668722711307,-0.057696146428997966,3.0554701880163533,0.07564439624547957,-0.07250996679067613,0.02532959170639515,-0.2534587452560663,0.3124339815974236,-9.84364604830742
44.2,4.699999809265137,232.0,21.59537124633789,32.69769287109375,-79.78282387974303,40.45894003901857,336.3090849609375,0.005352998152375221,-0.02283271960914135,0.833705723285675,0.5517107248306274,0.12093407289221313,-0.08519844997232437,3.0593062941184197,-0.03400189056992532,-0.03824261575937271,0.02710381336510181,-0.3162196882814169,0.13623572101816536,-9.908346658945083
44.4,4.599999904632568,232.0,21.709306716918945,30.97216033935547,-79.78282380950995,40.45893996343725,336.9161864013672,0.00854463130235672,-0.022599918767809868,0.8344475030899048,0.5505576133728027,0.1271724328845243,-0.08870594482287486,3.081485251782601,0.04269856587052345,0.021131085231900208,0.06347715109586716,-0.3476523827388883,0.4858429558575154,-10.009324564933776
44.5,4.599999904632568,232.0,21.680509567260746,31.39360427856445,-79.78282383104003,40.45893996507333,337.22420794677737,0.006509977858513594,-0.021042224019765854,0.8345955610275269,0.5504228472709656,0.12462304582553785,-0.06813953545478145,3.0703870976811336,0.03605897352099418,0.023281356319785118,-0.019892992451787,-0.2677347770892084,0.3992150307074189,-9.715837023854256
44.6,4.599999904632568,232.0,21.659225463867188,32.20468521118164,-79.78282379353845,40.45893985217157,337.52459246826174,0.004194664768874645,-0.02040241658687592,0.834594190120697,0.5504714250564575,0.1164964856968588,-0.062347380136525125,3.040575086016553,0.13998767733573916,0.038933731615543365,0.08879122883081436,-0.2491535500064493,0.13286324802786112,-9.635743618011476
44.8,4.599999904632568,234.0,21.75062561035156,29.874814987182607,-79.78282388028553,40.45893982390533,338.1288557739258,0.005029885098338127,-0.01999562978744507,0.8346842527389526,0.550342857837677,0.08796886682499208,-0.04724769357374834,2.9956739235939263,-0.01987873576581478,0.06659967452287674,0.02358517423272133,-0.18648879367858173,0.2078184679336846,-9.56678681910038
44.9,4.599999904632568,235.0,21.574085235595703,32.4432373046875,-79.78282382777236,40.45893971164555,338.4281340332032,0.007079455070197581,-0.01738280616700649,0.8348239064216614,0.5501971840858461,0.08080631170491702,-0.040558073065180784,2.9656521364070763,-0.062230233103036874,0.05579845607280731,-0.07490383833646774,-0.17370645135641102,0.4520364745706321,-9.477207475304603
45.1,4.599999904632568,235.0,21.8570499420166,27.62446212768555,-79.78282378068424,40.45893955373897,339.0286589355469,0.009351419284939766,-0.011430548503994942,0.8355913758277893,0.5491529703140259,0.09514103579200923,-0.0023621686224117346,2.931645340457055,0.1439742147922516,0.027560891583561897,-0.004120157565921545,-0.11718947583809496,0.2100084329210222,-9.384937242865565
45.3,4.5,227.0,22.007295608520508,23.43387794494629,-79.78282381126115,40.45893953644429,339.3184996337892,0.008151372894644737,-0.011779314838349821,0.8359307646751404,0.5486479997634888,0.07235977574199626,0.000697008335512,2.86147270310196,-0.0039342371746897715,-0.008510495536029339,-0.07160810381174088,-0.1288209399394691,0.2458919548429549,-9.154609571099284
45.4,4.5,229.0,21.89961814880371,25.859169006347656,-79.78282383106111,40.45893952025534,339.6001234741211,0.007184739690274,-0.012970132753252985,0.8358750343322754,0.548719584941864,0.06614802261824249,-0.01329750773468645,2.7629480600488487,0.05027337744832039,-0.035112183541059494,-0.07787196338176727,-0.139953618273139,0.2502126086689532,-8.816010176539422
45.6,4.400000095367432,229.0,21.99352264404297,24.6027889251709,-79.78282379018084,40.458939256418546,340.41363818359383,0.0031221427489072084,-0.016201779246330258,0.834661066532135,0.5505167841911316,0.044725636257145096,-0.04016101507576955,2.441672678274914,-0.039970505982637405,0.03855268284678458,0.06408654898405075,-0.2138632463850081,0.23095566272735604,-8.558762508630753
45.7,4.400000095367432,230.0,22.052370071411133,22.185449600219727,-79.7828237997112,40.458939242172704,340.6503935546875,0.0031276626978069553,-0.01620084047317505,0.834240198135376,0.551154375076294,0.04176919735980484,-0.04264953334973506,2.2958942589336897,0.02111569792032241,0.05369839444756508,0.009666148573160172,-0.1648484678193927,0.2876826263777912,-8.378746034502981
45.8,4.300000190734863,234.0,21.95345687866211,25.18326759338379,-79.78282381226185,40.458939230851186,340.8727064819336,0.003915437962859869,-0.015716277062892914,0.8337581753730774,0.5518921613693237,0.039671607987105284,-0.03860507677300323,2.149231639277461,-0.07795120030641556,-0.055166278034448624,0.05716799199581146,-0.2272212288156152,0.2740978450700641,-8.367398927807809
46.01,4.300000190734863,230.0,21.81447982788086,26.60663604736328,-79.78282375805931,40.45893911488125,341.28883654785164,0.009028156287968159,-0.014100137166678904,0.83356112241745,0.5521734952926636,0.03919270390394068,-0.03018195024747257,1.941265225704176,-0.04705078154802322,0.10518861562013626,0.11321530491113665,-0.2544232800230384,0.15140252133831386,-8.666025002002716
46.2,4.300000190734863,231.0,21.99352264404297,23.799659729003906,-79.78282365490222,40.45893899398809,341.68548114013674,0.011762366630136968,-0.01522960513830185,0.8339461088180542,0.5515103936195374,0.04057746300161305,-0.030481628807939105,1.8282996278483388,-0.027506399899721142,-0.016267845407128334,-0.05348807945847511,-0.26918377194553617,0.2370737871900201,-9.011524695754053
46.3,4.199999809265137,231.0,21.96597671508789,24.817485809326172,-79.78282362437447,40.4589389794116,341.86390216064456,0.0104090366512537,-0.01677585020661354,0.8336808681488037,0.5518936514854431,0.035600198597556636,-0.0433581305182798,1.7401648979334232,0.014813160523772241,-0.08086809515953064,-0.05510375648736954,-0.18078446935862305,0.2735884612239897,-9.005576907992364
46.4,4.199999809265137,231.0,21.90462684631348,26.272661209106445,-79.78282349549484,40.458938860560295,342.0768080444336,0.0075275576673448094,-0.017020279541611668,0.8335803747177124,0.5520848035812378,0.02368606135386513,-0.06294915709704546,1.7090374701184072,-0.07522182911634445,-0.1041928380727768,0.05082552134990692,-0.2397231788747013,0.24559822361916306,-9.057515970468524
