time,wind_speed,wind_angle,battery_voltage,battery_current,position_x,position_y,position_z,orientation_x,orientation_y,orientation_z,orientation_w,velocity_x,velocity_y,velocity_z,angular_x,angular_y,angular_z,linear_acceleration_x,linear_acceleration_y,linear_acceleration_z
0.0,1.100000023841858,137.0,25.78973960876465,-0.02385532110929489,-79.78282592515143,40.45891844592445,268.6768367347717,0.021133838221430785,0.015869054943323142,0.9215156435966492,0.38744106888771057,-0.03109322874551313,-0.013605728382074769,0.02109066734083205,-0.005049686878919602,-0.0018794740317389367,-0.001400226610712707,0.4152811693400145,0.21857140615582468,-9.802883938550947
0.2,1.100000023841858,136.0,25.79224395751953,-0.05566241592168808,-79.78282601710399,40.45891841002,268.7039227542877,0.02109885960817337,0.015882333740592003,0.9215193390846252,0.3874335885047913,-0.021100634810550842,-0.015299237866552287,0.020694978268995485,-0.0011361056240275502,0.0012836357345804572,-0.0026876411866396666,0.4152407870069145,0.2267432189360261,-9.803628873825074
0.31,1.2000000476837158,135.0,25.7872371673584,-0.04771064221858978,-79.78282594530431,40.45891840168693,268.7079315242767,0.02109563909471035,0.015899116173386574,0.9215250611305236,0.3874193727970123,-0.029726132119034507,-0.02109519454170404,0.02253273175578849,-0.006554026156663896,-0.00100515631493181,-0.0060822581872344034,0.4180363042652607,0.20740728076547385,-9.804511803388596
0.5,1.2000000476837158,134.0,25.78598403930664,-0.039758868515491486,-79.7828260167217,40.45891832023445,268.73470807647703,0.02109522745013237,0.015883537009358406,0.9215280413627625,0.38741299510002136,-0.02848581644537915,-0.01709192407437953,0.02208655207900196,0.0063880542293190965,0.0029470077715814114,0.005126422736793757,0.41793288163840775,0.208960885964334,-9.804607113003732
0.6,1.2000000476837158,136.0,25.78973960876465,-0.039758868515491486,-79.7828261107487,40.45891826369528,268.763457780838,0.021030807867646217,0.01587807759642601,0.9215363264083862,0.387397050857544,-0.0190079581929964,-0.0130433439440949,0.02128225843278881,0.006182759068906307,0.004568292759358883,0.006325302645564079,0.4128356444835663,0.2237027398869396,-9.803525378108024
0.8,1.2999999523162842,136.0,25.79474830627441,-0.039758868515491486,-79.78282607937955,40.4589182590176,268.765522485733,0.02105896733701229,0.015882179141044617,0.9215404391288756,0.3873856067657471,-0.02436710392598256,-0.015745804764108702,0.022512126442493847,-0.007171149365603924,-0.0009969630045816302,0.00012093901023035869,0.4156215503811837,0.21728231437504286,-9.805733286738397
0.91,1.2999999523162842,131.0,25.782228469848643,-0.015903547406196594,-79.78282616520814,40.45891816912845,268.79425979232786,0.021013012155890458,0.015879767015576363,0.9215485453605652,0.387368768453598,-0.0237095185361055,-0.01000298472832485,0.02196311293277794,-0.002557788509875536,0.0020062851253896947,0.0009142712806351484,0.4151826072111726,0.21793002141639592,-9.804193130135538
1.1,1.399999976158142,132.0,25.79224395751953,-0.039758868515491486,-79.78282613576691,40.45891816071513,268.79638076400755,0.020998850464820862,0.01588374748826027,0.9215475916862488,0.3873717784881592,-0.027302194738303767,-0.012928478423083551,0.02290934243618136,0.0012476553674787285,-0.0010692290961742401,0.00017804566596169025,0.4145455530658365,0.22450302271172407,-9.803492633700367
1.2,1.399999976158142,131.0,25.79099273681641,-0.039758868515491486,-79.78282623646204,40.45891808865395,268.8227977809906,0.020981360226869583,0.015872037038207054,0.9215539693832396,0.3873579204082489,-0.02412833362062877,-0.01048628817196769,0.01907656545536584,-0.0018658537883311512,-0.0005518284160643816,-0.003436269937083125,0.4173212628811598,0.20793614314869047,-9.80386919438839
1.4,1.399999976158142,129.0,25.79224395751953,-0.007951773703098297,-79.78282620668683,40.45891807999212,268.824625497818,0.020977865904569626,0.015863677486777306,0.9215608835220336,0.38734200596809387,-0.02727047354323792,-0.013277854069378349,0.019922243257904648,0.002869962016120553,-0.0004164233105257154,0.004983697086572647,0.418026692904532,0.20719292549416424,-9.804207163453103
1.5,1.399999976158142,128.0,25.796001434326172,-0.02385532110929489,-79.78282628376958,40.45891802834048,268.85304856872557,0.020917713642120358,0.01588292419910431,0.9215753078460692,0.3873102366924286,-0.02381642159686199,-0.014605463802553497,0.02065102716453756,0.003314861096441745,0.0015217657200992107,0.002988732187077403,0.41393119342625145,0.2301968585886061,-9.802563511133192
1.7,1.399999976158142,128.0,25.782228469848643,-0.039758868515491486,-79.78282640770318,40.458917968171676,268.8770618495941,0.020898567512631416,0.015872089192271233,0.9215766787528992,0.3873084485530853,-0.017965586790590727,-0.008673570036103572,0.016000439402769937,-0.004449488595128059,0.0005625426420010626,-0.008101616054773329,0.41440613351762295,0.2286774047836661,-9.803199103474617
1.8,1.5,129.0,25.775968551635746,-0.039758868515491486,-79.78282635471044,40.45891795625139,268.88022161102293,0.02090916596353054,0.01588665135204792,0.92158442735672,0.3872890472412109,-0.02552608043387964,-0.014108919333365482,0.017989609976726696,-0.00974917970597744,-0.0008201909950003027,-0.006931980140507221,0.4182049598917365,0.20900488626211888,-9.80512985408306
2.0,1.600000023841858,128.0,25.77972412109375,-0.02385532110929489,-79.78282649192833,40.45891790011801,268.90441322898863,0.020884258672595024,0.015890764072537422,0.9215891361236572,0.38727867603302,-0.017048588887863685,-0.008770591048314225,0.013779873236260351,0.0044741956517100325,0.004590453114360571,0.0039299968630075455,0.4167498437315226,0.2112103098258377,-9.805273695588113
2.1,1.7000000476837158,130.0,25.778472900390625,-0.03180709481239319,-79.78282646844286,40.45891789411801,268.9057471809387,0.0208745226264,0.0158949363976717,0.9215916991233826,0.3872730433940888,-0.02208685112999207,-0.011320884995020786,0.014919720116701653,-0.0032219423446804285,0.0028755029197782282,-0.008337650448083878,0.4124246583133936,0.2265024050138891,-9.803293243646623
2.3,1.7999999523162842,130.0,25.79349708557129,-0.039758868515491486,-79.78282654938236,40.45891784914969,268.931773191452,0.02090062201023101,0.015912314876914024,0.9215916991233826,0.3872710764408112,-0.02023162367664288,-0.01444155171992982,0.013723030860849264,-0.008772379718720913,0.0007482995861209929,-0.005992574617266655,0.41428330544382336,0.2304176640696824,-9.801914470195769
2.4,1.8999999761581416,135.0,25.79224395751953,-0.02385532110929489,-79.7828266539634,40.45891778632199,268.9565024433136,0.020864589139819145,0.015913797542452812,0.9215919971466064,0.3872720301151276,-0.01721324715451459,-0.010711636578223086,0.012433308756325659,-0.001160274026915431,-0.002955569187179208,-0.0039884820580482466,0.4181867238879204,0.2070138727873564,-9.804338141083717
2.6,1.8999999761581416,135.0,25.78473281860352,-0.03180709481239319,-79.78282663040028,40.45891778244975,268.95768261528013,0.02084662951529026,0.015922894701361656,0.9215998649597168,0.3872538805007935,-0.02035110266236085,-0.013404072922068641,0.013293412323955034,0.0012914730468764901,0.0010069620329886675,0.005798526108264922,0.4162779003381729,0.2083885531872511,-9.804459178447724
2.7,2.0,136.0,25.788488388061523,-0.04771064221858978,-79.78282669251799,40.45891772250235,268.983996635437,0.02084563858807087,0.01592271588742733,0.9216113090515136,0.38722681999206543,-0.02191344046691784,-0.014181405944579556,0.01557358013904756,-0.0026385763194412,-0.002334097167477012,0.0006345395813696086,0.4153291530534625,0.22239935897290708,-9.802768163681028
2.9,2.0,138.0,25.782228469848643,-0.02385532110929489,-79.78282666274977,40.45891771794035,268.98546767807005,0.020814567804336548,0.01593643240630627,0.9216150641441344,0.3872190117835999,-0.02451398546361861,-0.017007535171538274,0.016484183206881664,0.00450286827981472,0.002502466319128871,0.005450312979519367,0.4142581258714199,0.21642556937411428,-9.80403408586979
3.0,2.0999999046325684,140.0,25.79099273681641,-0.007951773703098297,-79.78282674522036,40.45891768209978,269.01116085624693,0.02079751156270504,0.015938341617584232,0.9216322302818298,0.3871789276599884,-0.020429512741506718,-0.01839802327083766,0.01792682197899399,0.007384800352156162,0.0009127716766670344,0.004798775538802147,0.4148085315898061,0.2203056355006993,-9.806083534955981
3.2,2.0999999046325684,142.0,25.78973960876465,-0.03180709481239319,-79.78282686047051,40.45891760961723,269.032781129837,0.020789183676242832,0.015932152047753334,0.9216413497924804,0.38715797662734985,-0.02025948939017102,-0.01077342324226511,0.01427202519232904,-0.007080578710883856,-0.0012807813473045824,-0.008027324452996254,0.4138676049560309,0.2250996945239604,-9.804322938323024
3.31,2.0999999046325684,139.0,25.78973960876465,-0.039758868515491486,-79.78282679949018,40.458917597579116,269.0355663356781,0.020793873816728592,0.015948180109262466,0.9216507077217102,0.3871346712112427,-0.02750404445873738,-0.016395415804655263,0.01627814782523415,-0.010515776462852957,-0.003310047555714845,-0.006314292084425689,0.4178367314860225,0.2090432403422892,-9.806268891692161
3.5,2.0999999046325684,141.0,25.782228469848643,-0.015903547406196594,-79.78282688690062,40.458917550416494,269.05719256973265,0.0207910630851984,0.015948126092553142,0.9216521382331848,0.3871315121650696,-0.02326491355860734,-0.014835688844422094,0.0141678617869665,0.007988396100699902,0.0034766248427331448,0.003971269354224205,0.417860631980002,0.20999684812501074,-9.805727439522745
3.61,1.8999999761581416,145.0,25.78473281860352,-0.03180709481239319,-79.7828270015141,40.45891750097688,269.0791297016144,0.02070544101297856,0.01591905578970909,0.9216587543487548,0.3871215283870697,-0.014837631626620643,-0.007969653487292158,0.01159415452371882,0.0052186730317771435,0.003043576143682003,0.004500276409089565,0.413436263166368,0.2267773886024952,-9.80344351708889
3.81,1.8999999761581416,140.0,25.79474830627441,-0.03180709481239319,-79.78282697877628,40.458917495909255,269.0802619514465,0.020709021016955376,0.015910668298602104,0.921664834022522,0.3871072828769684,-0.019607455273340808,-0.01062802540978602,0.01277096073862473,-0.005916236899793148,-0.0006643473752774298,-0.00468872906640172,0.4139095952734351,0.22078560054302213,-9.805418121814727
3.9,1.7999999523162842,140.0,25.801008224487305,-0.03180709481239319,-79.7828271092352,40.45891744776539,269.1019487438202,0.0206761471927166,0.015918618068099022,0.9216724634170532,0.3870905041694641,-0.012403577624338406,-0.005018579262028824,0.010548003686450971,-0.003625436220318079,-0.0032559174578636885,0.004215869586914778,0.4145224200189114,0.2155116678401828,-9.804453331232072
4.0,1.7000000476837158,139.0,25.77721977233887,-0.02385532110929489,-79.78282709371125,40.45891744344495,269.10298967933653,0.020637402310967445,0.01594388298690319,0.921673059463501,0.38709014654159546,-0.015357258643038003,-0.007793903884144466,0.011538843767057341,0.0017973452340811489,-0.001268285675905645,0.002114589791744948,0.4159076254069805,0.21265749569982287,-9.806941321492195
4.2,1.7000000476837158,139.0,25.78598403930664,-0.03180709481239319,-79.78282716420779,40.45891741842187,269.1239929256439,0.02065696567296981,0.015941845253109932,0.9216752052307128,0.3870840966701508,-0.012701096658183728,-0.011918690588988996,0.009864392155271708,0.002743826247751713,0.0008486215374432504,0.003908515442162752,0.4169181704521179,0.2082060286961496,-9.804874915480614
4.3,1.5,136.0,25.78973960876465,-0.039758868515491486,-79.78282711317195,40.458917416135776,269.1259636936188,0.02069551311433316,0.015977827832102776,0.921675741672516,0.387079119682312,-0.01916975550930593,-0.017425146153999822,0.0118515039677793,0.006544468924403191,0.0013243242865428329,0.005839474499225617,0.4159847721084953,0.2309241973981261,-9.803493218421936
4.5,1.5,135.0,25.780975341796875,-0.015903547406196594,-79.78282727394149,40.45891735540899,269.1465690193176,0.020677875727415085,0.015958912670612342,0.9216853976249696,0.387057900428772,-0.013644932394657468,-0.0044000871372175225,0.009244553577939294,-0.007047090213745832,3.9306596022470325e-07,-0.004860846791416407,0.4140626095980406,0.2217667267844081,-9.80442643404007
4.6,1.399999976158142,134.0,25.778472900390625,-0.02385532110929489,-79.78282725839144,40.458917350145434,269.1474759635925,0.020661309361457825,0.01597626879811287,0.9216833710670472,0.3870630562305449,-0.015934866171168568,-0.007363117357808525,0.010112457020009472,0.005336435046046972,0.00046776921954005957,0.00052501360187307,0.41537852548062804,0.2158817417733372,-9.804198392629623
4.8,1.399999976158142,132.0,25.79349708557129,-0.03180709481239319,-79.78282731254224,40.45891731819053,269.1690790710449,0.020681118592619896,0.015986710786819458,0.9216923117637634,0.3870402574539185,-0.017728794582743592,-0.012443959576091821,0.0109878058664148,0.001899419701658189,0.0011146730976179242,-0.000492660969030112,0.4140752907469869,0.2233969853259623,-9.804956191778183
4.9,1.2999999523162842,133.0,25.782228469848643,-0.02385532110929489,-79.78282739084207,40.458917297465895,269.1901826915741,0.020646179094910615,0.015992870554327958,0.9217042326927184,0.3870133757591248,-0.014242373744452945,-0.012823452427247715,0.0104991347957069,-0.0032652278896421194,-0.0008919672109186648,-0.00791671685874462,0.416115859374404,0.2091842313297093,-9.807143635153775
5.1,1.2999999523162842,136.0,25.780975341796875,-0.015903547406196594,-79.78282736741113,40.45891729691893,269.1911690292358,0.020638415589928627,0.01599021628499031,0.9217128157615662,0.3869934678077698,-0.016483066493918574,-0.015659696191683174,0.011337305118252226,0.004555066581815481,0.0012463150778785348,0.005429074633866549,0.4186803385242821,0.2091284086927772,-9.805702296495438
5.2,1.2999999523162842,138.0,25.79474830627441,-0.007951773703098297,-79.78282746885199,40.458917244298966,269.2089674530029,0.02065216191112995,0.015966298058629036,0.9217239022254944,0.3869673907756805,-0.01641501024215233,-0.009268290554418758,0.005861595377984744,0.004850318655371666,0.0023545417934656143,0.0018672996666282413,0.41413149710744623,0.2275896947644651,-9.803124843835832
5.4,1.2000000476837158,136.0,25.788488388061523,-0.02385532110929489,-79.78282744631943,40.45891723924368,269.20951796150206,0.020648803561925888,0.015968818217515945,0.9217318296432496,0.3869484066963196,-0.02072250759963043,-0.011737394807928616,0.0070302795245488535,-0.010372938588261604,-0.003433809615671635,-0.004158716183155775,0.4148155117034912,0.21910902108997107,-9.80530234694481
5.51,1.2000000476837158,134.0,25.797252655029297,-0.007951773703098297,-79.78282753152905,40.45891722712183,269.22778869247435,0.020624225959181786,0.015969887375831604,0.9217417240142822,0.3869262635707855,-0.016385391385687603,-0.0133675729035442,0.004822399148692044,-0.0030013893265277147,-0.0018387804739177227,-0.0004979483201168479,0.4149873467534781,0.2176352669298649,-9.803708395957948
5.7,1.2000000476837158,135.0,25.7872371673584,0.05566241592168808,-79.78282762477438,40.4589171878964,269.24504376029967,0.020616671070456505,0.01597062312066555,0.9217454195022584,0.38691797852516174,-0.014894748081013981,-0.008077627876166206,0.002281594478591357,-0.0009672465967014432,0.002330154646188021,0.0005811972077935934,0.4147284247353673,0.2245064944960177,-9.803713658452033
5.81,1.2000000476837158,140.0,25.78347969055176,-0.03180709481239319,-79.78282757909645,40.45891717866451,269.24550033187865,0.0206085667014122,0.01597442477941513,0.9217501282691956,0.3869068026542664,-0.021667808342604608,-0.01342719528671292,0.004193990998381416,-0.0037129907868802547,-0.0005071082268841567,-0.00200021849013865,0.4162930300086737,0.20788121586665512,-9.805445019006733
6.0,1.2000000476837158,139.0,25.775968551635746,0.03180709481239319,-79.78282770774155,40.45891715810144,269.2639803943634,0.02057159505784512,0.015964824706315994,0.9217576384544371,0.3868912756443024,-0.011535208262187685,-0.0062237030820430535,0.004306331667843818,0.004023144021630286,0.0030803647823631763,0.0062603047117590896,0.41766230173408986,0.20938239712268114,-9.805967175364495
6.1,1.2000000476837158,143.0,25.78347969055176,0.07156596332788467,-79.78282776487339,40.45891711353893,269.2830097732544,0.02054146490991116,0.01594763994216919,0.9217627048492432,0.3868816792964935,-0.015047447356882557,-0.006000118691164417,0.005669699474373346,0.009523848071694374,0.0025783386081457142,0.0064231944270432,0.4142494646832347,0.22744640143588185,-9.803014916181564
6.3,1.2999999523162842,143.0,25.77972412109375,0.05566241592168808,-79.78282774410633,40.458917107104135,269.28355217552183,0.020555354654788967,0.015958650037646294,0.9217698574066162,0.3868632614612579,-0.019338661956549368,-0.008534429417447179,0.006746670972013532,-0.00849379226565361,-0.003469520015642047,-0.0021381278056651354,0.4154689015075565,0.218693868778646,-9.805278373360633
6.4,1.399999976158142,146.0,25.78347969055176,0.13518016040325165,-79.78282783110863,40.45891709466722,269.3020606098175,0.020507486537098885,0.01599712111055851,0.921778678894043,0.3868432343006134,-0.012429187058560377,-0.00958530216763848,0.007326639165202056,-0.00030727780540473765,-0.003952786326408386,0.003324352437630296,0.4145547989755869,0.219898596201092,-9.803700209856034
6.6,1.399999976158142,147.0,25.76970863342285,0.06361418962478638,-79.78282781222222,40.45891709309501,269.3027563152313,0.02049211785197258,0.015995381399989128,0.9217816591262816,0.3868370056152344,-0.01521674480402906,-0.012269182262143023,0.008299611056206694,0.002555979415774345,-0.0016356095438823106,-0.002677684184163809,0.4157706543803215,0.2256175568327308,-9.804174419045447
6.71,1.5,141.0,25.7722110748291,0.06361418962478638,-79.78282784867484,40.45891705364521,269.3208601531982,0.02051425538957119,0.015996217727661133,0.9217877388000488,0.3868213295936585,-0.01974138697156016,-0.01241654350461335,0.009190305503989131,-0.006684247869998218,0.000650356465484947,-0.004302567336708307,0.4183763198554516,0.20864853501319885,-9.80570814371109
6.9,1.5,141.0,25.7872371673584,0.05566241592168808,-79.78282782199109,40.45891704901289,269.3217058238983,0.020525181666016586,0.015988947823643684,0.921794056892395,0.3868059515953064,-0.02189565955559289,-0.015039756742332431,0.010034919844215912,0.0045282188802957535,-0.0005727473762817683,0.006627293769270182,0.4185982216894627,0.20644258154556155,-9.805932092070579
7.0,1.600000023841858,143.0,25.77972412109375,0.07951773703098297,-79.78282788598236,40.45891703875148,269.3375716266632,0.020475633442401886,0.015994006767868996,0.92180073261261,0.3867924809455872,-0.017448361018790534,-0.016109791250421533,0.0071628208676785205,0.006079634185880423,0.005649502854794264,0.004762987140566111,0.413180593661964,0.22990056920796634,-9.803603730797768
7.21,1.7000000476837158,147.0,25.788488388061523,0.07951773703098297,-79.78282799641875,40.45891701369029,269.3521227893829,0.02042828872799873,0.015987098217010498,0.9218064546585084,0.3867815136909485,-0.01121902737712923,-0.008845485149290941,0.002319191130489001,-0.005720524583011866,-0.0002203760668635368,-0.005885668098926543,0.4136625869572163,0.2307170963287353,-9.803849898576736
7.3,1.7999999523162842,147.0,25.78598403930664,0.05566241592168808,-79.78282795576388,40.458917010786365,269.35261631584166,0.020414181053638455,0.015997214242815968,0.9218176007270812,0.3867553472518921,-0.01709560039816667,-0.014078128418076697,0.0044072382751503755,-0.0032584350556135178,-0.00023838554625399408,-0.004584357142448425,0.4147245144098997,0.2280312874540687,-9.804738675355912
7.5,1.7999999523162842,148.0,25.782228469848643,0.08746951073408127,-79.78282802603704,40.45891698435858,269.3695895729065,0.02042651362717152,0.016002444550395012,0.9218276143074036,0.3867305815219879,-0.014269210140678994,-0.011916667960756784,0.005083487030772689,0.0020209529902786016,-0.00295841577462852,0.004247868899255991,0.4175949125736952,0.20852203415706755,-9.804997707009317
7.6,1.7999999523162842,154.0,25.780975341796875,0.07156596332788467,-79.78282809450933,40.45891696666722,269.38612771606444,0.020397450774908062,0.015990959480404854,0.9218375682830808,0.3867088854312897,-0.009390846680047558,-0.010484679482137077,0.005957461736307779,0.0003194166929461062,0.000370870518963784,0.003940884955227375,0.41732042234390976,0.2077164705656469,-9.806140837669373
7.8,1.7999999523162842,156.0,25.78347969055176,0.09542128443717957,-79.78282807526145,40.45891696729953,269.3866853771209,0.02039463073015213,0.016002390533685684,0.9218364953994752,0.3867112100124359,-0.012286071416558466,-0.01319001305353541,0.0068267700691930795,-0.0003472187090665102,0.0004887107643298805,0.00018401640409138048,0.4166527434065938,0.22399513721466066,-9.803616009950636
7.9,1.7000000476837158,158.0,25.788488388061523,0.07951773703098297,-79.78282813242065,40.45891695952282,269.40379119491575,0.02035811543464661,0.016037655994296074,0.9218459129333496,0.3866892158985138,-0.008408037747046798,-0.014422139047873388,0.008096094477450773,-0.0017459820955991745,-0.0007824969361536205,-0.0003902393509633839,0.4167107770219445,0.2098004182241857,-9.805994657278061
8.1,1.7000000476837158,159.0,25.77346420288086,0.08746951073408127,-79.78282811275467,40.45891696352444,269.40455079650883,0.020340392366051674,0.016034897416830063,0.9218535423278807,0.3866719603538513,-0.010558750799886696,-0.01702129001270201,0.008998122131623699,0.0006961698527447879,0.0014866514829918742,0.004654550924897194,0.4166277465596796,0.2077380869910121,-9.804991859793665
8.2,1.600000023841858,167.0,25.788488388061523,0.07951773703098297,-79.78282824047244,40.458917011452506,269.41896772956846,0.02028375864028931,0.01604606956243515,0.9218563437461852,0.3866678178310394,0.006004359166738782,-0.0171804096511202,0.006804677656640179,0.007102455943822861,0.0024180796463042498,0.0043122097849845895,0.4138168072700501,0.23022633221000435,-9.803715997338298
8.4,1.5,166.0,25.78473281860352,0.07156596332788467,-79.78282823033986,40.45891702593935,269.41963434791563,0.020287737250328064,0.016049753874540332,0.9218611121177672,0.3866562247276306,0.002348440732858707,-0.01944176085160978,0.00793187777785747,-0.006204433273524046,-0.003569903550669551,-0.0036795875057578096,0.4140150644257665,0.22485060313716526,-9.80359612941742
8.5,1.399999976158142,170.0,25.788488388061523,0.08746951073408127,-79.78282831673422,40.458916982756854,269.43474364852904,0.020265771076083183,0.015992753207683563,0.9218531250953674,0.38667863607406616,-0.0016289424389467676,-0.012910318900715137,0.007596580501684347,-0.008109417743980885,-0.002422682708129287,-0.0033451458439230928,0.4164238249137998,0.21158456817269328,-9.80586192548275
8.7,1.2999999523162842,172.0,25.77972412109375,0.07951773703098297,-79.78282836033166,40.45891696694043,269.44905782318114,0.02025224827229977,0.016005611047148705,0.9218528866767884,0.3866795003414154,-0.001255071846847067,-0.013720592669436408,0.007612627923860325,0.0030599236488342285,0.003403581213206053,0.0009489365620538592,0.4153605087473989,0.21771400334313512,-9.804819366931916
8.8,1.2000000476837158,174.0,25.77972412109375,0.02385532110929489,-79.7828283275033,40.45891698232476,269.4506132659912,0.020235111936926842,0.016003059223294258,0.9218576550483704,0.3866691887378693,-0.006832359143096782,-0.018663086573421608,0.009570239334386095,0.001995502039790153,0.0011277870507910848,0.0006975962896831334,0.4156841521337629,0.2239132213778794,-9.803575079441071
9.0,1.2000000476837158,174.0,25.78347969055176,0.0,-79.78282843182564,40.458916943686006,269.46177816963194,0.020227519795298576,0.015988010913133618,0.9218559861183168,0.3866741359233856,-0.002043206571139261,-0.009248620329039071,0.003995563324244347,0.002908485708758235,0.0009024947648867963,0.005954286083579063,0.4175630817934871,0.20758605938404806,-9.805216977596283
9.1,1.100000023841858,174.0,25.78973960876465,0.015903547406196594,-79.78282846014487,40.45891693041548,269.47442532157896,0.020225347951054573,0.015987815335392952,0.9218636751174928,0.3866558074951172,-0.003227097453567766,-0.012529450698720431,0.00248888658944313,0.007899384945631027,0.005540698301047087,0.004584533628076315,0.4172733522579074,0.2111595121398568,-9.806280001401902
9.31,1.100000023841858,175.0,25.78973960876465,0.0,-79.7828284442555,40.45891693575525,269.4746544418335,0.02023521065711975,0.01599813066422939,0.9218755960464478,0.3866265118122101,-0.0069085142021110026,-0.014779664161744482,0.0035676371834446685,-0.007608648855239153,-0.004501559305936097,-0.005575680173933506,0.4145781878381968,0.21992761300876731,-9.804887194633483
9.4,1.0,176.0,25.78347969055176,0.007951773703098297,-79.78282847821612,40.45891690663126,269.48640776252745,0.020230695605278008,0.01596852019429207,0.9218866229057312,0.3866016864776611,-0.008672391730894628,-0.013656538902875765,0.0013583065835671491,0.001354623818770051,-0.0005175212281756103,0.002359137870371341,0.4152609964460135,0.22051704889163376,-9.80328973531723
9.6,1.0,179.0,25.780975341796875,-0.007951773703098297,-79.78282845918874,40.45891690972144,269.48649883842467,0.02021656185388565,0.01596350409090519,0.9218910932540894,0.3865919709205627,-0.01164333050588337,-0.015911819226530448,0.002387230988645781,-0.0024307591374963518,-0.0007627911400049925,-0.0026028130669146768,0.41519433818757534,0.2303804977051914,-9.803838788866996
9.7,0.8999999761581421,178.0,25.79349708557129,-0.007951773703098297,-79.78282851024505,40.458916913469686,269.49794293022154,0.020244017243385315,0.015960080549120903,0.921899914741516,0.3865696787834168,-0.006703324618997082,-0.016213430825575692,0.0014705137341543707,-0.008018477819859982,-0.002246878342702985,-0.00352227222174406,0.4190139221772552,0.21010891366750006,-9.805780649185179
9.9,0.8999999761581421,178.0,25.79224395751953,0.0,-79.78282849151833,40.458916919957616,269.4980382976532,0.02022835612297058,0.015960006043314934,0.9219030141830444,0.3865629434585571,-0.00822543620731405,-0.01875955064441772,0.002372405204391199,0.005256875418126583,0.0035150919575244197,-0.00043805368477478623,0.4144860941916704,0.2184862378053367,-9.804052212238313
10.0,0.8999999761581421,174.0,25.78347969055176,0.0,-79.78282856377582,40.458916848651135,269.50845456695555,0.020198313519358642,0.015942919999361038,0.9219143390655518,0.3865382969379425,-0.01161225311671238,-0.0075567435693695015,0.000639701619843455,0.0003683256218209863,-0.001128672854974866,-0.0023106427397578955,0.4139382100850344,0.2277639783360064,-9.804083202481273
10.2,0.8000000119209291,174.0,25.788488388061523,-0.007951773703098297,-79.78282861185073,40.45891684824585,269.5189473686218,0.02018282748758793,0.01596700772643089,0.9219210147857666,0.3865222930908203,-0.003387349079236702,-0.009544964571227095,-0.0010882433109413914,0.005764119792729614,0.00013040975318290293,0.004759576637297869,0.4182058004289866,0.20793663650751115,-9.80558769106865
10.31,0.8000000119209291,171.0,25.78973960876465,-0.03180709481239319,-79.78282858299127,40.45891685535161,269.5188026485443,0.02017033845186233,0.01597670465707779,0.9219322204589844,0.3864956796169281,-0.00808249124228454,-0.014551093501617127,0.0009076911558738423,0.006626822054386139,0.003263860009610653,0.002900370163843036,0.4132210125401616,0.2278636002726853,-9.803096192479137
10.5,0.8000000119209291,170.0,25.78598403930664,0.007951773703098297,-79.78282864782055,40.458916844370926,269.5285682735443,0.02016235888004303,0.015987824648618698,0.9219363927841188,0.386485755443573,-0.0033475824052783525,-0.011528323463431493,-0.0013375745183322912,-0.001580743701197207,-0.00020150182535871863,-0.002198006259277463,0.4154553067311645,0.2142475180886686,-9.805815732479095
10.6,0.699999988079071,163.0,25.79474830627441,-0.007951773703098297,-79.7828286390163,40.45891682417716,269.53787255859373,0.020164499059319496,0.01599048264324665,0.921936571598053,0.38648521900177,-0.008041298737375652,-0.014622421935385025,-0.0011430662041124972,0.003519299207255245,0.0032566525042057037,0.004793711006641388,0.4177900268509984,0.20812345504760746,-9.80602915585041
10.8,0.699999988079071,162.0,25.782228469848643,-0.007951773703098297,-79.78282861778453,40.458916828006465,269.5377132949829,0.02014637365937233,0.01599738374352455,0.9219432473182678,0.3864699304103851,-0.011420588740729948,-0.01702824277580528,-0.00010195692819688562,-0.008127817884087563,-0.00032554013887420297,-0.010816571302711964,0.41411285910755397,0.2284381257556379,-9.803952224850654
10.9,0.699999988079071,158.0,25.788488388061523,0.0,-79.78282859965094,40.45891680572574,269.5464737472534,0.020134827122092247,0.015999967232346538,0.9219602942466736,0.38642969727516174,-0.014701918339044504,-0.018353841055778773,-0.0005828335312051048,-0.003915700595825911,0.0004380664031486958,0.0005878362571820617,0.4149781739339233,0.21561128977686167,-9.8064179956913
11.1,0.6000000238418579,157.0,25.79349708557129,-0.007951773703098297,-79.78282857195077,40.458916808399394,269.54633880233763,0.02010784111917019,0.0159896332770586,0.9219634532928468,0.3864240050315857,-0.01653899774521535,-0.0209498749188655,0.00039894437095525483,0.001469177776016295,-0.0017998014809563754,-0.0009387778700329363,0.4135756461694837,0.22303803937509656,-9.804418247938155
11.2,0.6000000238418579,161.0,25.79474830627441,0.007951773703098297,-79.78282865722544,40.45891680497588,269.554450756073,0.02007558569312096,0.015987509861588478,0.9219694733619692,0.3864114880561829,-0.00572425774918965,-0.012541129056942704,-0.0011660995974228454,-0.005347768776118754,-0.00351666915230453,-0.006117587443441154,0.4173702333122492,0.20820392735302448,-9.805066704154015
11.4,0.6000000238418579,162.0,25.79224395751953,-0.007951773703098297,-79.78282864186231,40.458916809490105,269.5543036518097,0.020055988803505898,0.015987934544682503,0.9219717979431152,0.3864068686962128,-0.0069334814439295355,-0.015079960272905459,-0.00031551494389493625,0.006956609431654215,0.004188005812466145,0.004268479533493519,0.4159969416260719,0.21118767013773326,-9.806427351236344
11.51,0.5,167.0,25.79474830627441,0.0,-79.78282861545132,40.458916784915225,269.56189299201964,0.02004754170775413,0.016005570068955418,0.9219756722450256,0.3863973319530487,-0.012571843378111836,-0.017523753402695245,-0.0004839913044673127,0.0028361037839204073,0.002188781974837184,0.0006036527920514345,0.41411596544086937,0.2221859904192388,-9.804090803861618
11.7,0.5,167.0,25.78347969055176,-0.02385532110929489,-79.782828638348,40.45891677849279,269.5694756565094,0.020045222714543343,0.015998313203454018,0.9219881296157836,0.386368066072464,-0.007842348360252997,-0.015151108930765447,-0.0016799278131211914,0.0031312224455177784,0.0013370593078434467,0.005979031790047884,0.4181118064373732,0.2095083315297961,-9.805242705345156
11.81,0.4000000059604645,166.0,25.788488388061523,-0.015903547406196594,-79.78282859394568,40.45891678716804,269.5691299495697,0.020050259307026863,0.016010865569114685,0.9219963550567628,0.3863475322723389,-0.011865796078779066,-0.019774362830872947,0.0002469324150971646,0.009915593080222608,0.003184145782142877,0.0019528658594936128,0.4150359517335892,0.23002632088959216,-9.804086126089096
12.0,0.4000000059604645,166.0,25.79474830627441,0.02385532110929489,-79.78282862855413,40.45891678150245,269.57788968658446,0.02002653107047081,0.01600463315844536,0.9220033884048462,0.3863323628902435,-0.007120425606503009,-0.01587607740203819,0.001703359485326591,-0.0066079944372177115,0.0010225522564724088,-0.0004803866904694587,0.4156681088358164,0.21461560031399127,-9.805809885263443
12.1,0.30000001192092896,173.0,25.79099273681641,0.03180709481239319,-79.78282861668197,40.45891676565113,269.5839724597931,0.020004205405712128,0.016002660617232326,0.9220100641250608,0.3863174319267273,-0.007841140687228495,-0.014391966593102441,-0.00014674445264278377,0.004768723621964455,-0.00017546401068102568,0.0019894344732165337,0.41570483665913344,0.2246727929636836,-9.80500823199749
12.3,0.30000001192092896,177.0,25.77972412109375,-0.015903547406196594,-79.78282859586238,40.458916769374696,269.5839126167297,0.019993355497717857,0.015998631715774536,0.9220185279846193,0.3862982094287872,-0.011155211495400212,-0.01659798673699889,0.0008396427822859394,-0.005509267561137675,-0.0044363350607454785,-0.0037756890524178735,0.4139075852930546,0.2229898546636105,-9.804012451171877
12.4,0.30000001192092896,186.0,25.780975341796875,-0.007951773703098297,-79.78282857986345,40.45891675205585,269.5896272716522,0.019954506307840347,0.01599414087831974,0.9220389127731324,0.3862516283988953,-0.011235392710082068,-0.015386316955238212,-0.0002471010509146132,0.0018542759353294969,0.0004599955282174051,0.004883660469204186,0.4162708105891943,0.20792379090562466,-9.806668841242793
12.6,0.30000001192092896,191.0,25.79474830627441,-0.007951773703098297,-79.78282855732023,40.45891675467421,269.5895507392883,0.019940828904509544,0.016003599390387542,0.9220360517501832,0.3862587511539459,-0.013819337485705257,-0.017596492224862606,0.0008538567873719405,-0.0050618769600987434,-0.0016106952680274846,-0.0063477326184511185,0.4138878143951297,0.2301313332282007,-9.804843925237657
12.7,0.30000001192092896,199.0,25.78347969055176,-0.03180709481239319,-79.78282854366641,40.458916740138,269.5967383441925,0.01995859108865261,0.015999218448996544,0.9220498204231262,0.386225163936615,-0.012730701769685469,-0.01562427176655425,0.00269304994560673,-0.0037793270312249656,-8.766079190536402e-06,0.0010330468649044633,0.4156538927927613,0.2123906616680324,-9.805660196542739
12.9,0.30000001192092896,200.0,25.78473281860352,-0.007951773703098297,-79.78282852028214,40.458916742212594,269.59695578193663,0.01995936781167984,0.016014156863093376,0.9220539927482604,0.38621458411216736,-0.014669994467023006,-0.017851380203208506,0.003754746000621903,-0.002507200464606285,-0.002455107402056456,-0.006623127963393928,0.4162256043031812,0.2265486528351903,-9.804432281255725
13.0,0.30000001192092896,206.0,25.78598403930664,-0.03180709481239319,-79.78282848920347,40.45891674809826,269.6036236343384,0.019941411912441254,0.01601212657988071,0.9220640659332277,0.3861915767192841,-0.013129723081153505,-0.019464255723275585,0.005206081913338511,-0.0056386287324130535,-0.0031787939369678497,-0.007306779269129038,0.41904641076922416,0.2099321084842086,-9.80503045141697
13.2,0.20000000298023224,207.0,25.782228469848643,-0.03180709481239319,-79.7828285049147,40.45891673297803,269.6094563064575,0.01990581303834915,0.01601595617830753,0.9220679998397828,0.3861838579177856,-0.007398572610852539,-0.012711378554406832,0.004631899036001105,0.005659325513988732,0.004110896028578281,0.0003978607419412583,0.4153694988414645,0.21319580499082805,-9.807516102790833
13.3,0.20000000298023224,221.0,25.77972412109375,-0.02385532110929489,-79.78282846431378,40.45891673931673,269.6104135570526,0.019888268783688545,0.01604160666465759,0.9220834374427797,0.3861468434333801,-0.011712882063849815,-0.017204995865963156,0.006689858857731394,0.00018200668273493648,0.002552931429818273,0.002954599447548389,0.4134769013151527,0.2161798035912216,-9.8061841070652
13.5,0.30000001192092896,228.0,25.79224395751953,-0.015903547406196594,-79.78282848975722,40.458916723453605,269.61318398094176,0.01986817456781864,0.016029661521315575,0.9220993518829346,0.3861103355884552,-0.007163843236125123,-0.010961203998585276,0.0017991881877157233,0.0023016748018562802,-0.002927751513198018,0.005283798556774855,0.4169976194947958,0.2085005821846425,-9.806076518297196
13.6,0.30000001192092896,241.0,25.77972412109375,0.0,-79.78282848946938,40.45891671587604,269.6182022151947,0.019854994490742683,0.016028132289648056,0.922113835811615,0.3860764503479004,-0.003839154282010433,-0.00748425350993573,0.0027381716799318627,0.0037688317243009814,0.005105956457555294,0.006118005607277155,0.4145152571797371,0.23041053777560594,-9.804338725805284
13.8,0.30000001192092896,246.0,25.7872371673584,-0.039758868515491486,-79.78282847761021,40.45891671789054,269.6184735355377,0.01987076364457608,0.016026772558689114,0.9221254587173462,0.38604795932769775,-0.007006514059437965,-0.009623585044913714,0.003715293956351893,-0.00534535851329565,-0.0023213555105030537,-0.006738067604601383,0.4142045507580042,0.2249735408462584,-9.802440719604492
13.91,0.30000001192092896,261.0,25.778472900390625,0.0,-79.78282843506291,40.458916721153024,269.6234941539764,0.019851511344313615,0.016018586233258247,0.922135591506958,0.3860250413417816,-0.006549030103585827,-0.01314740807074841,0.00467993109902349,-0.0035267814528197046,-0.004569690674543382,-0.0016885824734345078,0.41593437641859055,0.2135659154690802,-9.805530388355256
14.1,0.4000000059604645,272.0,25.78473281860352,-0.04771064221858978,-79.78282841867714,40.45891672574239,269.6239304599762,0.01983017474412918,0.016005484387278557,0.9221376776695251,0.38602158427238464,-0.007983363949521762,-0.015433632980273275,0.005610220441674145,0.0003740899555850774,0.000880442385096103,-0.0006314964848570528,0.4142722688242793,0.22479081535711887,-9.803156418800354
14.2,0.4000000059604645,300.0,25.77972412109375,0.0,-79.78282837182995,40.45891671523837,269.62838125801085,0.0198220144957304,0.016015032306313515,0.922155499458313,0.3859793841838837,-0.010303913000731062,-0.014985471442182631,0.006102972014724296,-0.0050988164730370045,-0.004934429191052914,-0.0044728140346705905,0.417984227500856,0.2074568359181285,-9.806225037574768
14.4,0.5,311.0,25.78347969055176,0.0,-79.78282835030159,40.458916718551826,269.6289327201843,0.019817814230918884,0.016025030985474586,0.922166347503662,0.38595303893089294,-0.011082312180075092,-0.01731658462831939,0.006870777025895244,0.007434037514030932,0.0038278680294752117,0.0037166124675422907,0.4177170828357339,0.21094080800190568,-9.804848603010178
14.5,0.5,322.0,25.778472900390625,0.007951773703098297,-79.78282834643036,40.45891672818737,269.6301126537323,0.019776320084929463,0.016038481146097183,0.922184944152832,0.3859102725982666,-0.005677971544632049,-0.015874653803601025,0.002697394879365982,0.006153164431452751,0.003785967594012618,0.0009892984526231883,0.413690251596272,0.22264998525381088,-9.805037468075753
14.7,0.5,327.0,25.79224395751953,-0.015903547406196594,-79.78282832332954,40.45891671555828,269.63205338096617,0.0197717547416687,0.016037575900554657,0.9221972823143004,0.3858808875083923,-0.005620516545882962,-0.012710599158815023,0.0007859405639256615,-0.004630708135664463,-0.003605657024309039,5.190468527871417e-06,0.4159853568300605,0.21286170970648527,-9.806185861229897
14.8,0.6000000238418579,338.0,25.77972412109375,-0.007951773703098297,-79.78282828756038,40.45891672504943,269.63222456550596,0.0197636317461729,0.01603357307612896,0.9222224354743958,0.3858214914798737,-0.008852378012906533,-0.017051580279033855,0.002612143043112507,0.0011857609497383235,-0.0004411056579556316,0.0012374867219477892,0.4157023515924812,0.22332988852635027,-9.80449893951416
15.0,0.699999988079071,345.0,25.79474830627441,0.0,-79.78282830761981,40.458916702794454,269.6327080783844,0.01973384991288185,0.016023047268390656,0.9222282767295836,0.385809451341629,-0.003850859184204421,-0.008293218528629359,-0.0009893597522803751,-0.006117237731814385,-0.0006603205110877753,-0.007163099944591522,0.4155243404209614,0.22956852044910195,-9.803732954263687
15.1,0.699999988079071,353.0,25.77721977233887,0.02385532110929489,-79.78282826361972,40.45891669989108,269.6334049758911,0.01973317377269268,0.016044195741415024,0.9222545623779296,0.3857457637786865,-0.004467073613696049,-0.01186741239305975,-0.0017453393731943448,-0.008520357310771942,-0.0008557740948162973,-0.009330365806818008,0.41847064275294543,0.20985832393169404,-9.806117448806765
15.3,0.699999988079071,359.0,25.760942459106445,0.3021674156188965,-79.78282824862332,40.45891670489429,269.63320136642454,0.019732607528567314,0.01603345014154911,0.9222766160964966,0.3856934309005737,-0.006323070859533818,-0.014358881011170376,-0.0009006420553196829,0.003072851570323109,0.004688072018325329,0.002427891595289111,0.4168499042093754,0.21963636685162785,-9.809596542119982
15.4,0.8000000119209291,8.0,25.76720428466797,0.3021674156188965,-79.78282826509913,40.45891666077997,269.6327304897308,0.01970820128917694,0.016044922173023224,0.9223082661628724,0.3856186866760254,-0.004286404273329264,-0.004213126262777246,-0.0030311921738800304,0.003848758293315768,0.002007079776376486,-0.002332982374355197,0.4184081506356597,0.19293765127658846,-9.805399995446203
15.6,0.8000000119209291,9.0,25.754682540893555,0.3021674156188965,-79.78282825792002,40.458916660475076,269.6324417648315,0.019712489098310467,0.01605003140866756,0.92226904630661,0.3857118487358093,-0.005988579967848718,-0.00580683574682391,-0.0020071215383970467,0.0003658130881376565,-0.003455587662756443,0.004973539616912603,0.4138811631873249,0.2029830398596824,-9.808685545921326
15.71,0.8999999761581421,14.0,25.760942459106445,0.2862638533115387,-79.78282821133347,40.45891665916484,269.6320858058929,0.01970365084707737,0.016071174293756485,0.9222926497459412,0.3856551647186279,-0.0055921944304530465,-0.011590734328987782,-0.001860260328246552,0.0058605833910405645,0.002173870336264372,0.004095552954822779,0.4241062622889877,0.22807890571653844,-9.805567810535427
15.9,0.8999999761581421,21.0,25.760942459106445,0.326022744178772,-79.7828281963695,40.458916661264674,269.63187671279906,0.019681280478835102,0.01607738807797432,0.9223253726959229,0.3855776488780975,-0.00865576677897429,-0.014013144969858143,-0.0009225655905770184,-0.0037445591297000647,0.0009954721899703145,-0.0054943053983151895,0.3989273476973176,0.2268855620920658,-9.80414869129658
16.01,1.0,39.0,25.758440017700195,0.3657816052436829,-79.7828281246568,40.45891666733069,269.63099146461485,0.019687272608280185,0.016057388857007027,0.9223562479019164,0.38550427556037903,-0.009927374561524292,-0.018364170011533683,-0.0014987872223389898,-0.0038594757206738,-0.007956070825457573,-0.001080539426766336,0.4066833503544331,0.2173764180019498,-9.804697744846344
16.2,1.0,53.0,25.74591827392578,0.4293957948684693,-79.78282815376977,40.458916629083255,269.6319055614471,0.01965543441474437,0.016037914901971817,0.9223415851593018,0.3855419456958771,-0.004016216655994244,-0.004501782892934817,-0.00042917027352458567,0.0038109517190605398,-0.0053357412107288855,0.002359983511269093,0.4182352192327381,0.2261859427392483,-9.807420208454133
16.3,1.0,78.0,25.621965408325195,15.609332084655762,-79.78282813157976,40.45891663050836,269.6320009288788,0.01977356523275376,0.016097143292427063,0.9222959876060486,0.3856424689292908,-0.008621691552362655,-0.008701497571571497,0.004177576525720378,-0.008352662436664104,-0.0057068043388426295,0.0059475223533809185,0.4306758648902178,0.2181396989151836,-9.805767785310746
16.5,1.0,89.0,25.71461677551269,0.6679490208625793,-79.78282810179068,40.45891661576817,269.6328711566925,0.01997613161802292,0.016167925670742992,0.9222702980041504,0.3856904208660126,-0.010699162508049106,-0.009811377283627036,0.0014510871200187074,-0.016891935840249058,-0.001871803542599082,-0.03392578661441803,0.4527128512412311,0.21373586844652886,-9.803637644648553
16.6,1.0,104.0,25.758440017700195,0.2465049922466278,-79.78282809290967,40.4589166134606,269.6339421329498,0.01992008276283741,0.01620267517864704,0.9222920536994934,0.3856398165225983,-0.005895250178598589,-0.008613385737611893,0.002371786631983223,0.014024079777300358,0.014911125414073469,0.0002165627956856042,0.42511150829494,0.16893039079383015,-9.831858061552046
16.8,1.2000000476837158,105.0,25.513036727905273,2.6479406356811523,-79.78282808135214,40.45891661404245,269.6342744884491,0.019963635131716728,0.016173021867871284,0.9222736954689026,0.3856826126575471,-0.011716166323641542,-0.00692452582886632,0.003463546027258062,-0.02401723526418209,-0.02116744965314865,0.011250737123191357,0.4007312502712012,0.267415263298899,-9.785725868940354
16.91,1.2999999523162842,121.0,25.71336555480957,0.6122865676879883,-79.78282808599609,40.45891660969677,269.6363835391998,0.019851703196763992,0.01614462025463581,0.9223453998565674,0.3855181336402893,-0.002313793762846347,-0.005658925917205796,0.002297479940312264,0.03548877686262132,0.04259643703699112,0.012649478390812874,0.4614210364222527,0.2813613477163017,-9.802788628935817
17.1,1.399999976158142,124.0,25.74591827392578,0.2385532110929489,-79.78282807933488,40.45891661099844,269.6367113647461,0.019854964688420296,0.016240982338786125,0.922344207763672,0.3855169415473938,-0.0014361579369133526,-0.007880326709712811,0.0039355980258531376,0.02876301296055317,0.0033572614192962646,0.01149264071136713,0.4339268071576953,0.19716988423839213,-9.818160374164584
17.2,1.399999976158142,133.0,25.672048568725586,1.4472228288650513,-79.7828280549429,40.45891660873435,269.634512430191,0.01984706707298756,0.016260117292404175,0.9224043488502502,0.3853725790977478,-0.0048494348595381894,-0.00969460994952351,0.002160952571760352,0.014199359342455862,0.010984230786561966,-0.0008177965646609664,0.4231028069928289,0.229027835726738,-9.807067621350287
17.4,1.399999976158142,140.0,25.360286712646484,4.946003437042236,-79.78282804121686,40.45891661066349,269.6346952972412,0.019875120371580124,0.016247961670160294,0.9223764538764954,0.3854382932186127,-0.006796341362960746,-0.012725585642694656,0.0030925703745902844,0.0051110233180224895,0.0024751480668783192,-0.013763578608632088,0.4181000754609704,0.2530257223919034,-9.806053714156151
17.5,1.399999976158142,143.0,25.27890396118164,6.0194926261901855,-79.78282804181487,40.45891661704782,269.63708687400816,0.019705850630998608,0.016159536316990852,0.9223573207855223,0.3854965269565582,-0.006272862333624682,-0.010003720737099377,0.008869761407850084,-0.001139097148552537,0.01572917401790619,0.00869547575712204,0.41980665843933823,0.2185247563384473,-9.814102406501773
17.7,1.399999976158142,142.0,25.06730651855469,8.373217582702638,-79.78282801146169,40.45891661015785,269.6368799266815,0.019620928913354874,0.016197316348552704,0.922324001789093,0.3855791091918945,-0.010621727884907131,-0.0094969577502691,0.0069029261197074395,-0.02932700142264366,0.04125505313277245,0.04101547226309776,0.4236773690208793,0.35750742617994546,-9.823058001995085
17.8,1.600000023841858,138.0,24.9583797454834,9.812488555908203,-79.78282797934871,40.45891661451535,269.6384701786041,0.019221683964133263,0.01630653627216816,0.9222738742828368,0.38571441173553467,-0.010091663751912635,-0.01774437937685609,0.011296642872623056,0.030799724161624912,0.02640636824071408,-0.05526161566376686,0.4655334562808275,0.04624031128361821,-9.83378296494484
18.0,1.600000023841858,138.0,24.67040634155273,12.865970611572266,-79.7828280013212,40.45891666291631,269.64039755439757,0.018970418721437454,0.016852514818310738,0.9222670197486876,0.3857198655605316,0.013854206748172004,-0.01603711469753559,0.014525554161902078,0.061828475445508964,0.06971482932567596,0.0339248962700367,0.37745545819401743,0.2625890628620982,-9.819468981027603
18.1,1.7000000476837158,130.0,24.5539665222168,14.766444206237793,-79.78282798607869,40.458916643862636,269.63889623260496,0.01826987974345684,0.01908711530268193,0.922226071357727,0.38574737310409546,-0.003835975884773256,-0.008724180713901119,0.01663455730012176,-0.017154112458229058,0.05315519496798515,-0.06153514608740807,0.3740480298176408,0.27193715270608665,-9.837553249597553
18.3,1.7000000476837158,132.0,24.260986328125,18.352693557739254,-79.78282797305414,40.4589166549716,269.6404175815582,0.01822988130152225,0.02100387774407864,0.9223830103874208,0.3852741718292236,-0.000955982685050619,-0.01626299511867466,0.01921563371237245,-0.011278322897851469,-0.02734924480319023,0.0255709458142519,0.4032722674682737,0.15221320124343038,-9.814109423160554
18.41,1.5,129.0,24.11950492858887,20.038471221923828,-79.78282794936936,40.45891673601882,269.64160705184935,0.01887946575880051,0.02374512143433094,0.9223719835281372,0.3851099610328674,0.010333332156247156,-0.06518339128813165,0.032257773464845554,0.0609576478600502,0.0016100816428661346,0.006443264428526163,0.3634397553652525,0.062370915468782186,-9.859500188827516
18.6,1.5,126.0,23.7927188873291,23.990501403808594,-79.78282787402823,40.45891679247936,269.64648390388487,0.01907937973737717,0.022738320752978325,0.9221246242523192,0.3857528567314148,0.004825445390666237,-0.1058840465075604,0.08455612355207746,0.07015438377857207,-0.049232691526412964,0.04983380436897278,0.19647483302280308,0.292216173671186,-10.28340578198433
18.71,1.2999999523162842,128.0,23.61242485046387,25.906879425048828,-79.78282781040458,40.458916949958684,269.66396284675596,0.008068352937698364,0.017500992864370346,0.921640157699585,0.38756704330444336,0.027534631328449983,-0.1475490578248676,0.2727447930571553,0.1964597851037979,-0.1927612721920013,0.07492512464523315,0.12618848690763115,0.4579367902502418,-10.595677503347398
18.9,1.399999976158142,129.0,24.13452911376953,19.03654670715332,-79.782827689817,40.458917061139566,269.6948053894043,0.0018144225468859079,0.007525433786213399,0.9211934804916382,0.3890279233455658,0.01283547216944522,-0.15110216233692833,0.348494853777998,-0.08036942780017853,-0.2401001751422882,0.058411087840795524,0.1666421194933355,0.08909411625936628,-10.578660936355591
19.01,1.5,125.0,24.16082191467285,19.108112335205078,-79.78282724219635,40.458917564130395,269.74877429580687,-0.0015353925991803408,-0.005680141970515251,0.9201425909996032,0.3915393650531769,0.028949927191902338,-0.1461020617873687,0.2929775756235805,-0.053225498646497726,-0.1512487679719925,0.004901934415102005,0.2803239968419075,-0.15109223518520595,-9.995026953220368
19.2,1.5,128.0,24.050642013549805,20.22931289672852,-79.7828271891996,40.4589176712898,269.7452600059509,-0.0018030781066045165,-0.008096923120319843,0.9200195670127868,0.3917846083641052,0.015427495721116074,-0.13065184731892804,0.19781221604682447,-0.22771480679512024,-0.024299316108226776,-0.08235574513673782,0.1898166268318892,0.3247942645847798,-9.46533002614975
19.3,1.5,118.0,24.05314636230469,20.046422958374023,-79.78282708698785,40.458917871609685,269.77736163711546,0.001660468871705234,-0.005880435463041067,0.9197111725807192,0.3925483524799347,0.06983257549795004,-0.06816737937087312,0.11566198429844515,0.04334382712841034,-0.12279559671878815,0.06205114349722862,0.21429310809820887,-0.2483973588421941,-9.44433092057705
19.5,1.5,114.0,23.96550178527832,21.40617561340332,-79.78282717022124,40.45891798910941,269.7977197227478,0.003030549502000213,-0.004350618459284306,0.9194416403770448,0.39319080114364624,0.08151751414750769,-0.04957616396161226,0.08799922161986083,0.1430383026599884,0.10310131311416626,0.062348898500204086,0.18739803571254016,0.005588316475041211,-9.485480700731278
19.6,1.5,110.0,23.80023193359375,22.85339736938477,-79.78282710333673,40.458918106923946,269.8315095958709,0.0055852667428553104,0.0004510342259891331,0.9198646545410156,0.3921958804130554,0.07244849574633681,-0.020771846665269014,0.08213024750947676,0.09701454639434813,0.03200878947973251,-0.014789809472858906,0.11324797740206125,0.2039267804659903,-9.726635076999663
19.8,1.600000023841858,111.0,23.85907745361328,21.85147476196289,-79.78282715263948,40.45891814949801,269.84037876701353,0.00479466188699007,0.0021111853420734406,0.9204406142234802,0.3908472955226898,0.061682436788780964,0.007818308071172059,0.09814176278660154,-0.012200716882944107,0.008342994377017021,-0.0003683498071040958,0.21463529812172047,0.04098485212773085,-9.91502300977707
19.9,1.7000000476837158,108.0,23.7000675201416,23.338457107543945,-79.78282731670777,40.45891824924572,269.87645793533324,0.0067626736126840115,0.00023119908291846514,0.9217875003814696,0.38763654232025146,0.07601898130881356,0.03943499754697968,0.14748646772551716,-0.02966224774718285,-0.06559821218252182,-0.008798033930361271,0.3497810981422663,-0.15067578552290795,-10.015429058074954
20.1,1.7000000476837158,109.0,23.7927188873291,22.352436065673828,-79.78282741011179,40.45891826681899,269.8924417552948,0.009952908381819723,0.0011417197529226546,0.922237992286682,0.3864930868148804,0.053449236374514916,0.05666000904722796,0.17006909417746385,-0.17769159376621246,0.038515351712703705,-0.024279477074742317,0.2325720524042845,0.12974511064589025,-10.030709002017977
20.2,1.7999999523162842,96.0,23.91542053222656,21.34256172180176,-79.78282780608535,40.45891830468936,269.9284558353424,0.014079039916396141,0.003439167514443397,0.9227027297019958,0.3852396309375763,0.08548827772018229,0.09061712371547834,0.1732310197841591,-0.05859847739338875,-0.04119139909744264,-0.008626170456409454,0.30952276255935435,-0.031426783287897705,-9.96984767317772
20.4,1.7999999523162842,91.0,23.81525611877441,21.771957397460934,-79.78282794010772,40.458918297197684,269.9476003704071,0.01689000800251961,0.003468578681349755,0.92301744222641,0.3843717575073242,0.07506808122573806,0.08579919580233053,0.20892310950619966,0.005518572870641947,0.10587219148874284,0.03759435936808586,0.1707417485676706,0.2597626284509897,-10.129609977006913
20.5,1.7999999523162842,87.0,23.756410598754893,22.439905166625977,-79.78282796522211,40.45891818199237,269.96624446487425,0.017088063061237342,0.003286897204816341,0.9234618544578552,0.3832956552505493,0.05155437609164628,0.10081415288390937,0.2389872515982361,0.04530360177159309,-0.047145485877990716,-0.005286165047436954,0.17610768355429174,0.2441348665393889,-10.147323532104492
20.7,1.7999999523162842,90.0,24.44128227233887,8.055147171020508,-79.78282837884886,40.458918181236335,270.01097560501097,0.012726676650345324,0.004892717115581036,0.9238277077674866,0.3825657367706299,0.05291091525285283,0.1273448392353022,0.28190285561090833,-0.05360711365938186,-0.006855617742985487,-0.042879968881607056,0.19863857690244915,0.09116967681795356,-10.116168397665025
20.8,1.8999999761581416,91.0,24.001811981201172,20.921117782592773,-79.78282866658115,40.458918072528355,270.05272722816466,0.013776854611933231,0.00962380226701498,0.9235159158706664,0.3831918239593506,0.04619509858659667,0.13369048072376033,0.07663021241483912,0.055567726492881775,0.015844251960515976,0.014969537034630775,0.2566528233513236,-0.029572144697885962,-8.733748038411141
21.0,1.8999999761581416,93.0,23.407087326049805,27.34615135192871,-79.78282861175552,40.45891793847925,270.0786278305053,0.01291602198034525,0.01459652092307806,0.9231047034263612,0.3840544819831848,0.02340076794034693,0.13452777671645685,0.08663879478879005,0.0489865280687809,-0.0658188909292221,0.02480293996632099,0.4074711895734072,-0.18806534919887785,-9.514757124781607
21.11,2.0,93.0,23.415851593017567,26.717960357666016,-79.7828287265256,40.458917873439,270.09057570075987,0.01285981759428978,0.016174694523215294,0.9225016832351683,0.3854396045207977,0.01478913557813954,0.13033376988889733,0.14757099070662302,-0.03486044332385063,-0.106439046561718,0.06750956177711487,0.3321351149305701,0.11302031971514225,-10.157187784910203
21.3,2.0,93.0,23.02896881103516,32.42733383178711,-79.78282914606822,40.45891773410085,270.15368533706663,0.012948629446327686,0.00976311881095171,0.9208806157112122,0.3895072638988495,0.03669317120680323,0.1420182176207448,0.4159077346340863,-0.08934007585048677,-0.10823574662208556,0.016704525798559192,0.1926896745152772,0.31989371314644816,-11.096825984716416
21.4,2.0,95.0,22.94883728027344,32.13311767578125,-79.78282927759494,40.458917678560326,270.2042834815979,0.01582385040819645,0.00460312282666564,0.9201415777206421,0.3912389576435089,0.048009059283900736,0.1374162854793055,0.5961660209213971,-0.03853093832731247,-0.0128137469291687,-0.06163570657372475,0.21296920711174608,0.3025540143996477,-11.501627554893494
21.6,2.0,97.0,22.83865737915039,34.20058059692383,-79.78282946502088,40.458917729599506,270.34556270217894,0.017577750608325005,-0.0004505892284214497,0.9197127819061279,0.3921981751918793,0.05215515000995445,0.14384925788766492,1.0426818020883792,0.00265671662054956,0.08189315348863603,-0.01776762306690216,0.08291468739509583,0.2442308887839317,-12.255574557781221
21.7,2.200000047683716,101.0,23.00893592834473,31.822999954223643,-79.7828295420403,40.45891769858019,270.45604777908324,0.01817009411752224,0.0011608889326453213,0.920253574848175,0.3908990323543549,0.04167090446504456,0.1468564000178944,1.2827605605981238,0.020313998684287068,0.09108058363199234,-0.04297273606061936,0.14161811043508352,0.37252059090882544,-12.336081361770633
21.9,2.200000047683716,105.0,22.90126037597656,33.28612518310547,-79.78282974470689,40.458917510882934,270.75812125778197,0.01866483688354492,0.009721217676997185,0.9218162298202516,0.3870555758476257,0.018823272560770456,0.16529532876189496,1.7195154779909876,-0.060101404786109924,0.1100626215338707,-0.16334760189056394,0.2400840982608497,0.26337964296340943,-11.981796226501466
22.0,2.299999952316284,106.0,22.76478576660156,34.065399169921875,-79.78282976681739,40.45891746187973,270.92214608764647,0.01996273547410965,0.013231986202299595,0.922278881072998,0.38578251004219055,0.02409376309759492,0.17173624330364987,1.898589181533504,0.03906254470348358,0.03456907346844673,-0.0350215844810009,0.3427090004459024,0.2853937886282802,-11.900959639549255
22.2,2.4000000953674316,110.0,22.814868927001953,34.105159759521484,-79.78282977009665,40.45891738363926,271.3023626861572,0.016920648515224457,0.008097073063254356,0.9217641353607178,0.3872970044612885,0.02357676656532614,0.1576648775388928,2.3106038147545496,-0.06549572199583054,-0.13792875409126282,-0.06245141476392746,0.15280633731745186,0.12986720781773328,-12.096007550954821
22.3,2.5,116.0,22.97012138366699,31.70372200012207,-79.78282979473309,40.458917334838944,271.54579663848875,0.01727505587041378,0.004606411792337894,0.9212601184844972,0.3885361254215241,0.03774327023124074,0.11567399372010707,2.5502032146132194,-0.049201127141714096,-0.06278865039348602,-0.04336860775947572,0.1046229414548725,0.4536295484751463,-12.155577814579013
22.5,2.700000047683716,119.0,23.14540863037109,29.326141357421875,-79.78282964754143,40.45891741310249,272.02271867370604,0.02310876362025737,0.000603527994826436,0.9208531975746156,0.3892238140106201,0.0687841704587889,0.053954651441584116,2.8599637081022604,0.008740284480154514,0.009230588562786579,0.10730620473623276,0.05355095710605383,0.2492893515899777,-11.549586417675021
22.6,2.799999952316284,127.0,23.241817474365234,27.393861770629893,-79.78282938206837,40.458917528529746,272.53288245773314,0.019107986241579056,0.0009622699581086637,0.9216943383216858,0.38744500279426575,0.06203726149788784,0.006483052861387249,3.0134039359893183,-0.03751741722226143,0.01507529988884926,-0.05503223091363907,0.02415122989565134,0.4773032070323825,-11.20154961705208
22.8,2.799999952316284,133.0,23.169198989868164,27.735788345336914,-79.78282928806676,40.45891752333168,272.83771586990355,0.020540224388241768,0.002436665119603277,0.9222960472106934,0.3859304487705231,0.03809168174279015,-0.011758386295168856,3.0870201125347427,-0.0025654979981482033,0.0900447741150856,0.07717669010162354,-0.00215134367113933,0.09518373554572464,-10.643706532716752
22.9,3.0999999046325684,141.0,23.400827407836914,25.000377655029297,-79.78282915920794,40.458917521897966,273.15060353851317,0.022822597995400432,0.005135068204253912,0.9225515723228456,0.3851642012596129,0.04088341068284443,-0.02396737741587304,3.167003475904582,0.1038164645433426,0.039063125848770135,0.05975416675209999,-0.004103674159850926,0.15386233532801272,-10.586169930696489
23.1,3.2000000476837163,146.0,23.36201477050781,25.60471153259277,-79.78282871600108,40.458917717237185,273.68959880447386,0.012810949236154556,0.00818633008748293,0.9208104610443116,0.3897140920162201,0.01730902423682821,-0.051010085375258564,3.1324206590764465,0.12387990951538085,-0.11146537959575653,0.08087051659822464,0.12543478081002832,0.2205142166465521,-9.989742239713667
23.2,3.299999952316284,156.0,23.48847198486328,24.73796844482422,-79.78282835396735,40.45891770389689,273.95174098587034,0.010340076871216295,0.0021696598269045357,0.9195108413696288,0.3929228782653809,-0.04030303751650485,-0.08761341914048007,3.0998401397931885,-0.09980317950248717,-0.16003473103046414,0.046897020190954215,-0.1494424706976861,0.4428593792393804,-9.80834523797035
23.4,3.299999952316284,160.0,23.48972320556641,24.05411529541016,-79.7828279170654,40.45891784421249,274.5680277404785,0.0082434406504035,-0.00048648525262251496,0.9170578122138976,0.3986688852310181,0.004877247565557687,-0.1881748958531793,3.0743314006019262,0.05544249340891838,0.0021228557452559467,0.12408547103405,-0.14140249435789884,0.3241746789962053,-9.690525012016296
23.51,3.4000000953674316,165.0,23.48471450805664,23.75194931030273,-79.78282756336496,40.45891793656889,274.79406381225584,0.005331529304385185,0.0007089664577506483,0.9163734316825868,0.40028849244117737,-0.002957932232759293,-0.19476717798976567,2.9994382705979135,0.04860161989927292,-0.010016730055212976,-0.04972082003951074,0.006573821275960654,0.4749624204263092,-9.643842011690142
23.7,3.4000000953674316,165.0,23.37578582763672,24.93676376342773,-79.78282699087107,40.45891827341668,275.23327279663084,0.00379241444170475,-0.007875303737819195,0.919535756111145,0.3929091393947601,-0.024032298769457536,-0.20422296432863624,2.8146176388464017,-0.1712121218442917,-0.08225242048501967,-0.07993702590465546,-0.04773624831810594,0.3281682907417417,-9.319868842363356
23.81,3.299999952316284,176.0,23.404582977294922,24.849292755126953,-79.78282678902946,40.458918377111246,275.5124437866211,0.006723410449922085,-0.011249936185777187,0.9218032360076904,0.3874365985393524,-0.002354532330808866,-0.2324319144538149,2.767191477553935,-0.14112462103366852,-0.002499468391761184,-0.2406898140907288,-0.0018948907312005762,0.2651810239255428,-9.369241561889648
24.0,3.299999952316284,174.0,23.450910568237305,25.175315856933594,-79.78282680722201,40.45891879292253,276.14633584594725,0.013605288229882715,-0.009388848207890987,0.9254180788993835,0.37858715653419495,0.07209717476313278,-0.22695809719487084,2.7312358918494413,0.0230555459856987,0.1947060972452164,0.016245340928435326,-0.06655670417938382,0.21799238562583925,-9.54324885249138
24.1,3.2000000476837163,178.0,23.33572196960449,26.23290252685547,-79.78282662953592,40.45891890823814,276.4177467880249,0.015208947472274303,-0.0018416207749396567,0.9258601665496826,0.3775557279586792,0.07595428200299856,-0.21349339311453025,2.6937556648558867,0.04281394556164742,0.16482141613960266,0.0013885434018447995,-0.003970049293711782,0.20881152614951126,-9.491283477544783
24.3,3.299999952316284,181.0,23.341981887817386,25.47748374938965,-79.78282694751127,40.458919210305204,277.1397650299072,0.016708821058273315,0.008570968173444271,0.9255104660987854,0.3782564401626587,0.06052589336451555,-0.1155929265341274,2.741291540937133,-0.031988941133022315,-0.006163510028272867,0.025228299200534817,0.01948343875352293,0.19831873420625928,-9.601872451901436
24.4,3.2000000476837163,177.0,23.1103515625,27.71193122863769,-79.78282710188755,40.45891923619678,277.8495161590576,0.00818064995110035,0.0006438252166844902,0.9242358207702636,0.3817341029644013,0.045508075506448885,-0.14907796886548294,2.7976626331217718,0.029264330863952637,-0.07944947481155397,0.011902055703103542,-0.06284027329646051,0.22020042216405272,-9.556012739539149
24.6,3.0,180.0,23.25058174133301,26.185192108154297,-79.7828269265469,40.45891935340853,278.12916017150883,0.002256727311760187,-0.0017332921270281074,0.9230985641479492,0.3845531046390533,0.029775149361197482,-0.19834290857356704,2.797589398402281,0.06790591776371002,-0.013175079599022864,0.08306901156902312,-0.16785441175103188,0.07293961158022284,-9.833816878795622
24.7,3.0999999046325684,182.0,23.155426025390625,28.5468692779541,-79.78282726330747,40.458919346098796,278.519134765625,-0.0025228909216821194,-0.004307860508561134,0.9219277501106262,0.38732966780662537,-0.004621106474668151,-0.1964095046355825,2.83696286940888,-0.07931749522686005,-0.09276816248893738,0.04743268713355064,-0.11851659279316665,0.15668140590190888,-9.795746242403984
24.9,3.0999999046325684,181.0,23.42336463928223,24.44375228881836,-79.78282694377313,40.45891959092245,279.08959031677244,0.0002507427707314492,-0.008009961806237698,0.9206926226615906,0.3902064561843872,0.002921999274741488,-0.2339506099873354,2.8535502203544127,-0.12659333646297455,0.0038628275506198406,0.07400592416524887,-0.1773936324566603,0.035769711351022124,-9.820011602640152
25.01,3.0999999046325684,192.0,23.35199737548828,25.342304229736328,-79.78282670306758,40.458919610413055,279.74249864196776,0.005633233115077019,-0.008695540949702263,0.9210968613624572,0.3891957402229309,0.06017529449176565,-0.19268390760110554,2.8373715079347783,-0.013458714820444584,0.037159305065870285,-0.01869525760412216,-0.0480603850632906,0.11242677250877024,-9.656731029152873
25.2,3.0999999046325684,190.0,23.062774658203125,28.992168426513672,-79.7828266827825,40.458919621928615,280.11063314056395,0.0056933541782200345,-0.008646280504763126,0.9217473268508912,0.3876528143882752,0.06383458973484515,-0.17757007486742102,2.8556502136792075,-0.006748349405825138,0.019127711653709408,-0.06814733892679213,-0.12238096280023456,0.11425606478936973,-9.461182596087458
25.3,3.0999999046325684,193.0,23.142906188964844,27.656269073486328,-79.78282657260506,40.458919722550455,280.39571881866453,0.005094652064144611,-0.008300651796162128,0.922404944896698,0.3861016035079956,0.05355408025898852,-0.1770898227514658,2.8490976387750067,-0.04208776727318764,0.01691795326769352,-0.06621763110160828,-0.1807211732491851,0.3096705874800682,-9.661404708623888
25.5,3.0999999046325684,196.0,23.22053337097168,26.61458778381348,-79.78282662290273,40.45891986500804,281.0389225540161,0.001989393029361964,-0.006298577878624201,0.9234899282455444,0.3835659325122833,0.03638767986599895,-0.14918298294901805,2.921503345326992,-0.09075286984443663,-0.047169022262096405,-0.0002043801941908896,-0.16167838158085945,0.2080744115263224,-9.901689019203186
25.6,3.2000000476837163,200.0,23.15041732788086,27.98229217529297,-79.78282653196112,40.45891994959069,281.3321640548706,0.0011042132973670964,-0.006430859677493572,0.9238057136535645,0.38280603289604187,0.033613049997760235,-0.15065747837990734,2.9407099530421896,0.005344581324607135,0.02452610805630684,-0.010174156166613102,-0.1823277505673468,0.031126355174928906,-9.970459291934967
25.71,3.2000000476837163,204.0,23.27186584472656,25.46953201293945,-79.78282661787848,40.45891998896937,281.6882603225708,0.00014589341299142689,-0.006379635073244572,0.9239510297775269,0.3824576437473297,0.030704286726899763,-0.1378226128930879,3.012915101808138,-0.03059028647840023,-0.03700894117355347,0.0534333772957325,-0.16794814992696047,0.1510712217539549,-10.060404671430588
25.9,3.299999952316284,203.0,23.358257293701172,24.300621032714844,-79.7828267367005,40.4589203480041,282.6374094543457,-0.0023304130882024765,-0.01086369063705206,0.922819972038269,0.3850714564323425,0.07656238790960261,-0.1380620053391814,3.045990757759514,-0.012945493683218956,0.004920016974210739,-0.10030284523963927,-0.05711642475798726,0.17998785931617026,-9.79847630739212
26.1,3.299999952316284,203.0,23.248077392578125,26.26470947265625,-79.78282671520199,40.45892043225636,282.94063020324705,-0.00324602983891964,-0.01119279582053423,0.9227674007415771,0.385181188583374,0.08882614622106842,-0.14196352967912962,3.007261842702924,0.08922843635082245,-0.04357296973466873,0.08353208005428314,-0.10615945268422364,-0.06775492657441648,-9.554355053901674
26.2,3.5,204.0,23.37578582763672,23.39411926269531,-79.78282688262576,40.458920723524045,283.2887251434326,-0.002368415240198374,-0.0112652238458395,0.9227825999259948,0.3851490914821625,0.11480730006337685,-0.14152245298313262,3.0174050318862204,-0.02795526385307312,-0.04645783081650734,0.008883344940841198,-0.22575818236917256,0.05035895294509828,-9.58205857694149
26.4,3.4000000953674316,204.0,23.24056434631348,25.962541580200195,-79.78282694983244,40.45892094268359,283.8915083465576,0.0017927507869899273,-0.011518941260874271,0.9232757687568665,0.3839610815048218,0.12932146219009838,-0.1197651745407666,2.9966583592663745,-0.06309820711612701,0.046865709125995636,0.015643002465367317,-0.1990892145037652,0.023674535639584063,-9.636937034726143
26.5,3.299999952316284,206.0,23.30942726135254,25.501338958740234,-79.78282723679308,40.458921062100245,284.5443289337158,0.001892033964395523,-0.012200426310300829,0.9233335256576538,0.3838005661964417,0.15677459230514004,-0.0792185343794357,3.0515345912637564,-0.015043697319924831,-0.07174378633499147,0.032322272658348083,-0.04095179708674551,-0.021701109493151308,-9.834192270040512
26.7,3.299999952316284,206.0,23.29315185546875,25.14350891113281,-79.7828273327672,40.45892119452589,284.88236642456053,0.000596941914409399,-0.011480173096060751,0.922899067401886,0.3848704993724823,0.16687486488574174,-0.08178786034611406,3.0861801275862213,0.09211107343435287,0.08534976094961166,0.16887390613555908,-0.17223671715706587,-0.13181492448784413,-9.989296681880953
26.8,3.299999952316284,199.0,23.211767196655273,25.906879425048828,-79.78282742457777,40.458921278389404,285.19165254211424,0.0005299893673509358,-0.010223856195807457,0.9223781228065492,0.38615262508392334,0.15161613092122858,-0.07013529422144002,3.0948217251143464,-0.023728232830762863,0.0744532123208046,0.004211185034364462,-0.13510151649825275,0.19670239934697747,-9.89858882546425
27.0,3.299999952316284,196.0,23.42962455749512,22.90110969543457,-79.78282762054249,40.45892140042703,285.83195710754393,0.0036814953200519094,-0.009791792370378971,0.9209876656532288,0.38945135474205017,0.15826841465284913,-0.03764698002803279,3.1257458921625094,-0.055208560079336166,0.04721417650580406,-0.02729806862771511,-0.022940015718340874,0.2656975888833404,-9.901512433290485
27.1,3.299999952316284,193.0,23.42837333679199,23.09990310668945,-79.78282774228512,40.458921467136776,286.14442277526854,0.005854747258126736,-0.010987668298184872,0.9206145405769348,0.3902741968631744,0.17849483785849332,-0.02632833198861184,3.1121399371867966,0.0277567021548748,-0.010914694517850876,0.027889668941497803,-0.06981270337477327,0.13387438693083822,-9.761432442069054
27.3,3.299999952316284,192.0,23.320695877075195,24.49941635131836,-79.7828279724858,40.45892150406169,286.7770865020752,0.007548614405095576,-0.008286000229418278,0.9212980270385742,0.3886958658695221,0.16949693794313786,0.0012873887022159455,3.0563782669693604,-0.052118536084890366,0.09662803262472153,0.017795421183109283,-0.11489577759057285,0.15543291572481396,-9.547307404875756
27.4,3.2000000476837163,188.0,23.47845458984375,22.503520965576172,-79.78282809715323,40.45892154707134,287.0811235961914,0.01058165542781353,-0.007655426859855652,0.9217115640640259,0.3876563310623169,0.17042118424151811,0.015843390768279574,3.0229223352516477,-0.04814223572611809,0.0523388534784317,-0.07051863521337509,0.01854626941261813,0.30603829711675645,-9.522512286901476
27.6,3.2000000476837163,183.0,23.34323310852051,23.974597930908203,-79.78282853591229,40.45892150472446,287.70951104736326,0.011485055088996887,-0.007260465063154696,0.9217341542243958,0.3875844180583954,0.19944346053216264,0.05644441678548511,2.9879464522636585,0.015399918891489506,0.06192751228809356,0.011608391068875791,0.011249732282012702,0.3499692323058844,-9.583085932731633
27.7,3.2000000476837163,183.0,23.31318473815918,24.01435661315918,-79.78282879286238,40.45892151867896,288.04064584350584,0.010133790783584118,-0.006508822552859783,0.9215261340141296,0.388129472732544,0.1933620429078496,0.07894701447069352,3.016523834947273,-0.060697361826896674,-0.00012060518201906233,-0.024690600112080567,-0.08721078291535378,0.4006530072167516,-9.632538174390794
27.9,3.0999999046325684,181.0,23.35325050354004,24.769775390625,-79.78282913744933,40.45892155910449,288.64447045898436,0.012048249132931229,-0.008112953044474125,0.9209370017051696,0.3894408643245697,0.1821309150418744,0.06936437444679143,3.0006575353651126,-0.08252224326133728,-0.04872237518429756,0.04327377676963806,-0.0970801154896617,0.4196536441147328,-9.66393713772297
28.0,3.0999999046325684,177.0,23.13163757324219,26.89289855957031,-79.78282931105393,40.45892157822103,288.959564453125,0.012473280541598795,-0.00801688153296709,0.9206322431564332,0.3901494741439819,0.2027405982188136,0.06672851678580033,2.9930106600357003,-0.0018009670311585067,-0.06904378533363342,0.02716471441090107,-0.15272584673948586,0.4223993869498373,-9.602673520445824
28.2,3.2000000476837163,177.0,23.29064750671387,23.799659729003906,-79.78282983458298,40.45892162803067,289.57165170288084,0.012277432717382908,-0.004466221667826176,0.9212516546249392,0.3887477517127991,0.2201922413151424,0.10339744270261852,3.0565412651882893,0.024132253602147102,0.041086770594120026,-0.03952388465404511,-0.002055305438116193,0.16197655303403735,-10.097930932044983
28.3,3.299999952316284,176.0,23.30692481994629,24.300621032714844,-79.78283022001398,40.458921671520265,290.18705392456053,0.016122495755553246,-0.00498949782922864,0.9230119585990906,0.3844010829925537,0.23785862491171345,0.1007567638905217,3.0737691121398485,0.0784321203827858,-0.0400795042514801,0.027312148362398148,-0.028758221415337182,0.14822904554195704,-9.994728745222092
28.5,3.299999952316284,176.0,23.320695877075195,24.26086235046387,-79.78283048454911,40.458921685328775,290.49950814819334,0.01544847711920738,-0.0058851889334619045,0.9237751960754396,0.3825784027576447,0.24528472841186555,0.0966551749755402,3.0795644305962617,0.034926071763038635,-0.09337656199932096,0.02757994458079338,-0.1945847205631435,0.2742061281949282,-9.786905252337457
28.6,3.4000000953674316,170.0,23.400827407836914,23.15556526184082,-79.78283066453494,40.4589217188585,290.80791116333006,0.01500941626727581,-0.00826798565685749,0.9241808652877808,0.3815707862377167,0.2284290467897477,0.08397016945035865,3.077673059620712,-0.05782027542591095,-0.04434162750840187,-0.04030141234397888,-0.021982643790543082,0.19487176403403286,-9.790789557695387
28.8,3.4000000953674316,172.0,23.310680389404297,24.03026008605957,-79.78283097549551,40.458921714801264,291.4229605255127,0.014284691773355009,-0.013130038045346735,0.9238137602806092,0.3823503255844116,0.2310023466654272,0.04792710241854972,3.0378022508446283,0.06203780323266982,-0.029399985447525975,-0.04274551942944527,-0.17194355238229034,0.2904213525541127,-9.673735316991808
28.9,3.5,172.0,23.265605926513672,24.78567886352539,-79.78283113247029,40.458921737430686,291.7264921722412,0.014159439131617546,-0.011098149232566357,0.923515260219574,0.3831397294998169,0.21968924499893194,0.03258849026755988,3.018613843731256,0.0670437440276146,-0.04478487744927406,0.08962727338075638,-0.21063728269189605,0.2041207801178098,-9.62809136688709
29.1,3.5,172.0,23.260597229003906,24.05411529541016,-79.78283142256524,40.45892179902777,292.3316519317627,0.01583453081548214,-0.009872871451079844,0.923407256603241,0.3833677768707275,0.1873522746529923,0.05805179657164309,2.995049601370333,-0.10712579637765884,-0.07288612425327301,-0.008936841972172259,-0.12652654733508825,0.3668154625967145,-9.564740293622018
29.2,3.700000047683716,171.0,23.184223175048828,25.946638107299805,-79.78283152904511,40.458921767768906,292.93546128845213,0.01663830131292343,-0.014959191903471947,0.9237781167030334,0.3822740316390991,0.2035374600751364,0.025923055762576662,2.971317411198343,0.032794632017612464,0.0571361780166626,-0.0366147980093956,-0.2574188999645412,0.4276799343153835,-9.580043041706086
29.4,3.5999999046325684,166.0,23.22679328918457,25.1673641204834,-79.78283164952992,40.4589217678269,293.23295808410643,0.013621315360069277,-0.015389892272651197,0.9236125349998474,0.3827762007713318,0.1976179450338342,0.02546661159135428,2.968807439925125,0.06822894513607025,0.02392054907977581,-0.03711971640586853,-0.07745481323450804,0.3792342542856932,-9.77782277226448
29.5,3.700000047683716,166.0,23.15041732788086,26.54302215576172,-79.78283175788644,40.45892171232045,293.52623582458494,0.012594684958457949,-0.014366411603987215,0.9233006238937378,0.38360267877578735,0.1559763135523675,0.03530093954839572,2.964067557835175,-0.00954530481249094,0.0051436391659080965,0.0216232780367136,-0.06132952636107801,0.3414224668219686,-9.701020764112473
29.7,3.700000047683716,168.0,23.069034576416016,26.86109161376953,-79.78283184417916,40.45892170892171,294.11808419799803,0.016684992238879204,-0.0026353306602686644,0.9225521683692932,0.3855026662349701,0.14330357819837813,0.06698577970813542,2.965497534251308,0.03839032724499703,0.07582226395606995,0.06161758676171303,-0.011646899837069215,0.3773573711514473,-9.81144543170929
29.8,3.700000047683716,176.0,23.208011627197266,24.6027889251709,-79.78283194757161,40.45892168589506,294.4150965270996,0.017337005585432053,0.0014843200333416462,0.9220070838928224,0.3867821097373961,0.1396487207912693,0.10264622728019787,2.9642326186577304,0.008514447137713429,0.028344148769974712,-0.05267302319407463,0.10102307572960854,0.4074446943774819,-9.79083633542061
30.0,3.5999999046325684,170.0,23.09282302856445,25.779651641845703,-79.78283209269111,40.45892161006087,294.99623513793944,0.015209222212433815,-0.00044443190563470125,0.9222064018249512,0.38639864325523376,0.08785428140199969,0.1024350734673008,2.934111232774044,-0.07485707104206085,-0.01128037180751562,-0.07068821042776108,-0.07378004833124578,0.33482063144445423,-9.630330265760422
30.1,3.5999999046325684,171.0,23.02771759033203,26.39193725585937,-79.7828322021579,40.45892149550284,295.5748293457031,0.013409879989922048,-0.0007288617780432105,0.9237774014472958,0.3826945722103119,0.07470784438655087,0.0958596800450049,2.9550915624626333,-0.014415252022445204,-0.045926719903945916,0.035014808177948,0.10099907473661006,0.1979133028909564,-9.831066348552703
30.3,3.5999999046325684,171.0,23.036481857299805,26.25675773620605,-79.78283223279456,40.45892145800332,295.8721296844482,0.015550028532743454,-0.003468730952590704,0.9245898723602296,0.3806307911872864,0.04972260084866853,0.07085627330572157,2.9815806757215237,-0.15111352503299713,-0.052363961935043335,-0.11657121032476425,-0.013960464913398028,0.3395581917464733,-9.94324401140213
30.4,3.5999999046325684,174.0,23.062774658203125,25.994348526000977,-79.78283224488422,40.458921429865505,296.1710569915772,0.016378581523895264,-0.002757910406216979,0.9250680804252625,0.3794380128383637,0.08903573059232722,0.0382561630366509,2.987756761605648,0.14595481753349304,0.040070485323667526,-0.0021135625429451466,0.009649253427051007,0.2799192416109145,-9.890538378953934
30.6,3.5999999046325684,171.0,22.972625732421875,27.67217254638672,-79.78283224018405,40.458921345870536,296.73958802795414,0.010362899862229824,0.000329282192979008,0.9254303574562072,0.37877607345581055,0.06517871438554264,0.03513079476790657,2.9320303203996767,0.1504697948694229,-0.008973846212029457,-0.010069896467030048,-0.03243278760463,0.2157861397974193,-9.688813531994821
30.7,3.5,174.0,23.091571807861328,25.61266326904297,-79.78283212792849,40.45892128820039,297.31190896606444,0.00479882350191474,-0.0025733043439686303,0.9254378676414492,0.3788603842258453,0.01103395488582564,0.02399114112734554,2.9423754504557205,-0.055956147611141205,-0.06372567266225815,-0.08173104375600815,0.0008455987460911274,0.219932382144034,-9.862745393514636
30.9,3.4000000953674316,176.0,22.900007247924805,28.578676223754893,-79.78283210737419,40.45892127032593,297.6061613616943,0.006847198586910963,-0.007545439060777427,0.9259868860244752,0.3774183690547943,0.005615870871589283,-0.01129716292163467,2.9439043498023865,-0.046327777206897736,-0.002202130388468504,-0.09677813202142717,-0.1191471236385405,0.1946360481530428,-9.852510427236558
31.0,3.5,185.0,22.85243034362793,27.886871337890625,-79.78283185942298,40.45892130857949,297.88626695251463,0.007602749858051538,-0.007905776612460613,0.926186978816986,0.3769051432609558,0.01864999874361289,-0.04765615274358378,2.946426485128756,0.08139941841363907,-0.016512079164385796,0.07504452764987946,-0.15661239048466088,0.16475432764738798,-9.925559692382812
31.2,3.4000000953674316,186.0,22.728477478027344,29.771442413330078,-79.78283176929268,40.45892124260988,298.46284509277336,0.002645974513143301,-0.00092643522657454,0.9254882931709292,0.3787659704685211,-0.0005901769165314308,-0.029624748772936006,2.974246779442348,0.027464138343930244,0.023165225982666016,0.07928600907325745,-0.13717962607741355,-0.09166144592687488,-10.056221573352817
31.3,3.5,188.0,23.0815544128418,25.18326759338379,-79.78283172424001,40.458921228494894,298.76246667480467,0.004612547345459461,-0.0002596585836727172,0.9249313473701476,0.380106121301651,-0.027820411252950532,-0.0217342390355233,3.0244687707601763,-0.09164509922266006,0.029088478535413742,-0.033576667308807366,-0.06641474931500853,0.2208524049818516,-10.274809205532074
31.5,3.5,189.0,22.91753578186035,27.15530776977539,-79.78283163897818,40.45892128597032,299.3524172363281,0.006461279466748239,-0.006687375251203775,0.9235202074050904,0.3834372460842133,0.02345195958594852,-0.019307221506678712,3.075920707229504,-0.005989405792206526,-0.003738355124369264,0.06828674674034119,-0.09239278642460703,0.14394512867555026,-10.284004536867142
31.61,3.5999999046325684,192.0,22.93381309509277,27.52108955383301,-79.78283160505208,40.45892128493449,299.6628344116212,0.004077437799423933,-0.008570306934416294,0.9228885173797609,0.3849504590034485,0.030325025418388742,-0.04685240793570302,3.126660174983348,0.039650876075029366,-0.08267606794834137,0.0563838966190815,-0.1865910468623042,0.1031539472937584,-10.259064992666245
31.8,3.5999999046325684,195.0,22.98514747619629,26.773622512817386,-79.78283141031044,40.45892136386711,300.25006127929686,0.004804396536201239,-0.01301687490195036,0.9228478074073792,0.3849150538444519,0.003547148722248636,-0.09196848008341592,3.1163805811844,-0.01368768885731697,-0.02044742926955223,0.00025716688833199436,-0.16995297744870186,0.2145345250144601,-9.99697875380516
31.9,3.700000047683716,195.0,22.9638614654541,26.94856262207031,-79.78283115844896,40.458921299079286,300.8464586791992,0.0005940913106314838,-0.009098337031900884,0.9228362441062928,0.3850846588611603,0.006764011863737318,-0.09012222915314563,3.0937810824761267,-0.0031646378338336945,-0.04660795256495477,-0.035966791212558746,-0.2415749372541905,0.13499273087829353,-9.867785693407061
32.1,3.700000047683716,196.0,22.89499855041504,27.560848236083984,-79.78283109656955,40.45892130509921,301.15671182250975,-0.0016225578729063272,-0.008576501160860062,0.923151969909668,0.3843362927436829,-0.0009577588225721992,-0.0876983306177516,3.1091482649367816,-0.00986007787287235,0.003059866139665246,0.020633546635508537,-0.10221534127369523,0.05693335209041834,-9.941474643945693
32.2,3.700000047683716,199.0,23.06402587890625,25.00832939147949,-79.78283094925439,40.458921334080685,301.4486200866699,-0.0009635549504309893,-0.008885609917342663,0.9234775900840759,0.383548378944397,-0.011962168330161713,-0.09948692536345352,3.109408267744169,-0.0964350923895836,-0.07918170094490051,0.026396119967103004,-0.21544506439939146,0.13724956425838172,-10.003398996591567
32.4,3.799999952316284,197.0,22.936317443847656,27.17121124267578,-79.7828308446406,40.45892138848152,302.07213998413084,0.006434419192373754,-0.010520689189434052,0.9234204292297364,0.38359189033508295,0.045493456316482106,-0.10673470713825199,3.114110169497497,-0.013084791600704191,-0.05709906294941902,0.019305238500237458,-0.10664952244609596,0.2262734682485461,-9.846946216821667
32.5,3.799999952316284,196.0,22.952592849731445,26.92470741271973,-79.78283072247699,40.4589215605963,302.67990518188475,0.0076579428277909764,-0.011763210408389568,0.9226038455963136,0.38549357652664185,0.09041649430552,-0.11875019070645455,3.1305693441766325,0.05103493854403497,0.010017483495175837,-0.014023366384208202,-0.14058699963614346,0.35037298254668714,-9.930042167901991
32.7,3.799999952316284,195.0,23.139148712158203,24.65049934387207,-79.78283093760852,40.458921481751965,303.00303674316405,0.006677657831460238,-0.011756801046431065,0.9227288961410522,0.3852124512195587,0.08559269695400208,-0.07554484564811173,3.131448514347009,0.010003354400396349,0.03859998658299446,-0.0014365942915901544,-0.18391545234248044,0.30874175727367403,-9.779300948381424
32.8,3.9000000953674316,189.0,23.03522872924805,25.61266326904297,-79.78283092692287,40.45892150729283,303.3147661743164,0.006112326867878437,-0.0130629139021039,0.923108160495758,0.3842699229717255,0.06745314528277732,-0.0774652746652847,3.098519911252313,-0.1248377189040184,-0.06210281699895859,-0.052518315613269806,-0.31550018839538096,0.4574400692805648,-9.517250962257387
33.0,3.9000000953674316,197.0,23.11160469055176,24.10977935791016,-79.7828310042306,40.45892143908128,303.95358682250975,0.0038194998633116475,-0.014036085456609726,0.92381352186203,0.3825664520263672,0.08821199374875384,-0.087513931136565,3.081950454709153,0.012819172814488413,0.030238522216677662,-0.1164412721991539,-0.2145794023945928,0.2746148120239377,-9.546458973884583
33.11,4.0,196.0,23.142906188964844,25.000377655029297,-79.78283101582728,40.45892146809712,304.2602121887207,0.00348052172921598,-0.01488928496837616,0.924060583114624,0.38194018602371216,0.08599880167214426,-0.08696340719365381,3.0457680733397017,-0.014957200735807419,-0.0525779165327549,-0.09073271602392197,-0.2033592899143696,0.2063882024399936,-9.463968209624287
33.3,4.099999904632568,196.0,22.93005752563477,27.32229423522949,-79.78283102580667,40.458921525353816,304.89075494384764,0.004405921790748836,-0.016053682193160057,0.9245733618736268,0.3806403577327728,0.08435170306714539,-0.10117628659474742,3.0217119622676822,-0.0798666700720787,-0.01235873531550169,-0.12570221722126007,-0.36506389260292055,0.4956240320205689,-9.486026245951653
33.4,4.099999904632568,194.0,22.87747001647949,27.57675170898437,-79.78283101842561,40.45892156177658,305.5257456359863,0.003655756358057261,-0.0174968633800745,0.9254833459854126,0.3783663511276245,0.0986455495627753,-0.11601601353680074,3.0614740058530487,-0.02115283720195293,0.03095104545354843,-0.1246732547879219,-0.40032618440687656,0.2280182225815952,-9.648103462457655
33.6,4.099999904632568,191.0,23.032724380493164,25.07989501953125,-79.78283102405372,40.458921603146884,305.83268380737303,0.004740223754197359,-0.015917427837848663,0.9255356192588806,0.3782963156700134,0.10400161682136376,-0.12108348166795632,3.0688341436843056,0.04301800578832626,0.0760224461555481,0.05793264880776405,-0.3083286514878273,0.07773869555443526,-9.84118203163147
33.7,4.099999904632568,190.0,22.873714447021484,27.78349876403809,-79.78283098306807,40.45892166649846,306.1531221923828,0.0031215010676532984,-0.014891614206135271,0.9248595237731934,0.38000452518463135,0.10330451850435032,-0.1011062817911582,3.0948480469124577,-0.033129628747701645,0.0022307184990495443,0.037327948957681656,-0.21823981421068311,0.27337492821738124,-9.784748214483262
33.9,4.199999809265137,190.0,22.87997436523437,28.29241180419922,-79.78283102134226,40.45892175282045,306.77296853637694,9.87919484032318e-05,-0.017623037099838257,0.9237216711044312,0.3826588392257689,0.10697306132100158,-0.1102437589407922,3.0944101127707326,0.11594867706298828,-0.07292812317609787,0.11861329525709152,-0.30167283900082115,-0.05162716833874584,-9.810823287963867
34.0,4.300000190734863,195.0,22.73724174499512,29.30228614807129,-79.7828309154467,40.45892177755536,307.08206964111326,-0.0012053288519382475,-0.01936665177345276,0.9234515428543092,0.3832242488861084,0.08802093433316216,-0.12742494781017,3.0923060869068943,0.004684686195105314,-0.05241350084543228,-0.0889069214463234,-0.34190687209367754,0.3677031795680523,-9.708408721089363
34.2,4.400000095367432,201.0,22.833648681640625,28.37988090515137,-79.78283086963509,40.45892187185435,307.69849420166014,0.0016997377388179302,-0.018520453944802284,0.9241968393325806,0.38146331906318665,0.10525703193811366,-0.12279094242053612,3.088283675951017,-0.008090868592262268,0.01592971198260784,-0.0790427178144455,-0.19882126584649087,0.3167172497883439,-9.723037869930268
34.31,4.5,201.0,23.01144027709961,25.24688148498535,-79.78283095188469,40.458921985653255,308.31459069824217,-0.0026502429973334074,-0.01810005679726601,0.9247002601623536,0.38025638461112976,0.12363084100177862,-0.12528619405553812,3.0608192270915566,0.09553445875644684,-0.07249870151281357,0.11877012252807614,-0.2992308955639601,0.34191096514463426,-9.65822557747364
34.5,4.5,201.0,22.8962516784668,25.7876033782959,-79.78283086316897,40.45892203608373,308.61575341796873,-6.06683679507114e-05,-0.020204918459057808,0.9246333241462708,0.3803221583366394,0.09805714935462133,-0.12542913240169515,3.0540710540338045,-0.13213936984539032,-0.1103723645210266,-0.06724628806114198,-0.3014613159745932,0.3457886923849583,-9.698534528017042
34.6,4.599999904632568,199.0,22.950090408325195,26.511213302612305,-79.78283091932363,40.45892210210755,308.9222757873535,0.004127699416130781,-0.022452926263213158,0.92434161901474,0.38088259100914,0.13952108890015175,-0.13488682010677006,3.0647568485483885,-0.05142812058329582,0.06699052453041078,0.1875012218952179,-0.3473633841052652,0.07356727363541722,-9.85222742199898
34.81,4.599999904632568,196.0,22.754770278930664,28.8887939453125,-79.78283094684933,40.45892217003593,309.5309984741212,0.011226301081478596,-0.02615686506032944,0.9241488575935364,0.3809706866741181,0.18014923306638853,-0.114933299011382,3.0578201631612973,0.04121658205986023,0.007301420904695988,0.0826120525598526,-0.3037410905398429,0.07617280206643046,-9.819118148088458
34.91,4.599999904632568,195.0,22.747257232666016,28.63433837890625,-79.78283096753927,40.4589222860779,310.13225198364256,0.00867991428822279,-0.0213971808552742,0.9244414567947388,0.3806242346763611,0.17340845353840167,-0.10369706265374756,3.0899766080417086,0.02722450345754624,0.021002000197768208,-0.03859822079539299,-0.3050500811263919,0.3574609773606062,-9.840497907400133
35.1,4.599999904632568,193.0,23.0177001953125,25.60471153259277,-79.78283101864838,40.4589223100566,310.44417596435545,0.004865902941673994,-0.018002908676862717,0.9246104955673218,0.3804573118686676,0.1441558127840041,-0.09008052296208732,3.1404785455255024,0.07478008419275284,-0.031013278290629387,0.05102339386940002,-0.3791075889766217,0.2053621805459261,-10.233638960123065
35.2,4.599999904632568,192.0,23.091571807861328,23.07604789733887,-79.78283093142734,40.45892225445551,310.7337076721191,0.004039367660880089,-0.01664014533162117,0.9246209263801576,0.3805036842823029,0.11876964714632245,-0.08230067635627288,3.136805875567561,0.06005033105611801,0.02257171645760536,0.025838267058134082,-0.32743494026362896,0.03531290676444769,-10.130980564355848
35.4,4.599999904632568,192.0,22.79859161376953,27.7596435546875,-79.78283102178919,40.4589223005402,311.36185479736326,0.004571018740534782,-0.01909976080060005,0.9239885210990906,0.3819156587123871,0.11273900310954844,-0.08085031967204886,3.1333811240270912,-0.02995789609849453,-0.0041192714124917975,0.07050815224647522,-0.358568915091455,0.4048575207218528,-9.795193680524829
35.5,4.599999904632568,192.0,22.86495018005371,27.163259506225586,-79.78283089436006,40.45892233422265,311.6472742614746,0.004182811826467514,-0.02071964368224144,0.9235617518424988,0.3828667104244232,0.11134486826570096,-0.09673551863351484,3.1167426737220336,-0.046481698751449585,-0.061977159231901176,0.0637582466006279,-0.3155668101087213,0.09513180496171117,-9.992645967006684
35.71,4.599999904632568,193.0,22.988903045654297,25.07194328308105,-79.78283082705565,40.45892232754468,312.2470514831543,0.0028065985534340143,-0.01892365328967572,0.9238989949226379,0.38215798139572144,0.09384621824234414,-0.10164176801985096,3.1174590638001285,-0.07110434770584106,-0.01966565474867821,-0.06497764587402344,-0.360382282845676,0.3176849639788269,-9.916239230632783
35.8,4.599999904632568,195.0,23.03022003173828,24.73796844482422,-79.78283088583005,40.45892236633134,312.8703653869629,0.002462717238813639,-0.01818253844976425,0.9250226616859436,0.37946873903274536,0.10030430525674916,-0.09621749980104699,3.1064431773759105,0.0333726741373539,-0.04765114560723305,-0.015706725418567657,-0.3205333619937301,0.1843523489870131,-9.799369177222252
36.0,4.599999904632568,196.0,22.92129325866699,25.09579849243164,-79.78283083719629,40.45892241505611,313.16595483398436,0.0022978950291872025,-0.019092127680778503,0.9250321388244628,0.3794020116329193,0.11000192326928064,-0.10698570562664286,3.1014382238348666,0.0716492310166359,-0.01802338659763336,0.06837160140275955,-0.3443847028166056,0.18531907645985485,-9.885395168066026
36.1,4.699999809265137,197.0,22.946332931518555,25.66037368774414,-79.78283087290205,40.45892245427003,313.47738671875,0.002504747128114105,-0.020115980878472328,0.9247882962226868,0.3799418210983277,0.10863862651154726,-0.1133918687630747,3.1176437446837366,-0.07409437000751495,-0.06970749795436859,0.0073849777691066265,-0.3462889947742224,0.1905892084725201,-9.927527865171431
36.31,4.699999809265137,197.0,23.10784721374512,24.316524505615234,-79.78283082169561,40.45892249442354,314.089088684082,0.0059564802795648575,-0.026038942858576768,0.9246112108230592,0.3799746036529541,0.13044902905745925,-0.1279206582852877,3.113056325216768,-0.06451374292373657,-0.15223290026187894,0.06484450399875641,-0.5096155785396695,0.2737864442914725,-9.766251717209816
36.4,4.800000190734863,197.0,22.97012138366699,25.7876033782959,-79.78283077068103,40.45892253111594,314.6953127441406,0.01004196796566248,-0.03058099001646042,0.9244316816329956,0.37998703122138977,0.14980330219298515,-0.13709957055990246,3.041819457690526,-0.03413150832056998,0.043173305690288544,0.0006583602516911924,-0.2856192901544273,0.3693171207234264,-9.49661438405514
36.6,4.900000095367432,198.0,22.98264312744141,25.18326759338379,-79.78283081614059,40.45892255155681,314.9987680969238,0.012370978482067585,-0.02749542891979217,0.9248894453048706,0.3790390193462372,0.1719606537742552,-0.1335528342036187,3.0163018197031515,0.02733736857771873,0.07078197598457336,-0.09688682854175568,-0.3890108719468117,0.4287835231795907,-9.507548092603683
36.7,5.0,197.0,23.09657859802246,24.411945343017567,-79.78283082401953,40.458922612122116,315.6023485717773,0.01161894481629133,-0.021852456033229828,0.9255163073539734,0.37789830565452576,0.1605024224591538,-0.08927057374438996,2.9951731185148973,0.03760833293199538,0.007462756708264352,-0.072272390127182,-0.44011772945523264,0.20960950663313271,-9.59400034546852
36.9,5.0,197.0,22.88122749328613,26.24880599975586,-79.78283085313372,40.458922631097735,315.9015696105957,0.010654861107468605,-0.020496683195233345,0.9256461262702942,0.3776846230030061,0.13761512042118146,-0.09510017127102427,2.9861422009337413,-0.01932065561413765,0.00013414696149993688,-0.14856629073619845,-0.3717965959757567,0.4690547226369381,-9.639626169204712
37.0,5.099999904632568,192.0,22.886234283447266,26.89289855957031,-79.78283086489942,40.4589226257546,316.204380279541,0.010443483479321005,-0.020259378477931026,0.9256519675254822,0.37768906354904175,0.12897980562950614,-0.09967240583563697,3.0102440842146883,-0.018967673182487488,-0.0899934470653534,0.05301809310913086,-0.4387800326943398,0.39178150199353695,-9.755381743311883
37.2,5.099999904632568,193.0,22.85493278503418,26.61458778381348,-79.78283082402021,40.458922676240725,316.80561471557616,0.012674061581492424,-0.026584550738334656,0.9254515171051024,0.3777196705341339,0.14789704139265725,-0.1284105878636934,3.012613327495725,0.02365768514573574,-0.04206942766904831,-0.038831520825624466,-0.5175330739840865,0.3726836551353336,-9.681399847269061
37.3,5.099999904632568,193.0,22.90626716613769,26.43169593811035,-79.78283081673966,40.45892271041697,317.1071474609375,0.009385135024785995,-0.02731221541762352,0.925454318523407,0.3777569830417633,0.15889110955251978,-0.15346519836586786,3.008410777268929,0.15027673542499542,-0.041637822985649116,-0.10196363180875777,-0.4747029136866331,0.2315131764672697,-9.737440146803856
37.41,5.099999904632568,193.0,22.897502899169922,26.86904335021973,-79.78283067121855,40.45892269532287,317.70101190185545,0.0025230611208826303,-0.028674989938735962,0.925601840019226,0.3774025738239288,0.08054547234119408,-0.16579407700947651,3.0184246500221628,-0.021444832906126976,-0.04628553614020348,-0.13454720377922058,-0.5694368338957428,0.4167815648764372,-9.765791541337967
37.6,5.099999904632568,196.0,22.83865737915039,27.370006561279297,-79.7828305740452,40.45892270473232,318.29774499511717,0.0038874517194926734,-0.028414517641067505,0.9262237548828124,0.3758818209171295,0.07147391941622959,-0.16843723489918572,3.050825583897088,0.001835481496527791,0.04735933244228363,0.06608792394399643,-0.5621026713028551,0.2391279140487313,-9.830395088195804
37.8,5.099999904632568,200.0,23.05526161193848,24.507368087768555,-79.78283056202898,40.45892270003097,318.6046259460449,0.004997099284082651,-0.02730899304151535,0.9263582825660706,0.3756191432476044,0.07838997837463223,-0.15200996926156607,3.072057870319824,0.03815583512187004,-0.037628766149282455,-0.04049376770853996,-0.3636926474422217,0.10560319975018502,-10.01756095290184
37.91,5.099999904632568,202.0,22.90626716613769,25.5570011138916,-79.78283054820746,40.4589226899892,318.91196084594725,0.0041671255603432655,-0.027052253484725952,0.9264459609985352,0.3754314184188843,0.07164447411112497,-0.14325711810177927,3.0651245626832937,0.046146761626005166,-0.026305254548788067,-0.025143573060631752,-0.3928901706263423,0.21585332795977594,-9.850529390573502
38.11,5.099999904632568,204.0,22.887487411499023,26.932659149169922,-79.78283035447352,40.458922653778586,319.5095217285156,0.0005111260106787086,-0.02438494935631752,0.9265684485435486,0.3753346800804138,0.037375487260531484,-0.15022212774782173,3.063954507613864,0.032056156545877464,-0.011566178873181343,-0.08941368013620378,-0.4103975382819772,0.4513143434375525,-9.884508730173113
38.2,5.099999904632568,202.0,22.8962516784668,26.25675773620605,-79.78283024117195,40.45892260241799,319.80128503417967,-0.003938743378967047,-0.0232584085315466,0.9264163374900818,0.37576109170913696,0.03504257237429018,-0.14367435799626987,3.055807307990664,0.09370672702789308,-0.0265954602509737,0.14821025729179382,-0.5984405584260821,-0.016248864121735096,-9.812002086639405
38.4,5.099999904632568,208.0,22.82488441467285,27.560848236083984,-79.78283015270254,40.458922579988055,320.40998864746086,-0.0014741660561412573,-0.02564026974141597,0.9260954260826112,0.3764143288135529,-0.015609160229179126,-0.1664703761154192,3.0125014782623323,-0.056192245334386826,-0.03310301899909973,-0.04827173799276352,-0.5053442971408367,0.024641317930072543,-9.517277274727824
38.5,5.300000190734863,210.0,22.791078567504893,26.71000862121582,-79.78282994130353,40.45892249398093,321.0023882446289,-0.0016481291968375444,-0.017265139147639275,0.9277470111846924,0.3728066980838776,-0.011642303566452477,-0.1949525902587124,3.0109825053462527,-0.021300068125128743,0.036569755524396896,-0.07079599052667618,-0.6269120036065579,-0.11570786448195575,-9.636820090413094
38.7,5.300000190734863,212.0,22.93756866455078,25.24688148498535,-79.78282971488012,40.45892243979701,321.29182077026366,-0.0009587428648956119,-0.01889121159911156,0.9283450841903688,0.3712379932403565,-0.059016119680242674,-0.18787339459909,3.012677242528241,-0.08520320802927017,-0.07266085594892502,0.027933584526181214,-0.8430549149215222,0.19423529461026195,-9.756377524137497
38.8,5.400000095367432,208.0,22.950090408325195,24.94471549987793,-79.78282957947579,40.458922454637744,321.59267068481444,-0.006236559711396694,-0.026206746697425842,0.92806077003479,0.3714532852172852,-0.03615274248606863,-0.21553497741630456,2.996015227040987,0.07077524811029434,-0.16040559113025665,-0.012406560592353344,-0.7283582715690137,0.4674525124579668,-9.669528245329856
39.0,5.400000095367432,217.0,22.86495018005371,26.36808204650879,-79.78282934933988,40.45892242393972,322.19450021362303,-0.023087922483682632,-0.03427257761359215,0.9256922602653505,0.37601375579833984,-0.04043951046086845,-0.30907056516402936,2.9485506668184667,0.015366924926638603,-0.025686968117952347,-0.029050312936306,-0.6307146672159434,0.1608505620248616,-9.486716217398644
39.11,5.5,218.0,22.73849296569824,27.7039794921875,-79.78282904840245,40.458922443267824,322.7813074645996,-0.018972860649228096,-0.033173348754644394,0.9243009686470032,0.37974655628204346,-0.041191520791170236,-0.31864191757906224,2.9544234762600947,-0.09945216774940492,0.12787507474422455,-0.05525118485093117,-0.5644173281639815,0.1653592586517334,-9.811698031425475
39.3,5.5,218.0,22.82738876342773,26.72591209411621,-79.78282900508515,40.45892250224572,323.0796587524414,-0.013662355020642279,-0.031329337507486336,0.9244555830955504,0.3797547817230225,-0.0035268533633908625,-0.2974554267749922,2.983206801459688,-0.09436999261379242,0.016395095735788345,0.0707230269908905,-0.5965677317976952,0.2385606062225997,-10.019294067621232
39.41,5.599999904632568,219.0,22.677143096923828,28.34012222290039,-79.78282898382794,40.45892256838531,323.3802530822754,-0.007213275413960218,-0.031243845820426937,0.9246264100074768,0.3795232772827149,0.04393028074116352,-0.2655026313857243,2.999318118360751,-0.15094612538814545,0.10817831754684447,-0.00809079222381115,-0.6019943864643574,0.10937716632150114,-9.869822863340376
39.6,5.699999809265138,215.0,22.70594024658203,28.30036354064941,-79.78282870744331,40.458922644515575,323.9785273132324,0.003377892542630434,-0.03559214249253273,0.9237679243087769,0.3812803328037262,0.1200192215373439,-0.2501399199063789,3.0044774147569604,0.07250294089317323,-0.04126351326704025,-0.04876669496297836,-0.4810472888499498,0.4296649543941021,-9.761562834978104
39.71,5.699999809265138,214.0,22.75226593017578,27.7596435546875,-79.78282859566015,40.45892269194616,324.2663157043457,-0.00017969025066122413,-0.035628490149974816,0.9232217669487,0.3826124370098114,0.12702788068162624,-0.2375331158255496,2.991107453324892,0.006068885326385498,-0.06565070152282715,0.0917692333459854,-0.615592232644558,0.3941566409915686,-9.709721421003342
39.9,5.699999809265138,213.0,22.565710067749023,30.192886352539066,-79.78282857205531,40.45892278107353,324.867897277832,-0.0022204457782208924,-0.03211574628949165,0.9234028458595276,0.3824800848960877,0.08853565072036038,-0.22672706494321154,3.007125847299521,-0.02573759295046329,0.009022977203130722,-0.007982506416738033,-0.5789485726878048,0.09188348480500284,-9.890816706418992
40.0,5.699999809265138,213.0,22.87496566772461,25.708086013793945,-79.7828285553,40.45892284912817,325.46545053100584,-0.001863665878772736,-0.02990298718214035,0.9253575205802916,0.37790992856025696,0.1018113027157567,-0.18460440184114388,3.0529967364513846,-0.005561599973589182,0.03704239800572395,-0.109669990837574,-0.5249245392903685,0.2846181189268828,-10.062571649551392
40.2,5.599999904632568,208.0,22.65961456298828,28.880842208862305,-79.78282843342248,40.458922857375214,325.75039697265623,-0.003305395832285285,-0.03018064610660076,0.9258190989494324,0.3767456412315369,0.10473778862249726,-0.18406646897406514,3.0382660221826976,0.0322975255548954,0.0031006166245788336,0.056106362491846085,-0.4711454311385751,-0.016072570569813253,-9.925866086483005
40.3,5.5,206.0,22.588247299194336,29.071685791015625,-79.78282845813993,40.45892288806557,326.05624795532225,-0.0019447655649855735,-0.03058777190744877,0.92601078748703,0.3762508630752564,0.08506799131135429,-0.18652465756237246,3.0650883567658624,-0.08483152091503142,-0.045394111424684525,-0.10702409595251083,-0.5257636147364975,0.4526797048375011,-9.978551838397982
40.5,5.5,206.0,22.581987380981445,29.43746757507324,-79.78282845632495,40.45892294436271,326.6536219177246,0.002707978710532189,-0.03267795592546463,0.926236927509308,0.3755129873752594,0.12263296255860195,-0.18009820440973132,3.088385039156188,-0.054216302931308746,-0.0365569181740284,-0.02548426203429699,-0.577095005325973,0.4914395086839795,-9.906270897388458
40.6,5.5,203.0,22.791078567504893,26.185192108154297,-79.78282850705924,40.45892298201309,327.2537157592773,0.0025505928788334127,-0.03291782736778258,0.92574805021286,0.3766967654228209,0.16341286838760855,-0.17225226526855608,3.1060097292416096,0.08539055287837982,0.014337735250592232,-0.000463376403786242,-0.4619595649838448,0.2781801883131266,-10.065343229770662
40.8,5.5,205.0,22.787322998046875,27.59265518188477,-79.78282856928675,40.458923010082735,327.56562448120116,0.0016644634306430814,-0.032458163797855384,0.925500214099884,0.3773503005504608,0.13828881600576887,-0.17127914975384628,3.119526453982978,-0.09586694836616516,-0.012161812745034695,0.03827732428908348,-0.6962149576842785,0.3250926187634468,-9.91585214495659
40.9,5.5,204.0,22.87246322631836,25.68422889709473,-79.78282864181435,40.45892298706999,328.17729592895506,0.0036083243321627374,-0.031265899538993835,0.9259272813796996,0.3763883113861084,0.15022573132384714,-0.14816507232446954,3.1182576278177248,0.02534854784607888,-0.01932470314204693,-0.04331156238913536,-0.5908023040741682,-0.06497923046350479,-9.915058093070984
41.1,5.5,204.0,22.77605438232422,26.9167537689209,-79.78282871704043,40.45892300190379,328.48976159667967,0.0046922503970563394,-0.030806850641965863,0.9262861609458924,0.3755300939083099,0.14634936692968392,-0.13288730146821687,3.1165569735649483,-0.06316223740577698,0.0025791625957936053,0.03752761706709862,-0.5351136049255729,0.374398606941104,-9.690343163609503
41.2,5.400000095367432,201.0,22.897502899169922,24.32447624206543,-79.78282872076853,40.458922991488535,328.79062295532225,0.0058509516529738894,-0.031662467867136,0.9265230894088744,0.3748578131198883,0.14924366380995605,-0.1252826905220453,3.1038130388619365,-0.05246265232563019,-0.0365547277033329,-0.09036537259817123,-0.5320181620493531,0.3824940404668449,-9.723219133615494
41.4,5.400000095367432,197.0,22.66337013244629,28.10951995849609,-79.78282886833806,40.45892301084166,329.41035104370116,0.004567538853734732,-0.030609486624598507,0.9270467162132264,0.3736664652824402,0.1726022654992127,-0.13095072163146174,3.0770625444478465,0.1616140753030777,-0.016179025173187256,0.03014475107192993,-0.5627806559577585,0.2268877365253865,-9.633108277916909
41.5,5.5,196.0,22.78231430053711,26.98036956787109,-79.78282888872884,40.458922982289664,329.71528649902336,0.002325682202354073,-0.029078830033540726,0.9269173741340636,0.3741301000118256,0.15633308455331188,-0.12129039053454255,3.092398402198007,0.021721942350268364,0.03421960026025772,-0.0704377293586731,-0.6378071205317974,0.5258268012106418,-9.750138545036316
41.7,5.5,195.0,22.89875602722168,24.74592018127441,-79.78282906242144,40.45892295460468,330.33397698974613,0.004096061922609806,-0.02603519894182682,0.926645040512085,0.3750127255916596,0.15018807096800393,-0.11564563853794405,3.1110117160203616,0.0015594931319355965,0.06291700899600983,0.1000249981880188,-0.5272672627866268,0.17682893760502338,-9.87987773537636
41.8,5.5,198.0,22.86995887756348,25.04808807373047,-79.78282923832622,40.45892300069526,330.95603967285155,0.009979493916034698,-0.02576644904911518,0.9270579814910888,0.3738985955715179,0.16391949653349852,-0.10088532180322417,3.0910367769360687,-0.10313217341899872,-0.06751560419797897,-0.025485988706350327,-0.5793707416579128,0.22005466204136606,-9.721367905139925
42.0,5.5,196.0,22.950090408325195,24.57893371582031,-79.78282928286292,40.45892295292731,331.26692224121086,0.010456216521561146,-0.02774480916559696,0.9273006319999696,0.373141348361969,0.1779400182042318,-0.10724221566813316,3.095701428014692,-0.009941157884895802,-0.02266616374254227,-0.03422088921070099,-0.5265437794849277,0.21912553947418928,-9.747802582383155
42.1,5.5,196.0,22.857437133789066,25.58085632324219,-79.78282934160289,40.458922983541335,331.576393371582,0.01025000773370266,-0.029353937134146687,0.9273699522018432,0.3728516101837158,0.17952552453466805,-0.1299905802579181,3.078379382433105,-0.004323840606957674,-0.052052397280931466,-0.010921022854745388,-0.5335292652994394,0.2886397607624531,-9.703799360990523
42.3,5.5,196.0,22.8712100982666,25.52519416809082,-79.78282941026937,40.458922995750534,332.197357421875,0.007168281823396683,-0.03225845471024513,0.9271756410598756,0.3731667697429657,0.16721753578582807,-0.1567035781447497,3.0800491381103665,0.05521475896239282,0.01551756542176008,-0.13216176629066467,-0.4863716172426939,0.4537246388196946,-9.75722361624241
42.41,5.5,194.0,22.767290115356445,26.7497673034668,-79.78282944270904,40.458923018777966,332.50536370849613,0.005193579010665418,-0.03220262005925178,0.9270152449607848,0.37360256910324097,0.1385478658973388,-0.1675988368354404,3.056209987179305,-0.06518919765949249,-0.03960893303155899,0.042000699788331985,-0.6825189513713121,0.4742669306695462,-9.523171852827073
42.6,5.5,199.0,22.78481864929199,26.39193725585937,-79.78282945801138,40.45892303756664,333.11690545654295,0.0042927018366754055,-0.02946029789745808,0.9267064332962036,0.3746051788330078,0.12959810872616284,-0.18088202191661776,3.020197693526056,0.040959250181913376,0.07359293103218079,-0.075934037566185,-0.6425649999082089,0.28153820771723986,-9.681647184491158
42.71,5.5,199.0,22.76478576660156,26.55892562866211,-79.78282939257778,40.458923002250145,333.7346422729492,0.003347380319610238,-0.02682650834321976,0.9267964363098145,0.3745898902416229,0.10742291819893672,-0.14890050262968546,3.0430793196031574,-0.0779910460114479,-0.08076811581850052,0.0048097679391503325,-0.4520553318411112,0.191365207079798,-9.802657066583636
42.9,5.5,199.0,22.79233169555664,25.747844696044922,-79.7828294111838,40.45892302372873,334.038307434082,0.002902039792388677,-0.029918532818555832,0.9266713857650756,0.3746688961982727,0.10432166708528644,-0.14884828542610035,3.0179277265261013,-0.03548315167427063,-0.030112093314528462,-0.10418345779180528,-0.4250407569855452,0.340402822047472,-9.546889328956604
43.0,5.5,200.0,22.77229881286621,26.12157821655273,-79.78282952660146,40.45892296634971,334.3497316894531,0.0029091183096170425,-0.032730892300605774,0.9266825914382936,0.3744059503078461,0.13150689766746473,-0.1496848762315208,3.0029220720784213,0.06328123807907103,-0.04783167317509651,0.00702147837728262,-0.5215894702076912,0.09363616028800607,-9.417966994643212
43.2,5.5,202.0,22.794836044311523,26.28061294555664,-79.78282954652332,40.45892288309575,334.9594957885742,0.002305000089108944,-0.03284357115626335,0.9265500903129578,0.3747278451919556,0.1059741949315004,-0.15330896790094925,2.9785916815302564,-0.02533416822552681,0.03795691579580307,-0.029105719178915024,-0.5758919407054782,0.29170132633298634,-9.470617663264273
43.3,5.400000095367432,203.0,22.69967842102051,28.16518402099609,-79.78282964564585,40.45892286357724,335.54956842041014,0.002919846214354039,-0.02857994846999645,0.9262208938598632,0.37588509917259216,0.11521665973595482,-0.11220120600959388,2.91274801796597,0.10766235738992692,0.023295193910598755,0.07990802079439162,-0.5024796731024981,0.27104983773082497,-9.39037339925766
43.5,5.400000095367432,202.0,22.58323860168457,28.20494270324707,-79.78282973769177,40.45892286291189,335.8565142211914,0.0008966489695012568,-0.028509274125099182,0.9258300065994264,0.3768624067306519,0.09567654705589804,-0.08341466943312037,2.924206297979484,0.003948801197111607,-0.07011628150939941,0.07719841599464418,-0.3505037043616176,0.31310915227979425,-9.487104472517967
43.6,5.300000190734863,200.0,22.588247299194336,28.96036148071289,-79.78282981123726,40.45892283340485,336.14832330322264,0.0005649210652336477,-0.027583440765738487,0.9255859255790708,0.3775310814380646,0.08900439057690683,-0.08209983248130015,2.913548031061146,-0.030640602111816406,0.1183941289782524,0.07888490706682205,-0.4484751547873021,0.12351017891429365,-9.66873068511486
43.8,5.300000190734863,202.0,22.568214416503906,28.849035263061523,-79.78282980334954,40.4589226712312,336.74715447998045,0.006747064646333456,-0.0218235980719328,0.9260658621788024,0.3766699433326721,0.07403047543473301,-0.04130342927059668,2.9506608240119734,-0.08995208889245987,0.07117436081171036,-0.042391493916511536,-0.3139620052278042,0.289552291855216,-9.808037089705467
43.91,5.199999809265137,201.0,22.540668487548828,28.47530174255371,-79.7828298740123,40.45892262050204,337.04251123046873,0.009918035008013248,-0.021080812439322468,0.9264979362487792,0.3755782544612885,0.09066890226226723,-0.02272977976326104,2.9558878025558903,0.04836075007915497,0.0043275062926113605,0.024959895759820938,-0.3247894406318665,0.3534124383330345,-9.840183327198027
44.1,5.199999809265137,201.0,22.55945014953613,29.008071899414066,-79.78282994992561,40.458922408140616,337.6325914916992,0.011096162721514702,-0.020111272111535072,0.9275662899017334,0.3729520738124848,0.08942549461143418,-0.0042264145764605255,2.9780602090971486,0.02637344039976597,-0.0666239857673645,0.011565628461539744,-0.3962419773638249,0.2996251440793276,-9.855443390607837
44.2,5.099999904632568,190.0,22.674638748168945,27.67217254638672,-79.78283002134114,40.458922220928095,338.21621728515623,0.005976790096610785,-0.017269184812903404,0.928048014640808,0.3720119893550873,0.06784814018809271,0.003245565053696362,2.963465339932375,0.04985806345939636,-0.04284805804491043,-0.011102044954895971,-0.3984487530961633,0.14470512052997947,-9.829002281427382
44.4,5.099999904632568,191.0,22.65961456298828,27.560848236083984,-79.78283007163948,40.458922158074046,338.51295495605467,0.0036915533710271116,-0.01835152879357338,0.9277310967445374,0.3727797865867615,0.06026580188978371,-0.0048192101667609046,2.9766596586414016,0.060409769415855415,-0.04503771290183066,0.005697937682271004,-0.3640037193149329,0.19053766161203387,-9.889497574567796
44.5,5.099999904632568,190.0,22.431739807128906,30.60637855529785,-79.78283007919762,40.4589220361038,338.79844689941405,0.003370139515027404,-0.01903330534696579,0.9275267124176024,0.3732569515705109,0.05250469822638035,-0.012162344635524123,2.9787229651316443,-0.03686957061290741,-0.02214173972606659,-0.02045021019876004,-0.3707310505583882,0.20199016436934472,-9.873268042802813
44.71,5.099999904632568,190.0,22.493091583251953,29.49312973022461,-79.78283012510165,40.45892182552093,339.3754351196289,0.003372289473190904,-0.018374791368842125,0.9272146821022034,0.3740642666816712,0.06302149315038243,-0.026916374899979768,2.998607633449275,0.10934919118881226,0.02204083278775215,0.12311433255672455,-0.3153185592591763,0.2004569878801704,-10.039441233873367
44.81,5.099999904632568,193.0,22.665874481201172,27.51313781738281,-79.7828302374289,40.45892174765606,339.9770205078125,0.007053360342979431,-0.01944776810705661,0.9272554516792296,0.3738575279712677,0.07897037347686592,-0.03470210475306041,3.0077812773377093,-0.012647748924791813,-0.05375062301754952,-0.08002129942178726,-0.21345821706578136,0.4590437778085471,-9.8303412938118
45.0,5.099999904632568,194.0,22.6571102142334,27.966388702392567,-79.7828301840356,40.45892160480389,340.2532274780273,0.008909194730222225,-0.020529696717858315,0.9276001453399658,0.3729038536548615,0.07446331403154216,-0.0297798138888435,2.970649911965632,-0.09846577793359756,0.06895920634269714,-0.0647769570350647,-0.34242054998874666,0.4122803417220712,-9.707580755352977
45.1,5.099999904632568,193.0,22.538164138793945,28.79337310791016,-79.78283018077285,40.45892147435885,340.8314440307617,0.008766312152147293,-0.02090231515467167,0.9283836483955384,0.370931476354599,0.08619242222598739,-0.0361689332990299,2.9396709700214374,-0.04713951051235199,-0.022087236866354942,-0.10988880693912506,-0.3906499926745892,0.2371474621072412,-9.659563420414923
45.3,5.099999904632568,193.0,22.478065490722656,29.65216445922852,-79.78283022512069,40.45892143409906,341.12551904296873,0.01040101796388626,-0.01973481476306916,0.928922474384308,0.3696017265319824,0.08092646336810998,-0.036856300169932736,2.9368624106355017,-0.08445362001657486,0.051339078694581985,-0.00470498064532876,-0.4324339033663273,0.4379940938204527,-9.727527946829797
45.4,5.099999904632568,186.0,22.6132869720459,27.560848236083984,-79.78283026654451,40.45892139703211,341.41898370361326,0.010102306492626669,-0.018094835802912712,0.9292352795600892,0.3689071536064148,0.1125893857548108,-0.036378736073582094,2.9355320070975126,0.187859371304512,0.036740224808454514,0.14293448626995087,-0.30476181339472536,0.09755311869084836,-9.890210934877397
45.6,5.099999904632568,185.0,22.578229904174805,27.9345817565918,-79.78283024540235,40.458921300907114,341.99415612792967,0.00894341804087162,-0.016795720905065536,0.9283803701400756,0.3711438775062561,0.08307239296013541,-0.03721602302253058,2.9346635988143883,-0.045795679092407234,-0.007266112137585878,-0.00941552221775055,-0.3439160484820605,0.4986952820420266,-9.739680799841883
45.7,5.099999904632568,184.0,22.493091583251953,29.008071899414066,-79.78283019318435,40.45892124538497,342.27505517578123,0.008930619806051254,-0.017217796295881268,0.9275745749473572,0.3731345236301422,0.11093690957193778,-0.048390796099779546,2.9219762634860134,0.11287035793066025,0.04767917469143868,0.07515832036733627,-0.29540409391745925,0.3276289947330952,-9.773071324825287
45.9,5.199999809265137,184.0,22.58073425292969,28.34012222290039,-79.78283026718327,40.45892124869725,342.8602831420898,0.009635520167648792,-0.01671680621802807,0.9270167350769044,0.3745232820510864,0.119093101028276,-0.06076591710611171,2.9336115429259086,0.01454243715852499,-0.002262101508677005,0.0570681057870388,-0.2415598075836897,0.30242036897689106,-9.916317583322526
46.0,5.199999809265137,186.0,22.66462135314941,26.447599411010746,-79.78283028692735,40.458921186273336,343.4382021484375,0.010147781111299992,-0.01474890951067209,0.927502691745758,0.37338754534721375,0.14717677330282158,-0.07171825472946085,2.9443435107556097,0.0697481706738472,0.004001213703304529,-0.11391934752464294,-0.22276713056489827,0.5784900778904557,-9.903888741731645
46.2,5.199999809265137,187.0,22.688411712646484,26.76567077636719,-79.78283023454,40.45892115620839,343.72254968261717,0.010884190909564495,-0.01640213280916214,0.927895486354828,0.3723204135894776,0.12144379679461,-0.08117512961944752,2.932200171418621,-0.1405123472213745,-0.09360909461975098,-0.13257133960723874,-0.3446052159368992,0.4950767691805959,-9.729801344275478
46.31,5.400000095367432,187.0,22.439252853393555,29.64421272277832,-79.782830239932,40.4589212111731,344.0153734741211,0.01275009848177433,-0.019528953358531,0.9284088015556335,0.3708278238773346,0.1473546374362355,-0.1244074016506158,2.9162853314575266,0.06778407841920853,-0.034784570336341865,0.02600278332829476,-0.4828241115063429,0.2470467251166701,-9.690413914918901
46.5,5.400000095367432,188.0,22.65961456298828,28.25265312194824,-79.78283011212446,40.45892127615027,344.5953905639648,0.01051489170640707,-0.028044411912560463,0.9290043115615844,0.3688548803329468,0.1731952451821319,-0.18954006395719475,2.9278469645038765,0.08942458778619766,-0.08233269304037094,0.07574913650751114,-0.5113234405964613,0.2514601669460535,-9.826824778318406
46.61,5.599999904632568,183.0,22.55319023132324,28.316267013549805,-79.7828300704617,40.45892136056532,344.88911462402336,0.005453622434288263,-0.030952917411923405,0.9288340210914612,0.369160532951355,0.16388975526949126,-0.22442417451467256,2.9300527131274863,0.07266954332590103,-0.04054573550820351,-0.06277233362197876,-0.4271868313103914,0.439122314080596,-9.88661723613739
46.8,5.599999904632568,192.0,22.63707733154297,27.25868034362793,-79.78282986145409,40.45892148099284,345.46920037841795,-6.158971518743783e-05,-0.03225518763065338,0.9279759526252748,0.3712415397167206,0.1316057681118704,-0.2786462431794111,2.9917473001372654,0.03522135317325592,0.08593463152647017,-0.013531351462006569,-0.6138875500112773,0.32351971775293353,-10.078368487358096
