time,wind_speed,wind_angle,battery_voltage,battery_current,position_x,position_y,position_z,orientation_x,orientation_y,orientation_z,orientation_w,velocity_x,velocity_y,velocity_z,angular_x,angular_y,angular_z,linear_acceleration_x,linear_acceleration_y,linear_acceleration_z
0.0,2.5999999046325684,178.0,24.6366024017334,-0.039758868515491486,-79.78282286048955,40.458916447808406,268.0114975842239,0.017470017075538642,-0.007366218138486147,0.8298518061637878,0.5576617121696472,-0.0007172072807643108,-0.01741698708860839,0.0073762253483809215,-0.0034720466937869787,-0.003153112949803472,-0.00785608496516943,0.051288303919136524,0.3374777889624238,-9.804434035420421
0.1,2.700000047683716,182.0,24.63534927368164,-0.04771064221858978,-79.78282288393312,40.458916523133155,267.9929430308342,0.017460504546761513,-0.007383578456938267,0.8298647403717041,0.5576424598693848,0.0002848854582162063,-0.01131357992454176,0.006625122622707039,0.0053172041662037355,0.0030806090217083693,0.006397073157131672,0.05147943021263928,0.33861068699508906,-9.804015374779704
0.3,2.700000047683716,185.0,24.63034248352051,-0.04771064221858978,-79.78282286978869,40.45891659467528,267.97365395450595,0.017450958490371704,-0.0073726456612348565,0.8298882842063904,0.557607889175415,-0.0018295306899234508,-0.012826759639196815,0.0037005655672529905,0.003173247212544084,0.004258261062204839,0.004021217580884695,0.050975112430751326,0.3616300421208144,-9.805201190114024
0.41,2.700000047683716,193.0,24.63034248352051,-0.039758868515491486,-79.78282285345037,40.45891659686343,267.97401602292064,0.017447181046009064,-0.007351068779826164,0.8299123048782349,0.5575726628303528,-0.004224533678231962,-0.014474500215827028,0.0038896030309511134,-0.005274269264191389,-0.0011773168807849288,-0.007731875870376825,0.0501666023908183,0.3589155087992549,-9.803686761260032
0.6,2.700000047683716,192.0,24.637853622436523,-0.04771064221858978,-79.78282291444187,40.45891666331135,267.95366225862506,0.01741677708923817,-0.007396792992949486,0.8299309611320496,0.5575451850891113,-0.0011679723864659445,-0.003936583008951582,0.0010237121059949153,-0.004521915689110756,-0.002949771471321583,-0.007984338328242302,0.04582096542231739,0.359019333422184,-9.802516733407977
0.7,2.5,196.0,24.63409805297852,-0.039758868515491486,-79.78282290852705,40.458916664021615,267.9537634673119,0.017410967499017715,-0.007412485778331757,0.8299475908279419,0.5575204491615295,-0.0012225374555537927,-0.0057937089549430784,0.0011204802056861227,0.004949809983372688,0.0011738728499040008,0.002340968232601881,0.05015036723110825,0.3434544108062983,-9.80408086359501
0.9,2.5,196.0,24.6215763092041,-0.07951773703098297,-79.78282295551186,40.45891672734059,267.93469159030917,0.017365850508213043,-0.007428513839840889,0.8299871683120728,0.5574627518653871,-0.00016884192532140756,-0.0008211118973046982,0.002855754376216525,0.007376571651548147,0.0011122964788228273,0.00414173724129796,0.04637867559213192,0.3579241133853793,-9.804529929757116
1.0,2.700000047683716,196.0,24.62908935546875,-0.06361418962478638,-79.78282295400099,40.458916727240755,267.9349825205803,0.01737174764275551,-0.007421652786433697,0.8299957513809204,0.5574498176574707,-0.0026167368286534216,-0.003015895082373151,0.0030091538882750656,-0.00816285703331232,-0.00141025148332119,-0.00376031338237226,0.04928576046600938,0.35285026509314776,-9.805135701298717
1.2,2.9000000953674316,196.0,24.631593704223643,-0.06361418962478638,-79.78282294254521,40.45891678843976,267.9097361388207,0.017374226823449142,-0.007421490270644426,0.8300104141235352,0.5574278831481934,-0.004477370228151847,-0.006564869641847264,-0.0032321707950208204,-0.007348479703068733,-0.00017825963732320815,-0.009743770584464071,0.050268613463267685,0.35841290406882764,-9.804154538512226
1.3,2.9000000953674316,194.0,24.6366024017334,-0.05566241592168808,-79.78282297967712,40.4589168417653,267.8872448625565,0.01735236868262291,-0.007438861764967442,0.8300172090530396,0.5574182271957397,-0.0009871934413204133,-0.002497398112236681,-0.003691276207943922,0.00769942020997405,0.0013277550460770724,0.003241844242438674,0.05133583081886173,0.34379691146314145,-9.804321184158326
1.5,2.799999952316284,191.0,24.63034248352051,-0.06361418962478638,-79.78282296850381,40.45891683982918,267.88649712228784,0.017349276691675186,-0.007476084399968386,0.8300437927246094,0.5573781728744507,-0.004236368207446769,-0.00627187831384559,-0.0035291636621383967,0.008393020369112492,0.0053503280505538,0.006768226623535156,0.05076817124616355,0.35599899072200064,-9.804256280064584
1.6,2.799999952316284,192.0,24.627838134765625,-0.05566241592168808,-79.78282295853991,40.45891687890686,267.863628161192,0.017330864444375038,-0.007496951147913933,0.8300653696060181,0.5573464035987854,-0.006316998061772874,-0.008535630881254828,-0.0038343501545042335,0.0035474949982017283,0.0032172102946788073,0.0036426198203116655,0.04293189728166908,0.3639367686957121,-9.805434494018558
1.81,2.799999952316284,188.0,24.62908935546875,-0.07951773703098297,-79.78282301453292,40.458916898748114,267.8409477891922,0.01728455349802971,-0.007513965014368296,0.8300637602806091,0.5573499798774719,-0.005925310058512489,0.0005935002507176717,-0.003862766821020915,0.002638715552166105,-0.002588280243799091,-0.00019664234423544252,0.05127501977607608,0.35640570111572745,-9.805260831713674
1.9,3.0,182.0,24.63409805297852,-0.06361418962478638,-79.78282301159484,40.45891689348349,267.840541017294,0.017296303063631058,-0.007517683319747449,0.8300931453704834,0.5573058128356934,-0.007770057958793601,-0.0013619737126082227,-0.003844096381358951,-0.0012025261530652642,-0.0007111605373211205,0.0020496747456491,0.04430521180853248,0.34302453082054857,-9.803823001384737
2.1,3.0999999046325684,179.0,24.631593704223643,-0.06361418962478638,-79.78282305792541,40.45891692758936,267.8188965740204,0.017272843047976494,-0.00751941278576851,0.8301137089729309,0.5572758913040161,-0.004961142801913406,0.003408989096885453,-0.0006101314061117954,-0.005608770065009594,-0.0019249538891017441,-0.00547049893066287,0.05250943095423282,0.3561453538388014,-9.804855619668961
2.21,3.4000000953674316,174.0,24.631593704223643,-0.06361418962478638,-79.78282307814278,40.458916952299106,267.79431108856204,0.017242902889847755,-0.00752174761146307,0.8301272988319397,0.5572565793991089,-0.004245846526560296,0.0013137529989633325,-0.002287650399484703,-0.0010119914077222347,0.0013430560939013958,-0.0062769465148448935,0.052540343538858,0.3410785774514079,-9.804512972831725
2.4,3.5,172.0,24.6215763092041,-0.039758868515491486,-79.78282307724189,40.45891694829361,267.79406775259974,0.017253624275326732,-0.007540214341133833,0.8301558494567871,0.5572134852409363,-0.005840875599589594,0.00011425041491037884,-0.00225616296159131,-0.0015819313703104856,0.0003479238657746464,-0.0006061889580450952,0.0477850680006668,0.3340182838216424,-9.804266220331193
2.5,3.5,170.0,24.6366024017334,-0.03180709481239319,-79.78282307476479,40.458916943855726,267.7938203635216,0.017239334061741832,-0.007535976357758045,0.8301658630371094,0.5571990013122559,-0.005837707154485827,-0.0014734282411005568,-0.0022463701783953165,0.007427279371768236,0.0008272559498436749,0.004173297435045242,0.05108589432667941,0.34758795373141765,-9.804182020425797
2.7,3.4000000953674316,169.0,24.63534927368164,-0.03180709481239319,-79.78282306176018,40.45891696338445,267.76947040581706,0.017258986830711358,-0.0075269979424774655,0.8301960825920105,0.5571535229682922,-0.00798012961140507,-0.004727116381567018,-0.003181232163163153,0.005389488767832518,0.00045800933730788523,0.001774667063727975,0.05165481927338988,0.33538174487650396,-9.80334645330906
2.81,3.299999952316284,169.0,24.637853622436523,-0.04771064221858978,-79.78282308539139,40.45891696844175,267.7451113882065,0.017224844545125958,-0.007534927688539028,0.830204963684082,0.5571412444114685,-0.008429756593836935,-0.00019088481089747558,-0.003505717981713564,0.00333594367839396,0.0008941996493376791,0.0040959729813039285,0.04788521070498973,0.3518700159341097,-9.80586075603962
3.0,3.299999952316284,169.0,24.63534927368164,-0.04771064221858978,-79.78282307452797,40.45891695309406,267.74434323334697,0.01721801795065403,-0.007512344513088466,0.8302329182624817,0.5571001172065735,-0.010726891884083292,-0.0026812702430261764,-0.0034318248332702037,0.008901070803403854,0.0008360997308045626,0.006569126155227423,0.052926159272901716,0.3370712612941861,-9.804944497346881
3.1,3.299999952316284,169.0,24.63534927368164,-0.04771064221858978,-79.78282309306513,40.458916992544005,267.71904937648776,0.017198966816067696,-0.00749512342736125,0.8302347660064697,0.5570980310440063,-0.0050128235060260965,-0.0022161672312809608,-0.004541339883165081,0.00015149549290072173,-0.0036140147130936384,-0.004252039827406406,0.052384999464266,0.360814647898078,-9.805014663934706
3.2,3.299999952316284,170.0,24.63910675048828,-0.039758868515491486,-79.78282308117574,40.458917014203685,267.69238905334475,0.017187198624014854,-0.007496360223740339,0.8302670121192932,0.5570505261421204,-0.004903452259075761,-0.005124070496625107,-0.005390648076394461,0.005618656985461712,0.0018123270710930226,0.006052060052752496,0.04613802612293512,0.34527486830949783,-9.803501989245415
3.4,3.2000000476837163,174.0,24.6366024017334,-0.04771064221858978,-79.78282306193235,40.458917008297625,267.69125620746615,0.01718077249825001,-0.007530622184276582,0.8302918076515198,0.5570131540298462,-0.0075665972900858846,-0.007815132500588831,-0.005369317549477444,-0.002669675974175334,-0.0010539543582126498,0.00597241660580039,0.047029621442779904,0.3639942906796933,-9.802932470440863
3.6,3.2000000476837163,173.0,24.6366024017334,-0.05566241592168808,-79.78282309064072,40.458917041372366,267.66590897464755,0.017155947163701057,-0.007527963723987341,0.8302821516990662,0.5570283532142639,-0.0021798069850097303,-0.004269299347092033,-0.006030940474769795,0.0033802278339862823,0.004641419276595116,0.004920346196740866,0.050594422146677975,0.3492668355256319,-9.804258618950843
3.7,2.9000000953674316,174.0,24.63534927368164,-0.039758868515491486,-79.78282308395994,40.45891704038337,267.6652880134584,0.01715843193233013,-0.007529419381171466,0.8302861452102661,0.5570223927497864,-0.004869441947236932,-0.005816801979868495,-0.006157456384075258,-0.00866189505904913,-0.0023732727859169245,-0.007163794245570898,0.04645922555588186,0.3602544846385717,-9.802382247447966
3.9,2.799999952316284,175.0,24.631593704223643,-0.05566241592168808,-79.78282311251441,40.458917064282055,267.638838154316,0.017110729590058327,-0.007514939643442632,0.8303062915802002,0.5569940209388733,-0.0015124960351190276,-0.0008773721403454082,-0.006333342353535629,0.0017933507915586235,-0.0008094699587672949,0.0008554102969355881,0.048784069363027815,0.3362443188205362,-9.803570986390117
4.0,2.700000047683716,180.0,24.63034248352051,-0.039758868515491486,-79.78282311069646,40.45891706322542,267.63819263601306,0.01709404215216637,-0.007523986045271158,0.8303061723709106,0.5569944977760315,-0.004176225702390286,-0.00190746523925703,-0.0063737425139701615,-0.0053443000651896,-0.0036193823907524334,-0.007424083538353444,0.05443010882008821,0.35918250728398565,-9.804382579922676
4.2,2.700000047683716,181.0,24.6366024017334,-0.03180709481239319,-79.78282311517492,40.45891710605701,267.61337600374225,0.017095955088734627,-0.0075109098106622705,0.8303418755531311,0.5569414496421814,0.0005274841397913103,-0.003235605895619509,-0.0033693674624764944,0.006683100014925003,0.0019125898834317925,0.006069036666303873,0.04323039764072746,0.33877587083727123,-9.805449112057687
4.31,2.5999999046325684,179.0,24.63534927368164,-0.05566241592168808,-79.78282312105532,40.45891712635243,267.5860621752739,0.017086505889892578,-0.0075048208236694345,0.8303412795066833,0.5569427609443665,-0.0001840877443609324,-0.0003298553542981916,-0.004422305135272857,-0.004448011517524718,-0.0003025057085324079,-0.007749979384243486,0.049944216334260993,0.3627776678279042,-9.804621731042863
4.5,2.5999999046325684,176.0,24.63534927368164,-0.04771064221858978,-79.78282311752413,40.45891712630613,267.585140806675,0.017110472545027733,-0.007508985232561827,0.830361008644104,0.5569124817848206,-0.0012756372568529825,-0.003287066797945948,-0.004603677904554428,0.006505294237285852,0.004765798803418875,0.003760511055588722,0.051322231474332514,0.3416463055461645,-9.804979580640794
4.6,2.4000000953674316,171.0,24.62908935546875,-0.04771064221858978,-79.78282308462963,40.458917129672884,267.55777798318866,0.017088348045945168,-0.0074869683012366295,0.8303733468055725,0.5568950176239014,-0.0066346507602648855,-0.004859169787067806,-0.0052147499572185434,-0.0012647806433960795,-0.0004733093664981425,-0.0021585465874522924,0.04578052370343358,0.36169447112828496,-9.804524667263033
4.8,2.299999952316284,168.0,24.637853622436523,-0.04771064221858978,-79.78282312178544,40.45891716445145,267.53092555427554,0.017057441174983982,-0.007494019344449044,0.8303803801536559,0.5568853616714478,0.0021485599167143667,0.002610991748253813,-0.005913520303102939,0.006401350721716882,0.0027503101155161858,0.0020931914914399385,0.050709274252876635,0.3426325481012464,-9.8043451577425
4.9,2.200000047683716,164.0,24.63409805297852,-0.05566241592168808,-79.78282312602217,40.45891716520247,267.5297523560524,0.017075801268219948,-0.007499088533222675,0.830407977104187,0.556843638420105,0.00015579891255250268,-0.00036282110666064086,-0.005911696636639157,0.00486592808738351,0.0018821348203346133,0.005515587516129017,0.049616205808706584,0.3577394144609571,-9.804142844080923
5.0,2.0999999046325684,163.0,24.63534927368164,-0.05566241592168808,-79.78282312029707,40.45891718313752,267.5043289484978,0.017055880278348926,-0.0074924156069755546,0.8304189443588257,0.5568280220031738,-0.0003453697025869176,0.0007729474792460669,-0.002685097115824089,-0.005569022614508867,-0.002574067562818527,-0.006791070569306612,0.049352578609250485,0.3650960888341069,-9.803768037557603
5.2,2.0,156.0,24.63409805297852,-0.007951773703098297,-79.782823120127,40.4589171826241,267.50405560159686,0.017050158232450485,-0.00749602122232318,0.830439031124115,0.5567981600761414,-0.0008523259703153819,-0.0007820050080583379,-0.002705510645193167,0.004517948720604181,0.005623145960271359,0.006859751418232918,0.04860342694446445,0.3376893485337496,-9.80411536216736
5.41,2.0,154.0,24.63409805297852,-0.05566241592168808,-79.7828231182901,40.458917155965416,267.47791175270083,0.017034409567713737,-0.007503468077629805,0.8304696679115295,0.5567528605461121,-0.00838059042702885,0.002857826203764466,-0.00012317021661931323,0.0010100158397108316,0.00433999951928854,0.0065291840583086005,0.05160823797807098,0.3383125155419112,-9.804176173210145
5.5,1.7999999523162842,151.0,24.637853622436523,-0.039758868515491486,-79.78282308701606,40.45891716799635,267.44827024364474,0.017044737935066227,-0.007490772753953935,0.8304877281188965,0.556725800037384,-0.007913256209942909,-0.0009904995713603806,-0.004607953710612279,0.005593228153884411,0.002754791174083948,0.002966368803754449,0.0490917105646804,0.3630407194420696,-9.804037594199182
5.7,1.7999999523162842,152.0,24.63534927368164,-0.039758868515491486,-79.7828230810654,40.45891716118005,267.44777147197726,0.017034661024808884,-0.007479102350771426,0.8305071592330933,0.5566972494125366,-0.01019357348813994,-0.0026692766002306217,-0.004652652198901339,-0.005369177553802729,-0.00017911790928337726,-0.00949816219508648,0.048284287741407764,0.3557747865468264,-9.803910709619524
5.8,1.7999999523162842,156.0,24.63284492492676,-0.05566241592168808,-79.78282309927157,40.45891718469576,267.42005739831933,0.017016101628541946,-0.007485644891858102,0.8305076360702515,0.5566970109939575,-0.0037302857147571374,0.0035198350851414688,-0.005019762276486942,0.005507643800228834,0.0017487852601334453,0.003486511530354619,0.04863726770505309,0.3459558131173253,-9.804296625852583
6.01,1.7000000476837158,157.0,24.63409805297852,-0.04771064221858978,-79.78282310042967,40.45891717531404,267.41899828338626,0.017004646360874176,-0.007479084189981222,0.830531895160675,0.5566613078117371,-0.006288791482117104,0.0005851066516858517,-0.005309132541644115,-0.002012390410527587,-0.002025699010118842,1.2625808267330285e-05,0.050865623317658905,0.3447208446264267,-9.804528760313987
6.1,1.7000000476837158,166.0,24.63284492492676,-0.06361418962478638,-79.78282308590788,40.45891721153122,267.38878063583377,0.016988718882203102,-0.007468761410564184,0.8305451273918152,0.5566421747207642,-0.00044271663375595733,0.00019288414697551207,-0.00932519032183445,0.006012971978634596,0.0031242759432643648,0.002657647710293532,0.051042419364675885,0.341932892203331,-9.80278278172016
6.21,1.600000023841858,169.0,24.63534927368164,-0.039758868515491486,-79.78282306737495,40.45891722767287,267.35953722620013,0.016975194215774536,-0.007459451910108328,0.8305625319480896,0.5566167235374451,-0.0008020362875521647,-0.00018398510974916888,-0.008940102459696491,0.007488926406949758,0.0027570822276175018,0.0017991999629884954,0.05061020049266517,0.3549588806927204,-9.804015374779704
6.4,1.600000023841858,175.0,24.62658500671387,0.06361418962478638,-79.78282306614238,40.458917226594906,267.35863576555255,0.016977282240986824,-0.007462223526090381,0.8305741548538208,0.5565991997718811,-0.0024062802027994628,-0.0010777566341981014,-0.009011327889200662,-0.0015275354962795973,-0.003525181207805872,0.0014920631656423213,0.049924979908391835,0.3439062543958425,-9.804803579449654
6.51,1.5,178.0,24.631593704223643,-0.007951773703098297,-79.78282302777856,40.458917227152746,267.33207450532916,0.016972068697214127,-0.007451467216014863,0.8305978775024414,0.5565641522407532,-0.005814127481687132,-0.0028915520135086004,-0.005670188128739326,0.003452057018876076,0.0008764302474446595,0.0030757111962884665,0.05037987044546753,0.356336777061224,-9.805073136091233
6.7,1.399999976158142,181.0,24.63409805297852,0.04771064221858978,-79.78282302093263,40.458917223172605,267.33147547864917,0.016975106671452522,-0.007435814011842012,0.8306140899658203,0.5565400719642639,-0.0073459437444313375,-0.004386244002652578,-0.005782248093874684,-0.0030326247215271,-0.0017857837956398726,-0.004156522918492557,0.04992822328582406,0.3618060798570514,-9.803919480443
6.9,1.2999999523162842,183.0,24.62658500671387,0.015903547406196594,-79.78282297750499,40.45891725276969,267.30493412637713,0.016954381018877033,-0.007392866536974906,0.8306300640106201,0.5565173625946045,-0.0039035650153720334,-0.007691387345892513,-0.0031607997897151745,-0.0026478164363652468,0.0007546894485130906,-0.008650362491607666,0.04961423694156111,0.3393317948654294,-9.804614129662514
7.01,1.2999999523162842,184.0,24.62658500671387,0.07156596332788467,-79.78282298078884,40.45891726600157,267.2781719388962,0.016939841210842133,-0.007399491965770722,0.8306396603584291,0.5565035343170166,-0.0013713465848605724,-0.0015260947852855993,-0.0011239288118323214,-0.00517225032672286,-0.0047719073481857785,-0.008022757247090341,0.050435638264752926,0.33844407789409164,-9.804481397867203
7.21,1.2000000476837158,186.0,24.62908935546875,0.04771064221858978,-79.7828229777608,40.458917265670856,267.27804581546786,0.016944391652941704,-0.007408615201711655,0.8306522369384766,0.5564844012260437,-0.001300448002388676,-0.00285739018145902,-0.0011942907809940851,0.004761903081089258,0.002662572776898741,0.002462093951180577,0.05201573865953833,0.3397542196512223,-9.804285516142846
7.31,1.2000000476837158,183.0,24.624080657958984,0.039758868515491486,-79.78282295975983,40.45891724360322,267.25116078281405,0.016942225396633148,-0.007425247225910425,0.8306726813316345,0.5564538836479187,-0.008281441806173734,0.0026791323482882787,0.0008730579752370207,-0.00834818184375763,-0.0006805481971241534,-0.008015583269298077,0.048573829983361065,0.3597397469356656,-9.804277330040932
7.5,1.100000023841858,181.0,24.625333786010746,0.007951773703098297,-79.78282295566014,40.45891722884806,267.25125585222247,0.016924196854233742,-0.0074121421203017235,0.8306841850280762,0.5564373731613159,-0.009927104488782873,-9.819598744740306e-05,0.0006648975092441457,-0.005928235594183207,0.0009198171901516617,-0.009578293189406395,0.04888155341148377,0.35701063212007283,-9.803257575631141
7.61,1.0,182.0,24.62658500671387,0.015903547406196594,-79.78282291159934,40.45891727158377,267.22404162311557,0.0169263556599617,-0.00739934854209423,0.8306911587715149,0.556427001953125,-0.0023451600321975786,-0.004341499186193161,-0.001408514658497539,0.009354600682854652,0.0017434870824217794,0.0014869383303448556,0.04935133607592434,0.3432459941133857,-9.804466195106508
7.8,1.0,179.0,24.625333786010746,0.015903547406196594,-79.78282291611224,40.458917308687894,267.19648329639443,0.016886426135897636,-0.007384794298559426,0.8307220339775085,0.556382417678833,0.006045817657814336,0.0002338286479718669,-0.0035261906863318353,0.004508691374212503,0.0022196585778146987,0.003015712602064013,0.04873392492067069,0.34726346980780365,-9.804307735562325
7.9,0.8999999761581421,183.0,24.6215763092041,0.03180709481239319,-79.78282291912763,40.45891731802001,267.1957869949341,0.016886744648218155,-0.00736187258735299,0.8307421207427979,0.5563526153564453,0.00434758758992132,-0.0025473886062278572,-0.0037848394967377893,0.0021296301856637,0.0037993404548615217,-0.0007599807577207685,0.04865144720301032,0.3452015222981573,-9.805688847899438
8.1,0.8999999761581421,185.0,24.620325088500977,0.03180709481239319,-79.78282286786674,40.45891730725317,267.16987935924533,0.016898401081562042,-0.0073500797152519235,0.8307742476463318,0.5563043355941772,-0.0018664836763554718,-0.0026365228889156183,-0.0010600441535781077,0.0007323294994421303,0.0011790418066084385,-0.0008250904502347113,0.048926394246518616,0.3417188475653529,-9.804795978069306
8.2,0.8000000119209291,189.0,24.624080657958984,0.05566241592168808,-79.78282284603242,40.458917318409966,267.143554848671,0.016889188438653946,-0.007348497863858937,0.8307868242263794,0.5562859773635864,-0.0009275083144433946,-0.0009814855570705477,0.0006735891482869353,-0.0010490190470591187,0.0008644324843771756,0.002197094028815627,0.049887443524785344,0.3547764841094613,-9.805725100636485
8.4,0.8999999761581421,183.0,24.625333786010746,0.02385532110929489,-79.78282284353564,40.45891731812663,267.1436108770371,0.01689276657998562,-0.007332541514188051,0.8307936191558838,0.5562758445739746,-0.0014314214432732946,-0.00266249404602064,0.000563404168153604,0.0020017437636852264,-7.489151903428137e-05,-0.0006077744183130562,0.04891173509415239,0.35829716574400666,-9.8055262953043
8.51,0.8000000119209291,181.0,24.627838134765625,0.039758868515491486,-79.78282283987444,40.45891731780658,267.1436529579163,0.01687811315059662,-0.007316577713936567,0.8307982087135315,0.556269645690918,-0.0017639680436637942,-0.004006560528955432,0.0004550165249994168,0.002685158280655741,0.0011111911153420806,0.004072082228958607,0.0498273862246424,0.33907243430614475,-9.80445976316929
8.7,0.8000000119209291,176.0,24.627838134765625,0.05566241592168808,-79.78282278626926,40.45891732870265,267.11642352962497,0.016870172694325447,-0.00729426695033908,0.8308354020118713,0.5562147498130798,-0.0022469818373337482,-0.006840308831472584,-0.0015103898795270786,0.006016519386321306,-0.0005330174462869761,0.0033336719498038288,0.050779920495115226,0.34052700228989125,-9.804778436422348
8.81,0.699999988079071,175.0,24.620325088500977,0.03180709481239319,-79.78282278696919,40.4589173174966,267.09105150127414,0.01685643382370472,-0.007314610760658979,0.8308488130569458,0.5561949610710144,-0.003503256612334257,0.0023320702488133136,0.0008636382038098709,-0.008067773655056953,-0.007678728550672531,-0.010904431343078613,0.04990577089134604,0.3592636739462614,-9.803519530892373
9.0,0.699999988079071,177.0,24.61907386779785,0.039758868515491486,-79.78282278635713,40.4589173113496,267.091179055214,0.01687849499285221,-0.0073113697580993176,0.8308814167976379,0.5561454892158508,-0.004523041656576543,-0.0006975760576670047,0.0006961229548686774,-0.006480473093688488,-0.002470325445756316,-0.0036306844558566813,0.04905897072516382,0.3526479514315725,-9.805574827194212
9.1,0.699999988079071,179.0,24.63034248352051,0.02385532110929489,-79.78282275116189,40.458917352785846,267.0647051753998,0.016864698380231857,-0.007296594791114329,0.8308980464935303,0.5561212301254272,0.0037019892325562227,-0.0024965301655949807,0.001029507096708268,0.0009969042148441076,0.0012867647456005216,8.773204899625853e-05,0.049663874320685863,0.34782571613788604,-9.804991275072098
9.2,0.6000000238418579,180.0,24.62658500671387,0.08746951073408127,-79.78282271868622,40.45891734025793,267.037691277504,0.0168561190366745,-0.007312880828976631,0.8309234976768494,0.5560833215713501,-0.0012665595168401393,3.6489650864597355e-05,0.0017993245049573062,-0.0008203008328564465,0.0011029032757505774,-0.00047727109631523485,0.04885813714005053,0.3434510486572981,-9.804654475450516
9.4,0.6000000238418579,183.0,24.625333786010746,-0.03180709481239319,-79.78282271450149,40.458917338511625,267.03802720928195,0.01683286391198635,-0.007316618226468562,0.8309597373008728,0.556029736995697,-0.0027514303321991684,-0.003045880613013651,0.0016393978932172258,-0.0047272578813135615,-0.0003733972844202072,-0.006829105783253908,0.04975660750642419,0.3405631819367409,-9.804833984971047
9.61,0.5,182.0,24.631593704223643,-0.03180709481239319,-79.78282267384822,40.458917361868906,267.01135198497775,0.01681869477033615,-0.0073062046431005,0.830963671207428,0.5560244917869568,0.0013650513174945766,-0.003123302047406441,0.001634866000790484,0.0046028564684093,0.006088305730372667,0.006128446664661169,0.05018640983384103,0.3428506492450833,-9.804695990681651
9.71,0.6000000238418579,175.0,24.637853622436523,-0.04771064221858978,-79.7828226697914,40.4589173635908,267.01151482486733,0.016822954639792442,-0.007298188749700785,0.8309716582298279,0.5560125708580017,-0.00017793082573642138,-0.004580308461378768,0.0016143984195041055,-0.0068772872909903535,-0.005279253236949444,-0.004022848792374134,0.04909607770387084,0.3508315504342317,-9.805961328148845
9.91,0.6000000238418579,172.0,24.62908935546875,-0.05566241592168808,-79.78282260123858,40.45891736885536,266.9847022714615,0.016812942922115326,-0.007300584111362696,0.8309815526008606,0.5559979677200317,-0.0010739124634337447,-0.0068551341183018324,0.002114678252990096,0.0021338926162570715,-0.003812602953985333,0.003016717964783311,0.049803266460075976,0.3498931454122067,-9.805554946660997
10.0,0.6000000238418579,166.0,24.63284492492676,-0.03180709481239319,-79.78282259327462,40.45891737070862,266.98489705944064,0.016800129786133766,-0.00729364948347211,0.8309831023216248,0.5559961795806885,-0.001630891061064596,-0.008490181512210045,0.0019783398533075552,-0.0006845733150839808,-0.0005527822067961097,-0.001072361133992672,0.048419682760722935,0.3600573969259858,-9.805560793876648
10.2,0.6000000238418579,160.0,24.63034248352051,-0.03180709481239319,-79.78282254343814,40.458917380012096,266.95528284931186,0.016798226162791252,-0.007289100438356399,0.8310055136680603,0.5559628009796143,-0.0016381026863854279,-0.007019337008349028,-0.0011763548687439278,-0.004079826176166534,-0.0023816865868866444,-0.005810538772493601,0.05062125538475812,0.3390906703099609,-9.804677864313128
10.3,0.6000000238418579,149.0,24.625333786010746,-0.039758868515491486,-79.7828225049591,40.458917387955324,266.9284004392624,0.01678196899592876,-0.007305349223315716,0.8310092091560364,0.5559576153755188,0.00048428133930401775,-0.0031594019750008557,0.0002506874848743149,0.008845478296279905,0.00020392946316860616,0.004388004075735807,0.05066409080754966,0.3408419479429722,-9.80465038239956
10.51,0.6000000238418579,141.0,24.63034248352051,-0.039758868515491486,-79.78282249513151,40.458917390326036,266.9284158172608,0.016794893890619278,-0.007291888352483511,0.8310364484786987,0.5559165477752686,-0.00042908846062478245,-0.006038113651363003,-6.570894607272701e-06,0.0013167739380151033,0.0008101350977085531,0.0008498379611410202,0.04919109495822342,0.34799477376043797,-9.804053381681443
10.6,0.699999988079071,114.0,24.62282943725586,-0.08746951073408127,-79.78282244635476,40.45891739881771,266.9022796573639,0.016797799617052078,-0.007300398312509059,0.8310388922691345,0.5559126734733582,-0.0006090606805790888,-0.004047980060972065,0.0008074113676428652,-0.003060061950236559,-0.0018585582729429009,0.0009916159324347973,0.050622895346023135,0.3440600361675024,-9.805583598017694
10.81,0.6000000238418579,106.0,24.612812042236328,-0.12722837924957275,-79.78282239072713,40.458917425367694,266.8761249008179,0.0167999304831028,-0.007295642048120499,0.8310383558273315,0.555913507938385,0.0030974994946230284,-0.0044682636845234215,0.0013889225822238413,0.004104880150407553,0.0014101860579103231,0.003597376169636845,0.04867643491365016,0.35594574451446537,-9.805782403349877
10.91,0.8000000119209291,95.0,24.61907386779785,-0.12722837924957275,-79.78282238064304,40.45891743348941,266.8764013471604,0.016804102808237076,-0.00730830291286111,0.8310496211051941,0.5558964014053345,0.0026972978712307754,-0.007462212322696488,0.0012914264205546439,0.005123157985508442,0.0017001210944727065,0.003192138159647584,0.050615458418615165,0.36128808964043857,-9.80629111111164
11.11,0.8000000119209291,93.0,24.61907386779785,-0.12722837924957275,-79.7828223322029,40.45891746293661,266.85031275177005,0.016783051192760468,-0.007307052612304686,0.8310597538948059,0.5558819770812988,0.004637477016660971,-0.005670128115055813,0.0017453283189413967,-0.0054107671603560465,-0.005173928570002317,-0.006052229087799788,0.04854236008599401,0.35977556113153697,-9.80520645260811
11.2,0.8999999761581421,92.0,24.625333786010746,-0.007951773703098297,-79.7828223274054,40.45891746934978,266.8504970493317,0.016776572912931442,-0.007311895489692687,0.8310739994049072,0.555860698223114,0.0055570701649573185,-0.007149595457928513,0.0017180581804752545,0.008955289609730244,0.00519107561558485,0.006223754491657019,0.05111106019467115,0.34217489384114746,-9.806862384080887
11.4,0.8000000119209291,88.0,24.62658500671387,-0.05566241592168808,-79.7828222762204,40.45891746093197,266.8249069871904,0.016766175627708442,-0.007300571072846652,0.8310968279838562,0.5558271408081055,0.00042316860386527584,-0.003320246852882989,0.002330978693913869,0.004982407670468092,0.0008543956791982055,0.001991247059777379,0.04796079510357231,0.3539014482870698,-9.805425138473511
11.5,0.8999999761581421,81.0,24.63284492492676,-0.05566241592168808,-79.78282227224932,40.45891746206409,266.8251355113984,0.016779610887169838,-0.007304110098630191,0.8311120867729187,0.5558038353919983,-0.0004885071678105971,-0.00474032093661131,0.0023111392169435714,-0.004597834311425686,-0.000528115953784436,-2.655880780366715e-05,0.04919065641704947,0.34399421844631434,-9.806822623014453
11.7,0.8999999761581421,78.0,24.62658500671387,-0.03180709481239319,-79.7828221899463,40.45891748103765,266.80049983882907,0.01676303707063198,-0.007290761452168226,0.8311324119567871,0.5557741522789001,-0.0006373540483759888,-0.0074595767086116935,0.002375469785642785,0.0029037101194262505,0.002547896234318614,0.0039469660259783285,0.04849661932792515,0.35744299717247485,-9.805694110393523
11.81,0.8999999761581421,71.0,24.631593704223643,-0.039758868515491486,-79.78282215705812,40.458917524580976,266.77625731849673,0.016754649579524994,-0.007295330986380576,0.8311367034912109,0.555767834186554,0.004565573495466116,-0.004219722218240108,0.0025837186263359896,0.0026602684520185,0.001807310152798891,0.005044579040259123,0.04944519302342088,0.36015022147446873,-9.80488660991192
12.01,0.8999999761581421,71.0,24.63409805297852,-0.04771064221858978,-79.78282215414464,40.45891752938708,266.77652637386325,0.016754068434238434,-0.007302365731447934,0.8311443924903871,0.5557562708854675,0.0031611517797386648,-0.005402665740378733,0.0025198330208158017,-0.006277192849665879,0.00033626033109612763,0.0018868021434172988,0.050025305338203915,0.3465964121371508,-9.806884018778801
12.11,0.8999999761581421,72.0,24.63534927368164,-0.039758868515491486,-79.7828221042414,40.458917553394386,266.7519678297043,0.016743365675210953,-0.007311103399842978,0.8311461806297302,0.5557538270950317,0.003408514580422248,-0.00280943956262332,0.002968830394373886,0.00046352346544153983,-0.0005759089835919441,-0.0009538250160403553,0.04999328726436943,0.3527720585837961,-9.805904610157011
12.21,1.0,67.0,24.627838134765625,-0.04771064221858978,-79.78282205080981,40.45891758496739,266.72528998279574,0.01673194393515587,-0.00733251916244626,0.8311662077903748,0.555724024772644,0.002493926833413853,-0.0012474548877895242,-0.0005262414400994651,-0.0015326922293752432,-0.0006284133996814487,-0.005950402468442917,0.049904825286939736,0.3411861662194133,-9.804981919527057
12.41,1.0,61.0,24.63284492492676,-0.007951773703098297,-79.78282205010005,40.458917587883455,266.72523610019687,0.01673152856528759,-0.007333629298955201,0.8311766386032104,0.5557082295417786,0.0031008854839345928,-0.002508870495502019,-0.0006703195235413477,0.003000251250341534,0.005388681311160326,0.006769776809960604,0.050728323385119435,0.3417761868238449,-9.805111142992974
12.6,1.0,62.0,24.63409805297852,-0.039758868515491486,-79.78282199609855,40.45891762372986,266.70144049549106,0.016729023307561874,-0.00735333701595664,0.8311893343925476,0.5556891560554504,0.002734033872465131,-0.002307908524333693,0.0005202016486942743,0.0057156402617692965,0.0026512527838349342,0.004295495804399252,0.04994315195828677,0.358075812086463,-9.80403174698353
12.7,1.100000023841858,59.0,24.63284492492676,-0.03180709481239319,-79.78282195445655,40.45891769048579,266.6773738088608,0.01671329140663147,-0.007344452664256095,0.8312081098556519,0.5556617975234985,0.009046485626999385,-0.001118320460664299,0.0010992014485815599,0.004346549976617098,0.0008212412940338254,0.004598509520292282,0.04815431966912002,0.3483534273505211,-9.805618681311607
12.9,1.100000023841858,59.0,24.627838134765625,-0.05566241592168808,-79.78282195644103,40.458917698276025,266.67750791931155,0.016707347705960274,-0.007349707651883364,0.831226110458374,0.5556348562240601,0.008525339110560555,-0.0024630658067500448,0.0009756642028785932,-0.0009298105724155904,-0.0014909958699718118,0.0030913583468645807,0.04832188351079822,0.34158388651907445,-9.806204572319984
13.01,1.2999999523162842,59.0,24.63284492492676,-0.04771064221858978,-79.78282195762583,40.458917706548156,266.6776308240891,0.016709309071302414,-0.007339147385209799,0.8312298059463501,0.5556294322013855,0.00808239436076106,-0.003622445210747664,0.0009141932994983443,-0.0009813018841668963,-0.00038521361420862377,-0.00469258101657033,0.04992815019562842,0.36068794604390864,-9.806433783173562
13.2,1.2999999523162842,57.0,24.62658500671387,-0.039758868515491486,-79.78282187338752,40.45891774568043,266.6540139141083,0.01673330366611481,-0.007340875454246999,0.8312427997589111,0.5556092262268066,0.0038336626457983578,-0.006146914188792629,0.002379891297007177,7.883771468186751e-05,-0.00222116825170815,-0.0050093927420675755,0.05021129247732462,0.33841359928250314,-9.805439756512644
13.3,1.2999999523162842,58.0,24.63409805297852,-0.06361418962478638,-79.78282182698806,40.458917767544754,266.6302420320511,0.016720756888389587,-0.0073689054697752,0.8312538862228394,0.5555925965309143,0.0006531477625359648,-0.0007943185828914308,0.0034799510618757274,0.003998673986643553,0.004275896120816468,0.0035769182723015547,0.051452647224068636,0.3399461179599166,-9.805305855274199
13.5,1.2999999523162842,61.0,24.62658500671387,-0.04771064221858978,-79.78282182231776,40.458917768342474,266.63091806793216,0.016742518171668053,-0.007354657165706158,0.8312625288963318,0.5555793046951294,-0.00014229350521227852,-0.003502769542799813,0.003296390241653437,0.00528953829780221,0.0032683946192264557,0.006415270734578371,0.04895700990222394,0.35937696374952793,-9.80482755303383
13.61,1.399999976158142,63.0,24.63284492492676,-0.015903547406196594,-79.78282177898643,40.458917829405934,266.60796670341495,0.016726892441511154,-0.0073581235483288765,0.8312745690345764,0.5555616021156311,0.003441783090736351,-0.002590209981297092,0.003052226087811925,0.004906791727989912,0.001984827220439911,0.0033364829141646624,0.0487339751701802,0.3540849412232638,-9.805255569219591
13.81,1.399999976158142,70.0,24.62908935546875,-0.02385532110929489,-79.78282172551475,40.45891789297148,266.5849851789475,0.016721785068511963,-0.007357387337833644,0.8312744498252869,0.5555619597434998,0.005307501557183972,-0.0022177588821126323,0.0033298429870397914,-0.004442129284143448,-0.0027543744072318077,-0.00020310058607719839,0.04876839151605964,0.3472722771763801,-9.80703312277794
13.91,1.399999976158142,69.0,24.62908935546875,-0.05566241592168808,-79.782821724857,40.45891789857424,266.5853372039795,0.016723541542887688,-0.007344636600464582,0.8312814235687256,0.5555516481399536,0.005714066989592864,-0.003515230862820932,0.00327427538926665,0.00492384098470211,0.002073168056085705,-0.0006607127725146711,0.05046485607046634,0.3504569997265935,-9.806353676319123
14.1,1.399999976158142,67.0,24.63034248352051,-0.04771064221858978,-79.78282167501,40.45891792655613,266.5606325092316,0.01672934740781784,-0.007344738114625214,0.8312844038009644,0.5555469393730164,0.0003165072196690415,0.0002066452899013499,0.00029439360017230335,-0.0022237543016672134,-0.000800529553089291,-0.0017002137610688806,0.050353503157384696,0.3583786613121629,-9.807196844816213
14.21,1.399999976158142,59.0,24.63409805297852,-0.039758868515491486,-79.78282167460242,40.458917927038115,266.5606588544846,0.016744069755077362,-0.007354857865720987,0.8313021063804626,0.5555199980735779,0.0006369834748787855,-0.001092378581483935,0.00022732695884120668,0.0014261724427342415,0.0013807144714519384,0.0043388111516833305,0.05063879246357829,0.34170945547521114,-9.80556313276291
14.4,1.399999976158142,60.0,24.620325088500977,-0.06361418962478638,-79.78282162136969,40.45891798123097,266.53556649112704,0.016694672405719757,-0.00736647192388773,0.8313040137290955,0.5555183291435242,0.0017367946268141287,-0.0007622812830886522,-0.001895961731672923,0.006681115832179785,0.0035592401400208478,0.00405760807916522,0.04910498557146639,0.3606622548401356,-9.80514739573002
14.5,1.399999976158142,59.0,24.627838134765625,-0.04771064221858978,-79.7828216208314,40.458917982609655,266.5353752794266,0.016701925545930862,-0.007367581129074097,0.8313124775886536,0.5555055737495422,0.00012109448349814619,-0.0019672793996591614,-0.0019426357699543046,-0.006902501452714205,-0.0004058894119225441,-0.0065447394736111155,0.04870771751739085,0.3546256259456277,-9.806471790075305
14.7,1.2999999523162842,59.0,24.627838134765625,-0.05566241592168808,-79.78282153997039,40.45891805386342,266.511190694809,0.016716882586479187,-0.007357626687735319,0.8313283920288086,0.5554813146591187,0.0020267338613948415,-0.005902120172504616,-0.0030108086271021482,-0.004327660892158747,-0.0006962749757803978,0.0010204104473814368,0.05004974487237632,0.3473298357054591,-9.806865307688714
14.8,1.2999999523162842,56.0,24.63034248352051,-0.039758868515491486,-79.78282150586298,40.458918122876895,266.4874726953507,0.016700373962521553,-0.007364486809819938,0.8313204050064087,0.5554937720298767,0.006600918289345325,-0.0013973577001394994,-0.003857556114136613,-0.0017992535140365364,0.00027612800477072597,-0.001952424529008568,0.04893651267047972,0.3590424664691091,-9.806022139191628
15.0,1.2999999523162842,57.0,24.62908935546875,-0.07951773703098297,-79.78282150671609,40.458918135796864,266.48672215366366,0.016718870028853416,-0.007369527593255044,0.8313278555870056,0.5554819107055664,0.005565276330354914,-0.0039031480853940507,-0.004126427243369388,-0.005223963409662247,-0.005302221979945898,-0.008459272794425488,0.048839110848493884,0.3611757500097156,-9.8054707467556
15.11,1.2999999523162842,55.0,24.63409805297852,-0.04771064221858978,-79.78282142947829,40.45891817038754,266.4630182209015,0.01673082448542118,-0.007376471534371377,0.831343412399292,0.5554581880569458,0.0012480949635203993,-0.0038305634327874226,-0.004524477629199102,0.007743980269879103,0.0026870169676840305,0.0019092601723968985,0.050673834644258016,0.3427838448062539,-9.805822749137883
15.3,1.2999999523162842,52.0,24.62658500671387,-0.07156596332788467,-79.78282135039518,40.45891823001714,266.43925766372683,0.016728738322854042,-0.007367436774075031,0.8313636779785156,0.5554280281066895,0.0005060703928844595,-0.005901247467037808,-0.005199023663376621,0.005018526688218117,-8.998526755021885e-05,0.0023487089201807976,0.04911666629835963,0.3565541107580066,-9.804821705818176
15.4,1.2999999523162842,48.0,24.63034248352051,-0.07156596332788467,-79.78282133524306,40.45891823436302,266.43817595863345,0.016698278486728668,-0.007344079203903675,0.8313620686531067,0.5554317831993103,-0.0004779645313716672,-0.008398407227644117,-0.005430783517399904,0.007225507404655219,0.002382579725235701,0.0032279095612466327,0.04818996484391391,0.35075999513268474,-9.805654934048652
15.51,1.399999976158142,52.0,24.63284492492676,-0.05566241592168808,-79.78282131470101,40.45891831902142,266.41763393306735,0.01668507605791092,-0.007323029916733503,0.831373393535614,0.5554154515266418,0.0065334304418537105,-0.0033612261200194307,-0.003300638096730949,-0.0035765655338764186,-0.0011089775944128633,-0.0013295522658154366,0.048056684872135526,0.34500110898166897,-9.806971142292024
15.7,1.5,50.0,24.61656951904297,0.22264966368675232,-79.78282131354013,40.458918326187664,266.4173207702637,0.016681743785738945,-0.0073167961090803155,0.8313815593719482,0.555403470993042,0.006956109117326225,-0.00465770856565602,-0.0034106515121892444,0.002403468592092395,-0.002714604837819934,-0.0012871222570538519,0.0487911545438692,0.3529104914143681,-9.806689306497574
15.91,1.600000023841858,47.0,24.612812042236328,0.2544567584991455,-79.78282126170019,40.45891840407622,266.397399348259,0.016687875613570213,-0.00729907676577568,0.8313087224960327,0.555512547492981,0.008194555218705315,-0.005042655519086397,-0.0014176222870223901,0.0024506333284080037,-0.0015049694338813426,-0.0008971535717137158,0.049126643110066655,0.33314017821103337,-9.807005056142806
16.0,1.5,43.0,24.60655212402344,0.2544567584991455,-79.78282125886541,40.45891841180111,266.3972989740372,0.016710883006453514,-0.007280841935425997,0.8313819169998169,0.5554025173187256,0.00597966986344108,-0.005985218531462546,-0.0011449829035864536,0.003618493676185608,0.0008630043012090027,-0.02698555402457714,0.056302382703870536,0.3204765343666077,-9.804788961410523
16.2,1.600000023841858,39.0,24.60655212402344,0.2544567584991455,-79.78282117974292,40.45891844877281,266.3809050741196,0.01671748049557209,-0.007294291164726019,0.8315156102180481,0.5552018880844116,0.004030079888208396,-0.0069727009172481326,0.00467206210678961,0.0052350605838000774,0.003533802926540375,0.007549222093075514,0.04904850512277335,0.3713178186491132,-9.804196638464928
16.3,1.600000023841858,39.0,24.60029220581055,0.2544567584991455,-79.7828211449033,40.458918561027815,266.36103896522525,0.016711479052901268,-0.007303669583052397,0.8314487934112549,0.5553020238876343,0.014089540237753962,-0.00463400018864671,0.0037901345413836455,-0.0063621513545513144,-0.0024427154567092657,0.010459308512508873,0.044798419880680736,0.3701482293382287,-9.806793386936187
16.5,1.7000000476837158,35.0,24.611560821533203,0.2942156493663788,-79.78282114463627,40.45891858751979,266.36190108680734,0.016734372824430466,-0.0072985771112143985,0.8313947319984436,0.5553824305534363,0.011525915925404074,-0.007242770447712286,0.003795087845064753,-0.009980934672057629,1.6555688489461318e-05,-0.011978941038250923,0.05864476815797389,0.3463913575932384,-9.807989727258683
16.6,1.7999999523162842,35.0,24.60905647277832,0.326022744178772,-79.78282107543201,40.45891862118245,266.3435037555695,0.016755573451519012,-0.007298325654119253,0.8314784169197083,0.5552564859390259,0.006123978111924689,-0.006997638005347138,0.0042997886563917185,0.006713635753840208,0.0017721316544339059,-0.006102477200329304,0.044866951075382536,0.3289262360706925,-9.80504273056984
16.8,1.7999999523162842,34.0,24.604047775268555,0.3975887000560761,-79.7828210246827,40.45891869729333,266.3241696777344,0.016779521480202675,-0.007294885348528624,0.8315165042877197,0.5551987886428833,0.009470001972360965,-0.005856664781465228,0.001288824701870942,0.0023159009870141745,0.0012550734682008624,0.00720997853204608,0.04976133552845568,0.3649169447645545,-9.809064445495606
16.91,1.7999999523162842,37.0,23.57361030578613,12.468381881713867,-79.7828210208374,40.45891870653823,266.32431523227694,0.016788218170404434,-0.007295081391930579,0.8314796686172485,0.5552535057067871,0.010635316784556986,-0.00678737789318891,0.0012233230779828007,0.002488508122041821,-0.007331604138016702,0.01747806929051876,0.043974926350638266,0.3639817557111383,-9.803159927129746
17.1,1.8999999761581416,32.0,24.5927791595459,0.2862638533115387,-79.78282100251178,40.45891877152242,266.3074005069733,0.01671913079917431,-0.007350155618041755,0.8314551115036011,0.5552917122840881,0.013586534506939904,0.001490749399279753,0.0016406295833176815,0.04624619707465172,-0.029937293380498886,0.013946705497801304,0.04271935099270195,0.3657024816423655,-9.799646919965744
17.2,1.7999999523162842,34.0,24.599040985107425,0.20674611628055573,-79.78282100345201,40.45891877812024,266.3076240243912,0.01661403849720955,-0.007309557404369116,0.8315091133117676,0.5552146434783936,0.0056684286942722244,-0.005320086512746387,0.002294941258890197,0.006072215270251036,0.011785793118178844,0.00630316324532032,0.02931592016480863,0.3204779961705208,-9.813469737768171
17.4,1.7999999523162842,31.0,24.552715301513672,1.065537691116333,-79.78282092791486,40.45891883317224,266.29085199260714,0.016605069860816002,-0.0073311757296323785,0.8314903974533081,0.5552425980567932,-0.0013171032791254814,-0.005658905030890425,0.0051975989833330785,-0.025367565453052517,-0.016791727393865585,0.006673033349215984,0.07264550576917828,0.3659994105622173,-9.789693789482117
17.5,1.600000023841858,33.0,24.599040985107425,0.3101191818714142,-79.78282085329259,40.458918877429284,266.2755057039261,0.016563937067985538,-0.00732493307441473,0.831538200378418,0.5551722645759583,0.0008290653338813782,-0.005052615187173301,0.002591348132463761,0.017677940428256992,-0.03133015334606172,-0.0027649463154375553,0.0884891121648252,0.3521088016033173,-9.833738526105881
17.6,1.7000000476837158,36.0,24.601545333862305,0.198794350028038,-79.782820845245,40.45891887831221,266.275893491745,0.016556890681385994,-0.007275175768882036,0.8315634727478027,0.5551353693008423,-0.001505192706763889,-0.008228242192277463,0.004428605598533271,0.0013871528208255768,-0.004063444212079047,0.012909489683806894,0.04282115193083882,0.33040737234056,-9.806377065181731
17.81,1.600000023841858,26.0,24.48009490966797,2.544567584991455,-79.78282080861483,40.45891892102664,266.2607022943497,0.016575265675783157,-0.007321053184568881,0.8315747976303101,0.5551172494888306,-0.003838224047963407,-0.0022071754823016127,0.004807329968769781,-0.003589545609429478,0.019484929740428925,-0.01138982642441988,0.05948090629186481,0.3943626822531224,-9.802312665581702
17.9,1.600000023841858,22.0,24.359899520874023,3.8804657459259033,-79.7828207973333,40.45891891677185,266.26170889759067,0.016564318910241127,-0.007279079407453538,0.8316021561622621,0.5550770759582521,-0.005581706440804882,-0.005901690350191665,0.005468183341909614,-0.009382784366607666,0.011134056374430656,-0.012680795043706894,0.010604606238193813,0.33863707255572084,-9.80640922486782
18.1,1.399999976158142,18.0,24.24846649169922,5.868409156799316,-79.78282075918662,40.45891902204964,266.24470571899417,0.016357364133000374,-0.007274841889739037,0.8315408229827881,0.5551751852035522,0.00309278835708344,-0.005057221521751186,0.0011820348424899675,-0.018010992556810382,-0.05278756096959114,0.01925143226981163,0.01948503531748429,0.4059073517471552,-9.781162117123603
18.3,1.2999999523162842,21.0,24.11074066162109,8.206231117248535,-79.78282072301324,40.45891908280257,266.2310569705964,0.016090454533696175,-0.007315827999264002,0.8315086960792542,0.5552304983139038,0.009408389282134312,-0.001538000430740592,0.005246370672471137,0.0529395304620266,0.04774156957864762,0.0119162043556571,0.05394861345179379,0.25034784380346536,-9.835930062532423
18.4,1.100000023841858,14.0,24.024349212646484,9.621646881103516,-79.78282072099218,40.45891908871771,266.231592458725,0.015809539705514908,-0.0070952544920146465,0.8314979076385498,0.5552576780319214,0.011881596201231413,-0.00422164642261492,0.005264212867893437,0.012900414876639843,-0.09401135891675948,-0.0009618697804398836,0.02419602048117668,0.24627383284270765,-9.80954859495163
18.6,1.2000000476837158,20.0,23.855321884155273,12.603561401367188,-79.78282065734088,40.458919181089676,266.2178440513611,0.015384648926556109,-0.005928410217165947,0.8314515352249146,0.5553526282310486,0.005997525156831109,-0.007812355917644275,0.010669845466289045,-0.04100155457854271,0.08849085867404938,0.0036699490156024686,-0.02118059766478837,0.21493708753958346,-9.825874021053314
18.7,1.100000023841858,25.0,23.75766181945801,14.623311996459961,-79.78282061127594,40.458919257011104,266.20529894256595,0.015606475062668325,-0.00356985698454082,0.8314964771270752,0.5552993416786194,0.011057810129119064,-0.0073160500303796295,0.013405474810542618,0.02645457535982132,0.005858829710632564,0.024752002209424973,0.0035714290710166102,0.3691965949907899,-9.819355545043946
18.91,1.100000023841858,24.0,23.557334899902344,18.00281524658203,-79.78282060533793,40.45891926803953,266.2064040126801,0.015740474686026573,-0.002340431557968259,0.8315061926841736,0.5552875399589539,0.012246668983970305,-0.012352986589601435,0.008769697738050423,0.05259834602475166,-0.0011919140815734865,0.04208967089653015,0.04428083622828127,0.06480478243902325,-9.79217944085598
19.01,1.100000023841858,27.0,23.447153091430664,19.6965446472168,-79.78282058945636,40.458919275635225,266.20780782127383,0.016575740650296208,-0.0011568653862923384,0.8314298391342163,0.5553812384605408,1.3362613266438164e-05,-0.01382094770034013,0.01067734505980132,0.021061696112155914,0.017186570912599564,-0.057622984051704414,0.1823883240669966,0.2397752373665571,-9.797229681015017
19.1,1.100000023841858,25.0,23.338224411010746,21.263044357299805,-79.78282052758856,40.458919324647496,266.1980128707886,0.010712385177612305,-0.003192559815943241,0.8293267488479614,0.5586521029472351,-0.014698275938511737,0.0028411833534437783,0.06565494996091623,0.12590442597866058,-0.08060209453105928,0.02295022644102573,0.20948373667895795,0.2697193038091064,-9.939079624414443
19.31,1.0,25.0,23.1103515625,25.92278289794922,-79.78282041517384,40.45891932414737,266.18778376007083,2.7317917556501925e-05,-0.007245550863444804,0.8271817564964294,0.5618879199028015,-0.02575862543388964,0.02306165822650801,0.15934145791353566,0.12620073556900024,-0.2207018882036209,0.10456262528896333,0.041151589136570695,-0.15516730595380068,-10.754575588703155
19.51,1.0,31.0,23.48346328735352,18.84570503234864,-79.78282045184336,40.45891920536136,266.2460061731339,-0.0039339372888207436,-0.008295917883515358,0.823034405708313,0.5679173469543457,-0.06588837495479329,0.02389962915222004,0.3674639759322712,0.07436416298151016,0.3407408893108368,0.0004960974911227822,-0.1098357068002224,0.07019523918628692,-10.53068570137024
19.6,0.8999999761581421,43.0,23.527284622192386,18.14594841003418,-79.78282051263601,40.458918982088825,266.287880224228,-0.00037606694968417287,0.004875896032899618,0.8214439749717712,0.5702683329582214,-0.06331131687924244,0.0828895925506419,0.2903057404405843,0.1342933475971222,0.19455385208129888,0.07112537324428557,0.08236953503452242,0.04138831000775098,-9.913348367214203
19.8,0.8999999761581421,58.0,23.39581871032715,20.32473373413086,-79.78282074541887,40.45891893804226,266.28948883438113,0.0020853742025792607,0.0057151038199663145,0.8212348818778992,0.5705579519271851,-0.05918667717772778,0.09279360389874047,0.1965701090393544,0.011403288692235948,0.060316439718008034,0.018701756373047832,0.2033942270278931,-0.16534199109300973,-9.372144119739534
19.9,1.100000023841858,72.0,23.31694030761719,20.968828201293945,-79.78282083235845,40.4589188567135,266.3061474981308,0.004021973814815283,0.005665948614478111,0.8208051919937134,0.5711660385131836,-0.06063403617867653,0.09790055015697542,0.14154317295508653,0.018809394910931587,0.015342586673796175,0.05865849182009698,0.1378490683156997,-0.14446900265291335,-9.38772870361805
20.1,1.2000000476837158,84.0,23.29941177368164,21.461837768554688,-79.78282096914927,40.45891847722489,266.32389895343783,0.00508361216634512,0.010054409503936771,0.8209113478660583,0.5709446668624878,-0.10607277299849267,0.12922408369321053,0.09575979137962094,0.13875837624073029,-0.008568199351429941,-0.012577755376696588,0.333132613375783,-0.14893132355064154,-9.561077597737313
20.21,1.2999999523162842,81.0,23.254337310791016,22.169546127319336,-79.78282105565877,40.45891835013914,266.3335029306412,0.004834572784602642,0.011403546668589115,0.8218947052955627,0.5695047974586487,-0.11659336491502295,0.1199672338909201,0.09166680138893178,-0.07961338758468628,0.07121188938617706,-0.1032201126217842,0.16609920552000404,0.2290831101872027,-9.66502588927746
20.4,1.2999999523162842,89.0,23.241817474365234,22.097980499267575,-79.78282138694385,40.45891825948446,266.3539730730057,0.006321456283330917,0.021124884486198425,0.8246230483055115,0.5652527213096619,-0.03777960972595496,0.09979316728554624,0.1428040338536997,0.09958981722593307,0.05019242689013481,0.01688208058476448,0.11357057011686265,0.12287497943267227,-9.83205101966858
20.51,1.5,102.0,23.19423866271973,22.392194747924805,-79.78282146817028,40.45891819985009,266.37041990184787,0.007493398152291775,0.020629923790693283,0.8254637122154236,0.5640283823013306,-0.020851858439309832,0.08596913813034937,0.18143376887346324,0.012613049708306793,-0.03606746718287468,0.03174293413758278,0.2469459702819585,-0.010529866944998505,-10.177511537075043
20.6,1.600000023841858,110.0,23.22929763793945,22.097980499267575,-79.78282148281366,40.45891822796279,266.38090185546884,0.005831608548760414,0.01988691091537476,0.8261067271232605,0.5631325840950012,0.0047415760916157046,0.06232018923287135,0.22735486240694786,0.13339747488498688,0.04541758820414543,-0.02303787693381309,0.2330609344504773,0.202382128816098,-10.241040365695953
20.8,1.5,124.0,23.275623321533203,21.175573348999023,-79.78282165737303,40.458918251264976,266.4553461494446,0.01137597393244505,0.013772132806479931,0.8307678699493408,0.5563324689865112,0.04536689015549717,0.04737444880238269,0.3445549993683785,-0.1416032314300537,-0.0950603410601616,-0.0016067082760855556,0.15835922788828613,0.2577626796998084,-10.35157846927643
21.0,1.5,135.0,23.275623321533203,20.94497299194336,-79.7828217065356,40.45891828692145,266.4912612857819,0.013760383240878582,0.010169882327318192,0.8328532576560974,0.5532295107841492,0.06649876844332382,0.029140744127433907,0.3739504405488146,0.0340786837041378,-0.03997240588068962,0.0269138477742672,0.20618601668626071,-0.18952565476298333,-10.144824432134627
21.1,1.600000023841858,134.0,23.35199737548828,19.92714500427246,-79.78282140388933,40.458918435378564,266.4897348108292,0.01448726560920477,0.009151496924459934,0.8340656757354736,0.5513991117477417,0.05278313034407533,0.003215489848220135,0.3498783043507704,0.0807817354798317,-0.06515459716320038,0.02439839951694012,0.17598739536479116,-0.02718966241925955,-10.022809413671494
21.3,1.5,128.0,23.35700607299805,19.33871459960937,-79.78282141397905,40.458918457902044,266.5349226417542,0.011529629118740559,0.010618492029607296,0.8335575461387634,0.55221027135849,0.03799816249989422,-0.01786943992885037,0.3109555441269739,-0.00024273002054542306,0.0746593102812767,-0.04152001067996025,0.10103217545896767,0.17920122608542444,-9.814899966716768
21.41,1.7000000476837158,138.0,23.2568416595459,20.833646774291992,-79.78282139690846,40.458918501736115,266.56512336158755,0.011601783335208893,0.011235433630645277,0.8327256441116333,0.5534502863883972,0.04199375261054476,-0.035436879371604835,0.2942166339610573,0.007922478951513767,0.09563131630420683,-0.004073104355484247,0.1354727141931653,0.3109287621080876,-9.667809163928034
21.5,1.7000000476837158,143.0,23.241817474365234,20.78593635559082,-79.78282136345321,40.45891855601375,266.5933186235428,0.01126406528055668,0.011595938354730606,0.8320460915565491,0.5544710159301758,0.051959689617512975,-0.05578642569429095,0.2778580102202145,0.07727944850921631,0.0548536516726017,0.026311665773391724,0.10201572281308473,0.11180082807317376,-9.663143670558929
21.71,1.8999999761581416,153.0,23.12412452697754,23.17942047119141,-79.78282097223563,40.458918540438134,266.6432969989777,0.010400952771306038,0.00918641407042742,0.8306222558021545,0.5566635131835938,0.01600429204161897,-0.07288034048378172,0.07650042091833624,-0.006700537167489529,-0.18116495013237,0.01254315860569477,0.3356982985138893,-0.0687605700083077,-8.418426994085314
21.8,1.600000023841858,160.0,22.98514747619629,24.47555923461914,-79.78282106515539,40.45891862620749,266.6614058437348,0.006087242625653744,-0.0018162212800234558,0.8302300572395325,0.5573847889900208,0.027470845727658167,-0.06733273703122182,0.016856317716576724,-0.018053779378533363,-0.2798849940299988,0.10366292297840116,0.1931384117715061,0.0011036802269518376,-8.931606121659279
22.01,1.600000023841858,177.0,22.900007247924805,27.41771697998047,-79.78282092378564,40.45891873538197,266.6737251701355,0.004104930907487868,-0.005465300753712654,0.8289434313774109,0.5592908263206482,0.03416187072344279,-0.0703308361931483,0.1438562908173647,-0.0394076369702816,0.07052192091941832,-0.0070985518395900735,-0.017135128425434232,0.32084768638014793,-10.515334421396256
22.2,1.600000023841858,187.0,22.644588470458984,30.87673759460449,-79.78282082676759,40.458919094298494,266.7451507272721,0.008640685118734838,-0.00738782761618495,0.8287100195884705,0.5595628619194031,0.06377546530951521,-0.05000131898654493,0.42822942898855376,0.01268097758293152,0.0608832873404026,0.04150113090872765,0.07398026978597046,0.2358734634518624,-11.138393840789798
22.3,1.8999999761581416,189.0,22.767290115356445,28.825180053710927,-79.7828208672248,40.45891920499857,266.7805029573441,0.01024843193590641,-0.007021095138043165,0.8283832669258118,0.5600241422653198,0.06953188615460046,-0.0215064189150688,0.6013080236189119,0.09981150925159454,0.04954978078603745,0.00856103003025055,0.102142022671178,0.21855280470103028,-11.598609473705293
22.4,2.0,189.0,22.62080001831055,30.61433029174805,-79.78282087399624,40.45891924748889,266.85060958290103,0.010999181307852268,-0.004931746982038021,0.8278267979621887,0.5608543753623962,0.06381787306444155,-0.011022650185730941,0.7960456135175826,0.09363014250993727,0.11087249219417572,0.07666757702827454,0.2128035116381944,0.11318310071714224,-11.73474084019661
22.6,2.299999952316284,180.0,22.529399871826172,32.49094772338867,-79.78282090185503,40.458919373746795,267.0364519777298,0.014516926370561125,-0.0018825925653800366,0.8271617293357849,0.5617732405662537,0.05081667568043224,0.013391173080131177,1.2468656288283906,0.03164588660001755,-0.02788175828754902,-0.05316954478621483,0.1001468156464398,0.22193342724815013,-12.22875688791275
22.8,2.4000000953674316,182.0,22.712200164794922,29.326141357421875,-79.78282090030342,40.45891947137668,267.3283852758408,0.010557522997260094,-0.0035916063934564595,0.8287996649742126,0.5594343543052673,0.04798765943191974,0.013758532948159466,1.7494670258148823,0.020983200520277023,-0.0274643823504448,0.06549243628978729,0.1886702436581254,0.17712336318567395,-12.385385084152222
22.91,2.700000047683716,190.0,22.534408569335927,31.85480690002441,-79.78282090651268,40.458919473306366,267.51483289623263,0.010495970025658607,-0.006521887145936489,0.8297173380851746,0.5580470561981201,0.042438320038901314,0.02490969835863481,1.9729980608520103,-0.01835340447723865,-0.07518740743398666,0.03324875608086586,0.11307831678539515,0.2504474474675953,-12.075419504642491
23.1,2.5999999046325684,190.0,22.270225524902344,36.450931549072266,-79.78282092935963,40.45891956115714,267.9302044334412,0.009706621989607813,-0.009489439427852629,0.8302614092826843,0.5572088360786438,0.062319310628966486,0.014380671289175282,2.390728542189458,0.037976544350385666,0.07410527765750885,0.0017451082821935413,0.028173776222392918,0.12147150149568915,-12.066394912004473
23.21,2.700000047683716,189.0,22.59450721740723,29.15915489196777,-79.78282096315363,40.45891953878047,268.18183774971965,0.011369165033102036,-0.0047458074986934645,0.8299897909164429,0.5576426386833191,0.054992492354449474,0.030179593736536364,2.644296029205485,-0.013132838532328606,0.05446817725896835,-0.0184851847589016,0.07949578385800124,0.2782938618399203,-12.284375603199004
23.3,2.700000047683716,189.0,22.88873863220215,25.485435485839844,-79.78282098824789,40.458919623077286,268.41431913995746,0.011887281201779842,-0.0020156954415142536,0.8296270370483398,0.5581879019737244,0.05462050077392993,0.06076039437948042,2.82090602668916,-0.0288243368268013,-0.02363766543567181,-0.05039471387863159,0.17888565916568042,0.3159141347184777,-11.971153124570847
23.5,2.9000000953674316,186.0,22.900007247924805,26.24880599975586,-79.78282102344029,40.45891961020504,269.2556630792618,0.0096758296713233,-0.007001204416155815,0.8297411203384399,0.5580207705497742,0.05535449655778647,0.05463408035571307,3.0075422991227145,0.1065509393811226,0.01003396324813366,-0.02169748768210411,0.1476051933132112,0.2865855608135462,-10.600147114992144
23.7,2.9000000953674316,186.0,22.940073013305664,24.55507850646973,-79.78282106559948,40.45891956774585,269.5592666091919,0.009903216734528542,-0.0028222694527357817,0.8305449485778809,0.5568563938140869,0.042642692383666206,0.0576034610501977,3.053686471953996,0.012170130386948586,0.016847198829054832,-0.09551459550857544,0.017858150345273317,0.2209601764753461,-10.184367982149123
23.8,2.9000000953674316,184.0,22.91127586364746,24.491464614868164,-79.78282111554489,40.45891960537707,269.8109108629227,0.011036606505513193,0.0012353610945865512,0.8315303921699524,0.5553682446479797,0.03209633904454064,0.07060282913933005,3.0128572892496632,0.032984159886837006,0.1328030228614807,0.0005648463265970347,0.0664819466136396,0.2327382046915591,-9.998130655288696
24.0,2.9000000953674316,180.0,22.861194610595703,25.24688148498535,-79.78282120311974,40.45891953354267,270.41393880271914,0.013952519744634628,0.009074727073311806,0.8320346474647522,0.554473876953125,0.04040628017106995,0.11316719344980428,3.0055039815988547,0.08930636197328568,0.11978945881128313,0.057048756629228585,0.11170652344822883,0.09466110410168767,-9.898249686956406
24.1,3.0,182.0,22.96135711669922,23.67243003845215,-79.78282116572078,40.45891944425833,270.69389824295047,0.013379531912505628,0.012745434418320656,0.8314986228942871,0.5552195906639099,0.021916070397759658,0.11385176132942898,2.9912638004651337,0.02010120078921318,0.008329114876687527,0.07333298772573471,0.2148842616006732,0.030817640461027626,-9.940525056123734
24.2,3.0,182.0,22.893747329711914,24.61869239807129,-79.78282117341139,40.458919425070064,270.99340419197085,0.015211143530905247,0.01398610882461071,0.8301557898521423,0.5571485161781311,0.0008461109001153233,0.1185639759826001,2.9875260485063464,-0.13281112909317014,0.012528151273727415,0.0444088838994503,0.19063865398988128,0.15553798288106918,-9.718282914161682
24.4,2.9000000953674316,176.0,22.889991760253906,24.507368087768555,-79.78282099687452,40.45891935024868,271.8262975635529,0.017478348687291145,0.0037825079634785648,0.827813982963562,0.560717761516571,0.026477117130307856,0.04067739547154778,2.883390935816037,-0.03990809619426727,0.02083897963166237,-0.03549772500991821,0.15440850181505086,-0.03578497806563974,-9.633012968301774
24.6,2.9000000953674316,178.0,22.926300048828125,24.38809013366699,-79.78282044234676,40.45891918214577,272.0821431102753,0.015777746215462685,0.00254221516661346,0.8281840085983276,0.5602284669876099,0.003373266207370983,-0.0124088486526895,2.8359744656592585,0.06542785465717316,-0.07518619298934938,-0.01249956712126732,0.1708175613731146,0.005215254980139435,-9.761974478960036
24.7,2.799999952316284,182.0,22.98264312744141,23.07604789733887,-79.7828203124806,40.4589191425409,272.36504654312137,0.014800415374338629,0.001269065891392529,0.8289030194282532,0.5591950416564941,-0.03197814227679747,-0.02585878195768984,2.823427997679474,-0.08531399816274643,-0.01973274536430836,-0.12239088118076324,-0.03498722142074257,0.2306447370350361,-9.609634045958519
24.81,2.799999952316284,183.0,22.88498306274414,24.483510971069336,-79.78282087711774,40.45891931431928,272.65519098663333,0.013388678431510924,0.0018788016168400645,0.8296871781349182,0.5580649375915527,0.02241496059149869,-0.010621317128831844,2.7504238275589383,0.23539276421070104,-0.03807938098907472,0.03871064633131027,0.11247371468693018,-0.16975382493808866,-9.523023918271065
25.0,3.0,188.0,22.8712100982666,24.91290855407715,-79.78282066569767,40.45891925507236,273.2002501907349,0.008215758949518205,0.008542698808014395,0.8300458192825317,0.5575693845748901,-0.023178286354451117,-0.02083490040506757,2.7025205252661477,0.06347659975290297,-0.02127649821341037,0.044218745082616806,0.13011655502021313,-0.05166126491501928,-9.556395732164383
25.1,3.0,192.0,22.859941482543945,24.66640281677246,-79.782820762169,40.458919400905536,273.64914659881595,0.004861785564571619,0.008548378944396973,0.8292155861854553,0.5588425397872925,-0.015951999653846173,-0.005980114255321951,2.7337019138156777,0.0732610896229744,-0.01659812405705452,0.05979727208614349,0.12967109768651428,0.1933502088859677,-9.440534323453905
25.31,3.299999952316284,194.0,22.804851531982425,25.175315856933594,-79.7828209071901,40.45891934202753,274.37370352172854,0.005019370466470718,-0.0017948149470612407,0.8277984857559204,0.5610002875328064,-0.015023941952922726,-0.02186379338064524,2.7530497035275334,-0.13133850693702698,-0.1403491050004959,-0.019611483439803123,0.07223784520290792,-0.0038999101147055627,-9.438991827964783
25.5,3.4000000953674316,197.0,22.6959228515625,27.29048728942871,-79.78282075680018,40.45891939362347,274.9180050315857,0.012222860939800741,0.003661182010546328,0.8285137414932251,0.5598235130310059,0.06744832766888502,-0.07573414931280201,2.700689013711556,0.07240252196788788,0.16227614879608154,0.03411982953548432,-0.04726205283310265,0.3665583312883973,-9.43380476295948
25.61,3.4000000953674316,205.0,22.781063079833984,24.32447624206543,-79.78282064177135,40.45891956001636,275.31469921493533,0.01703183725476265,0.010795860551297665,0.8275159001350403,0.5610799789428711,0.06890249088285631,-0.037335457359551225,2.778288594312122,-0.06086372584104537,0.04913181811571121,-0.034351672977209084,-0.004706827016780153,0.1854883533529937,-9.703108220100404
25.7,3.5,197.0,22.96887016296387,22.972675323486328,-79.7828205482177,40.45891962269202,275.5934839668274,0.016101446002721786,0.0077544497326016435,0.8269434571266174,0.5620009899139404,0.07944604546216197,-0.002753556450940657,2.7945484720593234,-0.09294534474611282,-0.16365233063697815,0.021553602069616318,0.15393060157075525,0.1859896241873503,-9.912588229179383
25.9,3.4000000953674316,203.0,22.84616851806641,24.22110366821289,-79.78282042796762,40.458919671326214,276.2691512527466,0.009009202942252159,-0.011110790073871613,0.8297204971313477,0.5579957962036133,0.08973866405763226,-0.13092051503001687,2.8202063262883885,-0.02770303376019001,-0.20877493917942047,0.028442608192563057,-0.2099532315507532,0.054855269920080905,-9.747398539781573
26.11,3.5,206.0,22.92129325866699,23.664478302001953,-79.78282058542413,40.4589199538965,276.9452968063355,0.01058382447808981,-0.008955276571214199,0.832400918006897,0.5540006160736084,0.11121162021601204,-0.19612391358716155,2.9022810384824758,0.07054231315851213,0.0872623473405838,-0.006709708366543055,-0.06924453673884272,0.3626325472444296,-10.003720593452456
26.2,3.799999952316284,215.0,22.86495018005371,23.88712882995605,-79.78282042045551,40.45892003549914,277.23661951446536,0.00981327798217535,-0.004511306993663311,0.8308337926864624,0.5564159750938416,0.1191308129979204,-0.1677313967037297,2.90653637549144,0.13022466003894806,-0.13075445592403412,0.1779419630765915,0.015334044392220674,0.2114721554517746,-9.841083798408508
26.4,3.9000000953674316,209.0,22.96010589599609,22.614845275878906,-79.78282040087059,40.45892038116457,277.9063001098633,0.0017557422397658227,-0.01342724822461605,0.8265012502670288,0.5627720355987549,0.10859367479109806,-0.14284194366563838,2.9082735883408914,-0.05001666769385338,-0.15447258949279785,0.09216970205307007,0.003161425050348044,0.07821886159479619,-9.685345548391343
26.5,3.9000000953674316,206.0,22.758525848388672,25.000377655029297,-79.78282043396608,40.45892044422642,278.27290300750735,0.00016117238556034863,-0.019001731649041176,0.825265109539032,0.5644258260726929,0.11729793040721805,-0.17672775996938062,2.9014461563765086,-0.08248155564069748,-0.017532365396618843,0.0412457101047039,-0.13530257849022748,0.4206600230187178,-9.276870757341383
26.6,3.9000000953674316,206.0,22.882478713989247,23.624719619750977,-79.78282033873434,40.45892054377566,278.5627599182129,0.0010291639482602477,-0.01923422887921333,0.8250645995140076,0.5647099614143372,0.14047835421721647,-0.19402966149791465,2.8885614536093094,-0.07867445796728134,0.07206559181213379,0.08235718309879303,-0.09896640898659824,0.3128613399714232,-9.64757545888424
26.81,3.700000047683716,218.0,22.78982734680176,24.133634567260746,-79.78281998744133,40.45892103536901,279.50902704620364,0.015461605042219162,-0.008922074921429156,0.8278573155403137,0.5606547594070435,0.20073596870516908,-0.08501369343475881,2.9514619888869817,-0.013551906682550907,0.05434083566069603,-0.030080212280154225,0.12623601380735636,0.3342201589420438,-9.931344927549363
27.0,3.5999999046325684,214.0,22.87246322631836,23.87917709350586,-79.78281996613053,40.45892114221496,279.80499700927743,0.01990061067044735,-0.010240859352052212,0.8286940455436707,0.5592543482780457,0.1997699818988664,-0.044183812825404636,2.9537490167840925,-0.1068013831973076,-0.03727461770176888,-0.01981722749769688,0.08367579387500883,0.2334648856893182,-9.83401802301407
27.1,3.5999999046325684,212.0,22.723468780517567,25.596759796142567,-79.78281999132318,40.458921298603016,280.1555781784058,0.02207418717443943,-0.013164960779249668,0.8293042182922363,0.5582060217857361,0.21100513903673232,-0.031422818722099365,2.97508111948216,-0.10438703000545503,0.0016934371087700124,-0.03208673745393753,-0.028827229980379343,0.4656943643465639,-9.752601392269137
27.31,3.5,210.0,22.86870574951172,23.489540100097656,-79.78282006492928,40.458921594256225,280.80272821807864,0.01565736904740334,-0.008215207606554031,0.829176664352417,0.558707058429718,0.2418516315775906,-0.022640578556275742,3.0420201861845837,0.13083383440971375,-0.02364075556397438,-0.0039860354736447326,0.08463826384395362,0.3369762805849314,-10.056717417240144
27.4,3.700000047683716,197.0,22.87747001647949,23.36231231689453,-79.78282006780623,40.45892168053186,281.1083207550049,0.011053453199565407,-0.008139368146657944,0.8292480111122131,0.5587122440338135,0.20157758735302228,-0.020437354891102943,3.0523392306083217,0.08106153458356857,-0.10832513123750688,0.14779618382453918,0.005257772917393595,-0.009093352239578963,-9.958573071956637
27.5,3.5999999046325684,200.0,22.78356742858887,25.000377655029297,-79.7828202198068,40.45892210186783,281.46454195404056,0.01014048233628273,-0.012073121033608912,0.8290636539459229,0.5589320659637451,0.22416866494234167,-0.03224785032372668,3.056151469949026,-0.037035055458545685,-0.025877149775624275,-0.05036260560154915,0.07325591853819788,0.3813015739247203,-9.76794857919216
27.7,3.5999999046325684,196.0,22.787322998046875,24.563030242919922,-79.78282028036892,40.45892237110398,282.07424215698245,0.013409039936959743,-0.012127975933253763,0.8279415369033813,0.5605229139328003,0.2542641165249893,-0.05659630817600076,3.02661455655716,-0.0547608993947506,-0.0170863289386034,0.04865394905209541,0.06620899127796293,0.4053248228877783,-9.702843341231347
27.81,3.5999999046325684,194.0,22.758525848388672,24.9924259185791,-79.7828203561619,40.45892270911817,282.4133286895752,0.015539471991360188,-0.011797642335295677,0.8268582224845886,0.5620719194412231,0.2838466263729557,-0.024737676315154097,3.0231795616419754,-0.006468787789344789,-0.05827158316969872,0.004594511352479458,0.13631798403337594,0.3565358747541905,-9.636138305068016
28.0,3.5,192.0,22.728477478027344,25.98639678955078,-79.78282051150322,40.458922992084325,283.01752809906014,0.015746191143989563,-0.011176594533026218,0.8265506029129028,0.5625311136245728,0.2893023666020613,0.00901226625578963,2.9958064267189224,0.04865378513932228,0.09460093826055528,-0.009438827633857729,0.02416978110093624,0.2982016394287348,-9.60398154258728
28.21,3.5,189.0,22.719711303710927,25.350255966186523,-79.7828208877668,40.45892335716534,283.6665196838379,0.01730697974562645,-0.00320896552875638,0.8290556073188782,0.5588890910148621,0.2649099468347739,0.06637037827941923,3.03069551941813,-0.02743539959192276,0.08719158917665483,-0.035502880811691284,0.11618550891056655,0.4005432257428765,-9.937818964719774
28.31,3.5,186.0,22.7497615814209,24.817485809326172,-79.78282103005996,40.45892339643854,284.00409082794187,0.016450198367238045,-0.0013231107732281089,0.8303680419921875,0.55697101354599,0.2424456562314085,0.1074358631834476,3.0618483070119047,0.02351265586912632,0.05128268897533417,-0.010996706783771515,0.1819800422340632,0.3291347258538008,-9.93591511130333
28.4,3.5,183.0,22.68966293334961,26.25675773620605,-79.78282117054708,40.458923492527646,284.3119225921631,0.015763521194458008,-0.0014431942254304884,0.8316113948822021,0.5551324486732483,0.2273844212812215,0.11400011529774655,3.0785023044015385,-0.06404868513345717,-0.0006576919695362449,-0.048897374421358115,0.1427575409039855,0.34272489756345753,-9.967466686964038
28.6,3.5999999046325684,178.0,22.912527084350586,23.131710052490234,-79.78282137690051,40.45892373588565,284.95612959289554,0.019450776278972626,-0.002462044591084123,0.8338862061500549,0.5515881776809692,0.2249104511475352,0.1100509788876963,3.1372887586805964,-0.12185027450323105,-0.03184989094734192,-0.11389941722154615,0.1628555357269943,0.3522283040732145,-10.157724559307097
28.8,3.700000047683716,175.0,22.758525848388672,24.483510971069336,-79.78282161614986,40.45892388751365,285.5990662994385,0.021976867690682408,-0.00454061571508646,0.8340170979499817,0.5512822270393372,0.2467451794522536,0.09695501130249316,3.1273107817209125,-0.11458177119493484,-0.10413514077663424,0.019320473074913025,0.12072046319022775,0.4896223402395845,-9.934694212675096
28.91,3.700000047683716,172.0,22.90251159667969,20.8813591003418,-79.78282172683588,40.45892398690441,285.9124494018555,0.02299961820244789,-0.005111150443553925,0.8329756259918213,0.5528079867362976,0.2702253514725665,0.09423634761640598,3.1210866529834167,-0.004180369433015585,0.004498808179050684,0.1149727776646614,0.03519979968667032,0.4740510222315789,-9.762566801905633
29.1,3.700000047683716,170.0,22.751012802124023,24.539175033569336,-79.78282197228043,40.45892412275786,286.54283003234866,0.02107848785817623,-0.004058203659951687,0.8311539292335509,0.5556280612945557,0.2747992540473008,0.09185129739592007,3.05704031211998,-0.07181978225708008,0.06437992304563522,0.042929083108901984,0.16088312370702626,0.5960411900281907,-9.648226253986355
29.2,3.799999952316284,170.0,22.94883728027344,21.58906555175781,-79.78282208784195,40.458924237654784,286.84867910766604,0.0241278875619173,-0.007098089437931777,0.8297856450080872,0.5575153231620789,0.29075470351906074,0.08863801816596388,3.041300552858836,-0.034858979284763336,0.02821914665400982,0.08475985378026962,0.08909949752502144,0.4984513435140253,-9.635147202014924
29.3,3.9000000953674316,169.0,22.77980995178223,23.64062309265137,-79.78282222626378,40.458924225045024,287.1739221038818,0.0294476430863142,-0.011399721726775171,0.8287146687507629,0.5587799549102783,0.2832470570823971,0.0842759540925078,3.0131341905553417,-0.11829162389039992,-0.06773097068071365,0.0214392114430666,0.05669238285161555,0.558733980730176,-9.50622252881527
29.5,4.0,169.0,22.82238006591797,23.219179153442386,-79.7828225783066,40.45892447518831,288.0981431427002,0.034736733883619315,-0.015165795572102068,0.8284736871719359,0.558743953704834,0.3201593296926432,0.09660809580642474,2.945749660082895,-0.07018351554870605,-0.005123525392264128,-0.12274935096502305,0.2497080122306943,0.5171621046960354,-9.582657916545866
29.7,4.0,168.0,22.754770278930664,24.30857276916504,-79.78282268267512,40.45892454285229,288.39328627014163,0.034284401684999466,-0.01422399003058672,0.8289857506752014,0.5580366849899292,0.3200639285959629,0.08934084294474545,2.926435018982252,0.0982660949230194,0.03054191544651985,0.08819650113582611,0.20525682102888826,0.5136968619748951,-9.656305936574936
29.8,4.099999904632568,167.0,22.791078567504893,23.131710052490234,-79.78282287044784,40.45892469245775,288.7163300933838,0.03449144586920738,-0.011926728300750256,0.8294190764427185,0.5574334859848022,0.3107376851633052,0.09767558172443846,2.9343850687277264,-0.01993861049413681,0.032443229109048836,-0.08078408986330032,0.14271003227680926,0.6018219666928053,-9.648931428194047
30.0,4.099999904632568,164.0,22.87621879577637,22.439905166625977,-79.78282305063325,40.45892479682971,289.3034692230225,0.03918552771210671,-0.01019255816936493,0.8294687271118164,0.5570838451385498,0.27704841123350943,0.11785132562354493,2.9039407960780603,-0.045174259692430496,-0.062318261712789536,0.04249732568860054,0.1669299121387303,0.5030655275657774,-9.609700119495393
30.11,4.199999809265137,165.0,22.747257232666016,24.769775390625,-79.78282324688574,40.458924869660095,289.6205907287598,0.03835727274417877,-0.00995277613401413,0.8296105265617371,0.556934654712677,0.2837931121493147,0.13061947775281302,2.8938773878298854,-0.004376040771603584,0.029913581907749176,-0.03812750428915024,0.09384094074368478,0.7355694964528084,-9.485248566269878
30.21,4.199999809265137,164.0,22.73974418640137,24.41989707946777,-79.78282332327953,40.45892490663218,289.91000418090823,0.035955749452114105,-0.009021859616041185,0.8294453620910645,0.5573565363883972,0.2753007516614885,0.11872469851766175,2.868077833410986,0.06657005101442337,-0.1032596081495285,-0.002418403280898929,0.2643404866755009,0.4906101176887751,-9.57544829964638
30.4,4.199999809265137,161.0,22.73223304748535,24.41989707946777,-79.78282367685709,40.458924968391706,290.8082547607422,0.035847440361976624,-0.01112301554530859,0.8270047307014465,0.560940682888031,0.22199348354766327,0.0944430442254008,2.8779684195161037,0.0046247276477515715,-0.051481395959854126,0.007079069036990405,0.07948408029042185,0.6034211436286568,-9.72440553367138
30.6,4.199999809265137,162.0,22.67964744567871,25.23892974853516,-79.78282386499454,40.45892494350335,291.1204686584473,0.03537499159574509,-0.011383527889847755,0.8268246054649353,0.5612308382987976,0.22416671163227508,0.10086413432756307,2.8954143446701006,0.06170780956745148,0.008870303630828856,-0.06903410702943802,0.11599993290379645,0.6189640295505524,-9.82116818189621
30.71,4.199999809265137,161.0,22.761030197143555,23.219179153442386,-79.78282390877352,40.45892493757528,291.4123578491211,0.03183302283287048,-0.008730481378734112,0.8273472189903259,0.5607202649116516,0.21963197900809173,0.09887320114633673,2.9260836291270254,0.162241131067276,0.05027502030134201,-0.044916801154613495,0.12897506888955831,0.6446720440685749,-9.970349364280699
30.8,4.199999809265137,160.0,22.693418502807607,25.35820770263672,-79.78282401836894,40.4589249013756,291.71880201721194,0.029116418212652206,-0.0060335900634527215,0.8281779289245605,0.5596760511398315,0.18949608963339198,0.09760370731609848,2.950513933038051,0.06935596466064453,0.05474215745925903,0.019401557743549347,0.1637604471668601,0.43633684672415257,-9.928152347803117
31.01,4.300000190734863,166.0,22.74850845336914,24.523271560668945,-79.78282407937941,40.45892488201865,292.309486907959,0.028408650308847424,-0.003968739882111549,0.8302306532859802,0.5566816329956055,0.17029052435039405,0.10114453613409508,2.9508468724767107,0.04471307992935181,-0.07372475415468216,-0.07963232696056366,0.3069911009073258,0.4401379754394293,-9.899192258119584
31.1,4.199999809265137,163.0,22.799842834472656,23.17942047119141,-79.78282423418945,40.45892484576315,292.6097150268555,0.03017784841358662,-0.004555311053991318,0.8305113911628723,0.5561649799346924,0.14914967041307522,0.1062422086392122,2.9413438818400466,-0.17683693766593933,-0.08789060264825821,0.049969974905252464,0.11674514226615428,0.576458353176713,-9.732062462568283
31.3,4.199999809265137,162.0,22.66337013244629,25.175315856933594,-79.78282438857644,40.45892488476584,293.19965986633304,0.03412648290395737,-0.007306736428290605,0.8294401168823242,0.5575045347213745,0.19962115942824052,0.09921412971730804,2.926353228499772,-0.01217309944331646,-0.06911509484052658,0.012529503554105759,0.3437342731654644,0.6378227618336678,-9.899844807386401
31.5,4.199999809265137,161.0,22.69467163085937,24.268814086914066,-79.78282443862093,40.458924894834,293.79140524291995,0.03317364677786827,-0.008198927156627178,0.8292668461799622,0.5578072667121887,0.19028493548567105,0.09036478104079304,2.972059404835988,-0.060657542198896415,0.029002573341131214,-0.03796892985701561,0.2607527447864413,0.7082582484930754,-9.977730889320377
31.61,4.199999809265137,157.0,22.697175979614247,23.839418411254893,-79.78282458088735,40.458924797419094,294.0869126739502,0.03240836411714554,-0.009036908857524395,0.8300033807754517,0.556742787361145,0.18672212911523306,0.09325399606971492,2.9615812683382488,0.09986933320760727,-0.004602257162332535,-0.05529119446873665,0.3175252984464169,0.5683474610745907,-9.947988442182544
31.71,4.199999809265137,162.0,22.698427200317386,23.903032302856445,-79.78282460170203,40.45892477204872,294.38407568359384,0.031595084816217416,-0.009573010727763176,0.8306789994239807,0.555772066116333,0.1621209757568497,0.09147460342903373,2.9645088605496044,-0.06627155095338821,-0.0034896014258265487,-0.10472109913825987,0.1909746130742133,0.6333298344165087,-9.78267420709133
31.9,4.099999904632568,161.0,22.53691291809082,27.12350082397461,-79.78282461996794,40.458924581428775,295.2664590301514,0.027745021507143967,0.0031284166034311056,0.8293522596359253,0.5580281019210815,0.10232793586892484,0.08088025701965326,2.9567103571606648,0.04740674048662186,0.0229488592594862,0.1102653220295906,0.1217187656275928,0.5868414001911879,-9.767810584902763
32.11,4.099999904632568,162.0,22.56946563720703,26.12157821655273,-79.78282470211283,40.45892439036008,295.55997709655765,0.02494591474533081,0.0021972430404275656,0.828291118144989,0.5597381591796875,0.06899855063895773,0.09826849870768632,2.9799636160291443,-0.011555722914636135,-0.08481423556804657,0.08505772799253464,0.19350095741450787,0.3754022449627519,-10.08820350408554
32.2,4.099999904632568,162.0,22.63958168029785,25.262784957885746,-79.78282466003866,40.45892434929675,295.85957388305667,0.02348650060594082,-0.002793622436001897,0.8272090554237366,0.5613963603973389,0.06087171178880998,0.06785311621059363,3.0093221860843085,-0.08211308717727661,-0.06387054175138474,0.05536135658621788,0.1457529963925481,0.5390602562204003,-10.10944526910782
32.4,4.099999904632568,165.0,22.513124465942386,27.028079986572266,-79.78282453294682,40.45892424140144,296.4542565765381,0.0218212865293026,-0.007706597447395325,0.825914204120636,0.5633207559585571,0.08793241728171701,0.007878744280607822,3.0333631184135874,0.02959966473281384,-0.0873618796467781,-0.07198629528284073,0.13250080288387836,0.5023852405697108,-10.045867323875427
32.51,4.0,167.0,22.64709281921387,24.507368087768555,-79.78282437442924,40.45892413461454,297.0584645690918,0.0196114182472229,-0.009547198191285132,0.8257768154144287,0.5635752081871033,0.08040283214148189,-0.015238697672670925,3.0941903365158763,-0.05086641013622284,-0.053440220654010766,-0.03021429106593132,0.12784237185493116,0.5299461646378041,-10.341308419704438
32.71,4.0,168.0,22.624555587768555,25.19917106628418,-79.78282431651986,40.45892411131288,297.36973814392087,0.019457552582025528,-0.012396025471389294,0.8260683417320251,0.5630975961685181,0.10295870247736284,-0.01500354154425905,3.128226722710928,0.08191551268100739,-0.05136679112911224,0.02619082666933536,0.20273221258074045,0.3917789438366889,-10.24070005774498
32.8,4.099999904632568,177.0,22.740997314453125,23.250986099243164,-79.78282429817175,40.45892411528711,297.67510084533694,0.019009357318282127,-0.013247421942651272,0.8266595602035522,0.5622252225875854,0.10297091452779078,-0.03504708026716332,3.1312616203451884,4.743510362459346e-05,-0.01909254118800164,0.10315459966659546,0.07811945892870427,0.41128806922584776,-10.204473048448564
32.91,4.099999904632568,182.0,22.688411712646484,24.714113235473643,-79.78282424194471,40.45892409311642,297.98919348144534,0.021058393642306328,-0.012089216150343418,0.8271244764328003,0.5614940524101257,0.11041303992278197,-0.03741112039979911,3.141328541410285,0.03015169128775597,0.06897840648889543,0.06496704369783401,-0.03395568121690303,0.40478687904775146,-9.954002888202668
33.11,4.199999809265137,183.0,22.78857421875,21.604969024658203,-79.78282425526344,40.45892399793286,298.6092896881104,0.02058340050280094,-0.010703832842409607,0.8274430632591248,0.5610703229904175,0.12242327681920673,0.003417112644063941,3.11194551871966,-0.02086783014237881,-0.017197247594594955,0.005999951623380184,0.14211578157730406,0.4997376578673721,-9.918350075483325
33.2,4.199999809265137,182.0,22.640832901000977,24.88109970092773,-79.78282422372169,40.45892398301661,298.92089323425296,0.019190533086657524,-0.010335263796150684,0.8277589082717896,0.5606604218482971,0.12284634926898245,0.0011238942122746218,3.1037031637318573,0.03583942726254463,0.0022807663772255182,-0.12006504833698273,0.2050999146513641,0.660504257529974,-9.743407815098763
33.41,4.199999809265137,176.0,22.633319854736328,24.44375228881836,-79.78282425272451,40.458923944547465,299.5424466552735,0.02204621210694313,-0.01084928959608078,0.8288019299507141,0.5590025186538696,0.13372758628515444,0.0201707890100054,3.0654990750333364,0.0032846888061612844,0.05766154080629349,0.012745906598865986,0.10910237459465864,0.6109616032987834,-9.723274682164194
33.5,4.199999809265137,176.0,22.665874481201172,24.594837188720703,-79.78282425005274,40.45892393510034,299.85021452331546,0.0233804639428854,-0.010053277015686035,0.8294354081153871,0.558022677898407,0.14979002047316226,0.030956724708584193,3.0770249972946035,-0.02603117935359478,-0.030195580795407295,-0.02002133801579476,0.2553000151924789,0.6360996604710818,-9.882841104269028
33.71,4.199999809265137,175.0,22.73598861694336,22.84544563293457,-79.78282446921258,40.458924027140576,300.4789662780762,0.029630843549966805,-0.007737325970083475,0.830938458442688,0.5555208921432495,0.1957162246428124,0.061750314071553285,3.0198911761285845,0.13992983102798462,0.08890863507986069,0.022172162309288986,0.2700995738245547,0.6114022275432944,-9.460711310505866
33.91,4.199999809265137,174.0,22.658361434936523,23.688335418701172,-79.78282465551804,40.458924055264575,301.1005483093262,0.0279805026948452,-0.002254057442769408,0.8316530585289001,0.5545856356620789,0.20142236903665245,0.09495185133331216,2.9828174900565885,0.1661486178636551,0.007099516689777373,0.04640815407037735,0.3603108371794224,0.3785565619915724,-9.6642815387249
34.01,4.099999904632568,165.0,22.62330436706543,25.07989501953125,-79.78282468866551,40.45892407043151,301.3995557250977,0.026943523436784744,-0.0007946466794237494,0.8312699794769287,0.555215060710907,0.1671246077468955,0.10847791211377272,2.983899030347456,-0.0793059840798378,-0.005018399097025394,-0.0889870673418045,0.27190404284745456,0.5584968395903707,-9.684511735439301
34.1,4.099999904632568,165.0,22.700931549072266,23.227130889892567,-79.7828248615735,40.45892416233756,301.7316976013184,0.026224588975310333,-0.002983069978654385,0.8304885625839233,0.5564101934432983,0.16874413683369124,0.11025919512909604,3.013559442576519,0.0014379628701135516,-0.071544349193573,0.010483008809387684,0.3196754292771221,0.476917034983635,-9.765404455661773
34.3,4.0,163.0,22.70218276977539,23.72809410095215,-79.78282504719589,40.458924098729945,302.364777130127,0.02699669450521469,-0.005319674033671618,0.8287860155105591,0.558888852596283,0.19064163870347492,0.08317431947127328,3.0219214582192224,0.03805134445428848,0.03141767904162407,-0.05520164966583252,0.19109210556373,0.7492337816208602,-9.597568901181221
34.5,4.0,162.0,22.773550033569336,22.257015228271484,-79.78282511524904,40.45892415464298,302.96785406494143,0.028631083667278286,-0.005598715040832758,0.8284872770309448,0.5592474937438965,0.18482739722038646,0.07316946186172937,3.0058631516186862,-0.06986937671899797,0.11639907956123352,-0.0778731107711792,0.08188090880401433,0.8389741431176663,-9.680711045265198
34.6,4.0,164.0,22.73348426818848,22.805686950683594,-79.78282501600408,40.45892405991675,303.28942922973636,0.03141618147492409,-0.0057395570911467075,0.828281581401825,0.5594013929367065,0.17949667189437085,0.054054798524957606,3.0028291395620768,0.012751989997923374,-0.053163714706897736,0.0894850417971611,0.3546992643177509,0.3402461897581816,-9.684792986512184
34.81,4.0,164.0,22.697175979614247,23.839418411254893,-79.78282501807641,40.45892407219479,303.90778402709964,0.03009658120572567,-0.00351132545620203,0.8287486433982849,0.5588001608848572,0.19657564107912606,0.05197542863063842,2.988476650022594,0.13098149001598358,-0.02747094444930553,-0.007573298178613186,0.2956746555492282,0.478740781545639,-9.61512165784836
34.9,4.0,166.0,22.65961456298828,23.950742721557607,-79.78282498639763,40.45892409385609,304.206158203125,0.029684746637940407,-0.0014141942374408245,0.8283659219741821,0.5593986511230469,0.15445427872674355,0.044901416885643385,2.971381014380486,-0.12344393134117125,0.03953378275036812,0.03513609617948532,0.11551026513800025,0.6817846141755581,-9.576220716834069
35.0,4.0,168.0,22.700931549072266,23.767852783203125,-79.78282494116611,40.45892411457535,304.5033688964844,0.030922824516892437,-0.0031593579333275557,0.8277090787887573,0.5602958798408508,0.16516284431733627,0.03959702440811567,2.9618832481450044,0.019522592425346368,0.0016381678869947793,0.007930603809654713,0.2633685697987676,0.4084866682067514,-9.706134738922119
35.2,4.099999904632568,165.0,22.63707733154297,24.714113235473643,-79.782825256538,40.458924136658545,305.4402013244629,0.028433438390493393,-0.006810618564486504,0.826080858707428,0.5627927780151367,0.1952124045663456,0.0046150161810351855,2.99370991027499,0.0329250767827034,-0.0292209517210722,-0.05018175393342972,-0.01480795486830175,0.4684002364799381,-9.663280495405195
35.41,4.099999904632568,171.0,22.652101516723643,23.44978141784668,-79.78282520127019,40.45892418337729,305.7408376159668,0.0258661787956953,-0.006968480069190264,0.8254741430282593,0.5638038516044617,0.1927643884240685,-0.009274218775646298,3.0019544854500584,0.002592825796455145,-0.08779096603393555,-0.03566628322005272,0.07612327432259917,0.7186298203468323,-9.852139713764194
35.5,4.199999809265137,173.0,22.753517150878906,22.83749389648437,-79.78282513947265,40.458924235608094,306.04166082763675,0.023768560960888863,-0.01142653077840805,0.8250470757484436,0.5644484162330627,0.18578751794465687,-0.02221567575558853,3.0025064674512434,-0.031156571581959724,-0.1675124168395996,0.17723655700683594,0.018052501743659383,0.41080165397375823,-9.861819194555284
35.7,4.300000190734863,174.0,22.76353454589844,22.209304809570312,-79.78282528242704,40.45892451136276,306.65788320922854,0.025993837043642998,-0.015493436716496944,0.8251552581787109,0.5640950202941895,0.26078403051253696,-0.07205833030995397,2.9954169713063266,-0.06619930267333984,0.10785126686096193,0.0010071886936202645,-0.07720803332515061,0.6384904407709837,-9.755725559592248
35.8,4.400000095367432,184.0,22.791078567504893,22.193401336669922,-79.78282521236056,40.45892454384639,306.9716458740235,0.02693828195333481,-0.015462160110473631,0.8257924914360046,0.5631182193756104,0.2646672336271335,-0.0711084979350772,2.994861571076337,-0.03517087176442146,0.00020544842118397355,-0.16382242739200592,0.04587793466169388,0.6353264392912388,-9.758270852565763
36.0,4.5,183.0,22.68966293334961,23.266889572143555,-79.78282508353163,40.45892474254524,307.56755117797854,0.025296952575445168,-0.019082974642515186,0.8268095850944519,0.5615888237953186,0.280685865091168,-0.08906715966429794,2.9572692812933266,0.0819334015250206,-0.0465209037065506,-0.031721271574497216,-0.034795245453715325,0.5819750915095211,-9.664920639395712
36.1,4.599999904632568,186.0,22.63832855224609,24.32447624206543,-79.78282505456605,40.45892475110401,307.8799977722168,0.0239707250148058,-0.020438093692064285,0.8272748589515686,0.5609136819839478,0.2579831296059882,-0.09324627039384473,2.9772032396927384,0.06396277248859407,-0.05269613116979599,-0.002313856966793537,0.03307663457002491,0.4722007439285517,-9.865454993247988
36.2,4.599999904632568,187.0,22.561954498291016,25.342304229736328,-79.78282499368345,40.458924835290254,308.1796155395508,0.02136480249464512,-0.020471801981329918,0.8282133936882019,0.5596312284469604,0.26035721966444264,-0.09436553022122997,2.9942581027395643,0.08785037696361543,-0.02897603623569012,0.023168394342064857,0.05194464017171413,0.5906275454163552,-9.971265038251877
36.41,4.699999809265137,195.0,22.74600601196289,22.535327911376953,-79.78282494238394,40.458924980542534,308.80328039550784,0.020644744858145717,-0.018616337329149246,0.8283662796020508,0.5594968795776367,0.25765303386024635,-0.11244921458928916,3.084299545570351,0.030147602781653408,0.057817805558443076,-0.0006346717127598822,-0.053100872249342505,0.6964644876122476,-10.005989313125609
36.6,4.800000190734863,193.0,22.697175979614247,22.92496490478516,-79.78282496017691,40.45892499249744,309.4118276062012,0.026723157614469528,-0.022407714277505875,0.8272361159324646,0.5607712268829346,0.25892388910785713,-0.04293571166585687,3.012195849405772,-0.013595089316368105,-0.06643606722354889,-0.014367022551596163,0.13243225341662765,0.7471711762994528,-9.598565851449967
36.7,4.800000190734863,192.0,22.6420841217041,24.332427978515625,-79.78282497034883,40.45892505836753,309.71371511840823,0.024945903569459915,-0.027098597958683968,0.8278034925460815,0.5598078370094299,0.28033242395701874,-0.029854099062983086,3.0032817424098885,-0.04414747655391693,-0.0010923875961452725,-0.11440093070268632,0.09669133046641946,0.776305074468255,-9.674118894338608
36.81,4.800000190734863,191.0,22.57948303222656,25.25483322143555,-79.78282500442813,40.45892511047165,310.019619506836,0.0270761214196682,-0.027773955836892128,0.8285422921180725,0.5585814714431763,0.2820380011905375,-0.05761137608463765,2.9992792158484503,0.004790049977600575,0.15112371742725372,0.006791334133595228,0.08285330990329386,0.6861366236954928,-9.756107967495918
37.0,4.800000190734863,192.0,22.59701156616211,24.65049934387207,-79.78282507429783,40.4589251953149,310.6215215148926,0.04007931426167488,-0.01889810524880886,0.8295689225196838,0.5566434860229492,0.2911363900482119,0.01630608564807513,2.9734808201083167,-0.057047627866268165,0.17275139689445496,-0.0196612011641264,0.1521211624145508,0.7328840164840221,-9.54520591557026
37.2,4.800000190734863,180.0,22.66837882995605,23.20327568054199,-79.78282515845954,40.45892529038361,311.2268109741211,0.04284751787781715,-0.014217209070920944,0.8293253779411316,0.5569393634796143,0.29688982862256924,0.0714513115845752,2.9361026319055914,-0.010902827605605124,-0.0507097989320755,-0.057062629610300064,0.11128161359578373,0.6975048534572125,-9.630272378325463
37.3,4.800000190734863,179.0,22.605775833129893,24.69820976257324,-79.78282526056742,40.458925278178576,311.53801779174813,0.04006534069776535,-0.014964167028665544,0.8289220929145813,0.5577267408370972,0.27794223234827925,0.07273851831504878,2.9492877485802613,0.048427540808916085,-0.021907685324549675,-0.07359683513641357,0.1388665203843266,0.8118527834862471,-9.673890268206595
37.4,4.800000190734863,178.0,22.658361434936523,23.815563201904297,-79.78282526343804,40.45892529251619,311.8334165039064,0.03683863580226898,-0.01720895990729332,0.8284868597984314,0.5585305094718933,0.2527465810129861,0.04509491681563728,2.9384876239996127,0.007974877953529358,-0.052101582288742065,0.16004015505313873,0.04395849019289017,0.7032732778787614,-9.706529425978662
37.61,4.800000190734863,177.0,22.761030197143555,22.217256546020508,-79.78282538563046,40.45892531607819,312.438564819336,0.0339079275727272,-0.01964677684009075,0.8279055953025818,0.5594968199729919,0.2521898448082828,0.014422994514528366,2.9472222897242415,0.02436744049191475,0.00290328124538064,-0.02207727916538716,0.07512203000485898,0.7405478158593178,-9.733459947109225
37.7,4.800000190734863,182.0,22.571969985961914,25.18326759338379,-79.78282538213091,40.45892533184792,312.7335401000977,0.03429365158081055,-0.019206304103136063,0.8275824785232544,0.5599663853645325,0.2420050639082231,0.005176885420104194,2.927852537942853,-0.024713980033993718,0.0706062912940979,0.019961455836892128,0.012677779945079235,0.7472661204636097,-9.615149139761924
37.9,4.900000095367432,181.0,22.614540100097656,23.91893577575684,-79.78282544548355,40.45892529337341,313.32943395996097,0.03578528389334678,-0.0188974104821682,0.8274566531181335,0.5600695610046387,0.2397516804958737,0.020568959005193697,2.9060255057390916,0.002721898024901748,-0.04603315517306328,-0.026597429066896442,0.12900651594623924,0.5854738826304674,-9.701242373585703
38.1,4.900000095367432,181.0,22.499351501464844,25.962541580200195,-79.7828255171361,40.458925207781895,313.9249387207032,0.036386135965585716,-0.02019260823726654,0.8275225162506104,0.5598882436752319,0.2309383368922787,0.02242188784261664,2.9083481372388067,-0.01838663406670093,-0.011998442932963371,0.05425990000367165,0.06558126983698458,0.7764738397300244,-9.69104015171528
38.2,5.0,182.0,22.628313064575195,24.26086235046387,-79.78282550966613,40.45892520000253,314.2170339050293,0.03509021922945976,-0.02043574303388596,0.8277259469032288,0.5596614480018616,0.22145718478035084,0.016363183645939597,2.919013695954587,-0.04478898271918297,-0.07292615622282027,0.06807416677474976,-0.04442445846274495,0.6837595843523742,-9.819595280885695
38.3,5.0,177.0,22.58323860168457,24.68230628967285,-79.78282564864944,40.45892513315765,314.51640371704104,0.03476526588201523,-0.020545683801174164,0.8279964327812195,0.5592774748802185,0.2299635255639671,0.02054529588279461,2.921883701232879,0.010999195277690887,-0.010163958184421062,-0.04065922275185585,0.08578985469415784,0.7888985151797533,-9.801254319548606
38.5,5.0,178.0,22.603271484375,24.57098197937012,-79.78282569124292,40.458924991443226,315.39783911132815,0.0338827483355999,-0.02150123380124569,0.8272290229797363,0.560430109500885,0.20130118829967292,0.02741574344370465,2.909544876225572,0.019964970648288727,0.0011181638110429046,-0.028034815564751625,0.07204193606972695,0.7395205331593753,-9.71543064236641
38.7,5.0,178.0,22.475563049316406,26.495309829711914,-79.78282569062313,40.458924956974094,315.6902814331055,0.03368520364165306,-0.022184299305081367,0.8267498612403871,0.561121940612793,0.19268358054577264,0.020864030770486788,2.9328485116489507,-0.018533945083618164,0.03042860887944698,-0.018154170364141464,0.01975618395488709,0.9045629458129406,-9.969440706968307
38.8,5.0,181.0,22.511871337890625,26.02615547180176,-79.78282572183952,40.45892485884313,315.9861684265137,0.03244418278336525,-0.02112862840294838,0.8263446688652039,0.5618322491645813,0.1977560640449172,0.019480230479536453,2.97023001501748,0.05850543826818466,0.026502830907702446,-0.09180913120508194,0.00666741555556655,0.8506552720069885,-10.104725396633148
38.9,5.099999904632568,184.0,22.513124465942386,25.19917106628418,-79.78282571761474,40.45892476340513,316.59075598144534,0.03136797994375229,-0.01747983880341053,0.8257348537445068,0.5629143118858337,0.1812429221009889,0.03380620714536628,3.057634597630561,0.09520328044891356,0.00788062810897827,0.12243696302175522,0.03442630898673086,0.7016869282722473,-10.191229104995726
39.11,5.099999904632568,184.0,22.62080001831055,23.624719619750977,-79.78282571148418,40.4589245235619,316.8814588012696,0.03037002123892308,-0.016955425962805748,0.8256772756576538,0.5630695223808289,0.16374912689330204,0.036047591609280484,3.0308281130868435,0.04005863517522812,-0.006295101717114449,0.044102076441049576,0.08168185679242015,0.5020978499203921,-9.951129566431046
39.2,5.099999904632568,184.0,22.58949851989746,24.483510971069336,-79.78282570399666,40.458924466707366,317.18439535522464,0.03102268278598785,-0.01818028278648853,0.8260661959648132,0.5624249577522278,0.15035909254821886,0.035676598200326995,3.020931633635949,-0.0049814358353614824,0.011268883012235165,-0.0097535140812397,0.0923105690907687,0.5376014855504037,-9.788054230213168
39.4,5.099999904632568,181.0,22.421724319458008,26.75771903991699,-79.78282580429924,40.45892428028763,317.77336172485354,0.033135224133729935,-0.016892276704311367,0.8275516033172607,0.5601562857627869,0.17168417711923245,0.04478483377110306,2.986224296585932,0.036332696676254266,0.0203566811978817,0.11021234095096588,0.0003701196145266295,0.5959046575427056,-9.895662878751756
39.5,5.099999904632568,178.0,22.62705993652344,23.88712882995605,-79.78282580781918,40.45892422901979,318.0740743103028,0.03133015334606172,-0.016115155071020126,0.8281334638595581,0.5594227910041809,0.16328731291957302,0.04930242234514353,3.0149534448816517,-0.04369064420461655,-0.05048640817403793,0.10944100469350816,-0.0047573129273951065,0.6736352766305208,-9.92526499271393
39.71,5.099999904632568,178.0,22.50060272216797,25.70013236999512,-79.78282584451965,40.45892401816742,318.6722493591309,0.03033211827278137,-0.016603603959083557,0.8290221691131592,0.5581457018852234,0.15561817229862038,0.04274678854984275,2.9695534451402605,0.012352214194834229,-0.06455183029174805,0.06718273460865021,0.03323963484261185,0.610768425911665,-9.609778472185138
39.9,5.099999904632568,178.0,22.44300842285156,26.224950790405273,-79.78282579847436,40.45892382243476,319.26786856079104,0.029639428481459618,-0.012915988452732565,0.829142153263092,0.5581022500991821,0.15835967800787448,0.0253670535206627,2.949098592979868,0.035123694688081734,0.06463078409433365,0.1343480944633484,-0.015035199138801547,0.6964873648434877,-9.779535421729088
40.01,5.199999809265137,180.0,22.50060272216797,26.12157821655273,-79.78282577801738,40.458923788102496,319.56359533691415,0.0307247880846262,-0.011363458819687366,0.8284084796905518,0.5591657757759094,0.14387433422475765,0.027432118589472764,2.953164892298465,-0.08112262189388275,0.016790341585874557,0.13901542127132416,-0.018314056150848048,0.5069669725745917,-9.850625284910203
40.1,5.199999809265137,181.0,22.46805000305176,26.16133689880371,-79.78282583662102,40.45892367627964,319.8708157958985,0.029837287962436683,-0.013010400347411629,0.8274692893028259,0.5605667233467102,0.14890829471141093,0.04244417789682947,2.946017213492703,-0.05152132362127304,-0.064156174659729,-0.0017539884429425,0.03343784403288737,0.7465863085538149,-9.692925294041633
40.31,5.199999809265137,181.0,22.57071876525879,24.17339324951172,-79.78282584351263,40.45892353636554,320.47383551025393,0.02247434481978416,-0.01972832158207893,0.8262031674385071,0.5625781416893005,0.1706133339924071,0.0011777340908892195,2.993240778183324,0.0395049974322319,-0.0982077494263649,0.04830794036388397,0.005087598385289311,0.7426946210861206,-10.089397505521775
40.4,5.199999809265137,181.0,22.561954498291016,24.658451080322266,-79.7828258459609,40.458923528005904,320.7758984985352,0.02100617997348309,-0.022424573078751564,0.8256928324699402,0.5632827281951904,0.1801971041638507,-0.009883941463045713,3.0318576522046263,0.01417490653693676,-0.02933143824338913,0.05683894827961921,0.011350733796134592,0.7096973213553429,-10.140092865228654
40.6,5.199999809265137,188.0,22.61203575134277,23.69628715515137,-79.78282571636811,40.458923522456786,321.3816533508301,0.03234850615262985,-0.02293887734413147,0.8261895179748535,0.5619950294494629,0.1912862658967778,-0.0173013253113138,3.01739641789801,-0.08828063309192657,0.03620212525129318,-0.04690219089388848,0.026682985194493088,0.7082474311441184,-9.821483931541444
40.8,5.199999809265137,189.0,22.36162567138672,27.823257446289066,-79.78282579562409,40.45892345140849,321.98833898925784,0.03762539103627205,-0.016875842586159706,0.8274176716804504,0.5600710511207581,0.2316427049080305,0.03793074470300736,2.9943257525558566,0.06379199773073196,0.0930929109454155,-0.0447201132774353,0.0719560459535569,0.7041398352384568,-9.671606345772744
40.9,5.099999904632568,191.0,22.3641300201416,28.022050857543945,-79.78282577827176,40.458923398659174,322.5971341552735,0.029371572658419613,-0.00829110387712717,0.8275831341743469,0.5605129599571228,0.18497251987772426,0.06461606771338067,3.0946161763125217,0.15543368458747864,-0.11389736831188202,0.10878372937440872,0.08337469881400468,0.7343304714560509,-10.083330434560775
41.1,5.0,191.0,22.49684715270996,25.533145904541016,-79.78282569401941,40.458923286723596,322.9186940612793,0.022529352456331253,-0.008588868193328379,0.8275374174118042,0.5608925819396973,0.1611123391153472,0.04375975734327833,3.1574922646455708,0.15143069624900818,-0.0770137757062912,0.044869814068079,0.2559390062279999,0.5811971925571561,-10.473701076507568
41.2,5.0,185.0,22.50436019897461,25.21507453918457,-79.78282565847071,40.45892326680625,323.23811392211917,0.02252250537276268,-0.011896765790879726,0.827006995677948,0.5616142749786377,0.11701227872252022,0.012557257115013584,3.21906159951282,-0.1383705735206604,0.006454938556998968,-0.08307981491088867,0.15369203517213464,0.5920922729372978,-10.455091727972027
41.3,4.900000095367432,191.0,22.425479888916016,27.028079986572266,-79.78282556139715,40.45892330256417,323.86425833129886,0.03060057945549488,-0.0140782305970788,0.8256887197494507,0.5631195306777954,0.16613335515152866,-0.0190767673305562,3.2103425657229603,0.05974719300866128,0.02779988572001457,0.011364946141839027,0.02323785826563835,0.6466422633826733,-10.170406000614166
41.51,4.800000190734863,192.0,22.46429443359375,25.01628112792969,-79.78282550125381,40.45892328381001,324.1866307678223,0.025331053882837296,-0.01154276728630066,0.8255334496498108,0.5636661648750305,0.16818818295537016,-0.007059411564509656,3.2345759392287907,0.05273821949958801,-0.021984148770570755,-0.04125940799713135,-0.002412022138014436,0.5594984676316381,-10.01957356452942
41.6,4.800000190734863,193.0,22.449268341064453,26.185192108154297,-79.78282545357192,40.45892315955935,324.49688391113284,0.018718551844358444,-0.013159403577446938,0.8255933523178101,0.5638014674186707,0.1161691526033417,-0.018635654676605825,3.2189502416099804,0.031744685024023056,-0.04584522917866707,-0.02642820030450821,0.07301584465429188,0.5908568659052253,-10.070194079875947
41.8,4.699999809265137,197.0,22.453025817871094,25.85121726989746,-79.78282524470485,40.45892302359425,325.14587454223636,0.011410053819417952,-0.019664766266942024,0.8262584209442139,0.5628322958946228,0.08781567719396008,-0.08192756509554794,3.2110658402866203,-0.0076498505659401425,0.009767415001988413,0.019452162086963654,-0.13695900332182648,0.4352536865696312,-9.857926118373873
41.9,4.599999904632568,207.0,22.45052146911621,26.08976936340332,-79.78282517919409,40.45892300096892,325.4665914001465,0.011714225634932518,-0.018634570762515068,0.8270587325096129,0.5616844892501831,0.08131612576546235,-0.09893484515520898,3.1970519061465223,-0.09180576354265213,0.05969103798270225,-0.04725633934140205,-0.0908884622901678,0.5285083343088627,-9.737418512105943
42.1,4.599999904632568,208.0,22.459285736083984,25.85121726989746,-79.78282508762639,40.45892288266834,326.1169057312012,0.015029394067823887,-0.010525581426918508,0.8283351063728333,0.5599324107170105,0.08433434561508621,-0.05696707988148505,3.16303979237346,-0.017746474593877792,0.02197491936385632,-0.036474425345659256,0.02367181074572728,0.3825005820393563,-9.589554122686387
42.2,4.599999904632568,209.0,22.40795135498047,26.46350288391113,-79.78282505239251,40.458922867766034,326.4318700256348,0.013588287867605686,-0.008628186769783497,0.8285612463951111,0.5596671104431152,0.09718492001850636,-0.01876827085965337,3.1321502500619482,0.08811773359775542,-0.01391822937875986,-0.0691717192530632,0.07354254630859941,0.4861154361069202,-9.472524440288543
42.41,4.5,201.0,22.4279842376709,25.44567680358887,-79.78282489497819,40.45892277118417,327.08428244018563,0.013435239903628826,-0.010775871574878693,0.828480064868927,0.5597538352012634,0.084321422598837,-0.03179739610294816,3.109494157857184,-0.01014773640781641,0.03561333194375038,-0.06866167485713959,0.04543316711671652,0.5336454056203366,-9.609027104973793
42.5,4.5,199.0,22.36788558959961,27.147356033325195,-79.78282486800272,40.458922774077905,327.39523367309573,0.015574159100651741,-0.009942290373146534,0.82872074842453,0.5593574047088623,0.11054232179153156,-0.034797195031343375,3.1014829393017065,-0.0029739628080278635,0.02062563225626945,-0.04833453148603439,-0.020733331348747008,0.4595697348564863,-9.693163275718687
42.7,4.599999904632568,201.0,22.489334106445312,25.286640167236328,-79.78282489837234,40.45892260772205,328.0675244750977,0.0181291364133358,-0.0077040186151862144,0.8286027908325195,0.5594903230667114,0.13178133434660186,0.005668530625505555,3.132892973572852,0.0029800529591739178,-0.012968708761036396,0.0399920791387558,0.06580487558618188,0.450448443889618,-9.626983904242515
42.81,4.599999904632568,201.0,22.37790298461914,26.7418155670166,-79.7828248946198,40.45892253807015,328.4180074157715,0.0183859895914793,-0.009820019826292992,0.8277485966682434,0.5607119798660278,0.1528630135208003,0.006511848749679298,3.144209938858812,-0.03898005932569504,-0.08936704695224762,0.001344278221949935,0.07958129938691855,0.6059800679236651,-9.516010183095933
43.01,4.699999809265137,199.0,22.355365753173828,27.28253555297852,-79.78282488604164,40.4589226171689,329.0413670959473,0.01777602732181549,-0.01383386552333832,0.82648104429245,0.5625137090682983,0.17168103634714307,-0.029582351053840505,3.0709005723621643,-0.07563871145248413,-0.06733449548482895,0.02632123231887817,-0.04007727746386081,0.4888066171109677,-9.367197375297547
43.2,4.699999809265137,205.0,22.376649856567386,26.94856262207031,-79.78282495911999,40.45892259377089,329.6903233947754,0.017540497705340385,-0.015254604630172253,0.8262074589729309,0.5628862380981445,0.1969584935754694,-0.04361612881066283,3.0148385864060407,-0.013653995469212532,0.04387513548135757,-0.05507731810212135,-0.08923568283207715,0.6372812365740538,-9.270944604277613
43.3,4.800000190734863,204.0,22.4567813873291,25.382062911987305,-79.78282496672419,40.45892258433504,330.0265012207032,0.017260663211345673,-0.015146806836128238,0.8265114426612854,0.5624513626098633,0.20325647880859196,-0.04743365932634375,3.0144151509095733,-0.06528320908546448,0.047295685857534416,0.00033508852357044816,-0.10380747414194047,0.4669034589082003,-9.342602816820145
43.5,4.800000190734863,204.0,22.283998489379886,28.284460067749023,-79.78282496840299,40.458922743009204,330.6281590881348,0.01891528256237507,-0.018416501581668854,0.8275411128997803,0.560784101486206,0.231727630595772,-0.05778549652072235,2.9990298316004145,-0.09295452386140823,-0.019912678748369217,-0.02276148460805416,-0.08907259119674564,0.4871474331244826,-9.800162059664727
43.6,4.900000095367432,203.0,22.41546440124512,26.41579246520996,-79.78282496579726,40.45892281883528,331.28130773925784,0.02526628039777279,-0.024261975660920143,0.8270053863525391,0.5611016750335693,0.2999713202379503,-0.05740423973295256,3.0760994982619763,0.042068980634212494,-0.05776407197117805,0.033687774091959,0.007600850444287062,0.6106749435514212,-9.86847683429718
43.8,5.0,202.0,22.37289428710937,26.773622512817386,-79.78282496624631,40.4589227982239,331.6206708374024,0.0263892225921154,-0.02660664543509484,0.8266487717628479,0.5614691972732544,0.31007363764010315,-0.060251407525638324,3.1081367519003544,-0.002459837123751641,-0.0004346708301454783,-0.056010842323303216,-0.07236226755660027,0.7451212155818939,-9.816442462205886
43.9,5.099999904632568,202.0,22.41796875,25.83531379699707,-79.7828249780071,40.4589228808385,331.933567565918,0.02840873599052429,-0.026740320026874542,0.82620769739151,0.5620132088661194,0.3190190569739975,-0.06827005087500895,3.1208313947772632,0.010588666424155235,0.0903117135167122,-0.006349628791213036,0.03299611201509833,0.8138822789490223,-9.875971795320512
44.1,5.099999904632568,202.0,22.618295669555664,22.90906143188477,-79.78282496586053,40.458923012836884,332.57650427246097,0.027529088780283928,-0.02576577663421631,0.8247462511062622,0.5642446279525757,0.3237656139608035,-0.048612508626916254,3.1632377664701687,0.009819664992392065,0.015206274576485157,0.02333870343863964,-0.09214408789761364,0.7064444421976805,-9.961059308052064
44.21,5.199999809265137,203.0,22.326568603515625,27.560848236083984,-79.78282497983137,40.458923079276474,332.8934293212892,0.02586650848388672,-0.0261867344379425,0.8241754770278931,0.5651372075080872,0.294043077083153,-0.05484300970949372,3.1417700241740762,-0.06805913895368576,-0.017583545297384262,0.11620137095451355,-0.2450276632793248,0.6532863083481789,-9.625839019417764
44.3,5.199999809265137,205.0,22.429235458374023,25.588808059692386,-79.78282498016377,40.45892310228024,333.212620300293,0.02545324899256229,-0.02644619159400463,0.8241026401519775,0.565250039100647,0.2858730107406172,-0.06312014259999324,3.1215645572201995,-0.08523660153150557,0.034733645617961884,-0.13528040051460266,-0.1462340395152569,0.6940568965673447,-9.779303287267686
44.5,5.300000190734863,205.0,22.44050407409668,25.596759796142567,-79.78282496617464,40.458923210706956,333.84110693359384,0.028420565649867058,-0.022978724911808968,0.8254374861717224,0.5633091926574707,0.26822124346202003,-0.07144173468008055,3.1433767574384697,0.019047193229198456,0.0038049679715186357,0.06637775897979736,-0.0955127327889204,0.5291900465637446,-9.938582611083984
44.6,5.300000190734863,206.0,22.40043830871582,26.19314384460449,-79.78282496021274,40.45892318595385,334.16309790039065,0.02698172815144062,-0.0221566054970026,0.8265504240989685,0.5617789030075073,0.273031650751644,-0.0535902171736124,3.1419411917805773,0.10333415120840073,-0.0361136831343174,-0.059573985636234277,-0.0636083690263331,0.6696351233124733,-9.90290640950203
44.8,5.199999809265137,204.0,22.551937103271484,23.624719619750977,-79.78282491742107,40.45892319836235,334.799404663086,0.019707225263118744,-0.025234948843717568,0.8283600807189941,0.5592803955078125,0.21269731821992727,-0.0674213648040182,3.1569040137327766,-0.15271152555942535,-0.04624927416443825,-0.03642652928829193,-0.22025646407157184,0.5662070877850056,-9.762209537029268
45.0,5.199999809265137,204.0,22.27898979187012,27.74374008178711,-79.78282489733722,40.45892325317286,335.42723516845706,0.018603265285491943,-0.032656002789735794,0.8279641270637512,0.5595203042030334,0.23274298559023976,-0.09871520749608503,3.1229931228766854,0.029916251078248024,-0.018731389194726944,-0.024301981553435333,-0.12482959398999813,0.5736283373460174,-9.6281299585104
45.11,5.099999904632568,204.0,22.30528259277344,27.139404296875,-79.78282483574208,40.45892319120561,335.7502713623047,0.01943190023303032,-0.030235724523663517,0.8281714916229248,0.5593212842941284,0.22349044712902366,-0.1070550705240135,3.178045112120484,0.07703574746847153,0.09079936146736144,-0.05852044373750687,-0.19520452542230488,0.5935640171170234,-10.272743968963622
45.2,5.099999904632568,204.0,22.483074188232425,24.984474182128906,-79.78282484680155,40.458923188908244,336.07215551757815,0.0225332323461771,-0.024673910811543458,0.8282838463783264,0.5593116283416748,0.20475084401244475,-0.07369948957392236,3.2422982125211783,-0.06484460830688478,0.12315286695957185,-0.03696466982364655,-0.03689250466413796,0.7041809119284154,-10.382884461879733
45.41,5.0,206.0,22.59450721740723,21.39027214050293,-79.78282499582889,40.45892306602367,336.71992926025393,0.024291133508086205,-0.019837763160467148,0.828623354434967,0.5589272975921631,0.1814177880508463,0.01797054745210195,3.261478197585717,-0.07204607129096985,-0.005470807664096355,0.06218242272734643,-0.0556312091415748,0.5388198260217906,-9.996962381601334
45.6,5.0,201.0,22.7497615814209,20.49967384338379,-79.78282498973417,40.45892304705641,337.3523221435547,0.02518235146999359,-0.02142450399696827,0.8284725546836853,0.5590527653694153,0.18173136837929088,0.005494499594872503,3.136409480353097,-0.12763479351997375,0.025906657800078392,0.014620582573115826,-0.2068841376900673,0.7122548203915358,-9.183784838318825
45.71,5.0,200.0,22.814868927001953,19.23534202575684,-79.78282501421917,40.458923029653825,337.66092352294925,0.026093943044543263,-0.021632065996527672,0.8279046416282654,0.5598437786102295,0.2033737726801661,0.0025047476132304056,3.0205640204256463,0.05216663330793381,-0.03655548393726349,0.16185292601585388,0.012520926101133228,0.20837386205792427,-8.885168704390527
45.8,4.900000095367432,200.0,22.80860710144043,19.211484909057614,-79.78282507001471,40.45892290065546,337.9840817871094,0.025992466136813164,-0.021324599161744118,0.8274166584014893,0.5605813264846802,0.17345305308666456,0.010193184999260987,2.918841319741256,0.01064467430114746,0.07565812766551971,0.009861581958830357,-0.050254333466291434,0.8670275489240885,-8.470235078930855
46.0,4.800000190734863,203.0,22.96010589599609,16.619207382202152,-79.78282513789856,40.45892272211066,338.81399969482425,0.02672015130519867,-0.01800302416086197,0.8269196152687073,0.5613965392112732,0.1558854544058176,0.0257270326172155,2.480961442806449,-0.029741972684860236,-0.03771548345685005,0.09044837206602097,-0.09567300131544472,0.5038901676982641,-8.325758566260339
46.2,4.800000190734863,200.0,22.82863998413086,18.583295822143555,-79.782825165472,40.45892270720298,339.0540051879883,0.028798198327422142,-0.019244220107793808,0.8265900611877441,0.5617376565933228,0.14703980289988067,0.025032633193975168,2.3099926388544523,-0.10909071564674376,-0.08152078837156296,0.09322809427976607,-0.18636898057535287,0.5845759695768357,-8.079447530508041
46.3,4.800000190734863,199.0,22.946332931518555,16.658966064453125,-79.78282517920888,40.458922591263644,339.2995801391602,0.032675500959157944,-0.022513261064887047,0.826198160648346,0.5619806051254272,0.15097919596040987,0.02061218119160245,2.173266358925354,-0.1082976534962654,-0.015502477996051313,-0.02412773296236992,-0.16375984417274594,0.7310028210282327,-8.131836243867875
46.5,4.800000190734863,199.0,22.863698959350586,18.217514038085934,-79.7828251907237,40.458922594280025,339.6999326171875,0.03249029815196991,-0.02241171710193157,0.8257347941398621,0.5626758337020874,0.1571008454585084,-0.004888136945100305,1.8113203038402312,0.009725726209580898,0.07882918417453766,-0.08183992654085159,-0.04922007065266371,0.6850755733251572,-7.955086024403572
