time,wind_speed,wind_angle,battery_voltage,battery_current,position_x,position_y,position_z,orientation_x,orientation_y,orientation_z,orientation_w,velocity_x,velocity_y,velocity_z,angular_x,angular_y,angular_z,linear_acceleration_x,linear_acceleration_y,linear_acceleration_z
0.0,1.5,182.0,23.6712703704834,0.0,-79.78282110187551,40.4589156569655,266.2847297413349,0.003705646609887481,0.010021330788731577,0.8886806964874268,0.4584021866321564,0.0063015027058685395,-0.000266261223617228,0.012525402900975976,0.002529312390834093,0.001135435770265758,0.005805530585348606,0.20074801476672294,-0.018615666269324718,-9.809645074009897
0.2,1.399999976158142,179.0,23.67502593994141,0.0,-79.7828211052601,40.45891566196885,266.2859889192581,0.003704679431393743,0.010022296570241451,0.8886789083480835,0.4584056735038757,0.005656467394051199,-0.0008426947851132619,0.012727071959904787,-0.00342794880270958,-0.0009713513427414,-0.0053884475491940975,0.20105276433750988,-0.015798264207551257,-9.80906269133091
0.31,1.2999999523162842,178.0,23.676279067993164,-0.007951773703098297,-79.7828210805483,40.458915713838955,266.2792316300869,0.0037065178621560335,0.010021163150668144,0.8886773586273193,0.4584087729454041,0.003909684299335914,-0.002567243134194428,0.011437203960508216,-0.004920803941786289,7.469207776011899e-05,-0.005907210521399975,0.19994937647134067,-0.017063602816779166,-9.809307104945184
0.51,1.2999999523162842,178.0,23.67502593994141,0.007951773703098297,-79.78282108739721,40.458915759188784,266.27127598953246,0.00370260770432651,0.010018373839557173,0.8886772394180298,0.4584088623523712,0.005752179265278219,0.0001730886133561706,0.010156536159622885,0.0051507698372006425,0.004125709645450115,0.0054658185690641395,0.20197550978511566,-0.03083985302830115,-9.810650210380556
0.6,1.399999976158142,176.0,23.67753028869629,-0.015903547406196594,-79.78282109373788,40.45891576768441,266.27334531378744,0.003708829171955585,0.010044433176517488,0.8886821866035461,0.4583987593650818,0.005834487979720246,-0.0009870604053558414,0.010478045799675574,0.00664914445951581,0.002942017512395978,0.0013124506222084165,0.200252773873508,-0.01794060636428185,-9.808897799849511
0.8,1.7000000476837158,165.0,23.67377471923828,-0.03180709481239319,-79.78282109484054,40.4589158270095,266.2659337444305,0.003711140947416425,0.010054043494164944,0.8886841535568237,0.4583948254585266,0.007631599854140395,-0.0011238862857179677,0.010265007875174951,-0.006334938108921051,-0.0012192700523883106,-0.005956067703664303,0.20012245405465365,-0.01940013877116144,-9.810178924798967
0.9,1.7999999523162842,163.0,23.67502593994141,0.0,-79.78282112441906,40.458915874590545,266.25934889149664,0.0036975471302866936,0.010061088018119335,0.8886871933937073,0.45838862657546997,0.009342834787803182,0.004070949162028064,0.009915764280133237,-0.006733448710292578,-0.0036046379245817657,-0.002316855825483799,0.20340846134349705,-0.030095845086034387,-9.812861627340316
1.1,1.7000000476837158,144.0,23.666261672973643,-0.03180709481239319,-79.78282113447565,40.45891587990194,266.2603521866798,0.0036726624239236116,0.010073995217680931,0.8886836767196655,0.4583953619003296,0.010144233277175608,0.003012497479571459,0.010062001769330071,0.005852300208061934,0.00016022294585127383,-4.811467806575821e-05,0.2017886546999216,-0.02758065156871453,-9.813390215635303
1.2,1.7999999523162842,150.0,23.66751480102539,-0.02385532110929489,-79.78282114478206,40.45891594689737,266.2537510616779,0.003657403867691755,0.010093806311488152,0.8886976838111877,0.4583679437637329,0.012073556955867695,0.001170641766048982,0.00988603130806844,0.0032576408702880144,0.0031235057394951573,0.0007838616147637367,0.20006652178242804,-0.026360677988268442,-9.810932046175004
1.4,1.7000000476837158,165.0,23.6712703704834,-0.02385532110929489,-79.78282115374662,40.458915955253524,266.25475602579115,0.003666164120659232,0.010102322325110435,0.8887041807174683,0.4583551287651062,0.011883144200115351,0.000662022168750818,0.0102557140971704,-0.00689572189003229,-0.0026589969638735056,0.002224666066467762,0.2015023421309889,-0.029974864823743706,-9.812641772031784
1.5,1.7999999523162842,159.0,23.67377471923828,-0.007951773703098297,-79.78282116998815,40.458915979814364,266.2456858975887,0.0036644060164690018,0.01007848884910345,0.8886986970901489,0.4583663046360016,0.00691998910120971,0.004067532921584483,0.0056782975036491065,-0.003567351261153817,-0.0035313344560563564,0.0038636126555502415,0.19978073911741376,-0.01891873704968021,-9.810273649692537
1.7,1.8999999761581416,162.0,23.67252349853516,-0.039758868515491486,-79.78282117818551,40.45891598316421,266.24626808595656,0.0036635180003941055,0.010079427622258665,0.8886972665786743,0.4583690464496613,0.0068235167911804475,0.003351879555470785,0.005924813539149192,-0.004004067741334438,-0.0009193852311000227,-0.0062085785903036594,0.2003935273177922,-0.016926579256542028,-9.810922690629962
1.82,1.8999999761581416,155.0,23.67252349853516,-0.02385532110929489,-79.78282119375322,40.45891605004376,266.2376212699413,0.0036597666330635548,0.010081837885081768,0.8886958956718445,0.4583717286586762,0.010168663071795194,0.0010615058840755037,0.003755659701507136,-0.003742859000340104,-0.0029683895409107213,-0.008063606917858124,0.20321809792891146,-0.03177055617095903,-9.811900345087052
2.0,1.8999999761581416,140.0,23.6712703704834,-0.02385532110929489,-79.7828211980921,40.458916103633655,266.2293838186264,0.0036577431019395603,0.01008350495249033,0.8886957764625549,0.4583719074726105,0.01243123868154874,0.0004502059823340695,0.0022513659379784267,0.0052854567766189575,0.004047074355185032,0.0049823783338069924,0.20436470037326213,-0.030058356667868793,-9.810873574018476
2.1,1.8999999761581416,145.0,23.676279067993164,-0.015903547406196594,-79.78282121425703,40.458916121610976,266.22986244392393,0.003656979650259018,0.010081857442855837,0.8886939883232117,0.458375483751297,0.012687469907654595,-0.0009337208073524557,0.002485684914335477,0.0030762064270675182,-0.0008088042377494278,0.002893228549510241,0.20061524642631406,-0.020129853012040257,-9.81011694431305
2.3,1.7999999523162842,150.0,23.67753028869629,0.0,-79.78282122434894,40.45891615625886,266.2221231980324,0.0036572497338056564,0.010077899321913721,0.8886938691139221,0.4583757817745209,0.01001942229685974,0.0014427361627845651,0.0014140683395870374,-0.006653741467744112,0.0015105451457202435,0.0005657151341438293,0.20159964345395567,-0.02344772991025821,-9.8103566801548
2.4,1.5,152.0,23.67753028869629,0.0,-79.78282122188325,40.45891619827939,266.21680038404463,0.003659570124000311,0.010076901875436306,0.8886920809745789,0.4583792090415954,0.007063759863712014,-0.000556238551197334,0.004212498325429888,-0.003736697835847736,-0.0028461827896535397,0.0011517612729221582,0.20089693604037168,-0.0290347924316302,-9.809847387671473
2.6,1.2999999523162842,154.0,23.67878341674805,-0.007951773703098297,-79.78282122590319,40.458916203978134,266.2172224445343,0.0036607433576136827,0.010073987767100334,0.8886921405792236,0.4583792090415954,0.007406726171065473,-0.0012461989777883481,0.0043387870701332475,0.001545909675769508,0.0003270279266871512,-0.004126533400267364,0.20091120690107347,-0.01766004622215405,-9.809799440503117
2.7,1.399999976158142,152.0,23.67252349853516,0.0,-79.7828212394942,40.45891623548457,266.21086650323866,0.00366011168807745,0.01006885152310133,0.8886902928352356,0.4583828449249268,0.004560502138271667,0.0016458081277558553,0.0030886137320012105,-0.006842993199825287,0.002946773543953896,-0.0034181959927082053,0.2043599860556424,-0.03225123155862093,-9.812292108535765
2.9,1.399999976158142,142.0,23.680034637451172,-0.05566241592168808,-79.78282124431674,40.458916238480406,266.21118091773985,0.0036580611485987897,0.01006827224045992,0.8886887431144714,0.4583859443664551,0.00563866871492245,0.0008740672858314863,0.0031996086011944593,0.005412929225713015,0.0011758150067180395,0.0024279181379824877,0.20205647544935346,-0.02764753594994545,-9.812357597351074
3.01,1.5,139.0,23.66876602172852,-0.08746951073408127,-79.78282128590033,40.45891627843008,266.20705782604216,0.003651826642453671,0.010061650536954405,0.8886890411376953,0.4583855271339417,0.008233481364947795,0.005038179624933415,0.0055793830756252424,0.0037834816612303257,0.0014085671864449974,0.0024416819214820857,0.2040863546356559,-0.025611635958775882,-9.812114353179929
3.2,1.2999999523162842,138.0,23.66501045227051,-0.09542128443717957,-79.78282129597316,40.458916282089355,266.207638256073,0.003650926286354661,0.010062556713819506,0.8886873126029968,0.4583888649940491,0.008232265575369645,0.004295491913261681,0.00581324451270189,-0.003828460816293955,-0.001768977381289005,-0.0014221929013729095,0.19969286642968656,-0.030266311978921295,-9.810809254646301
3.3,1.2999999523162842,138.0,23.662506103515625,-0.09542128443717957,-79.7828213144692,40.45891634393208,266.2038461489677,0.0036475972738116975,0.010064903646707537,0.888685941696167,0.4583916068077088,0.011101979425054602,0.001903353047135454,0.0071432755633977435,0.0046510151587426645,-0.0010768028441816568,-0.0019640743266791105,0.19940183954313398,-0.017628436996601524,-9.809160924553874
3.5,1.2999999523162842,139.0,23.67502593994141,-0.015903547406196594,-79.78282132934059,40.45891638410345,266.19939213228224,0.0036476324312388897,0.010062352754175665,0.888685941696167,0.4583916068077088,0.009181719291813243,0.003361781315456645,0.007964244313931182,-0.005152667406946421,0.00031364674214273686,-0.005658952984958887,0.20117813229560846,-0.016504701505182313,-9.809522282481193
3.6,1.399999976158142,139.0,23.6712703704834,-0.007951773703098297,-79.78282134759174,40.45891639578514,266.2010186834335,0.003646377241238953,0.010061711072921751,0.8886846899986267,0.4583940505981445,0.009378814092754293,0.0020620575675636527,0.008438287156700006,-0.004632355179637671,-0.0016343931201845407,-0.0002806789707392454,0.202707252278924,-0.02851939006475732,-9.812188028097154
3.8,1.2999999523162842,138.0,23.67753028869629,0.0,-79.78282136463973,40.458916434424424,266.1971021814346,0.0036459902767092,0.01006049569696188,0.8886846899986267,0.4583940804004669,0.009626307068658595,0.0026958674515668106,0.00866673504545743,0.008013895712792873,0.0010549987200647593,0.002997836098074913,0.20398684233427047,-0.02662807161686942,-9.812100319862367
3.9,1.2999999523162842,139.0,23.67377471923828,0.0,-79.7828214122917,40.45891648071387,266.1944488210678,0.0036411932669579983,0.010054614394903185,0.8886836171150208,0.4583961963653565,0.010711912190668324,0.006074598189001457,0.00901074451879421,0.0007750455988571048,0.0033637462183833122,-0.0024382723495364193,0.19959651527926328,-0.020213938714005054,-9.811271184682846
4.1,1.399999976158142,135.0,23.67753028869629,0.0,-79.7828214252529,40.458916485558476,266.1953690571785,0.003639955073595047,0.010053661651909351,0.8886837363243103,0.4583962261676788,0.010765324274660662,0.005640907215114886,0.009174666744586656,0.0006264059920795263,-0.0030090301297605038,0.002299738815054297,0.20233310356736184,-0.032683875267393886,-9.811969342231752
4.2,1.399999976158142,135.0,23.67377471923828,-0.007951773703098297,-79.78282143504536,40.45891654478083,266.19494127464293,0.003641478251665831,0.010060034692287443,0.8886820673942566,0.4583993256092072,0.011178954025308479,0.00044388125146278037,0.01290721096492957,0.0035709086805582047,0.00045298863551579416,0.003152210032567382,0.20085763178765773,-0.017891426940914244,-9.81025844693184
4.4,1.399999976158142,138.0,23.67502593994141,-0.007951773703098297,-79.78282144235315,40.45891655272259,266.1962399406433,0.003641537157818675,0.010058552026748655,0.8886802196502686,0.4584027528762818,0.0104607747127565,-5.409110240779582e-05,0.013106940060227314,-0.002853891346603632,-0.0016935328021645546,-0.0033495728857815266,0.20050975900143386,-0.01808466142974794,-9.809034624695778
4.5,1.399999976158142,136.0,23.68128776550293,0.0,-79.78282147691776,40.45891659864328,266.1942077202797,0.003640340175479651,0.0100535461679101,0.8886801600456238,0.4584029316902161,0.009716432171618515,0.0014967557971285006,0.011921127583044328,-0.008816421963274479,-0.0013608359731733801,-0.00013846908404957506,0.20357554553076626,-0.028586811202112587,-9.811294573545457
4.7,1.399999976158142,132.0,23.676279067993164,-0.007951773703098297,-79.78282148470333,40.45891660562732,266.1954014225006,0.00363945378921926,0.010054429993033407,0.8886783719062805,0.4584064185619354,0.01024072031799034,0.000821474819049952,0.012012528645881076,0.0017229707445949314,-0.001335232867859304,0.00106543127913028,0.2008043673075736,-0.019741122806444758,-9.81049701333046
4.8,1.5,126.0,23.67878341674805,-0.007951773703098297,-79.78282149619717,40.45891665132913,266.1939625663757,0.0036407359875738616,0.010053488425910471,0.8886768221855164,0.4584093689918518,0.008118931247672934,-0.0007941078448818928,0.011681406508857744,-0.002606421476230025,-0.0004785780038218945,-0.0046555022709071645,0.2037996217980981,-0.03198874867754057,-9.81187227845192
5.0,1.5,122.0,23.67753028869629,0.02385532110929489,-79.78282154321089,40.45891669083999,266.19156550598143,0.003634644439443946,0.010048285126686094,0.8886769413948059,0.45840930938720703,0.010802980988883456,0.004252914374250999,0.010851662027367526,0.00767426285892725,0.0012170246336609125,0.004795660730451346,0.2026236736401916,-0.029728886622469874,-9.811972850561142
5.11,1.5,121.0,23.68253898620605,0.039758868515491486,-79.782821564592,40.458916702313694,266.1937954945564,0.0036339759826660156,0.010046902112662792,0.8886751532554626,0.458412915468216,0.010876932805815745,0.003286455829962091,0.011260765193868632,0.003968858625739813,0.001335207954980433,-0.00023235431581269952,0.20243561256676915,-0.023335598129779103,-9.811519106626509
5.3,1.600000023841858,125.0,23.68128776550293,0.03180709481239319,-79.7828215930647,40.45891674603712,266.19144492578505,0.003633493324741721,0.010045479983091354,0.8886750936508179,0.4584130346775055,0.00971816706795818,0.004065791012032896,0.010761028575961245,-0.0029239077121019363,-0.0011812879238277676,0.0017060472164303064,0.2017332523316145,-0.0317387550836429,-9.811701539754868
5.41,1.600000023841858,123.0,23.696311950683594,0.039758868515491486,-79.7828216355822,40.458916830968,266.19032060337065,0.003626844147220254,0.0100523354485631,0.8886734843254089,0.4584162831306458,0.015707876267138682,6.820172650950918e-05,0.010379583654524684,0.007243125233799219,0.002362705301493407,0.003552536247298121,0.1999006435833872,-0.01844656981760636,-9.809384872913359
5.6,1.600000023841858,121.0,23.685043334960927,0.02385532110929489,-79.78282164575519,40.45891684241687,266.1913684530258,0.003627243684604764,0.010049800388514996,0.8886734247207642,0.458416223526001,0.014997572604430206,-0.00034626776785413524,0.010641039203729562,-0.007507755886763334,0.0015884061576798554,-0.0055449409410357475,0.20143517224118115,-0.02367226527538151,-9.809510588049893
5.7,1.600000023841858,122.0,23.67878341674805,0.015903547406196594,-79.78282170539983,40.458916897167796,266.19056325387953,0.0036233379505574703,0.010045628994703293,0.8886716365814209,0.4584198594093323,0.015321688532357769,0.0031099278159019282,0.010477446635830898,-0.0022833645343780518,0.0019148413557559245,0.006770293228328228,0.20245629709213966,-0.030640026717446745,-9.811743639707563
5.9,1.5,125.0,23.680034637451172,0.039758868515491486,-79.78282171851515,40.45891690706152,266.1916149778366,0.003622266696766019,0.010045097209513187,0.8886700868606567,0.45842283964157104,0.014998398323931956,0.0026070846856979194,0.010527350228660087,-0.007313705049455166,0.0006623282679356635,-0.00257510831579566,0.20099555298686028,-0.018357573368120945,-9.808534687757492
6.0,1.5,124.0,23.68379211425781,0.02385532110929489,-79.78282173898026,40.458916957185785,266.190825275898,0.0036271251738071437,0.010042482055723669,0.8886699676513672,0.4584230780601502,0.011055543363543068,0.00056710579291903,0.010294644067199215,-0.003158082719892264,0.0007065410609357059,-0.002497691195458173,0.20483030319213869,-0.029598237897735087,-9.81030756354332
6.2,1.399999976158142,124.0,23.67878341674805,0.11132483184337616,-79.78282174686014,40.458916965600174,266.191851667881,0.003626218996942043,0.010043377056717873,0.8886680603027344,0.4584267735481262,0.011393666297013357,-2.518445101352528e-05,0.010302794510544735,0.003217579796910286,-0.0005378011264838278,-0.004681015387177467,0.20054785726591945,-0.01891908194404096,-9.809081987142564
6.31,1.399999976158142,126.0,23.67878341674805,0.07156596332788467,-79.78282179851881,40.4589170172475,266.19122689199446,0.0036248813848942523,0.010039378888905048,0.8886666297912598,0.4584295749664306,0.010370371536200702,0.001555637783816503,0.010191313380668565,-0.00616376893594861,0.002588821342214942,-0.003328563179820776,0.20037920163944364,-0.01982902290299535,-9.809126425981525
6.5,1.2999999523162842,129.0,23.68379211425781,0.07951773703098297,-79.78282183786713,40.45891708241188,266.1897111458778,0.0036215770523995157,0.010041306726634502,0.8886667490005493,0.4584295749664306,0.01332284096915086,0.000934986881527976,0.009887572457123838,0.0039008774328976865,-5.229743692325428e-06,0.0020099517423659567,0.2013287894614041,-0.022965441970154644,-9.810157874822618
6.6,1.2000000476837158,132.0,23.66876602172852,0.11927660554647446,-79.78282185638038,40.458917101743744,266.1917194647789,0.003620106028392911,0.010040727443993092,0.8886651396751404,0.4584325850009918,0.013006040030583877,-0.00019460051412919369,0.010202649764048154,-0.0027788255829364053,-0.0012170163681730628,-0.005263754166662693,0.20059679115191106,-0.018546058136271314,-9.809754416942598
6.8,1.100000023841858,131.0,23.6712703704834,0.13518016040325165,-79.78282190117955,40.45891714952192,266.19065206480025,0.003619602415710688,0.010037986561655998,0.8886651396751404,0.4584326148033142,0.012472553461944768,0.0012252853351376958,0.010017802129294021,0.005613519810140133,-0.001425615744665265,0.0030327169224619865,0.2015889174677432,-0.0279433685168624,-9.811703878641133
6.9,1.0,129.0,23.666261672973643,0.2385532110929489,-79.78282195783315,40.45891720939214,266.19103877973555,0.0036190522368997335,0.010033464059233664,0.8886635303497314,0.458435982465744,0.010914359887091878,0.0025402339198590442,0.010053332245798557,-0.0005271075642667711,-0.001906354795210064,-0.004451512359082699,0.2010657926648856,-0.029010076525155457,-9.81078118801117
7.1,0.8999999761581421,124.0,23.67878341674805,0.08746951073408127,-79.78282196761056,40.458917216636635,266.19205050897597,0.0036184631753712893,0.01003212109208107,0.8886635303497314,0.458435982465744,0.011817485425693523,0.0018631072422562558,0.010083080647832487,0.003463168162852525,0.0012227570405229926,0.005766888614743948,0.20341792652383447,-0.028657498557586224,-9.810769493579864
7.21,0.8999999761581421,126.0,23.676279067993164,0.06361418962478638,-79.78282202798162,40.458917293702655,266.1929631156921,0.003614512737840414,0.010034638457000256,0.8886619806289673,0.4584388732910156,0.013385291134714485,0.000967959630812751,0.010104583434954923,0.0002548212942201644,-0.003522628452628851,-0.004157999530434609,0.20016117358580232,-0.01859819314442575,-9.809161509275436
7.4,0.8000000119209291,123.0,23.6712703704834,0.11132483184337616,-79.78282203786978,40.458917303480966,266.19397341442107,0.0036142305471003056,0.01003336999565363,0.8886608481407166,0.4584410190582275,0.014183427882814341,0.0003704280924259149,0.010105477710031384,0.002037085359916091,-0.0008096529054455459,0.004916065372526646,0.20296301314607265,-0.02979879967868328,-9.810725054740908
7.5,0.8000000119209291,121.0,23.6712703704834,0.11927660554647446,-79.78282210281255,40.45891736330302,266.195175163269,0.003614455461502075,0.010027721524238586,0.8886609077453613,0.4584410488605499,0.011954409330570244,0.002261340232894123,0.01003713987622414,0.005450020078569651,-0.0012695133918896315,-0.0018621219787746668,0.20124784206971527,-0.024700827053748074,-9.809468488097194
7.7,0.8000000119209291,116.0,23.67878341674805,0.09542128443717957,-79.78282211289347,40.458917371239686,266.19618504476546,0.003613550448790193,0.010028622113168241,0.8886590600013733,0.4584448635578156,0.012400875291654371,0.0017951350986967806,0.010166519278014595,0.002812981139868498,0.001485735410824418,0.0033968095667660236,0.2031548018194735,-0.031592236650176346,-9.811603306531909
7.8,0.8999999761581421,119.0,23.67878341674805,0.07951773703098297,-79.78282218008098,40.45891742957704,266.1980173511505,0.003611234482377768,0.010026123374700545,0.8886572122573853,0.4584482908248901,0.011414947869843315,0.0028031205280716685,0.01037272935562664,0.0023063840344548225,0.003630776656791568,0.001785776810720563,0.20125710625201465,-0.02434085327200592,-9.810943740606307
8.0,0.8999999761581421,114.0,23.65499496459961,-0.039758868515491486,-79.78282224007758,40.4589174849474,266.19910221529005,0.0036100044380873437,0.010024813003838062,0.88865727186203,0.4584482610225678,0.010712864333366256,0.0038022946365320726,0.010391974724312691,0.00038244447205215687,-5.406918717199005e-05,0.002928126137703657,0.2021462850272656,-0.030627918869722638,-9.811117987632752
8.1,0.8999999761581421,112.0,23.662506103515625,-0.015903547406196594,-79.78282226087394,40.45891749753114,266.2012011928558,0.0036103143356740475,0.01002309937030077,0.8886551260948181,0.458452433347702,0.01140845379240923,0.002792406629885616,0.010573667551748257,0.010349801741540432,0.004375627730041742,0.0018634314183145761,0.2040633129514754,-0.02788085127482191,-9.812388002872467
8.3,0.8999999761581421,110.0,23.65123748779297,-0.015903547406196594,-79.78282232426092,40.4589175689423,266.20248132181166,0.003607071004807949,0.010025168769061564,0.8886551856994629,0.4584523141384125,0.012877244253855773,0.002150760563681637,0.010732338155117859,-0.0036981827579438686,-0.002001535147428513,0.0019732818473130465,0.20102955820038915,-0.027108038943260908,-9.8115647149086
8.4,0.8999999761581421,113.0,23.662506103515625,0.07156596332788467,-79.7828224007566,40.458917634099826,266.20477961730955,0.0036050730850547548,0.010021913796663284,0.8886532783508301,0.4584561288356781,0.012163148476880357,0.003611601276464093,0.010623634187037795,0.005624857265502214,-0.0005621759337373078,0.004656905308365822,0.20116168700158604,-0.018999746111221613,-9.809947375059126
8.6,0.8999999761581421,115.0,23.66751480102539,0.03180709481239319,-79.78282241200803,40.45891764107729,266.2058499379158,0.0036060207057744265,0.01001962274312973,0.8886532783508301,0.4584561288356781,0.0116371573044345,0.003190171693883456,0.010762741960189176,-0.004519728012382984,-0.00020355235028546304,-0.002449477557092905,0.19980072928592565,-0.021067239339463414,-9.809032285809515
8.7,1.0,115.0,23.658750534057607,0.02385532110929489,-79.78282249713236,40.458917725930746,266.21050386857985,0.0036016192752867937,0.010022541508078577,0.8886515498161316,0.4584594070911408,0.014420319948867324,0.0021390768471267487,0.014081261083858791,7.355623529292643e-05,-0.001187385292723775,0.005305374041199684,0.20110368993133307,-0.02329322865698487,-9.809293656349183
8.9,1.0,111.0,23.662506103515625,0.015903547406196594,-79.7828225086137,40.45891773573428,266.2119107170105,0.00360079575330019,0.01002220157533884,0.8886496424674988,0.4584630727767944,0.014126190387063094,0.0016855174224238347,0.014155302889304437,-0.0061204591765999785,0.00022070079285185787,-0.002990946639329195,0.20149176232516766,-0.018239814784610644,-9.808973813652992
9.0,1.0,112.0,23.65624618530273,0.02385532110929489,-79.78282261277988,40.45891780472461,266.2165630979538,0.003596838796511292,0.010017030872404577,0.8886498808860779,0.4584628343582153,0.015063578735501681,0.004746782184230162,0.015867452599108264,0.0001928438141476363,-0.003580217715352773,0.0036038749385625115,0.20355173639953136,-0.026758996713906528,-9.811507412195207
9.2,1.0,111.0,23.660001754760746,-0.05566241592168808,-79.78282262716031,40.4589178138317,266.2181544525623,0.0035959631204605103,0.01001791562885046,0.8886480927467346,0.4584663212299347,0.01492633838276739,0.0042656528724027455,0.01602153942640648,-0.0028158382046967745,-0.000707306491676718,-0.005915526766330004,0.20106095043942326,-0.01691311924019829,-9.809802364110947
9.3,0.8999999761581421,113.0,23.66501045227051,-0.06361418962478638,-79.78282274612978,40.45891787977453,266.22080715727805,0.003592503489926457,0.010011897422373295,0.8886467814445496,0.4584689736366272,0.015151653203009097,0.00790540552032524,0.013965129963715043,-0.003686008974909783,-0.00277619156986475,0.006337555591017008,0.20354159513488407,-0.027645683570299298,-9.81079989910126
9.5,0.8999999761581421,114.0,23.67753028869629,0.039758868515491486,-79.78282282303648,40.458917971271035,266.2225165588856,0.0035893029998987913,0.010018877685070038,0.8886467218399048,0.4584689736366272,0.01874832730640789,0.003516347598758777,0.012839544243839271,-0.0035495003685355186,-0.0017107609892264009,-0.00394468754529953,0.19985211169347167,-0.01911076098214835,-9.809923986196518
9.6,0.8999999761581421,115.0,23.676279067993164,0.039758868515491486,-79.78282285468926,40.458917996479826,266.22509389352797,0.0035875756293535233,0.010019045323133469,0.8886447548866272,0.4584727883338928,0.01913955805507796,0.002676115863477272,0.013005752770830369,-0.006498745642602444,-0.0038040322251617904,0.0016901311464607716,0.2038098178803921,-0.029898558659479026,-9.810783526897431
9.8,0.8999999761581421,116.0,23.676279067993164,0.015903547406196594,-79.78282293959361,40.45891807081879,266.22464232873915,0.003586938837543129,0.010019244626164436,0.8886445164680481,0.4584732055664063,0.018611364863953813,0.0019827286698711807,0.008182061990519436,-0.002385970437899232,0.0007392023107968273,-0.004559512250125408,0.1995966980047524,-0.01823464936343953,-9.809590694904328
9.91,0.8000000119209291,113.0,23.67753028869629,0.02385532110929489,-79.78282302827513,40.45891814522592,266.2261849863529,0.0035897705238312483,0.010016551241278648,0.8886428475379944,0.4584765136241913,0.014725177302977156,0.0007041763847508041,0.006351898611219117,-0.006334617268294096,-0.0011061695404350758,0.0006722030811943114,0.20312816044315696,-0.03143496710574255,-9.811398653984073
10.1,0.8000000119209291,111.0,23.68379211425781,0.039758868515491486,-79.78282303898068,40.458918156111324,266.22680484485625,0.003590223146602512,0.010015052743256092,0.8886428475379944,0.4584765136241913,0.015389813544120057,0.00026875042844106203,0.00623563531470766,0.0027469934429973364,0.00011809710849775,-0.0015553294215351345,0.2018644492328167,-0.021630856110714376,-9.810108758211138
10.2,0.8000000119209291,113.0,23.67753028869629,0.03180709481239319,-79.78282314108583,40.458918242612654,266.22991450858115,0.003586672013625502,0.01001579686999321,0.8886416554450989,0.4584790468215942,0.015845583234703833,0.0003147065357992987,0.007846252154353637,-0.0064843385480344296,7.814524724381045e-05,-0.0007286480395123363,0.2006856322847307,-0.01755827269284055,-9.80939481317997
10.4,0.8000000119209291,116.0,23.67878341674805,0.03180709481239319,-79.78282315221908,40.45891825467814,266.2306916339397,0.0035856910981237893,0.010015388019382957,0.8886399269104004,0.4584822356700897,0.0169438535729996,-0.0002588196197748664,0.0077754606273723265,0.007872004993259907,0.0012731058523058893,0.003081029746681452,0.20397829078137875,-0.02799226814182476,-9.811340181827546
10.5,0.699999988079071,118.0,23.67753028869629,0.03180709481239319,-79.78282328981511,40.45891831946611,266.2312950415611,0.0035818470641970634,0.01000503171235323,0.8886399865150452,0.4584823846817017,0.01609833749374119,0.006049281248801857,0.004508351479056857,0.002284996211528778,0.0009762887493707241,-0.005322904326021671,0.2005769288912416,-0.02126510135130957,-9.810068997144699
10.7,0.699999988079071,123.0,23.68253898620605,0.03180709481239319,-79.78282330642372,40.45891832827878,266.23176046442984,0.0035810316912829885,0.010005892254412174,0.8886384963989258,0.4584852755069733,0.016275374028644252,0.005649317520120061,0.004626390207956042,0.0010560911614447832,-0.0013225575676187873,0.0027969873044639826,0.20222211610525848,-0.03238725698087365,-9.811129682064056
10.8,0.699999988079071,122.0,23.676279067993164,0.015903547406196594,-79.78282341919437,40.45891839757506,266.2328232152462,0.0035808272659778595,0.010003242641687391,0.888637125492096,0.4584880173206329,0.013862947003058576,0.005810172741820874,0.003034555861604209,0.006712013389915228,0.000374745752196759,0.003573550609871745,0.20057157503440973,-0.017199386127758773,-9.809406507611277
11.0,0.6000000238418579,128.0,23.68128776550293,0.02385532110929489,-79.78282350551387,40.45891847507022,266.2355503363609,0.0035813329741358757,0.010006727650761604,0.8886371850967407,0.4584878087043762,0.012827360502704869,0.0026207773156580647,0.005154837098282993,-0.0074372743256390095,-0.0005898905219510198,0.000331635819748044,0.20097925387322904,-0.025091882441192863,-9.80984621822834
11.1,0.6000000238418579,130.0,23.685043334960927,0.039758868515491486,-79.78282352775129,40.45891849273152,266.2365770263672,0.003581243334338069,0.010005815885961056,0.8886349201202393,0.4584921300411224,0.013771891481616116,0.0016183250143543132,0.0052127830166723964,0.00040496443398296833,-0.002109564607962966,0.0030967523343861107,0.2022064382582903,-0.03206001390237361,-9.81077767968178
11.3,0.6000000238418579,136.0,23.68379211425781,0.015903547406196594,-79.78282364773436,40.45891857713409,266.2397800607681,0.003579173469915986,0.010003610514104366,0.8886378407478333,0.4584865272045136,0.01664272237873848,0.0042557203086591115,0.007100765990875866,-0.003409731900319457,-0.00213360833004117,-0.0057081542909145355,0.19991624834015967,-0.01690175599884242,-9.809674894809724
11.4,0.6000000238418579,137.0,23.680034637451172,0.039758868515491486,-79.78282376228441,40.45891865951867,266.24395593237875,0.0035615637898445134,0.009979888796806335,0.8886427879333496,0.45847779512405396,0.014462365733571203,0.005137759061008928,0.008451673670745532,-0.0067328354343771935,-0.00045420505921356375,0.00011649927182588724,0.20310533802956346,-0.028692088492680345,-9.811195170879364
11.6,0.699999988079071,142.0,23.680034637451172,0.015903547406196594,-79.78282377699777,40.45891866796339,266.2448071761131,0.003568069776520133,0.009996122680604458,0.8886395096778871,0.4584836661815643,0.015136976125427446,0.00462080505400266,0.008421191653078726,0.0028418973088264465,0.0021796298678964376,-0.00020839476201217624,0.2010727910511196,-0.02203717364463956,-9.81038006901741
11.7,0.699999988079071,145.0,23.676279067993164,0.02385532110929489,-79.78282391521209,40.458918730539324,266.2493768854141,0.0035743613261729474,0.009994593448936941,0.8886396884918213,0.4584833383560181,0.01199084016866717,0.010830051747776438,0.009165307701531428,-0.00275059905834496,-0.0020573306828737268,-0.008958850055932999,0.20264565551653504,-0.031942414061632014,-9.810587060451507
11.9,0.699999988079071,154.0,23.67878341674805,0.03180709481239319,-79.78282393374958,40.458918734149904,266.2503136022091,0.003592038061469793,0.009999777190387249,0.888640820980072,0.4584810137748718,0.012843227736719892,0.0103454119356738,0.009206045505758105,0.00412824098020792,-0.0001443352084606886,0.007215968798846006,0.2031509828567505,-0.03060670900857076,-9.81156354546547
12.01,0.699999988079071,155.0,23.68379211425781,0.02385532110929489,-79.78282404917883,40.45891881401678,266.2550697548389,0.0035913514439016576,0.010005162097513677,0.8886287212371826,0.4585041105747223,0.012533616175591471,0.00901888523010148,0.009698441195491741,0.007675050757825375,0.002171155996620655,0.002283408306539059,0.20144509423524146,-0.02140825535170734,-9.809269682765008
12.2,0.699999988079071,153.0,23.67878341674805,0.015903547406196594,-79.78282406597516,40.4589188186032,266.25606846046446,0.003592030610889197,0.010007848963141441,0.8886289000511169,0.4585038125514984,0.012245909676098576,0.008696572231333743,0.009956026261181469,-0.003424738766625524,-0.0015854744706302881,0.002410618821159005,0.20057716643437745,-0.028295290956739338,-9.810836151838306
12.31,0.8000000119209291,154.0,23.67878341674805,0.015903547406196594,-79.78282415391665,40.45891894049396,266.26082333159445,0.003592449240386486,0.010012506507337092,0.8886247277259827,0.4585117101669312,0.015562943818938491,0.0007655304074964327,0.0104552024199339,0.0011593772796913981,0.001065339893102646,0.004956838674843311,0.20092147607356312,-0.01993629875360057,-9.809794178009033
12.5,0.8999999761581421,153.0,23.67377471923828,0.09542128443717957,-79.78282426211412,40.458919033022134,266.26494561862944,0.0035889991559088226,0.010012949816882609,0.8886248469352722,0.4585115313529968,0.016398974957264792,0.001083197760482389,0.010680214923579356,-0.0008901823312044145,0.00013215247599873692,-0.007059971336275339,0.20002833215519786,-0.015597641898784787,-9.809338679909708
12.6,0.8999999761581421,155.0,23.688798904418945,0.03180709481239319,-79.78282428579662,40.45891905749368,266.2670919818878,0.0035885667894035578,0.010012345388531685,0.8886235356330872,0.4585140943527222,0.0166670979243852,9.332919020568244e-05,0.010919813023547314,-0.006822530180215836,-0.002312585012987256,-0.0056478669866919535,0.20193993313238026,-0.03148042692337185,-9.81128054022789
12.8,0.8999999761581421,157.0,23.67502593994141,0.015903547406196594,-79.7828244017891,40.45891913493516,266.2713364584446,0.0035871902946382757,0.010008461773395538,0.8886236548423767,0.458514004945755,0.0156809344021021,0.002460559237480691,0.010901121330955393,0.004821688402444124,-6.920544547028841e-05,0.007743030320852995,0.20373621605336667,-0.02985013868892565,-9.812275736331939
12.9,1.0,158.0,23.66501045227051,-0.039758868515491486,-79.78282454140412,40.45891923987021,266.2750808520317,0.003582592587918043,0.010019134730100632,0.8886216282844543,0.4585175812244415,0.01866897451487575,0.004285421224690244,0.007754502231841122,0.005993790924549103,0.00024827016750350595,0.002907490124925971,0.20286801416426892,-0.028530586569104344,-9.810202313661577
13.1,1.0,157.0,23.660001754760746,-0.04771064221858978,-79.78282455776704,40.45891925120246,266.275867007494,0.0035742053296417,0.01002139039337635,0.8886280059814453,0.458505392074585,0.017997752536697022,0.0040438822718471155,0.007915231374468108,-0.006994476541876793,-0.0004104425897821784,-0.0037700203247368336,0.20093227514997125,-0.023674606445711108,-9.809254480004313
13.2,1.0,156.0,23.660001754760746,-0.07156596332788467,-79.78282468226685,40.45891935928484,266.2792737407684,0.003550631459802389,0.010041234083473679,0.8886333107948303,0.4584948718547821,0.01860764678994738,0.00264194409902698,0.005636419591365451,-0.005787813570350409,-0.0023775240406394005,-0.00098852114751935,0.2011128079332412,-0.026175864860415458,-9.810033913850782
13.41,1.100000023841858,154.0,23.66876602172852,-0.07156596332788467,-79.7828246975583,40.4589193721689,266.27983357739447,0.0035459154751151796,0.010052448138594627,0.8886332511901855,0.4584948420524597,0.019477974819975083,0.0020067516098680486,0.005559085413995414,0.007470809854567052,0.0032138284295797352,-0.0029573431238532066,0.20171945655718448,-0.024156277687288823,-9.810236227512359
13.51,1.2000000476837158,153.0,23.6612548828125,-0.06361418962478638,-79.78282485062155,40.45891948075101,266.28537421655653,0.003532350063323974,0.010052625089883804,0.8886410593986511,0.4584796130657196,0.02188531577423469,0.004399382181921736,0.007641556986176845,0.0024719613138586287,0.000831982062663883,-0.002619161270558834,0.20139484472572805,-0.02228326833341271,-9.810834982395171
13.7,1.2999999523162842,159.0,23.6712703704834,-0.04771064221858978,-79.78282486959965,40.45891949479128,266.2861523849964,0.003541335230693221,0.010058579966425896,0.8886463642120361,0.4584692120552063,0.022058224535717583,0.004071865607502585,0.007842867713633106,-0.00279585481621325,-0.0005228410591371356,0.003848553169518709,0.20060768159106374,-0.029131326307542626,-9.81135187625885
13.81,1.2999999523162842,162.0,23.658750534057607,-0.05566241592168808,-79.78282497175918,40.458919610752076,266.2916757686138,0.0035544068086892366,0.010076693259179592,0.8886590003967285,0.4584441483020783,0.019462790122457663,-0.0004400157183191873,0.009465132787469022,-0.009317300282418728,0.0005081386188976467,0.00304768537171185,0.20067561892792585,-0.029747874084860088,-9.811888650655748
14.0,1.2000000476837158,162.0,23.663759231567386,-0.06361418962478638,-79.7828250943834,40.45891971163183,266.29586201143263,0.0035592762287706132,0.010078929364681244,0.8886620402336121,0.4584382176399231,0.021714615889554933,0.002118885505081285,0.009716901993201688,0.003005495294928551,-0.0019786395132541656,-0.0008964688749983908,0.202350060492754,-0.02342467908980325,-9.810987010002137
14.1,1.2000000476837158,164.0,23.66501045227051,-0.07156596332788467,-79.78282512696606,40.45891974201025,266.2978450579643,0.003596851602196693,0.010087410919368269,0.888676106929779,0.4584105014801026,0.022392741278943102,0.0010240354059233275,0.010008416033751216,0.004165920428931713,0.0014820710057392714,0.0010665336158126593,0.2012447357363999,-0.02563146624248475,-9.810516893863678
14.3,1.2999999523162842,162.0,23.663759231567386,-0.11132483184337616,-79.78282521284436,40.45891986469945,266.2984126729965,0.0036013182252645493,0.010096341371536257,0.8886794447898865,0.4584037959575653,0.021988070718189257,-0.0034559473520187987,0.004613110355556021,-0.003904127981513738,-0.0007650676998309791,-0.001799012185074389,0.20119751947000625,-0.024630183095578104,-9.810466607809069
14.4,1.2999999523162842,158.0,23.68253898620605,0.007951773703098297,-79.78282530502064,40.458920001363424,266.2978412134647,0.003608145285397768,0.010093681514263151,0.8886702060699463,0.4584217071533203,0.022325258028278217,-0.0074036082314686644,-0.003042930167910717,-0.00477000977844,-0.0017707740189507606,-0.003204246051609516,0.20198682049289346,-0.026819526816252614,-9.811584595441818
14.6,1.2000000476837158,156.0,23.680034637451172,0.0,-79.78282531317012,40.45892002220131,266.2975138647556,0.0035995300859212875,0.01010244246572256,0.8886702060699463,0.4584215879440308,0.02338455767170956,-0.008281632417426977,-0.003071825177638229,0.005480271298438311,0.0016056461026892064,0.0035053854808211327,0.20408734135329729,-0.02800364280352369,-9.811060684919358
14.7,1.2000000476837158,154.0,23.676279067993164,0.015903547406196594,-79.78282542696921,40.45892014220453,266.29822146129607,0.003609094768762589,0.01010396983474493,0.8886635899543762,0.4584342837333679,0.022615957799352427,-0.005724163319590437,-0.0051941199047382865,0.0049070012755692005,0.0010105125838890672,0.003113919869065285,0.20041784808039667,-0.02307431666878984,-9.81049701333046
14.9,1.2999999523162842,156.0,23.686294555664066,0.02385532110929489,-79.7828254365888,40.458920161558254,266.2976988477707,0.00360928731970489,0.01010205503553152,0.8886615633964539,0.4584382474422455,0.02206707183440792,-0.006273443300145313,-0.004918504478840154,-0.004982538055628538,0.0013119747163727884,-0.005812634713947773,0.1998758660070598,-0.02291617917828262,-9.810274819135666
15.01,1.2999999523162842,155.0,23.67878341674805,-0.015903547406196594,-79.78282551886791,40.458920231620496,266.3007936401367,0.003615274559706449,0.010090095922350885,0.8886616230010986,0.458438366651535,0.012799778588467429,-0.002333839893163257,-0.003044431173071118,-0.0050780740566551685,-0.00236242963001132,-0.0024868310429155827,0.20131175944581628,-0.022136523777153343,-9.810178924798967
15.2,1.2999999523162842,149.0,23.676279067993164,-0.007951773703098297,-79.7828255253572,40.45892024278476,266.3004832191467,0.0036143632605671883,0.010090971365571022,0.8886592984199524,0.4584428668022156,0.013611850526444856,-0.003168516602571216,-0.002966384383705363,0.0029584334697574377,0.002863926580175757,0.002978820819407701,0.2025210732780397,-0.02598899378674105,-9.811622017621994
15.3,1.2999999523162842,148.0,23.67252349853516,0.015903547406196594,-79.7828256288786,40.45892036446698,266.3037669284344,0.003608389990404248,0.010090949013829231,0.8886573910713196,0.4584466516971588,0.01591867550715937,-0.0027866310253425713,-0.0014175777093759347,0.005173458252102137,0.003953067120164633,-0.0010545548284426332,0.2024604632332921,-0.027195838540792463,-9.810157874822618
15.5,1.399999976158142,144.0,23.6612548828125,0.40554046630859375,-79.78282572425016,40.45892044193234,266.30734505486487,0.003608662635087968,0.010082663036882877,0.8886575102806091,0.4584465622901917,0.010850374541623605,0.002823995216205473,-0.000560001832915675,-0.0044841975905001155,3.454902252997272e-05,0.0016564677935093641,0.2010420931689441,-0.030931090149097142,-9.811054837703708
15.6,1.399999976158142,142.0,23.63746452331543,0.8667433857917786,-79.7828257438653,40.458920456046684,266.30726393294333,0.0036250683479011054,0.0100783072412014,0.8886754512786865,0.4584116935729981,0.0114340232092732,0.0014221656369563913,-0.00015887409430535783,0.0005490452167578042,0.0020299903117120266,0.003508187597617507,0.20475233422592284,-0.034791321423836064,-9.813263915777208
15.8,1.399999976158142,143.0,23.66876602172852,0.3180709481239319,-79.78282581217637,40.45892057834404,266.31081797909735,0.003614472458139062,0.010098627768456936,0.8886798024177551,0.4584029018878937,0.012981835919130751,-0.001682349028810628,0.0007991748337301676,-0.002253136364743113,0.001157931867055595,-0.0034484176430851217,0.2015510202012956,-0.013523744142148644,-9.811671134233476
15.9,1.2999999523162842,142.0,23.66501045227051,0.3339745104312897,-79.78282589575869,40.45892069898385,266.3128116650581,0.003615068970248103,0.010096201673150064,0.8886837959289551,0.4583951830863953,0.012385828568429406,-0.004562783447715857,-0.0011693444293509,-0.005843695253133774,0.00096131709869951,-0.004256745800375938,0.1969648296944797,-0.024880126439966264,-9.810183602571488
16.1,1.2999999523162842,147.0,23.66751480102539,0.3180709481239319,-79.7828259005091,40.45892071111804,266.31268020701407,0.003625885816290975,0.010103884153068066,0.8886716365814209,0.4584185183048248,0.014498889817901409,-0.00542735357851901,-0.0010284175444160977,0.008460237644612791,0.0024556617718189955,0.0031063426285982128,0.1967632103897632,-0.032149681868031625,-9.814331617355348
16.2,1.399999976158142,148.0,23.663759231567386,0.3339745104312897,-79.78282600521142,40.45892081422914,266.3162819368839,0.003604150144383311,0.010090176947414877,0.8886803388595581,0.458402156829834,0.012397428739995824,-0.00043778824512456273,8.517072401192355e-06,-0.0027658764738589525,-0.0011795469326898456,-0.009538759477436544,0.19849290814250709,-0.029574874159879982,-9.810846676826477
16.4,1.399999976158142,148.0,23.65749740600586,0.41349223256111145,-79.7828260125215,40.45892082399565,266.3162775559425,0.0036091881338506937,0.010076760314404964,0.8886809349060059,0.4584012627601624,0.012803589320668869,-0.0017439186194050018,7.31218053625002e-05,0.003076565684750676,0.005830154754221439,0.003990222699940205,0.2052054568938911,-0.02702825414249673,-9.809791839122774
16.5,1.399999976158142,148.0,23.658750534057607,0.4293957948684693,-79.78282611622281,40.45892096378522,266.31992610526083,0.003583706449717283,0.010073077864944937,0.8886860609054565,0.4583916068077088,0.017455114511886066,-0.0033818309644171552,0.0008684677081601713,0.002754882676526904,0.003302131313830614,0.0020546703599393368,0.1956168820336461,-0.025103814415633682,-9.811278201341633
16.7,1.2999999523162842,152.0,22.92254447937012,10.68718433380127,-79.78282612458486,40.45892097916471,266.32000189256667,0.0035758686717599635,0.010081678628921507,0.8886868953704834,0.4583897292613983,0.0178669629244473,-0.003772994004170075,0.0010576949974472174,-0.0017954115755856035,-0.0003816292737610638,0.0016947761178016665,0.2071306891925633,-0.03713362921960652,-9.812963368892673
16.8,1.2999999523162842,151.0,23.62744903564453,1.0734894275665283,-79.78282623473645,40.45892112780292,266.32405256462096,0.0033242651261389256,0.010054278187453749,0.8886237740516663,0.4585145711898804,0.025410698134145208,-0.005419035782257459,-5.9552491039597474e-05,0.017143420875072483,0.003156563965603709,0.00908394530415535,0.2275998908467591,-0.009208198635606095,-9.798383921384813
17.0,1.399999976158142,152.0,23.662506103515625,0.2624085247516632,-79.78282632380002,40.45892122990597,266.3275855703354,0.003344420110806823,0.010059293359518051,0.8886184096336365,0.4585247933864594,0.01918549388433064,-0.004631062628349684,0.002131546533482279,-0.016309898346662518,-0.01482045277953148,-0.006299109663814306,0.1832790742814541,-0.01955482960212976,-9.805804038047787
17.1,1.399999976158142,152.0,23.33446884155273,5.311784744262695,-79.78282634356655,40.45892126550983,266.3279483540058,0.003339237533509732,0.009976366534829141,0.8886128067970276,0.4585376381874085,0.01868066789811645,-0.007253403773568388,0.001549889674046619,-0.002668855944648385,0.04223798960447312,0.01901601813733577,0.20286218522116545,-0.0211785831162706,-9.809412354826927
17.3,1.399999976158142,156.0,23.65749740600586,0.3180709481239319,-79.78282643741778,40.458921383173795,266.33290939760207,0.003275803988799453,0.01009595301002264,0.8885849118232727,0.4585894346237183,0.02607077019579432,-0.0042524875085123825,0.0040884570135180055,0.0029685120098292828,-0.046575628221035004,0.0061921016313135615,0.2089277212880552,-0.05880791461095214,-9.818376721143725
17.4,1.399999976158142,157.0,23.65249061584473,0.2624085247516632,-79.78282651822927,40.45892149894566,266.3337965233326,0.0032766181975603104,0.010078050196170809,0.8886116147041321,0.4585381150245666,0.019627855232121325,-0.006194822830940756,0.0007849858629973003,-0.003398784203454852,0.004184391815215349,-0.014503244310617447,0.1784856182523072,-0.037339512880425904,-9.804967301487924
17.6,1.600000023841858,165.0,23.526033401489247,2.711555004119873,-79.7828265260446,40.45892151735038,266.33383759093283,0.0032444612588733435,0.010015834122896194,0.8886049389839172,0.4585525691509247,0.020811678710074992,-0.00669057931808189,0.0004672784766452498,-0.00217734114266932,-0.002754382789134979,0.005456093233078718,0.1982340957596898,-0.01002499185036868,-9.811989222764973
17.7,1.600000023841858,164.0,23.44214630126953,4.0792598724365225,-79.78282662628253,40.458921589784076,266.3375638051033,0.003264790633693337,0.01005673874169588,0.888590395450592,0.4585797488689423,0.013013494772906423,0.0005310524240988991,0.0013977430260357744,-0.0060250917449593535,-0.00024057771952357143,-0.0021926388144493107,0.19689972460269928,-0.05406724797561765,-9.804096651077273
17.9,1.600000023841858,158.0,23.336973190307607,6.003589153289795,-79.78282663653316,40.458921600061046,266.3376908524036,0.0032335626892745486,0.009979968890547752,0.8885757923126221,0.4586099982261658,0.012616643118582124,1.850288100312559e-05,0.0008436695653216057,-0.013281370513141157,-0.007814750075340271,0.01056851539760828,0.1939991950057447,-0.023020565682090814,-9.826229531764984
18.0,1.600000023841858,153.0,23.280630111694336,7.053223609924316,-79.78282673494645,40.45892168966545,266.33977460098265,0.003320312825962901,0.010039887391030787,0.8885682225227356,0.4586226344108582,0.013733987733383751,0.0013089244799811349,0.002319347173156257,0.003326765960082412,0.011502310633659365,0.04628394916653633,0.17908917881548406,-0.124815176948905,-9.810268971920014
18.2,1.7000000476837158,144.0,23.14916610717773,9.629598617553713,-79.78282674499575,40.458921699544135,266.33997585606573,0.0033723146189004183,0.01005714386701584,0.8885521292686462,0.4586532711982727,0.017323908389848406,-0.0010093555816170054,0.002552458463164545,0.012286276556551456,0.013109834864735605,0.014005107805132866,0.21589458737522368,-0.06928815331310034,-9.84195854187012
18.31,1.7000000476837158,142.0,23.072790145874023,11.490313529968262,-79.78282686779814,40.45892178944429,266.3438720924854,0.0035677421838045116,0.010212416760623457,0.8884991407394409,0.45875084400177,0.016691519006089988,0.006724823845083772,0.007612308978981555,-0.03533608466386795,-0.11774028092622756,0.12339594960212708,0.23087274190038445,-0.005806997772306204,-9.825023835897444
18.5,1.7999999523162842,136.0,22.913780212402344,14.03488063812256,-79.78282694346672,40.45892188176956,266.3465391321182,0.0034701393451541662,0.01039009355008602,0.8885272145271301,0.4586931467056274,0.0198173954209472,0.006770231152440989,0.00969027172809488,0.05034396052360535,-0.05240367352962494,-0.04775288701057434,0.2527862058207393,-0.1597235294803977,-9.873304295539857
18.6,1.8999999761581416,132.0,22.829893112182607,15.537766456604006,-79.78282696809227,40.458921905302574,266.34850790333746,0.0036218545865267524,0.011087204329669477,0.8885491490364075,0.4586332738399506,0.01695163289995425,-0.005973243948059146,0.007783767237607089,0.0025236939545720816,0.07295558601617813,-0.04446219652891159,0.11770355572924016,-0.08360969292931257,-9.783252496719363
18.8,2.0,128.0,22.65961456298828,18.98883628845215,-79.78282706242274,40.45892199545875,266.35391613078116,0.003678274806588888,0.012089711613953114,0.8884894251823425,0.4587230682373047,0.02687917172689882,0.002844364135906657,0.02037688381735744,0.07275707274675369,-0.014387727715075016,-0.014692492783069609,0.2331074746325612,-0.029194547042716294,-9.786162071228027
18.9,2.200000047683716,125.0,22.565710067749023,20.889310836791992,-79.7828271765233,40.458922091961156,266.36152412724493,-0.0007834433927200737,0.014090389013290404,0.8882805109024048,0.4590846598148346,0.040570704468308544,0.008528582398187198,0.029478596956717864,0.1202513501048088,-0.02799933217465877,0.03674110397696495,0.3231881075352431,0.24022669723257425,-9.835946434736252
19.1,2.299999952316284,123.0,22.34785270690918,24.23700714111328,-79.7828272119613,40.45892212179208,266.36446823906897,-0.0041420129127800465,0.015571781434118748,0.8885005712509155,0.4585927128791809,0.06842434211903654,0.002773035647778661,0.031053539215436826,0.15480895340442655,-0.01697747781872749,-0.0543566457927227,0.08655798696912825,0.04136297968681902,-9.81957890868187
19.2,2.299999952316284,120.0,22.24894142150879,26.224950790405273,-79.78282742349239,40.458922252454975,266.36577584576605,-0.008240762166678905,0.015517146326601504,0.891697347164154,0.4522912204265594,0.09766923439302118,0.0024427603962408825,0.07636543936885304,0.024279465898871425,-0.020809780806303024,-0.07522764056921005,0.1931884602829814,-0.15493555521592495,-9.946240124702454
19.4,2.299999952316284,119.0,22.04610824584961,28.419639587402344,-79.78282751423862,40.45892233256178,266.375793926239,-0.011307279579341413,0.008286617696285248,0.8932681083679199,0.4493056237697601,0.124836465404636,0.02590552692414776,0.13620838724340112,-0.12864142656326294,-0.2265360802412033,-0.08291950076818466,0.2862438276037574,0.2837388256005943,-10.375741503238679
19.5,2.299999952316284,123.0,22.376649856567386,23.632671356201172,-79.78282761411181,40.45892290551879,266.40293528866766,-0.011431069113314152,-0.00030894382507540286,0.8933457136154175,0.4492245614528656,0.17254845918156536,0.019364559965468875,0.2862638355006165,-0.10737326741218567,-0.10428014397621156,0.02962098270654678,0.1254042291082442,-0.07933842066675426,-10.78293692350388
19.7,2.299999952316284,129.0,22.395431518554688,23.083999633789066,-79.78282777660193,40.45892303459285,266.4322429819107,-0.006668725050985813,-0.0008847663993947207,0.8933666348457336,0.4492782354354857,0.17375567160947375,0.03767581698603515,0.3021024993228485,-0.2877004146575928,0.07302027940750122,-0.08001431822776794,0.10778984826989473,0.040958959925919775,-10.058472751379014
19.8,2.200000047683716,138.0,22.4279842376709,22.288822174072266,-79.78282827299087,40.458923329181644,266.4736465586424,0.014460654929280281,-0.0005364450043998659,0.8921529054641724,0.4515016973018646,0.1822940450031363,0.05808673934778194,0.21738652738047826,-0.2341406345367432,0.19746005535125727,-0.030153710395097733,0.3524833888560533,-0.3436970702558756,-9.710443552136422
20.0,2.4000000953674316,142.0,22.22139549255371,26.26470947265625,-79.7828289743415,40.45892356809521,266.46980290842055,0.023036647588014603,0.003118688007816673,0.8913852572441101,0.4526499509811402,0.1826220057858416,0.06179985481777658,0.1076789839669252,-0.1525554358959198,0.014714431017637253,0.027234911918640137,0.20897797079756852,-0.012463120892643929,-9.297979205846788
20.1,2.4000000953674316,147.0,22.230159759521484,25.73989295959473,-79.78282933856391,40.458923721842375,266.4814283622503,0.02487270534038544,-0.0029083972331136465,0.8899009227752686,0.4554660618305206,0.13685728166645691,0.08250883959779373,0.02008680616248525,0.04794424399733544,-0.1744363158941269,0.0236656591296196,0.3120578229054809,0.2535362574085593,-9.2376248306036
20.3,2.200000047683716,147.0,22.30528259277344,24.006404876708984,-79.78282970927458,40.458923919151,266.50115708243845,0.019630223512649536,-0.005007757805287838,0.8891237378120422,0.4572182893753052,0.13433129772718813,0.07272524458424921,0.06024356455414424,0.12581557035446167,-0.1521773636341095,0.06629795581102371,0.2159787141904235,0.024417652795091272,-9.793829525113106
20.41,2.200000047683716,157.0,22.113719940185547,27.60855865478516,-79.7828301846454,40.45892418918747,266.5337830109596,0.010824179276823996,-0.00751196127384901,0.8895812034606934,0.4565871357917786,0.10067416031053887,0.10101612411642932,0.07269266879799285,0.03997248783707619,0.057957880198955536,-0.050232693552970886,0.17700406171381475,-0.07821873368695377,-9.749866064786909
20.5,2.200000047683716,168.0,22.117475509643555,27.529041290283203,-79.78283035235324,40.45892420868827,266.5415219737291,0.00788656249642372,-0.004262834787368774,0.8907729387283325,0.4543603956699371,0.08750726031956751,0.12409637319824934,0.0744035507632958,0.012015664018690586,0.02077861875295639,-0.05660111457109451,0.16686743829399348,0.04859817358665169,-9.81286747455597
20.71,2.0999999046325684,173.0,22.127492904663086,27.21096992492676,-79.7828305243013,40.45892420146875,266.54980964195727,0.008212273940443994,-0.003484916174784303,0.8919354677200317,0.4520747363567352,0.06910277379271768,0.1275776741346062,0.0905979969727886,-0.04970841109752655,0.0374702550470829,-0.06160983070731162,0.12032525536604224,0.12451459351927045,-9.933839349746703
20.9,2.0,188.0,22.11246681213379,26.821332931518555,-79.78283093258169,40.45892421049719,266.58298750948904,0.016604572534561157,0.003535339375957847,0.8931698203086853,0.4493989944458008,0.047376239887864116,0.13574761163053772,0.12387847804262793,-0.12397941201925278,0.14421886205673218,0.01178286224603653,0.08178239235654472,0.1395551670715213,-9.846441017389296
21.0,1.8999999761581416,187.0,22.107460021972656,26.837236404418945,-79.78283110638566,40.458924172384464,266.59793435019253,0.022846123203635216,0.0067574596032500284,0.8931675553321838,0.4490925371646881,0.028608169062689537,0.14490990316768135,0.11799492958766933,-0.07519173622131348,0.16800516843795776,-0.003501233179122209,0.14964139480143787,0.319175528883934,-9.726095378994943
21.2,1.7999999523162842,188.0,22.00979995727539,28.67409706115723,-79.78283139289175,40.45892404166843,266.62217406910656,0.020582545548677444,0.011476239189505577,0.8919826149940491,0.4514551758766174,-0.00937301590054308,0.12570559786058022,0.13481667672875586,-0.02377349138259888,0.08124341070652008,-0.032327186316251755,0.17023605577647688,0.11910154276527465,-9.955882183313367
21.3,1.8999999761581416,187.0,21.937179565429688,30.025897979736328,-79.78283160920839,40.458924027933605,266.64481294137244,0.019636493176221848,0.01196566969156265,0.8909471035003662,0.4535245597362518,-0.008773063494594115,0.12522887493505025,0.1795898335872728,0.09752264618873596,-0.019589880481362343,0.08575452119112015,0.2626641264930368,0.06769388255663218,-10.159130229949954
21.4,1.600000023841858,181.0,22.053621292114254,27.457475662231445,-79.78283177541802,40.45892387057828,266.6768529152572,0.012133697047829628,0.012860558927059174,0.8901425004005432,0.4553391933441162,-0.04086312395401927,0.11041346049703632,0.2387503640571992,-0.008260470815002918,0.002650371054187417,0.036577414721250534,0.19708771258592608,0.04664546851068736,-10.262960407733916
21.6,1.5,181.0,22.212631225585934,25.57290458679199,-79.78283188301977,40.458923711083386,266.72115557017554,0.014258140698075294,0.014710751362144947,0.8908282518386841,0.4538780748844147,-0.03657487481198543,0.09480755151892337,0.11973536690854172,0.03513094037771225,0.008434159681200981,0.01877907104790211,0.4060460403934121,0.3845438915491105,-8.871518379449844
21.8,1.600000023841858,168.0,21.885847091674805,30.47914886474609,-79.78283204212556,40.45892366832226,266.7296329278573,0.008458187803626059,0.012327343225479126,0.8911423087120056,0.4534777104854584,-0.01782621836450429,0.09929502486787947,0.06315135588221935,0.16617247462272644,-0.2015240043401718,-0.020390097051858902,0.4048143975064159,0.22416995069012047,-9.306730148792267
21.91,1.7000000476837158,165.0,21.656721115112305,34.987804412841804,-79.78283211469795,40.45892360569102,266.7377187235355,0.002095838077366352,0.010932270437479021,0.8914169669151306,0.4530473053455353,-0.017755362573252012,0.08679846731631657,0.09533166239148183,0.058862369507551186,-0.023505263030529026,-0.01739378646016121,0.3392318440228701,0.07495233284309506,-9.943874341249467
22.1,1.7000000476837158,159.0,21.537776947021484,37.07117080688477,-79.78283240727346,40.458923482521946,266.7889315931201,0.0021575158461928368,0.011498481035232544,0.8911475539207458,0.4535629749298096,0.012243142358044056,0.10008466759640856,0.3190885294294162,0.006758124567568302,0.04860511049628258,0.0998755693435669,0.2781283490918577,0.18866909248754385,-11.03371230840683
22.21,1.7000000476837158,151.0,21.574085235595703,36.7928581237793,-79.78283251643246,40.45892345196104,266.83028694969414,0.004363699816167355,0.012202965095639229,0.8909429311752319,0.4539305567741394,0.027443858604146342,0.103060153330974,0.5074331383028929,-0.07783187925815582,0.059560123831033714,0.11470741033554074,0.3520413758978248,-0.03410981473512948,-11.5621380507946
22.3,1.8999999761581416,141.0,21.29988670349121,40.79259872436523,-79.78283284297133,40.458923456950295,266.9478517694473,0.013908393681049349,0.013691295869648457,0.8906683921813965,0.4542345106601715,0.07851994174715365,0.09389764546770954,0.8492604407871209,0.04018302261829376,0.06344906985759735,0.09998501092195512,0.3052664281055331,0.04668348911684007,-11.565627669095994
22.51,2.0999999046325684,137.0,21.193462371826172,42.35114669799805,-79.7828331594767,40.458923575086615,267.15501274895666,0.011741683818399906,0.020774304866790768,0.8894455432891846,0.4564178287982941,0.12860712252382792,0.07534307972096893,1.273680017267783,0.1039188951253891,0.08278007060289383,0.011250758543610571,0.3294878611341119,0.22506824746727944,-11.852860443592071
22.7,2.4000000953674316,130.0,21.294878005981445,40.42681884765625,-79.78283325125524,40.45892367771248,267.29527615737913,0.007107317447662354,0.027826394885778427,0.8883917331695557,0.4581871032714844,0.1595678574183074,0.050660981459679184,1.5206507874413973,0.11071109026670456,0.06648120284080505,-0.0038159824907779694,0.2513251876272261,0.3036127624288201,-12.213036063909529
22.8,2.5,136.0,21.18094253540039,41.54006576538086,-79.78283339344577,40.458923814993746,267.4502816123962,0.008857502602040771,0.024890277534723282,0.8874345421791077,0.4601762294769287,0.15032201843224785,0.05403850215206017,1.7205076647907422,-0.17944900691509247,-0.13765820860862732,0.0053962767124176025,0.4131591051444412,0.09643129382282496,-12.042503188848492
22.9,2.799999952316284,143.0,21.20848655700684,42.68512344360352,-79.78283355680864,40.458924215534225,267.8301211519241,0.020632974803447723,-0.008710334077477455,0.8864182829856873,0.4623430371284485,0.20864221018348852,-0.02678221218402768,2.1672689156632243,-0.29376062750816345,-0.1890147030353546,-0.013470740988850594,-0.007489086398854852,0.14014772756025196,-12.213234869241715
23.1,3.0999999046325684,146.0,20.847896575927734,36.180572509765625,-79.78283359304741,40.458924513448316,268.30726980400084,0.0276434738188982,-0.019518220797181133,0.8863770365715027,0.4617258608341217,0.2868646837395618,-0.10688483393930498,2.5497726892667147,0.1171770915389061,0.028426731005311005,-0.0415509045124054,-0.05864776485599577,0.3856874972954393,-11.518404386043553
23.21,3.5,152.0,20.825359344482425,37.47671127319336,-79.78283361778959,40.45892471106718,268.5548084897995,0.022786635905504227,-0.012032439932227136,0.8866276741027832,0.4617655277252197,0.27607818452154403,-0.10542321054288296,2.60131974727216,0.1507837325334549,-0.027722375467419624,0.020180707797408104,0.07958327282220126,0.5109377070888877,-10.784111044406893
23.4,3.5999999046325684,153.0,20.901735305786133,36.29984664916992,-79.78283359311767,40.45892483947297,268.81867145729063,0.016854532063007355,-0.006061400752514601,0.8858640789985657,0.463599145412445,0.23399513847644565,-0.09121287857076396,2.6405044923543275,0.0714602991938591,-0.10423310846090317,0.0721721276640892,0.17777158185839653,0.3440662488341332,-10.249449831247329
23.6,4.0,159.0,20.936792373657227,35.68756103515625,-79.78283353616614,40.458925158596934,269.3378209991455,0.013496318832039831,-0.01827191933989525,0.8814322948455809,0.4717639684677124,0.1935598398809913,-0.12223249005554868,2.656233732423691,-0.13588757812976834,-0.0917179137468338,0.16784925758838656,-0.07077612351626159,0.2290080465562641,-9.976029349565506
23.7,4.300000190734863,163.0,20.949312210083008,34.70154190063477,-79.78283350683445,40.458925300029016,269.6049508972168,0.01527804508805275,-0.02440296858549118,0.8786695599555969,0.4765616059303284,0.2285458928040072,-0.15833883268967802,2.6719855370840087,-0.07437972724437714,-0.008141811937093735,0.2348827123641968,-0.2265308370999992,0.3575343964621425,-10.011354718208313
23.8,4.599999904632568,176.0,20.970598220825195,34.566360473632805,-79.78283347535452,40.458925668694576,270.1352341098785,0.017849087715148926,-0.026185831055045128,0.8722806572914124,0.4879778623580933,0.28496865176655417,-0.16011502317121173,2.670264550580491,0.0070108473300933855,0.007462519221007823,0.15836872160434726,-0.3355279252678156,0.2994589735195041,-9.9213099360466
24.0,4.800000190734863,183.0,20.765260696411133,38.72513961791992,-79.78283339574647,40.458925997424544,270.65144967269896,0.02698543295264244,-0.03233322501182556,0.8690458536148071,0.4929359555244446,0.2516913339529136,-0.1507409603041753,2.6618099942750293,-0.19397567212581635,0.07425275444984436,0.05152535066008568,-0.4478632436692715,0.22107023203745485,-9.902990609407423
24.1,4.900000095367432,188.0,20.791553497314453,37.88225173950195,-79.78283336604866,40.45892607808906,270.9204249305725,0.03534601256251335,-0.031527820974588394,0.8702380061149597,0.4903495609760285,0.2566777721510767,-0.14383698411651294,2.692141166107735,-0.07247944921255113,0.09422402828931807,-0.10368941724300383,-0.2947290145978332,0.466448435895145,-10.100618312358854
24.31,5.099999904632568,190.0,20.820350646972656,38.17646789550781,-79.78283333307054,40.45892613915292,271.17613410186766,0.03849953785538674,-0.02811723761260509,0.8722008466720581,0.4868191182613373,0.2406855702046328,-0.12047125630525428,2.7176472646604526,0.058016654103994376,0.05989323928952218,-0.07753246277570723,-0.12582639807835222,0.4748672204464674,-10.307275285720824
24.5,5.300000190734863,185.0,20.817846298217773,38.44682693481445,-79.78283305250879,40.458925928692395,271.76270055007933,0.02898023463785648,-0.02103924192488193,0.875931978225708,0.4811037182807922,0.11750063515805087,-0.06681752799722822,2.8350777316129308,0.1608230471611023,-0.052283477038145065,-0.11597882956266405,-0.04305004758294672,0.3936053581908345,-10.383719444274902
24.6,5.199999809265137,183.0,20.867929458618164,37.46875762939453,-79.78283275208175,40.45892574268383,272.346035949707,0.01291638147085905,-0.01606862060725689,0.8768477439880371,0.4803259074687958,-0.009730253438520324,-0.0883182278705487,3.002733650087431,0.11121931672096252,0.005219229031354189,-0.07628820091485977,-0.07316130784805865,0.4144189243018627,-10.566858916282657
24.7,5.300000190734863,183.0,20.902986526489254,37.17454147338867,-79.78283255313643,40.458925521160495,272.6988501472473,0.006621313747018576,-0.012349567376077177,0.8766695857048035,0.4808889627456665,-0.04497134331816244,-0.08697814484372755,3.056574678698308,0.1398821622133255,-0.0059037082828581324,0.03646045550704002,-0.08606403429061175,0.2874657312221825,-10.421312363147736
24.9,5.300000190734863,183.0,20.8917179107666,36.776954650878906,-79.78283221493939,40.45892522440047,273.356937877655,0.003842448117211461,-0.010237113572657108,0.8755412101745605,0.4830196499824524,-0.07897447012862165,-0.09386909213147276,3.1524189043129707,-0.019261326640844345,-0.014483805745840073,-0.0420074574649334,-0.14354909858666362,0.3856931617856026,-10.321741297245026
25.1,5.199999809265137,196.0,20.884206771850586,36.64972686767578,-79.78283209214824,40.458925152838475,273.6747531814575,0.006365843582898378,-0.012824220582842829,0.875308632850647,0.4833526611328125,-0.06475564508957969,-0.0939423011469071,3.2044523241187,-0.07948996871709824,-0.017322462052106857,0.03750424459576607,-0.0707514647115022,0.3844887084513903,-10.368672219514847
25.2,5.199999809265137,193.0,20.841636657714844,36.466835021972656,-79.78283197656495,40.458925094019364,273.99829482269286,0.0092812804505229,-0.01582677848637104,0.8746646046638489,0.4843813478946686,-0.02776753161237318,-0.10804720004988567,3.2650481779778415,-0.05854521319270134,-0.022017758339643482,0.1100674718618393,-0.10815274109132587,0.44513343449681997,-10.428585129976273
25.4,5.099999904632568,193.0,20.92176818847656,35.75117492675781,-79.7828316927538,40.45892491957173,274.70653676223753,0.008020750246942043,-0.01958425343036652,0.8727248907089233,0.4877535700798034,0.023952352906124817,-0.12741930346470473,3.3320655853019137,0.03509453311562538,-0.02501402050256729,-0.015823710709810257,-0.27471386751160026,0.3434364306181669,-10.213363155126572
25.5,5.099999904632568,194.0,20.88545799255371,37.277915954589844,-79.78283150842516,40.45892474197432,275.0905189437866,0.003244360676035285,-0.0182026531547308,0.8713817000389099,0.4902572333812714,0.029747976856306094,-0.13750704466077898,3.3483095112624044,0.02929942682385445,-0.0277476329356432,0.06071612238883972,-0.39053341381251816,0.3383040370792151,-10.02253927230835
25.7,5.099999904632568,200.0,20.949312210083008,35.043468475341804,-79.78283131920483,40.45892467877518,275.76129912567137,0.005481216590851545,-0.02169567905366421,0.8685218691825867,0.4951455891132355,-0.008093863795796227,-0.14411234269104056,3.337466744059515,-0.20635190606117249,-0.07349421828985214,-0.009064452722668648,-0.2360286522097885,0.4114337379857898,-9.727089405655864
25.81,5.199999809265137,202.0,21.035703659057614,33.84275054931641,-79.78283115823753,40.45892446906828,276.44893168640135,0.011235276237130163,-0.025782188400626186,0.8706476092338562,0.4911027550697327,0.046311868937658436,-0.1346143151489608,3.298813320791472,-0.10441328585147858,-0.13936647772789001,-0.06957703828811647,-0.18975349517539145,0.25330123588442804,-9.724243565797806
26.0,5.300000190734863,201.0,20.974353790283203,34.64587783813477,-79.78283111979573,40.45892444932056,276.72780417633055,0.015191512182354929,-0.029331933706998825,0.8732993006706238,0.4860631227493286,0.06075475811268281,-0.1288727033834093,3.2316781646962767,-0.09921502321958542,-0.08799828588962555,-0.04122292622923851,-0.13660030405037105,0.32301013290882113,-9.860801779031751
26.1,5.300000190734863,201.0,21.043216705322266,33.858654022216804,-79.78283104595141,40.45892438803017,277.0521726531982,0.01782936975359917,-0.03084620833396912,0.8761193156242371,0.4807761311531067,0.08751077022059925,-0.12078118649982793,3.2480125313996195,-0.038598183542490005,-0.03307699412107468,-0.12230352312326433,-0.1491404894180596,0.337857236713171,-9.952255740165713
26.3,5.199999809265137,197.0,21.25982093811035,37.0234603881836,-79.78283096306444,40.45892415315742,277.7887601776123,0.01431312132626772,-0.01889100670814514,0.881729006767273,0.4711606204509735,0.06508438516502735,-0.0782777324663302,3.2489631913272,0.05895304307341576,0.17796504497528076,-0.1446593999862671,-0.10269614685326817,0.4227183525636792,-9.725159824490547
26.4,5.199999809265137,190.0,21.51273536682129,32.4989013671875,-79.78283093266181,40.458923781746826,278.5573558731079,0.009919880889356136,-0.00489631202071905,0.8874742984771729,0.4607244729995728,0.011205621820069057,0.029247364383948555,3.26648002444628,0.15618056058883667,0.06962607055902481,-0.032331660389900214,0.09091625483706596,0.4202124917507172,-9.88478471875191
26.6,5.099999904632568,188.0,21.650461196899414,30.39963150024414,-79.78283094284637,40.45892369443872,278.88396739196776,0.004770966246724129,0.0008039610111154616,0.8899107575416565,0.4561089873313904,0.01096935183868182,0.06564342184476328,3.2656303738225594,0.10841470211744307,0.010801387950778008,-0.12929713726043698,0.010763936012517662,0.40967613805085423,-9.83783742427826
26.7,5.099999904632568,187.0,21.624168395996094,30.3042106628418,-79.78283095988532,40.45892363194008,279.2098340911865,0.00557711860165,0.0044719581492245215,0.892089307308197,0.4518027901649475,-0.01109109699217887,0.06944905754359355,3.245891180415832,-0.08711042255163193,0.02225164882838726,-0.14336930215358734,-0.004154693400487304,0.44193654242903,-9.678469222784043
26.9,5.099999904632568,179.0,21.650461196899414,30.11336708068848,-79.78283101649815,40.458923299202056,279.977534286499,0.015853682532906532,0.006019270047545433,0.8960552215576172,0.4436187148094177,0.03484056350365203,0.09886531843501332,3.1906591658460743,-0.1260146200656891,-0.05753795057535172,0.05714374408125876,0.07445066458079964,0.3275579145178199,-9.281721022725105
27.0,5.099999904632568,170.0,21.733097076416016,29.16710662841797,-79.78283115029045,40.458922986202076,280.423789970398,0.020170291885733604,0.0020554354414343834,0.897017776966095,0.4415293037891388,0.0964844168562071,0.10066582932896144,3.171027353574775,-0.08322825282812119,-0.05180759355425835,-0.09771333634853364,0.09771780917420984,0.5404682657495141,-9.213876948952676
27.1,5.199999809265137,168.0,21.664234161376953,28.96036148071289,-79.78283121778423,40.45892309106305,281.0463991088867,0.013144735246896744,-0.0012189960107207294,0.8972461819648743,0.4413332939147949,0.18815118807102352,0.001529807742865194,3.0447276537904884,0.02290145121514797,-0.008408007211983204,0.155744269490242,-0.18510589063167573,0.3849110966920853,-9.180577055811883
27.31,5.300000190734863,167.0,21.6817626953125,29.43746757507324,-79.78283143324848,40.45892318566798,281.7551574630737,0.015338998287916185,-0.00527272280305624,0.8957064151763916,0.4443501532077789,0.2292086361817608,-0.08287975664434133,2.9247047009617617,-0.04371524974703789,0.004585261456668377,-0.08400876075029373,-0.27881691355258226,0.7200760560482741,-8.92208743929863
27.4,5.400000095367432,170.0,21.55655670166016,32.33986282348633,-79.78283153998588,40.45892317637115,282.14833163452147,0.016567142680287358,-0.00917361117899418,0.8944780826568604,0.4467106759548187,0.26708930960886057,-0.09343566280537706,2.8731471737078964,-0.04978494346141815,-0.07481733709573746,-0.08165444433689117,-0.2490228830091656,0.6670205408334733,-8.872929312586782
27.6,5.400000095367432,171.0,21.606639862060547,31.03577423095703,-79.78283156503377,40.45892336043823,282.43296527099614,0.017504163086414337,-0.014632015489041804,0.8930925726890564,0.4492941200733185,0.3016552815106179,-0.13433504295707654,2.800306048264316,-0.09558853507041933,-0.08277906477451323,0.1082671880722046,-0.4132833584770561,0.4883417269214988,-9.06575177371502
27.81,5.5,173.0,21.572834014892575,31.44926643371582,-79.78283169683594,40.45892356442317,283.1019773406982,0.024324802681803703,-0.024620652198791504,0.8904134631156921,0.4538349807262421,0.3508070985482813,-0.18722391313293865,2.732966579648643,-0.12442238628864287,-0.05223598331212997,-0.00701405294239521,-0.2459515233524144,0.4460346731543541,-9.266431138515475
27.9,5.699999809265138,175.0,21.427595138549805,33.103233337402344,-79.7828316951501,40.45892379176239,283.3749837799072,0.02424907498061657,-0.027938473969697952,0.8894774317741394,0.4554792642593384,0.3674570886965588,-0.2150073825300816,2.6919053063349923,-0.06599902361631392,-0.07210365682840347,0.057222198694944375,-0.3205668373033405,0.6404850722104312,-9.367845831513405
28.01,5.800000190734862,179.0,21.54153251647949,32.23649215698242,-79.78283180541446,40.45892397649077,284.0632600708008,0.016008596867322922,-0.0325714536011219,0.889450192451477,0.4555889666080475,0.35854599691696226,-0.2362921635396604,2.736978052642724,0.05413345992565155,-0.10970920324325564,-0.03525182977318764,-0.3861363441869617,0.4925433899089695,-9.726702904701233
28.2,6.0,183.0,21.547792434692386,31.385652542114247,-79.78283204387253,40.45892419029107,284.7726812286377,0.004515199922025204,-0.03726862743496895,0.8876964449882507,0.4588962495326996,0.35132208553938393,-0.2811640084983406,2.8701509604906237,0.1084323152899742,-0.025979237630963332,0.2068336755037308,-0.2334783708304167,0.7935442741960288,-9.889537335634232
28.4,6.300000190734862,184.0,21.43886375427246,33.492870330810554,-79.78283208489965,40.45892440272153,285.0626687927246,0.0072638927958905706,-0.03709564357995987,0.8864545226097107,0.4612696766853333,0.3414085602521628,-0.2795904324708616,2.875916445368189,-0.07185857743024826,0.01803625002503395,-0.007292547263205051,-0.3376145772635937,0.6659849258512259,-9.82823863506317
28.5,6.300000190734862,185.0,21.537776947021484,32.29215240478516,-79.78283220349763,40.458924643159506,285.52573870849614,0.013176511973142624,-0.0390547551214695,0.8856374025344849,0.4625447690486908,0.4011994145513828,-0.2601369331159236,2.982898181632105,-0.08746184408664702,0.034506119787693024,0.03874323144555092,-0.3481550605595112,0.6881899465620518,-9.719208528399466
28.6,6.300000190734862,196.0,21.41883087158203,33.246368408203125,-79.78283241414611,40.4589251037016,286.12588214111327,0.024178586900234226,-0.03591247275471686,0.8856497406959534,0.4623314440250397,0.4775102637074512,-0.2169299404777616,2.956673092458623,0.0193012822419405,0.024119455367326736,0.08154550194740295,-0.5170442102104426,0.5560722550749779,-9.68156123042107
28.8,6.300000190734862,198.0,21.690526962280273,28.4912052154541,-79.78283245952589,40.45892519141281,286.5060243530273,0.023645604029297832,-0.03286845237016678,0.8861362338066101,0.4616527855396271,0.4775019882505564,-0.18985720256167204,3.0100571223117263,0.027710342779755592,0.0731043741106987,-0.04092038795351982,-0.4206464647874236,0.5967270684242248,-9.811155409812928
28.91,6.300000190734862,199.0,21.77190971374512,26.717960357666016,-79.78283255635561,40.458925401636094,286.80928515625,0.02412535436451435,-0.033513642847537994,0.8864562511444092,0.4609666466712952,0.44137940998007263,-0.17420775397107882,2.987914893345587,-0.10736224800348282,-0.10910724848508836,0.018630636855959892,-0.30023144552484154,0.4754089649766684,-9.626030223369597
29.0,6.5,190.0,21.81072425842285,26.14543342590332,-79.78283274672418,40.45892603080082,287.4257459564209,0.020722342655062675,-0.045507580041885376,0.8867891430854797,0.4594614505767822,0.4719587467802898,-0.2217975662231852,2.8307475242301683,-0.013459522277116777,-0.1716144233942032,-0.05710703507065772,-0.4397239925712347,0.6723474273830653,-8.890739346742631
29.21,6.5,191.0,21.80696678161621,25.843265533447266,-79.7828330627538,40.458926405705775,288.03200816345213,0.0223265141248703,-0.05305316671729088,0.8867570161819458,0.4586382806301117,0.4433435828636298,-0.2470989080851209,2.6235230943301424,-0.11019878089427948,0.02627587504684925,-0.03149428963661194,-0.5023490243777633,0.7376489856094123,-8.570559266209603
29.3,6.699999809265138,191.0,21.915895462036133,24.3721866607666,-79.78283315134759,40.45892660460323,288.2928247375488,0.028925014659762383,-0.0520576648414135,0.8876785039901733,0.4565965533256531,0.4308605538062336,-0.25456209823462583,2.515280751510012,-0.16815857589244845,0.12682148814201355,-0.021220332011580467,-0.6082935918867588,0.6281847231835127,-8.707053744792939
29.5,6.699999809265138,191.0,21.8570499420166,25.42182159423828,-79.78283312839382,40.458926749634884,288.5796251220703,0.031321931630372994,-0.04947227239608765,0.8890050053596497,0.4541384279727936,0.4413735649388832,-0.2257087950756955,2.442472442321434,-0.014114247635006903,-0.05594393238425255,-0.04794883728027344,-0.5060750529170036,0.6957469611614943,-8.716683524250985
29.7,6.800000190734862,192.0,21.7456169128418,27.163259506225586,-79.78283323056282,40.45892707414478,289.05686473083495,0.023201059550046917,-0.057139851152896874,0.8926115632057191,0.4465886056423187,0.34982865509279903,-0.23348249940898794,2.26186342031269,-0.07706794142723082,-0.11735747754573822,0.08944860100746155,-0.6927881969511509,0.3887871428579092,-8.892154957652092
29.8,6.800000190734862,191.0,21.76064109802246,26.65434646606445,-79.78283329643475,40.458927158034186,289.322504989624,0.0238312128931284,-0.06395084410905838,0.8937375545501709,0.44336846470832825,0.3103125252403927,-0.2532700254379592,2.230708198450549,-0.2470007836818695,-0.12008626759052275,-0.11054344475269318,-0.6274481932818889,0.8232158969342709,-9.102365868687633
29.9,6.699999809265138,195.0,21.695533752441406,28.34012222290039,-79.7828333347353,40.45892726994186,289.8088922424316,0.019012214615941048,-0.06783448159694673,0.8946956992149353,0.4410857856273651,0.2890117016830116,-0.2434034989365975,2.184716706358342,0.12671053409576416,-0.03612903878092767,-0.18022340536117554,-0.6978932547569275,0.6394852714240551,-9.29580404162407
30.1,6.699999809265138,196.0,21.716819763183594,28.125423431396484,-79.78283336148236,40.45892728116677,290.24729632568364,0.01411803625524044,-0.06638588756322861,0.8951016664505005,0.4406661689281464,0.15968066567696854,-0.20027550212575732,2.1587032187756643,0.06201064214110375,-0.022586902603507042,0.1133558303117752,-0.6746477220207453,0.4783462772145868,-9.581188511252405
30.2,6.699999809265138,211.0,21.63919258117676,29.61240577697754,-79.78283336155124,40.458927194378795,290.5167360229492,0.012259191833436487,-0.06568282842636107,0.8949398398399353,0.4411555528640747,0.12839928973348494,-0.15928151633968854,2.2237117464514005,0.0428089052438736,0.07580713927745819,0.06081043183803559,-0.8411850484460592,0.3487816993519664,-9.62275052011013
30.4,6.599999904632568,214.0,21.77190971374512,26.38398551940918,-79.78283340619035,40.45892708744913,290.7396173400879,0.006901476997882128,-0.061010796576738364,0.8950350880622864,0.4417491853237152,0.09516624097733327,-0.1222245987107409,2.233770395660345,0.13142584264278412,0.1127544716000557,-0.09768112003803253,-0.773261525630951,0.3546727691218257,-9.816764059066774
30.6,6.599999904632568,215.0,21.769405364990234,26.240854263305664,-79.78283350792577,40.458926844167344,291.20694064331053,0.005577062256634235,-0.04782027378678322,0.8950784802436829,0.4433021545410156,0.006759143000903675,-0.03757042488572453,2.2614821342169344,0.1039303094148636,0.2124355435371399,-0.004269356839358807,-0.6521952179074287,0.4171660193055868,-9.668430722951893
30.7,6.5,215.0,21.78067398071289,26.75771903991699,-79.78283350175937,40.45892647470522,291.6089296264648,4.653603173210286e-05,-0.034421786665916436,0.8930022716522217,0.44873398542404175,-0.028957559187346063,0.06975517184737717,2.2048479734600686,-0.04427244886755943,0.0017869961448013785,0.009448758326470852,-0.4891173235327005,0.5956898089125753,-9.427114378809927
30.8,6.300000190734862,210.0,22.021068572998047,17.54161262512207,-79.78283362848927,40.45892629142022,291.8266019744873,0.00040124903898686165,-0.03133029490709305,0.8913360834121704,0.4522591829299927,-0.006898793420910952,0.07853447144418277,2.1577641446686915,0.028851114213466644,0.06871110200881958,0.122811459004879,-0.526822326220572,0.3716147110238672,-9.31082495391369
31.0,6.199999809265138,212.0,22.170061111450195,19.784013748168945,-79.78283382718794,40.45892592032418,292.16261958312987,0.01634508743882179,-0.01903199590742588,0.8977639079093933,0.4397619366645813,-0.034606885880622565,0.1103702665701726,1.6026085400798042,-0.22132956981658936,0.07512976229190826,-0.4671794176101685,-0.5225784171000123,0.4167264914140105,-7.747956596016884
31.2,6.099999904632568,214.0,22.127492904663086,20.07027816772461,-79.78283391245293,40.45892578445624,292.30926608276366,0.017196914181113243,-0.016033044084906578,0.9085347652435304,0.4171472489833832,0.0005894676497106723,0.10735030248832456,1.3508444899494472,0.23103539645671844,0.02004167623817921,-0.5407348275184631,-0.3649001705646515,0.2831004192866385,-7.313895558714867
31.31,6.0,214.0,22.002286911010746,21.70834350585937,-79.78283386780254,40.45892570558132,292.4076509399414,0.01176073867827654,-0.014078562147915363,0.9208046197891236,0.3895924985408783,-0.025966597100377287,0.08420824716754734,1.1570136185107158,0.08678288012742996,-0.06560617685317993,-0.7555787563323975,-0.4158631134778261,0.602100221067667,-7.6366121613979345
31.5,5.9000000953674325,193.0,21.964725494384766,23.10785484313965,-79.78283385966992,40.45892557652711,292.57993029785155,-0.0005263109342195094,-0.01894374005496502,0.9449914693832396,0.32654574513435364,-0.030820878228007737,0.017023325559133697,0.8410134871885809,-0.005271744448691607,-0.04072963818907738,-0.6032363772392273,-0.7868994252383711,0.12453576226718725,-8.085150904655457
31.6,5.800000190734862,187.0,21.958465576171875,23.20327568054199,-79.78283384468855,40.458925536192176,292.65652751159666,-0.0013729939237236974,-0.02146543003618717,0.956474244594574,0.2910230457782745,-0.030305648721205163,-0.01908164167338777,0.7017193841144815,-0.09279973804950714,0.023807292804121968,-0.6797440052032471,-0.6694834611564875,0.196419631652534,-8.354512833952905
31.71,5.699999809265138,189.0,21.92340850830078,23.577009201049805,-79.78283372961684,40.458925583293606,292.7437124176025,0.003148338291794061,-0.023504601791501045,0.9769510626792908,0.21214203536510468,-0.02263586322798729,-0.051868126933740134,0.5142399398616946,-0.18059930205345154,0.003962711896747351,-0.8113951086997986,-0.5975192930549383,0.19130923826247453,-8.913487354516981
31.9,5.599999904632568,190.0,21.94719696044922,23.592912673950195,-79.78283354091162,40.45892571435318,292.7807493133545,-0.0026962473057210445,-0.027990905568003654,0.99150288105011,0.12700970470905304,-0.008603385134181848,-0.07364284571828744,0.3372571319933472,0.06377559900283812,0.011297285556793213,-0.8894251585006714,-0.6563330000638962,0.0204352101450786,-8.881041739583015
32.01,5.5,170.0,21.785682678222656,25.93868637084961,-79.78283350280924,40.45892576666665,292.81118487548827,-0.006481558550149202,-0.028302133083343506,0.9960336685180664,0.0841066762804985,-0.022801993124904447,-0.08250881491761076,0.27309383378088703,-0.06715676188468933,-0.013988571241497992,-0.8971302509307861,-0.7401239658147097,-0.08249858491122722,-9.109839195013047
32.2,5.5,165.0,21.832008361816406,25.80350685119629,-79.78283346537866,40.45892582672784,292.83656977844237,-0.008551966398954391,-0.02849646843969822,0.9987466335296632,0.04024893790483475,-0.028005379901728997,-0.08496206586360898,0.2290080489723613,-0.06394962221384047,0.0032547824084758767,-0.9134600758552552,-0.608093068934977,-0.030353800943121317,-9.321069860458373
32.4,5.400000095367432,172.0,21.76815414428711,26.82928466796875,-79.7828331947464,40.45892602613415,292.8310670776367,0.011027369648218157,0.029856871813535687,-0.9982644319534302,0.049549855291843414,-0.038953355008736264,-0.08055734495031394,0.17777612373683618,0.016789648681879044,-0.025203682482242584,-0.9080781936645508,-0.5720603699237109,-0.2690499437972904,-9.615916879177094
32.51,5.400000095367432,176.0,21.80070686340332,25.93868637084961,-79.7828330513549,40.45892619310354,292.8096628112793,0.016263829544186592,0.02954203076660633,-0.99483984708786,0.09569025039672853,-0.03668090574579458,-0.08391843116536023,0.1874404624259508,0.06299454718828201,0.0990862473845482,-0.8939793109893799,-0.5515366429835559,-0.1861155951395631,-9.762344607710839
32.6,5.5,164.0,21.80070686340332,25.92278289794922,-79.78283300561392,40.4589263366988,292.8477735443115,0.026246014982461933,0.026430876925587654,-0.9804651141166688,0.19313400983810425,-0.05224154353836637,-0.085101876668642,0.18055465951955474,0.004586862400174141,0.045108612626790986,-1.1061400175094604,-0.6961523193866015,-0.3391587538272143,-9.631787976622581
32.8,5.400000095367432,163.0,21.38126945495605,33.71552276611328,-79.78283260912734,40.45892635683835,292.83959864807133,0.04321689531207085,0.028947191312909126,-0.955094575881958,0.2916997969150543,-0.030953896215277162,-0.08269683977253332,0.2278194113074891,0.12298869341611862,-0.010453576222062113,-1.2034627199172974,-0.5501093376427889,-0.3801580412685872,-10.139167835712431
33.0,5.300000190734863,172.0,21.584102630615234,30.05770492553711,-79.78283184185563,40.45892620784427,292.84212016296385,0.05025384947657585,0.028359610587358475,-0.9381800889968872,0.3413040041923523,-0.03565433804176299,-0.05237282466655817,0.3387843387325321,0.03413686528801918,-0.01874720118939877,-0.9608547687530518,-0.4724927392601967,-0.7229639958590269,-10.404610376358033
33.1,5.300000190734863,178.0,21.637939453125,28.483253479003906,-79.7828318962865,40.45892622946961,292.8789606018066,0.052215751260519035,0.028449220582842823,-0.9186469912528992,0.39057889580726624,0.000563768970652329,-0.058002983280025865,0.3976175237471346,0.009300152771174908,-0.08970052748918532,-1.192100167274475,-0.3211343826726079,-0.7143820374459029,-10.3097018802166
33.21,5.400000095367432,175.0,21.82699966430664,24.93676376342773,-79.78283203454387,40.45892655798273,292.76246737670897,0.04663046076893808,0.033467955887317664,-0.8713853359222412,0.4872300326824188,0.05187052758318572,-0.0953149695105717,0.43168435139497663,-0.08665324747562407,-0.13305357098579407,-0.9601225852966307,-0.3496634594723582,-0.8687124241143466,-10.290001441240314
33.4,5.5,169.0,21.944692611694336,23.068096160888672,-79.78283216627858,40.45892664206968,292.6456727905273,0.04632970318198204,0.03317888081073761,-0.8131225109100342,0.5792965888977051,0.085745256949674,-0.1059506226048358,0.3266086609077793,-0.07240086048841476,0.06486724317073822,-1.0940449237823486,0.024463729311246424,-0.4971732152625918,-9.539590834379196
33.5,5.5,182.0,21.982254028320312,22.73412132263184,-79.78283234371983,40.45892656212443,292.67429637145995,0.04831117391586304,0.03242366388440132,-0.7804487943649292,0.6225065588951111,0.09718021488450806,-0.10907809624066477,0.2709250052631447,-0.12303878366947175,-0.08063551783561708,-1.0975133180618286,-0.02384236900135875,-0.6168080149590971,-9.198116948604584
33.7,5.5,189.0,21.924659729003906,23.65652656555176,-79.7828325145063,40.45892646046475,292.6965475006104,0.049912724643945694,0.03015567921102047,-0.7463555335998535,0.6629878282546997,0.12721542908800865,-0.10738756705490568,0.2068672819400692,-0.06141243875026702,0.05040435492992401,-1.1832962036132812,0.1560762556269765,-0.6223347301036121,-9.155628740787506
33.9,5.599999904632568,183.0,21.723079681396484,27.60060691833496,-79.78283287344915,40.45892633270846,292.58978747558587,0.05079197511076927,0.024524930864572525,-0.6764402389526367,0.7343346476554871,0.1552101175780521,-0.1203978978360607,0.04309173717044976,-0.17978833615779874,0.06994185596704483,-1.1248290538787842,0.26820832846686243,-0.4903654482588172,-9.201289647817612
34.0,5.599999904632568,179.0,21.77190971374512,26.40784072875977,-79.78283293252996,40.45892593796132,292.5378770751953,0.0516810417175293,0.0201896782964468,-0.6442034840583801,0.7628389596939087,0.20545494196362207,-0.12399057292814425,0.02210883849263288,-0.10600638389587402,0.0490286648273468,-0.8457503914833069,0.3972501835227013,-0.6649925802648068,-9.481782336831094
34.1,5.599999904632568,190.0,21.77316093444824,26.01820373535156,-79.78283313334802,40.458925509197,292.5372838897705,0.051012229174375534,0.014813334681093691,-0.5905671715736389,0.8052383065223694,0.22579972237139764,-0.12946266561206965,0.04885087234769882,-0.07238859683275223,-0.010842004790902138,-0.5248088240623474,0.6258169662952423,-0.5945795322954655,-10.045367971658706
34.31,5.599999904632568,196.0,21.86330986022949,25.42977333068848,-79.78283338828355,40.458925388842744,292.47432421875,0.0528210923075676,0.01675802282989025,-0.5542724132537842,0.8304885029792786,0.24226652703863125,-0.13470215017474332,0.08257970201241564,0.11970479786396028,0.036255501210689545,-0.20596295595169067,0.7907193381339312,-0.4901935035735369,-10.06621797323227
34.4,5.800000190734862,198.0,21.710559844970703,27.9345817565918,-79.78283357789597,40.45892506873113,292.3906145019531,0.056365285068750375,0.015440410934388638,-0.5435852408409119,0.8373169898986816,0.274066220660667,-0.15452759111965386,0.05571516905069651,-0.056388445198535926,0.08633866906166078,-0.3319771885871887,0.9292803689092398,-0.4902970723807812,-9.766692012548448
34.6,5.9000000953674325,199.0,21.66798973083496,28.41168785095215,-79.78283358818949,40.45892476815252,292.39186572265623,0.0574943907558918,0.02434872463345528,-0.5356354117393494,0.8421379327774048,0.31560009975030473,-0.11103632732564613,0.043566098902040495,0.244976669549942,-0.296810507774353,-0.33201101422309875,1.096943357437849,-0.0566098914295435,-9.626184005141258
34.8,6.0,208.0,21.684267044067386,27.735788345336914,-79.78283373173767,40.45892441778004,292.2824430389404,0.02241810224950314,0.06607650220394135,-0.5260143876075745,0.8476085066795349,0.3520797848625285,0.04920269987630796,0.07054900871437128,-0.2853839993476868,-0.6994220018386841,-0.19253136217594147,0.9088736593723298,-0.8518633798509837,-10.188286786079408
34.91,5.9000000953674325,212.0,21.690526962280273,27.61651039123535,-79.78283322522705,40.458923902353895,292.2065973205566,-0.03052862547338009,0.0671800747513771,-0.5212244987487793,0.8502234220504761,0.4247072601219058,0.33658203583587765,0.18381972652946432,-0.3952274918556213,-0.3018423020839691,-0.14438821375370026,0.8287566453963519,-0.5104997140914203,-10.472462636232377
35.0,6.099999904632568,198.0,21.85204124450684,24.491464614868164,-79.78283250738559,40.4589237205654,292.2194318695068,-0.04515316337347031,0.06290657818317412,-0.519920289516449,0.8506978750228882,0.4437455538396656,0.5396371702891501,0.25027260913494503,-0.16751010715961456,-0.0751342922449112,-0.2508416771888733,0.9615208196640016,-0.17187291070818905,-10.320512212514878
35.2,6.099999904632568,196.0,21.686769485473643,27.34615135192871,-79.78283154747831,40.45892362413385,292.2347383422852,-0.04949500039219856,0.0611615926027298,-0.5194170475006104,0.8508909940719604,0.4583381188996156,0.7600152171132737,0.2961334064416431,0.11421651393175125,-0.09913201630115508,0.1709369570016861,0.7224365770071746,-0.6351855213940144,-10.172038543224335
35.4,6.099999904632568,199.0,21.590362548828125,29.469274520874023,-79.78282911554611,40.458923785782254,292.2122564239502,-0.05182240530848503,0.060478769242763526,-0.5222316384315491,0.8490765690803528,0.4138706318615751,1.2249072476373457,0.3259552354163102,-0.08329590409994125,0.04034548997879028,0.08294249325990677,1.0285130272060634,-0.5475857890024781,-9.93805051445961
35.5,6.199999809265138,200.0,21.644201278686523,28.1015682220459,-79.7828277839742,40.458923936690454,292.1664819641113,-0.05348879471421242,0.05827512219548225,-0.5246042609214783,0.8476635217666626,0.3828859463116603,1.4386057769187368,0.2814889854592092,-0.006722042802721262,-0.04715553298592568,0.20334123075008392,1.079967136234045,-0.8598561581969262,-9.757196719050409
35.6,6.300000190734862,201.0,21.607891082763672,29.48517799377441,-79.78282378636506,40.458924757273294,292.1752996368408,-0.06460282951593399,0.05752935260534287,-0.5278918147087097,0.8448948264122009,0.2913369702619307,1.9436940247061605,0.3723219799569158,-0.06750676035881042,-0.024559417739510536,0.07727131992578506,1.0459571718424558,-0.6388251938670874,-10.098305153846741
35.81,6.300000190734862,203.0,21.666736602783203,28.26060485839844,-79.78282182956417,40.4589250954504,292.12813090515135,-0.07041716575622559,0.05765240639448167,-0.5284885168075562,0.8440483808517456,0.2338413044391805,2.162659761599813,0.4296955457854784,-0.1724376678466797,-0.04271082952618599,-0.1503286212682724,0.9012526177614928,-0.3171093421429396,-10.161294869184497
35.9,6.199999809265138,204.0,21.72683525085449,26.9724178314209,-79.7828167719903,40.45892633899509,292.0825452728272,-0.08476097136735916,0.06416449695825578,-0.5250270366668701,0.8444200754165649,0.17139708119717026,2.6942735480199094,0.5215297951798701,-0.12869450449943542,-0.24139708280563354,-0.24801428616046906,0.972956438586116,-0.4505466771125794,-10.081361092329026
36.1,6.199999809265138,205.0,21.809471130371094,25.326400756835927,-79.78281019987719,40.45892849460089,292.0834264678955,-0.09230194985866548,0.06746558099985123,-0.5150967240333557,0.8494728803634644,0.14369053551715533,3.220571351070384,0.7686538634650937,-0.08349061757326126,0.19999925792217246,-0.2330669611692429,0.5818954962864519,-0.29896192364394664,-10.172775292396546
36.3,6.099999904632568,200.0,21.895862579345703,23.74399757385254,-79.78280684267494,40.45892947268775,292.041951171875,-0.08993536978960037,0.061215218156576164,-0.5116966366767883,0.8522505760192871,0.18995410746608585,3.461828052274065,0.7642228402928073,-0.06946190446615219,0.08135693520307541,-0.17770074307918549,0.6309785959124565,-0.18399727681651712,-9.845890209674836
36.4,5.9000000953674325,200.0,21.58660697937012,29.25457572937012,-79.78280290020922,40.45893085742191,292.03442095947264,-0.08834289014339447,0.05782526358962059,-0.5106732845306396,0.8532670736312866,0.1990880148188342,3.7309961957930846,0.7186930822039244,-0.012132041156291962,0.05828578025102616,0.08593884855508804,0.5319516865164042,-0.31185960229486226,-9.595151662230492
36.6,5.699999809265138,199.0,21.62541961669922,27.44157218933105,-79.78279447755358,40.45893354836528,291.97092913818364,-0.09148121625185013,0.045753255486488335,-0.5146661996841431,0.8512676954269409,0.1421628470541048,4.213623882005258,0.7082395571298895,-0.2296358942985535,0.11606170237064364,0.12166433036327362,0.5474912102892995,-0.3936999003589153,-9.904683963060382
36.7,5.5,199.0,21.63167953491211,28.14132881164551,-79.78278478188015,40.458936767186216,291.90598582458495,-0.0982988178730011,0.034132800996303565,-0.5192867517471313,0.8482415080070496,0.05182103356198193,4.703932500315045,0.7604099972668446,-0.08106338977813721,0.0185295008122921,-0.12994906306266785,0.5463654750958086,0.12349410820752382,-10.082745712995527
36.9,5.0,201.0,21.536523818969727,30.145174026489247,-79.78277966074997,40.45893876922144,291.8871316833496,-0.09678933024406433,0.03830311447381973,-0.5218491554260254,0.8466630578041077,-0.006109369491164763,4.925237691150468,0.8303595034461798,0.16384750604629514,-0.0368223562836647,0.06981424987316133,0.3742300244048238,-0.3349542768672109,-10.230134139060974
37.01,4.800000190734863,200.0,21.44512367248535,31.838903427124023,-79.78277397503747,40.45894041335655,291.8524694366455,-0.0927131399512291,0.03825047239661217,-0.5248781442642212,0.8452480435371399,-0.0610614098382588,5.133172776432836,0.9185071418537142,-0.05435408651828767,0.13861428201198578,-0.018485473468899727,0.25834871688857675,-0.15623170020058752,-10.274583503007893
37.2,4.199999809265137,195.0,21.254812240600586,35.305877685546875,-79.78276264301559,40.45894504314889,291.83487796020506,-0.09018748998641968,0.025394914671778682,-0.5294818282127379,0.8431312441825867,-0.2498166253262114,5.568718120075968,1.0867127069656284,-0.14475294947624207,0.14454297721385956,-0.11102022230625153,0.21947158500552172,0.04566377582028509,-10.89854222416878
37.3,4.0,193.0,21.408815383911133,32.79311752319336,-79.78275627730544,40.458947234775074,291.7865571899414,-0.08796761184930801,0.01957235112786293,-0.5319796204566956,0.8419479727745056,-0.2911758279200956,5.767874244395705,1.18410751964715,-0.036032319068908684,0.11219878494739532,0.04288093000650407,0.2539345989748836,-0.1643593116849661,-11.379759886264806
37.4,3.5,188.0,21.427595138549805,32.49094772338867,-79.78274324823383,40.45895265966127,291.7750654144287,-0.08383557200431824,0.02126649767160416,-0.5321539640426636,0.8422181606292725,-0.4545361319127492,6.161207048778437,1.3808307356900595,0.0938320979475975,-0.06293999403715134,-0.06609748303890227,0.1819258823990822,-0.03638294722884894,-11.161666928529739
37.61,3.299999952316284,184.0,21.64169692993164,27.44952392578125,-79.78272998632455,40.45895860413303,291.85790156555174,-0.0786847397685051,0.031252440065145486,-0.5259886980056763,0.8462671041488647,-0.5482586662870894,6.5157190331535055,1.6025878713115602,-0.012997271493077278,-0.025629190728068352,-0.143918976187706,0.016110257701948287,-0.20216954598203304,-10.522013111114502
37.7,2.700000047683716,173.0,21.6279239654541,28.061809539794922,-79.78272258880794,40.45896178409192,291.8375005645752,-0.07820756733417511,0.03390180692076683,-0.5225427150726318,0.8483415246009827,-0.5396139618310704,6.707709202393326,1.6003605447587563,-0.017580725252628326,0.00516229635104537,-0.10509222000837326,0.1320046483632177,-0.09113296726718544,-10.220172822475432
37.9,2.5999999046325684,167.0,21.652965545654297,28.06976127624512,-79.78271553278695,40.458965036355686,291.88243197631834,-0.07919847220182419,0.03355870768427849,-0.5190933346748352,0.8503785133361816,-0.521097793785429,6.872210287295027,1.6425450758972469,0.06276524811983109,0.01949856430292129,-0.024628126993775368,0.06045082232449204,-0.3711692993715406,-10.116176583766936
38.1,2.5,150.0,21.580345153808594,28.85698699951172,-79.7827002955887,40.45897169460515,291.8648099822998,-0.08204082399606705,0.03245722129940986,-0.5159465074539185,0.8520652055740356,-0.4900494435355897,7.237148627242231,1.6422065709646112,-0.04627913981676102,0.008148163557052612,-0.05622954294085503,-0.06017268672119825,-0.13690916494466365,-9.95894144654274
38.2,2.4000000953674316,144.0,21.713064193725586,26.04205894470215,-79.78269275327163,40.458975234967646,291.9033250732422,-0.08468001335859299,0.03302272036671638,-0.5163045525550842,0.8515682220458984,-0.5055278713799762,7.377736763084925,1.7206018622317787,0.031950347125530236,0.009923774749040605,0.03901812806725502,-0.12777092618867755,-0.10615355065092444,-10.203511766195298
38.3,2.4000000953674316,130.0,21.53902816772461,29.62830924987793,-79.78267670947021,40.45898229613281,291.86489390563963,-0.06400983035564423,0.026462003588676453,-0.5232294201850891,0.8493723869323729,-0.6054147530308358,7.637733867922182,1.6827201591248628,0.06586304306983948,0.40939629077911377,0.012945123016834259,-0.3552017228677869,-0.04181067997589708,-10.051603442430496
38.5,2.5,124.0,21.607891082763672,28.316267013549805,-79.7826599161155,40.458989773431036,291.8701715393066,-0.034397248178720474,0.01832798309624195,-0.5319900512695312,0.8458531498908997,-0.7752148603371778,7.907806499667733,1.1766311455584098,0.057354498654603965,0.1390678584575653,0.10909045487642287,-0.15958688735961915,-0.26858512669801715,-9.949127479791642
38.7,2.799999952316284,119.0,21.76815414428711,24.96061897277832,-79.78265185000504,40.458993600737145,291.9052400512695,-0.030359363183379173,0.015956629067659378,-0.5332707762718201,0.8452491164207458,-0.8850463430357938,7.979521113019228,0.963869761393686,-0.08359923958778381,-0.03695322200655937,-0.047112125903367996,-0.14693420704454185,0.04894101228564978,-9.635459443330763
38.8,3.0,116.0,21.74186134338379,25.62856674194336,-79.78264290501765,40.458997645567656,291.9036416931152,-0.033847685903310776,0.016831444576382637,-0.5323646664619446,0.8456707000732422,-0.9066585897221321,8.064282695487657,0.8181677828226938,0.07840314507484436,-0.15445098280906674,0.04460597410798073,-0.2545045380480588,-0.26246053375303746,-9.358627111315727
38.9,3.4000000953674316,110.0,21.629175186157227,27.48928260803223,-79.78262583382288,40.45900567274024,291.9760866088867,-0.04069875553250313,0.02164058946073056,-0.5264507532119751,0.8489551544189453,-0.8825849832837634,8.14960041593196,0.9280526263345501,-0.018707992509007454,0.0768323466181755,-0.09131556749343872,-0.4952772921323776,-0.07418596386909486,-9.414635251164436
39.11,3.5,108.0,21.785682678222656,25.000377655029297,-79.78260930994307,40.45901363442704,292.0117254180908,-0.037497904151678085,0.025700837373733517,-0.5184774398803711,0.8538820743560791,-0.8020385573972532,8.248012182751895,0.8805766797949321,0.041278425604105,-0.0696646049618721,-0.06486912816762924,-0.3991695320606232,-0.18764524502679705,-9.469359927177427
39.2,3.9000000953674316,99.0,21.75062561035156,25.032184600830078,-79.78260020981676,40.45901787330155,292.05062770080565,-0.03642374649643898,0.024106526747345924,-0.5139198899269104,0.8567255735397339,-0.7577510966604558,8.318740448035026,0.8768649102821067,0.01755635254085064,0.07541520893573761,-0.020708415657281886,-0.3891457964479924,-0.4037594501674176,-9.389251318573953
39.4,4.0,96.0,21.662981033325195,26.702056884765625,-79.78259185920999,40.45902196278261,292.06128215026854,-0.0315275639295578,0.02547370083630085,-0.5111378431320189,0.8585425615310669,-0.6974114605042105,8.361951590808863,0.8195835541764023,-0.020521525293588642,0.09449005126953124,-0.16107632219791412,-0.6466261104494334,0.07130710551515222,-9.357296869754792
39.6,4.400000095367432,92.0,21.850788116455078,24.06206703186035,-79.78257436417722,40.459030353592304,292.1016454620361,-0.003802950959652663,0.041351623833179474,-0.5140129923820496,0.8567767143249512,-0.5951794656519369,8.412332363425993,0.590174634459256,0.34837353229522705,0.260210782289505,0.027874799445271492,-0.6162974799424411,-0.009529134258627892,-9.495970605611802
39.7,4.599999904632568,90.0,21.819488525390625,23.50544357299805,-79.7825659499093,40.459034413065865,292.10588549804686,0.008681438863277434,0.04686031118035317,-0.5190428495407104,0.8534185886383057,-0.6009291469464157,8.394625129673187,0.38173934795492703,0.21777977049350736,0.1697244495153427,0.1717683970928192,-0.6574953534454108,-0.35286682002246383,-9.22758340716362
39.8,5.099999904632568,90.0,21.848285675048828,23.09990310668945,-79.7825483030432,40.4590425576147,292.13305567932133,0.004471727181226015,0.03430844843387604,-0.5296579003334045,0.8475055694580078,-0.7509826721371275,8.325660899745436,0.10052799998759678,-0.3532498180866241,-0.028629517182707787,0.12699280679225922,-0.9121020533144476,-0.4573436267673969,-9.349170994162561
40.01,5.300000190734863,92.0,21.958465576171875,22.51942443847656,-79.78253079193213,40.45905077122203,292.1495847625732,-0.011373640038073065,0.02544317953288555,-0.5371569395065308,0.843021810054779,-0.8699313039472062,8.233910053063187,0.16827598339351987,0.030051764100790024,-0.0676988884806633,-0.09503669291734697,-0.5684340729564429,0.1745547727122903,-9.288658744096756
40.11,5.699999809265138,92.0,21.88960266113281,23.09990310668945,-79.78252247267245,40.45905464705203,292.1357316894531,-0.016562275588512417,0.030468199402093887,-0.5380658507347107,0.8421891927719116,-0.90080925511279,8.19251923376943,0.17900211751127956,0.15860603749752045,-0.08051104843616486,-0.06409924477338791,-0.9400419500470162,-0.0019429566711187363,-9.037236072421074
40.31,5.9000000953674325,92.0,21.884593963623047,23.34640884399414,-79.78251343085536,40.45905883215521,292.14008044433587,-0.01924435794353485,0.034032952040433884,-0.5377863645553589,0.8421741724014282,-0.9445905014928094,8.17962724694806,0.2631644280778203,0.025478970259428024,-0.08710712939500809,0.08041439205408096,-0.8012064655870199,-0.2560473807156086,-9.06815673351288
40.5,6.199999809265138,91.0,21.844528198242188,23.03628921508789,-79.7824961089962,40.45906678405994,292.11853312683104,-0.017190735787153244,0.02792748250067234,-0.5339924097061157,0.8448531627655029,-0.9239731529990634,8.129218326723873,0.2467159124604821,-0.18245796859264374,0.05965109169483185,0.005300617776811123,-1.0424713542312385,-0.4208486688137055,-9.269262945055964
40.6,6.300000190734862,88.0,21.890853881835934,22.082077026367188,-79.78247974774355,40.459074442931964,292.0599489135742,-0.005075505003333093,0.01982274278998375,-0.5316130518913269,0.8467402458190918,-0.8330195875707725,8.061742433009519,0.026663889348894368,-0.00959721580147743,0.1340208202600479,-0.07446595281362534,-1.0030705493688583,-0.38628778707236056,-9.575727796554565
40.7,6.599999904632568,86.0,21.845781326293945,23.56905746459961,-79.78247073084222,40.45907853132231,292.0805673522949,0.00446113059297204,0.02066531218588352,-0.530628502368927,0.8473408222198486,-0.7929510845536613,8.030249197018067,-0.07295372839530348,0.1683351844549179,0.2229691594839096,-0.0239639226347208,-0.6437214329838753,-0.2734594387561083,-9.458639057278633
40.9,6.699999809265138,87.0,22.07740974426269,19.354618072509766,-79.78246264356008,40.459082314106695,292.0510950012207,0.008644203655421734,0.022586636245250702,-0.5298230648040771,0.8477633595466614,-0.7666939925006729,7.991438163885232,-0.2131770359018809,0.005621515214443207,-0.11398883163928986,-0.0022679960820823912,-0.7005350267887116,-0.35696045570075513,-9.530928769111632
41.1,6.9000000953674325,92.0,21.81447982788086,23.799659729003906,-79.78244557396188,40.459090110580405,292.05229090881346,-0.005841410253196955,0.029360229149460793,-0.5266203284263611,0.8495734333992004,-0.6988978870111245,7.92108245334435,-0.18724166369122605,-0.06448720395565033,-0.1661684215068817,-0.04565319791436195,-0.9350199957937004,-0.18920668914914127,-8.976163074374199
41.2,6.800000190734862,91.0,21.898366928100586,22.535327911376953,-79.7824375918297,40.459093801950964,292.01415156555174,-0.007702114526182412,0.03223307803273201,-0.5250474810600281,0.850427508354187,-0.6305589397194545,7.870148589766175,-0.12746142679747624,0.10694989562034607,-0.028756814077496525,0.16502444446086886,-0.8937985872477293,-0.30371834121644503,-8.97142332136631
41.3,6.800000190734862,93.0,21.756885528564453,25.366159439086914,-79.78242090523281,40.45910133977951,291.9523134155273,0.001914600608870387,0.023499170318245888,-0.5225232243537903,0.8522989749908447,-0.5694773157532792,7.816385100248072,-0.19131467584601308,-0.16254189610481262,0.15245534479618073,-0.08691047132015227,-0.649194280654192,-0.2017980102449656,-9.36993621110916
41.5,6.699999809265138,93.0,21.554052352905273,29.15915489196777,-79.78241239483228,40.4591051232853,291.92647074890135,0.0060485615395009535,0.016623938456177708,-0.5216807723045349,0.8529574275016785,-0.523324170485599,7.781538065610698,-0.2838205850105199,0.01893007755279541,0.17308969795703888,-0.17237256467342374,-0.497724278792739,-0.2719262805394829,-9.856711066961287
41.6,6.5,96.0,21.670494079589844,26.781574249267567,-79.78239674035105,40.45911229087235,291.84351443481444,0.006346278823912144,0.016184816136956215,-0.5212879776954651,0.8532038331031799,-0.4969043054526207,7.6683392106075745,-0.3873136020137825,0.029752312228083614,-0.07470538467168808,-0.07259964197874069,-0.4357245336100459,-0.2697987163066864,-10.138904711008072
41.8,6.5,96.0,21.838268280029297,24.141586303710927,-79.78238091020013,40.459119623440586,291.7991208953857,-0.004956868011504412,0.028287477791309364,-0.5199079513549805,0.8537395000457764,-0.48583296671719395,7.602745538661265,-0.1650903476588187,0.06629760563373566,-0.10475560277700424,-0.13912595808506012,-0.811300660148263,-0.3902935683354736,-9.911203608512881
41.9,6.4000000953674325,97.0,21.51774406433105,30.145174026489247,-79.78237297794445,40.459123183032276,291.709317199707,-0.011996381916105749,0.03403271734714508,-0.5185791254043579,0.8542678952217102,-0.4804897596793915,7.572726330438844,-0.024279747397857383,0.06187354773283005,-0.1924440562725067,-0.046779416501522064,-0.5957611449435354,-0.5388547996804118,-10.070744887590411
42.11,6.4000000953674325,99.0,21.73434829711914,26.08976936340332,-79.78236532659841,40.459126700026026,291.68284701538084,-0.017575403675436974,0.0359126478433609,-0.5171226263046265,0.854977011680603,-0.4611003501425674,7.559045161986036,0.16145583041011974,0.05285721644759178,-0.15844754874706268,0.13296155631542206,-0.7578343780338764,-0.5761562713980675,-10.173858196735383
42.3,6.199999809265138,94.0,21.376262664794922,33.03961944580078,-79.78234975878269,40.45913370814557,291.5560026092529,-0.02514103055000305,0.0396430753171444,-0.5117465853691101,0.8578529953956604,-0.4148291636690496,7.571688031701642,0.35018115265688105,0.09541985392570496,-0.03271334245800972,-0.1878553330898285,-0.5773239969089627,-0.1764402073994279,-10.125022251605989
42.4,6.099999904632568,94.0,21.45889663696289,31.36179542541504,-79.78234208144147,40.45913724267661,291.53802584838866,-0.026357810944318768,0.04341487213969231,-0.5079060196876526,0.8599139451980591,-0.36508834246791017,7.599797363359637,0.4775885604441055,0.06386168301105499,-0.00979648344218731,-0.2348180711269379,-0.500807771421969,-0.20487934671342373,-10.362780565023423
42.5,6.0,96.0,21.590362548828125,28.14132881164551,-79.78232662043976,40.459144276526686,291.4225492401123,-0.022130928933620453,0.04872151464223862,-0.5014510750770569,0.8635295033454895,-0.2443006747701334,7.629534063365138,0.6842170400210352,-0.04595639929175377,0.15180423855781555,-0.1173105463385582,-0.715882140621543,-0.4607800719514489,-10.647445242404938
42.7,5.9000000953674325,96.0,21.46014976501465,30.83697891235352,-79.7823108406151,40.459151399643524,291.3459405822754,-0.009786073118448256,0.04415203630924225,-0.4999098777770996,0.8648958802223206,-0.11624957819809115,7.669395669430803,0.6615677527145533,-0.028761018067598343,0.13203619420528412,0.10211875289678574,-0.6192614335566761,-0.5422229420766235,-10.549254119396213
42.9,5.800000190734862,94.0,21.467660903930664,30.192886352539066,-79.7823030135094,40.45915491832057,291.35765170288084,-0.004988889209926128,0.04044368863105774,-0.5015760660171509,0.8641532659530641,-0.08622474261242957,7.6817217513351075,0.6111271109373749,-0.11162014305591583,0.1360756903886795,-0.01704479567706585,-0.4866110607236624,-0.21920268617570396,-10.371332702636721
43.0,5.699999809265138,99.0,21.455141067504886,29.771442413330078,-79.78229500178412,40.459158436774324,291.2907857818604,-0.0035371321719139814,0.034478604793548584,-0.5031598210334778,0.8634980916976929,-0.08951260485364114,7.672815907114277,0.5261713999055964,-0.09586261957883836,0.03336471691727638,0.05929418653249741,-0.5327207050099969,-0.4745257430523634,-10.384975426197053
43.1,5.699999809265138,100.0,21.58785820007324,28.149280548095703,-79.78227935611784,40.45916537357664,291.3329400939941,-0.005033650901168585,0.02310311608016491,-0.5054026246070862,0.8625596761703491,-0.1012664837356603,7.6360665105301955,0.5335204476379779,-0.03401704505085945,0.035132046788930886,-0.035317093133926385,-0.4502755490317941,-0.2120283718407154,-10.300863229036333
43.3,5.599999904632568,100.0,21.690526962280273,25.83531379699707,-79.78226371297015,40.45917228064626,291.3111982269287,-0.0073489928618073455,0.01715824007987976,-0.5080075860023499,0.8611503839492798,-0.13359071739714698,7.5788347180376565,0.5144990500838453,0.12220441550016405,-0.015050113201141356,0.023751288652420044,-0.3623439871519804,-0.07505222886800766,-10.149584065675736
43.4,5.400000095367432,104.0,21.644201278686523,27.12350082397461,-79.7822560008638,40.45917574389444,291.2479543609619,-0.006474330555647612,0.020565293729305267,-0.5097266435623169,0.860066294670105,-0.166739695833057,7.541703220407474,0.4435840380507301,0.10692043602466583,-0.08421020209789276,0.07651915401220323,-0.4949901938438416,-0.2947254879958928,-9.861015787124632
43.6,5.400000095367432,102.0,21.550296783447266,28.89674568176269,-79.78224829082626,40.459179166811964,291.2701063079834,-0.008313116617500782,0.0237625539302826,-0.5111323595046997,0.8591333031654358,-0.20373936805447346,7.527287390169977,0.4466402765795829,0.032800443470478065,-0.12779806554317474,0.09468306601047516,-0.5057576221972704,-0.3881726370379329,-9.714771076440812
43.8,5.300000190734863,101.0,21.58660697937012,27.97434043884277,-79.78223296884016,40.45918589237653,291.2289762420654,-0.013463005423545836,0.02463703975081444,-0.5129927396774292,0.8579337596893309,-0.24751156566708515,7.4772998088337115,0.521502004101058,0.007318301126360894,-0.04394329339265824,-0.021714424714446068,-0.5955386218428612,-0.3709034337848425,-9.961130644083022
43.9,5.199999809265137,100.0,21.607891082763672,27.76759529113769,-79.78222533121127,40.45918928724467,291.24842166137694,-0.013543521054089071,0.023577984422445297,-0.5132262706756592,0.857822597026825,-0.2656121881213446,7.473271324390228,0.5652111786388142,0.0012414498487487435,-0.050519201904535294,0.051583889871835716,-0.5485979054868222,-0.523206006065011,-10.071947075128557
44.0,5.199999809265137,98.0,21.606639862060547,27.86301612854004,-79.78221015867484,40.45919600162725,291.2487001342773,-0.017775924876332283,0.021362965926527974,-0.5135724544525146,0.8575961589813232,-0.28945326815566713,7.4465177843230865,0.5859153666988183,-0.006648865062743425,0.02007307112216949,0.013180328533053398,-0.5489184790849686,-0.27491733234375715,-10.032273716926577
44.2,5.199999809265137,98.0,21.770658493041992,24.793630599975586,-79.78219477637818,40.45920265163195,291.26938342285155,-0.0201537124812603,0.028951793909072883,-0.5143647789955139,0.8568457365036011,-0.28423315883551464,7.446805805240147,0.5763093370641568,0.1386372596025467,-0.0876503586769104,0.13628466427326202,-0.3409944871813059,-0.5711139980703592,-9.525951619148255
44.3,5.199999809265137,98.0,21.733097076416016,25.33435249328613,-79.78218716227087,40.459206053181795,291.28289317321776,-0.022764431312680244,0.03175058960914612,-0.51459801197052,0.856541097164154,-0.30789878498113016,7.461867347035892,0.5894574280164349,-0.055177558213472366,-0.05883995071053505,0.018528198823332787,-0.6496119180321693,-0.20392259605228905,-9.33338877439499
44.51,5.199999809265137,98.0,21.811975479125977,22.85339736938477,-79.78217944000029,40.45920952426251,291.31388758850096,-0.02504577301442623,0.03208180516958237,-0.5148388743400574,0.8563202619552612,-0.3293195324467877,7.4661276366307545,0.6280203927505971,-0.03013206459581852,0.04307258129119873,-0.08682972192764282,-0.5025362814590335,-0.24811274562031035,-9.435544894337657
44.7,5.199999809265137,95.0,21.584102630615234,27.751691818237305,-79.78216415336405,40.459216394282215,291.3276128692627,-0.02769238315522671,0.02780103124678135,-0.5143206715583801,0.8566998839378357,-0.34331433724293176,7.513128392322246,0.5996644280058708,-0.0962204709649086,0.03219856321811676,0.0995229110121727,-0.6967232999950648,-0.33888298451900484,-9.376608468890188
44.8,5.199999809265137,95.0,21.74060821533203,24.777727127075195,-79.78214880196474,40.45922324753757,291.38452433776854,-0.026383379474282258,0.030098779127001762,-0.5142318606376648,0.8567168116569519,-0.3369933844164815,7.545483996781365,0.6036022792373328,0.08804914355278015,-0.12993134558200836,0.06396125257015227,-0.4905320573598146,-0.3618398840725422,-9.610845004320145
44.9,5.199999809265137,94.0,21.736852645874023,25.382062911987305,-79.78214109066792,40.459226720095465,291.4391050262451,-0.025727834552526474,0.03520381450653076,-0.5142576098442078,0.8565266728401184,-0.35199653407307785,7.552565519744173,0.6163669836405696,0.020791418850421902,-0.04203822836279869,-0.001676384126767516,-0.5613213005661964,-0.2374291151762009,-9.452448610067368
45.1,5.199999809265137,93.0,21.74186134338379,25.07194328308105,-79.78212564720619,40.4592336874034,291.44007395935057,-0.02754622884094715,0.039118360728025436,-0.5146701931953429,0.8560523986816406,-0.3304907235300204,7.59969162183005,0.5861476678851133,0.02801438048481941,-0.05206112936139107,0.138661727309227,-0.4830999904498458,-0.05423097001388669,-9.334120261073114
45.2,5.199999809265137,89.0,21.725584030151367,25.461580276489247,-79.78211771553521,40.45923715535796,291.4864854736328,-0.03054356947541237,0.038714151829481125,-0.5163320899009705,0.8549675941467285,-0.3152770728147937,7.620584560952477,0.6181057746657814,0.020383501425385475,-0.0687340721487999,0.12174510955810547,-0.5901899909600615,-0.4221828937903047,-9.331672031879426
45.4,5.199999809265137,88.0,21.624168395996094,27.3063907623291,-79.78210990169694,40.45924063451167,291.48001193237303,-0.03427983447909355,0.03724396601319313,-0.5185804963111877,0.8535292744636536,-0.3403970633854603,7.655657096768035,0.6093933223346858,-0.14412228763103485,-0.09405196458101273,0.05592995136976242,-0.5697446532547474,-0.20528039261698725,-9.343948845863343
45.6,5.199999809265137,85.0,21.71431541442871,25.61266326904297,-79.78209407114123,40.459247575127186,291.5105676574707,-0.04012269899249077,0.03054378181695938,-0.5215948820114136,0.8517019152641296,-0.3916858546256456,7.702713312357972,0.7131045632284402,-0.10556278377771378,-0.03304247558116913,0.11195951700210573,-0.681156257763505,-0.17209335073828694,-9.728678094148638
45.7,5.199999809265137,84.0,21.67800521850586,26.15338516235352,-79.78208613461302,40.45925107087348,291.50401972961424,-0.04253049939870834,0.02604473382234573,-0.5220988392829895,0.8514256477355957,-0.4045392486364604,7.753311669387847,0.7093383884343983,-0.14372150599956512,0.006964657921344042,-0.13044753670692444,-0.6191746754944325,0.11933980766683815,-9.607396901249887
45.8,5.300000190734863,81.0,21.76439666748047,24.809534072875977,-79.78207023358256,40.45925808572624,291.5481653137207,-0.048056446015834815,0.02245475724339485,-0.5193688869476318,0.8529024124145508,-0.4125255377597628,7.8111972191288315,0.7380145930192203,-0.0878838375210762,-0.0794101357460022,-0.07848254591226578,-0.5018301936239005,0.018518932537408547,-9.597060193419457
46.0,5.300000190734863,79.0,21.749372482299805,24.594837188720703,-79.7820540255574,40.45926515918554,291.5776967926025,-0.04774171486496925,0.016537044197320938,-0.5132794380187988,0.8567330837249756,-0.3384675643507002,7.871899358667933,0.7858225229470774,-0.055608268827199936,0.11127104610204697,-0.13796639442443848,-0.5923328127712012,-0.054648168850690126,-9.594861055612563
46.2,5.199999809265137,76.0,21.801958084106445,24.252910614013672,-79.78204595788407,40.45926875912506,291.5697030944824,-0.04254766926169395,0.01312723383307457,-0.5101976990699768,0.8589038252830505,-0.3122403845701363,7.909799607495017,0.7010943377769123,-0.06751618534326552,0.1277892142534256,-0.1958197504281997,-0.5891337645426393,0.25660049077123404,-9.605376688241961
46.3,5.300000190734863,75.0,21.78067398071289,23.990501403808594,-79.78203772524495,40.45927229310646,291.59402560424803,-0.03733125701546669,0.011129655875265598,-0.5081835985183716,0.8603674173355103,-0.25423855669585393,7.9289191677804896,0.5980782845749221,0.12064389139413835,0.09317916631698607,0.04566393792629242,-0.6608911239355802,-0.21045123159885407,-9.420812834501268
46.41,5.300000190734863,74.0,22.098695755004886,17.796070098876953,-79.7820214492186,40.459279497623186,291.60097216796873,-0.02769017592072487,0.015654027462005615,-0.5087826848030089,0.8603072166442871,-0.2348843147527526,7.950070727529356,0.4030491109985689,0.14303019642829895,-0.045496825128793716,0.08042951673269272,-0.482462863214314,0.04763304496183992,-9.409845212101935
46.6,5.300000190734863,75.0,21.723079681396484,25.39796638488769,-79.78200528265977,40.45928682096759,291.55964373779295,-0.025021756067872047,0.021747412160038948,-0.5108032822608948,0.8590582609176636,-0.27715284774207744,7.971548945779532,0.24192749600597946,0.04067187383770944,0.0198531374335289,-0.03565878048539162,-0.6164011949300766,0.005394120393320918,-9.046208624839783
