time,wind_speed,wind_angle,battery_voltage,battery_current,position_x,position_y,position_z,orientation_x,orientation_y,orientation_z,orientation_w,velocity_x,velocity_y,velocity_z,angular_x,angular_y,angular_z,linear_acceleration_x,linear_acceleration_y,linear_acceleration_z
0.0,1.100000023841858,160.0,25.655771255493164,-0.007951773703098297,-79.78285082559627,40.458896230245095,269.1836344356537,0.022512847557663918,-0.01392233557999134,0.7837797403335571,0.620474636554718,-0.007749126819981815,-0.005481610323279913,0.004089028017392075,-0.003613919718191028,-0.0015148717211559415,0.0031878415029495955,0.039087499170564116,0.5046358338743449,-9.800172584652902
0.1,1.100000023841858,162.0,25.65326690673828,-0.03180709481239319,-79.7828507901762,40.45889615655857,269.1941415424347,0.022478392347693443,-0.013925363309681416,0.7837839126586914,0.6204704642295837,-0.000995897309503857,-0.001796542852789611,0.003903835089538918,0.006744404789060354,0.004829608369618654,0.004623826127499342,0.04089401471894235,0.5061720801517368,-9.800598846673967
0.2,1.100000023841858,159.0,25.65326690673828,-0.007951773703098297,-79.78285069274533,40.458896076112055,269.2049212808609,0.02248309180140496,-0.013926323503255844,0.7837969660758972,0.6204538941383362,-0.0002969407806131793,-0.00828245629830622,0.003694646255390947,-0.008273878134787083,-0.005591067019850016,-0.0005821914528496562,0.03666982396272943,0.5119267636165024,-9.798713704347607
0.4,1.100000023841858,161.0,25.6507625579834,-0.015903547406196594,-79.78285066942756,40.4588960793334,269.2057428712845,0.02246722020208836,-0.013920305296778679,0.7838035225868225,0.6204462051391602,-0.000742899331693127,-0.012400157879447395,0.0047867067643488454,0.0023024589754641056,-0.0009012521477416158,0.003342017764225602,0.04028384862933308,0.5040687635913491,-9.8003240275383
0.51,1.100000023841858,162.0,25.645753860473643,-0.015903547406196594,-79.78285058758591,40.45889599348974,269.21674362373346,0.022481463849544525,-0.013913245871663094,0.7838000059127808,0.6204503774642944,-1.0087437567111757e-05,-0.01196897427417128,0.004693458488028921,-0.0061315554194152355,-0.002601768122985959,-0.005843516439199448,0.03634999268688262,0.5175190772116185,-9.798810768127444
0.7,1.100000023841858,158.0,25.65326690673828,-0.007951773703098297,-79.78285053239999,40.45889590139058,269.22804192256933,0.02247145026922226,-0.013905739411711693,0.7838048338890076,0.6204447746276855,-7.253154142266309e-05,-0.004664342212490201,0.0045037615870955295,-0.0022983604576438665,-0.001424176269210875,0.007314098998904228,0.039388909433037037,0.5042623795196415,-9.802271735072138
0.8,1.2000000476837158,164.0,25.64700698852539,-0.03180709481239319,-79.78285052560042,40.45889590225129,269.22851291847235,0.022452708333730698,-0.01389191672205925,0.7838080525398254,0.6204416155815125,-0.0006811877288949497,-0.006805818065713908,0.00504759995618635,-0.0013030617265030742,-0.0017616327386349442,-0.0037737968377768993,0.03751181844854728,0.5198768938332796,-9.797504500150682
1.0,1.2000000476837158,163.0,25.64700698852539,-0.02385532110929489,-79.78285045438783,40.458895823105365,269.2419673557281,0.02243592403829097,-0.013906329870223999,0.7838202714920044,0.6204265952110289,0.002252386550413248,-0.005587648643376281,0.008265520815354163,-0.006469195242971182,-0.0008254147251136602,0.0016397469444200394,0.03981072208844125,0.5053721810504794,-9.800400626063348
1.1,1.399999976158142,166.0,25.6507625579834,-0.03180709481239319,-79.78285044709881,40.45889582624788,269.2428279275894,0.022417685016989708,-0.013885420747101309,0.7838233113288879,0.6204238533973694,0.002335482075096599,-0.007781448929317914,0.008875783689026952,0.0047403164207935325,-0.0024547609500586987,-0.002187226666137576,0.03787875863956288,0.5163910396769643,-9.79817517578602
1.3,1.399999976158142,167.0,25.65201568603516,-0.03180709481239319,-79.78285032694784,40.45889576139435,269.25516012859345,0.022395333275198936,-0.01386901084333658,0.7838287353515625,0.6204181313514711,0.0048698603527753785,-0.014830029468726968,0.007400970141543256,-0.006391971372067928,-0.001418276340700686,-0.008199208416044712,0.03697172529995442,0.5175684130936862,-9.797948888540269
1.41,1.7999999523162842,170.0,25.64450263977051,-0.02385532110929489,-79.7828503108063,40.45889576897514,269.2559374923706,0.022397538647055626,-0.013875629752874373,0.7838296294212341,0.6204168200492859,0.0054845688457670115,-0.016926878257346442,0.007782864035786584,0.007093996740877628,7.446118979714811e-05,0.007265157066285609,0.0399655773723498,0.5047454691678286,-9.799026530385015
1.6,1.8999999761581416,172.0,25.64825820922852,-0.02385532110929489,-79.78285026851464,40.45889563554601,269.2713590021133,0.02241448126733303,-0.013923648744821548,0.7838384509086609,0.6204039454460144,-0.0013922543429159464,-0.00637862935372429,0.01094418237715226,-0.0008944191504269838,0.00045258403406478475,0.0015482717426493766,0.03729415584588423,0.5172433809936047,-9.797923160791395
1.7,2.200000047683716,177.0,25.641998291015625,-0.02385532110929489,-79.78285016652696,40.458895540786756,269.28516224575037,0.02242947183549404,-0.013929632492363451,0.7838503122329712,0.6203882098197937,-0.0014766096920628589,-0.010065727535835943,0.010316891060796769,-0.0059676836244761935,-0.0007522340165451169,-0.007908009923994541,0.03977950343862177,0.5017515120282771,-9.799934602975846
1.9,2.299999952316284,179.0,25.6507625579834,0.0,-79.78285015407681,40.45889554152641,269.2861992473603,0.022417353466153145,-0.013922723010182379,0.7838487029075623,0.6203910112380981,-0.0006989566759256084,-0.012065107938323045,0.01071722137656988,0.0075675989501178265,-0.0010034289443865418,0.0019042264902964234,0.03986401397734881,0.5073262839764356,-9.800242166519164
2.0,2.9000000953674316,186.0,25.65201568603516,-0.007951773703098297,-79.78285006026883,40.45889544710025,269.2990852947235,0.022412117570638657,-0.01391732506453991,0.7838581800460815,0.6203792095184326,-0.00028334335028814504,-0.01199022476096027,0.008792104338610444,-0.00873512029647827,-0.0012043945025652651,-0.004835068713873625,0.036673633789177984,0.5144839702919126,-9.798123720288276
2.2,3.0999999046325684,191.0,25.649511337280273,-0.007951773703098297,-79.78284998283783,40.458895338365004,269.3131853694916,0.0224175937473774,-0.01393585279583931,0.7838680744171143,0.6203661561012268,-0.0017811821556569247,-0.006274183380093848,0.00683676888481659,-0.007780139334499836,0.0006319959065876901,-0.007971987128257751,0.03861875347327441,0.5218294253200293,-9.796415163874627
2.3,3.4000000953674316,198.0,25.645753860473643,-0.015903547406196594,-79.78284997357102,40.458895338230406,269.3138728494644,0.022422078996896744,-0.013918904587626455,0.7838723063468933,0.6203610897064209,-0.0013872262200999876,-0.008543678867388018,0.007264129828776875,-0.001358965877443552,0.0005737446481361985,0.007564431522041559,0.04186667620204389,0.5038696293532848,-9.798965719342233
2.51,3.799999952316284,201.0,25.65451812744141,-0.007951773703098297,-79.78284989222796,40.458895221507255,269.3304107542038,0.02240215055644512,-0.01392222847789526,0.7838692665100098,0.6203653812408447,-0.002903225405376,-0.005324212438249617,0.010321488681484851,-0.005697885528206825,-0.005179999861866236,-0.002711769193410873,0.036946344729512935,0.5189639972895385,-9.797774641513826
2.6,4.0,204.0,25.65201568603516,-0.015903547406196594,-79.78284978832606,40.45889511238288,269.34527496051794,0.022389160469174385,-0.013907612301409245,0.7838731408119202,0.6203615069389343,-0.003712362720099988,-0.008695925587701436,0.009486796813666766,0.0024092847015708685,-0.0009555300930514932,0.003397576045244932,0.04509526657406241,0.4966010652109981,-9.798982676267622
2.81,4.0,204.0,25.64700698852539,-0.007951773703098297,-79.78284977598202,40.45889511029619,269.3462355489731,0.022402184084057808,-0.01387518923729658,0.7838723063468933,0.6203628182411194,-0.004872276329755907,-0.010647319834919644,0.01030068538952085,-0.006740578450262546,-0.002732965396717191,-0.0071356818079948425,0.03616831786930561,0.5185168680176139,-9.797924330234528
2.9,4.300000190734863,204.0,25.641998291015625,0.007951773703098297,-79.78284976205614,40.458895108285716,269.3472527618408,0.02239599451422692,-0.01388705801218748,0.7838703393936157,0.6203652620315552,-0.004718704322555712,-0.012734888708966434,0.010828417275277363,-0.0019503842340782285,0.0030897282995283604,0.008517649956047535,0.035410692309960724,0.4997522393614054,-9.800226963758462
3.1,4.199999809265137,201.0,25.645753860473643,-0.02385532110929489,-79.78284967426208,40.45889501533699,269.3617400283813,0.02239879034459591,-0.013881981372833252,0.7838786840438843,0.6203546524047852,-0.0008332216445925997,-0.010634081070111222,0.008686015250234845,-0.0063967970199882975,-0.0025240296963602304,-0.006333988625556231,0.03635085834888742,0.5295806405693293,-9.796988191008568
3.2,4.300000190734863,200.0,25.64700698852539,-0.03180709481239319,-79.78284959989777,40.45889491911599,269.3752628917694,0.02238144911825657,-0.01391955092549324,0.7838770747184753,0.6203565001487732,0.0020320607483978737,-0.005876762830096317,0.006177911222270639,-0.0008215266861952841,-0.0022394759580492973,0.0011696532601490615,0.03630582336802037,0.5037077711150051,-9.79876808345318
3.4,4.099999904632568,203.0,25.65201568603516,0.0,-79.78284958371124,40.45889492533606,269.3766001815796,0.02234414964914322,-0.013913733884692192,0.7838938236236572,0.620336651802063,0.0011350959429784152,-0.009794999486787236,0.0073319521405304545,-0.006319347769021988,-0.0029136929661035533,-0.012264099903404713,0.03523131069727242,0.5200779284164311,-9.797444858551023
3.5,3.700000047683716,201.0,25.65326690673828,-0.015903547406196594,-79.78284950554871,40.45889480709265,269.39029279899603,0.022353889420628548,-0.013909329660236835,0.7838971614837646,0.6203323006629944,-0.0003367198956407981,-0.00598769132715633,0.005992914943244207,0.004888406489044428,0.0037366398610174656,0.0011258580489084122,0.03881992966867984,0.5044235068559647,-9.800703511834145
3.7,3.5999999046325684,200.0,25.65201568603516,0.0,-79.78284940402693,40.45889470673141,269.401922618866,0.02235664799809456,-0.013913378119468687,0.7839115262031555,0.6203139424324036,-0.00227100858843505,-0.0070696220189530815,0.003107974982116823,-0.007129762321710586,-0.002922878134995699,0.0008463289705105126,0.03695676465053112,0.5090468637272716,-9.799473257660868
3.8,3.4000000953674316,197.0,25.649511337280273,-0.015903547406196594,-79.78284939439118,40.4588947065261,269.40224555683136,0.022357944399118423,-0.013912437483668327,0.7838976979255676,0.6203314065933228,-0.001495116206999223,-0.009208830302334641,0.003621521152424033,0.009272247552871704,0.0023723901249468327,0.0021809982135891914,0.036293939359020436,0.5054856535792351,-9.800372559428217
4.0,3.4000000953674316,195.0,25.65201568603516,0.0,-79.78284932421441,40.45889462078174,269.4149561281204,0.022335022687911987,-0.013923893682658672,0.7839102149009705,0.6203161478042603,0.0028334438129048647,-0.0031307403912393,0.003615243812016264,0.004797862377017736,0.0018723030807450414,0.0045328899286687365,0.041539775733836,0.5024249650910497,-9.800722807645796
4.1,3.2000000476837163,191.0,25.641998291015625,-0.015903547406196594,-79.7828493200086,40.45889462339071,269.4153634662628,0.022337932139635086,-0.013917027972638607,0.7839149832725525,0.6203101277351379,0.0018619962198585915,-0.005020036932033219,0.004307200213830886,-0.0034220092929899693,0.00034680243697948754,-0.00802716426551342,0.03801535279490054,0.5223035614192486,-9.797857087254522
4.3,3.2000000476837163,187.0,25.645753860473643,-0.015903547406196594,-79.7828492349404,40.45889450546989,269.425363814354,0.022321457043290138,-0.013929870910942554,0.7839176654815674,0.6203071475028992,-0.0038488563468683148,-0.002749350853458881,0.0004762245781381264,0.0016655250219628215,0.0004623202257789672,-0.001147953444160521,0.035625093262642626,0.5131478084251285,-9.798081035614016
4.4,3.0999999046325684,191.0,25.65326690673828,-0.007951773703098297,-79.78284923046616,40.45889450260732,269.42541030597687,0.02232358790934086,-0.013948204927146437,0.7839291095733643,0.6202921271324158,-0.0044500633595138785,-0.004142842253576433,0.0010087660679439193,-0.006716579664498568,-0.003489036113023758,0.002536158775910735,0.040096235233359034,0.5097968787699938,-9.799629963040353
4.6,3.0999999046325684,192.0,25.63573837280273,-0.039758868515491486,-79.7828491444275,40.458894423487074,269.4376763458252,0.02228944189846516,-0.013936581090092659,0.7839305996894836,0.6202917695045471,-0.00022933530328058183,-0.004475639933678418,0.002371092075809975,-0.01083280798047781,-0.0038980764802545313,-0.0056820111349225036,0.0341996288811788,0.5161816728115082,-9.797803292870524
4.7,3.299999952316284,193.0,25.63573837280273,-0.09542128443717957,-79.78284904384036,40.45889433404452,269.44734409999853,0.022282131016254425,-0.013936614617705343,0.7839208245277405,0.6203043460845947,-0.000604134525165774,-0.005933466789484913,5.575204426019027e-06,0.010686635971069336,0.002438737777993083,0.0040316744707524785,0.03714554748963565,0.5004293469339609,-9.799071553945543
4.9,3.299999952316284,191.0,25.638242721557607,-0.08746951073408127,-79.78284902522451,40.458894334546926,269.447439825058,0.022304059937596318,-0.013919313438236712,0.783916711807251,0.6203091740608215,-0.0025529003105289904,-0.009171626831829812,0.0010869387233914578,-0.007033988367766142,-0.005832727067172527,-0.004129751119762659,0.039589816108345985,0.5119816908985376,-9.796627417802814
5.0,3.299999952316284,187.0,25.639493942260746,-0.08746951073408127,-79.78284892815378,40.45889425983814,269.4565594549179,0.022302145138382908,-0.01390297058969736,0.7839151620864868,0.6203115582466125,0.0006964286552087072,-0.009815505059672214,-0.00037062290361988235,0.0069672479294240475,0.0040308041498065,0.0033578877337276936,0.04314248840790242,0.4962030890956522,-9.798852283358574
5.2,3.2000000476837163,189.0,25.6507625579834,-0.03180709481239319,-79.78284885423781,40.458894167235094,269.4694180841446,0.022289568558335304,-0.013918611221015452,0.7839142680168152,0.6203128099441528,-0.0008406979802428854,-0.003972243369108951,0.005266641813735387,-0.0075798691250383845,-0.0002588247007224709,-0.007294909097254276,0.03484495592303573,0.5234838218986988,-9.797998589873314
5.3,3.0999999046325684,191.0,25.66077995300293,0.007951773703098297,-79.78284884835321,40.458894167718455,269.4699477310181,0.02230585739016533,-0.01393520925194025,0.7839165925979614,0.6203089356422424,-0.0008751612216908412,-0.00572420765993991,0.005545759468856137,-0.004926782101392746,-0.003670893143862486,-0.002829580567777157,0.0398176565207541,0.5092143499106169,-9.79941244661808
5.5,3.0,190.0,25.65201568603516,-0.015903547406196594,-79.7828487355183,40.45889408064277,269.4805927629471,0.02228538133203984,-0.013908718712627888,0.7839129567146301,0.6203148365020752,-0.0019556234172873658,-0.008387556805177745,0.005218034314763497,0.0008443968836218119,-0.0011809072457253929,1.5030135500637698e-06,0.03877312453463674,0.5191639720648528,-9.79533459842205
5.6,2.9000000953674316,191.0,25.6507625579834,-0.02385532110929489,-79.78284865502202,40.458894014514215,269.4906061048508,0.022279085591435432,-0.01393996924161911,0.7839328646659851,0.620289146900177,0.0017083720966293075,-0.0047392091423508345,0.004709411300440177,0.004679622128605843,-0.0008625186164863408,0.006185458041727543,0.03684723899234087,0.5175608117133379,-9.798382751941679
5.8,2.799999952316284,188.0,25.649511337280273,-0.007951773703098297,-79.78284864871787,40.4588940163803,269.4911178703308,0.022280395030975345,-0.01393302157521248,0.7839269638061523,0.6202967762947083,0.0009808156865674328,-0.006348485883398121,0.00529361799751875,0.002592527074739337,-0.0003926846547983587,0.0002000138338189572,0.03951737458817661,0.5159123719856143,-9.796805173158647
5.9,2.799999952316284,191.0,25.65201568603516,-0.007951773703098297,-79.78284864080659,40.45889401823725,269.49167863082886,0.022302919998764992,-0.013949206098914143,0.783941388130188,0.6202772855758667,-2.877467313603808e-05,-0.008347567342530067,0.0058823551968255686,-0.0091253649443388,-0.0021809085737913847,-0.0008525283774361012,0.037606684954371306,0.5116522002965213,-9.797330253124235
6.1,2.700000047683716,192.0,25.64825820922852,-0.007951773703098297,-79.78284855503077,40.45889395979388,269.5012377853394,0.02228628657758236,-0.013966913335025307,0.7839515209197998,0.6202647686004639,0.0031731020588687425,-0.0068595550797863935,0.005060756348426976,-0.00282976683229208,-0.004887130577117205,-0.00023117323871701959,0.03707079906016588,0.5239084759354592,-9.796625663638117
6.21,2.4000000953674316,195.0,25.645753860473643,-0.02385532110929489,-79.78284846943974,40.45889386508992,269.511853849411,0.022289298474788662,-0.013995521701872349,0.7839637398719788,0.620248556137085,-0.002334296795935657,-0.002608145114087095,0.00806030819776581,-0.005361329764127731,-0.0013149771839380266,0.0005124754970893264,0.04008433980401607,0.5094662552699447,-9.798347083926199
6.4,2.299999952316284,198.0,25.65201568603516,0.0,-79.78284845820951,40.45889386183549,269.5135184879303,0.022286435589194298,-0.01397827919572592,0.7839608192443848,0.6202527284622192,-0.0031668736405120537,-0.006043774630712481,0.009031476384178328,-0.007693744730204344,0.0018921393202617767,-0.00885994266718626,0.038555238093249504,0.5025742518156767,-9.79851080596447
6.5,2.4000000953674316,202.0,25.63448715209961,-0.007951773703098297,-79.78284832314957,40.458893804139855,269.52132693481445,0.02230129390954972,-0.013986670412123205,0.7839753031730652,0.6202337145805359,-0.0004918434966279911,-0.01186673747934238,0.006429917628287105,0.0023833743762224913,0.00108870433177799,0.005874027963727714,0.03867231945041568,0.5034429287910461,-9.798581557273863
6.71,2.4000000953674316,204.0,25.645753860473643,-0.015903547406196594,-79.78284822437544,40.45889374611328,269.5313297863006,0.022305835038423538,-0.0140059320256114,0.7839801907539368,0.6202269196510315,0.0018069131358566949,-0.009031867422949251,0.008525871962567622,-0.006533563137054443,-0.0030687928665429354,-0.0019272469216957688,0.04028460237197578,0.5150793995708227,-9.796497024893759
6.92,2.5,202.0,25.639493942260746,-0.02385532110929489,-79.78284820004293,40.458893753067386,269.53312889289856,0.0223027765750885,-0.01400994323194027,0.7839877605438232,0.6202174425125122,0.0009435910360982699,-0.012932061630316495,0.009579876146426755,-0.005900698248296976,-0.0009442772716283797,-0.006331292912364006,0.034396077054552734,0.5219757518917323,-9.797049002051354
7.0,2.5,204.0,25.64700698852539,-0.015903547406196594,-79.78284809068369,40.45889367864228,269.54068032455444,0.022308316081762317,-0.014026556164026259,0.7839932441711426,0.6202098727226257,-0.0004350591347934125,-0.011547828465705305,0.007400879169215038,0.002391197485849261,-0.0008640255546197295,0.004684877581894398,0.040418065069243315,0.5025292648002505,-9.79784890115261
7.1,2.5,204.0,25.64825820922852,-0.02385532110929489,-79.78284807589769,40.45889368022521,269.54143432331085,0.022293057292699814,-0.01401990931481123,0.7839852571487427,0.6202206611633301,-0.00087071048033327,-0.01351381633737573,0.007908888507493347,0.0017456180648878215,0.0018273302121087907,-0.003079070709645748,0.0369684842065908,0.5154983525723219,-9.796889957785607
7.3,2.5,204.0,25.641998291015625,-0.015903547406196594,-79.78284795801932,40.45889362610014,269.55138007354736,0.02230257727205753,-0.014043381437659264,0.7839922308921814,0.6202109456062317,0.0018922163464764406,-0.013406841043949071,0.00985552315802412,0.007342678029090165,0.0021248057018965483,0.0025365056935697803,0.0418184595135972,0.5056563922762871,-9.797865273356438
7.4,2.299999952316284,205.0,25.641998291015625,-0.039758868515491486,-79.78284794249755,40.458893629664026,269.55239764404297,0.02230835147202015,-0.014044871553778648,0.7839968800544739,0.6202048063278198,0.00030598511490958965,-0.015160360035984803,0.010450698461426834,-0.009407853707671164,0.0003356924280524254,-0.005605391226708889,0.0361408633645624,0.5178545612096787,-9.795640407800676
7.6,2.299999952316284,203.0,25.64450263977051,-0.007951773703098297,-79.78284792251843,40.45889355703708,269.5621059293747,0.022322747856378555,-0.014059419743716715,0.7839909791946411,0.6202114820480347,0.001252088541834215,-0.0005454638513254096,0.011703174278361657,-0.0018153784330934288,-0.003307579783722759,-0.001746390131302178,0.037695765914395454,0.5233252892643213,-9.796680627465248
7.7,2.200000047683716,198.0,25.6507625579834,-0.02385532110929489,-79.78284777648616,40.458893507110076,269.571616446495,0.022313978523015976,-0.014043096452951431,0.7839937210083008,0.6202086210250854,0.0016731241574547832,-0.009587221334104877,0.012550968026716288,-1.9479011825751513e-06,6.941166793694721e-05,-0.00386723200790584,0.04137841999065131,0.5023566623032093,-9.79911248445511
7.91,2.0999999046325684,196.0,25.64700698852539,-0.007951773703098297,-79.78284776525172,40.45889351007439,269.57289460849756,0.02230148762464524,-0.014055262319743632,0.7839931845664978,0.6202095746994019,0.0013292233520600222,-0.011337066423089615,0.013012411129962856,-0.0007017044699750841,-0.0014456253265962007,0.0055231559090316296,0.03889454562216997,0.5024869455769658,-9.798635936379434
8.0,2.0,192.0,25.641998291015625,-0.03180709481239319,-79.782847625532,40.45889344269839,269.5821206922531,0.022307833656668663,-0.014038528315722942,0.7839847207069397,0.620220422744751,-0.001603405032269025,-0.015932949152548736,0.015759024463526304,0.0006967385415919125,-0.00010616028157528493,-0.004129850305616857,0.03678813414881006,0.5182541818544268,-9.797006902098655
8.2,1.8999999761581416,187.0,25.65201568603516,-0.007951773703098297,-79.78284749824769,40.45889339035567,269.59282628250116,0.022308619692921642,-0.014045728370547295,0.7839689254760742,0.6202401518821716,-0.00020089795696454004,-0.0158077178578432,0.018172259911356563,-0.0022997374180704355,-0.0015971427783370018,-0.004191224928945303,0.0368722267029807,0.5218702461943031,-9.795887745022775
8.3,1.7999999523162842,185.0,25.6507625579834,-0.015903547406196594,-79.78284747874218,40.45889339293135,269.59465340328217,0.0223176758736372,-0.014059950597584248,0.7839690446853638,0.6202393770217896,0.00012111167239282807,-0.01771056725674731,0.018559071572946426,0.005367778241634369,0.001903614262118936,0.003225365187972784,0.0385231514973566,0.5047820508107543,-9.798078112006188
8.5,1.7000000476837158,183.0,25.65451812744141,0.0,-79.78284741794816,40.4588933250371,269.6005820388794,0.022304484620690342,-0.014085265807807447,0.7839764356613159,0.6202300190925598,0.0002838631530553487,-0.005342278605724664,0.01171129759509061,0.00544520141556859,0.003330230480059981,0.0004828907258342952,0.04088131072930992,0.5042479807510972,-9.798070510625841
8.6,1.600000023841858,186.0,25.64700698852539,-0.007951773703098297,-79.7828474106047,40.45889332542009,269.6017760391236,0.022299423813819885,-0.014091097749769688,0.7839756011962891,0.6202309727668762,-0.001197559516385624,-0.00695186367181955,0.012342666592506605,-0.00708325719460845,-0.0007358208531513809,-0.002606963273137808,0.0352878939290531,0.5160305953770876,-9.796689398288727
8.8,1.600000023841858,184.0,25.64700698852539,0.0,-79.7828473204277,40.45889325813131,269.6102630252838,0.022279167547822,-0.01411454752087593,0.7839832901954651,0.6202214956283569,-0.0017416693764786895,-0.004346584701241933,0.012844472058817604,-0.010227860882878305,-0.0014936490915715694,-0.0032351382542401552,0.03851499280426651,0.5138569660484791,-9.79750566959381
8.9,1.600000023841858,186.0,25.65451812744141,0.015903547406196594,-79.78284731416221,40.4588932571764,269.6115510816574,0.022268325090408325,-0.014105529524385927,0.7839860916137695,0.6202185153961182,-0.0014671774726810734,-0.0061504998482577004,0.013242092536192584,0.006783919408917427,0.0012477339478209615,0.00016711369971744716,0.03793582152575255,0.5095791430771351,-9.797883984446527
9.1,1.600000023841858,187.0,25.65326690673828,0.007951773703098297,-79.78284720124789,40.45889320773493,269.617937242508,0.022261049598455436,-0.014110459946095943,0.7839967012405396,0.6202052235603333,-0.0001859654490258584,-0.009131458050733862,0.010674923949792369,0.004311655648052692,0.001484763459302485,0.0007537103956565263,0.03845826567616314,0.5139352091029287,-9.797267687916756
9.2,1.7999999523162842,192.0,25.65326690673828,0.015903547406196594,-79.78284711000626,40.45889315426176,269.62635902118683,0.022268297150731087,-0.014096369966864588,0.7840065956115723,0.6201927661895752,0.002445410146625277,-0.006820177011478776,0.011613018106937292,0.0008935402729548514,0.00021434355585370213,0.0017338849138468506,0.03870945840608329,0.5044379056245089,-9.79880375146866
9.4,1.7999999523162842,195.0,25.65326690673828,0.02385532110929489,-79.78284710218004,40.458893157290476,269.6275461072922,0.02228052169084549,-0.014098728075623512,0.7840170860290527,0.6201791167259216,0.0017123602777395475,-0.008494840258041524,0.012093428205452384,-0.002385614439845085,5.7806224504020065e-05,0.0033039997797459364,0.038827965022064745,0.5032333426550031,-9.798826555609702
9.5,2.0,197.0,25.65326690673828,0.02385532110929489,-79.78284701673657,40.4588930809169,269.633489405632,0.022290294989943504,-0.014120646752417088,0.7840196490287781,0.6201749444007874,-0.0007423113483209973,-0.005064741000130314,0.008547282742370408,-0.0064860954880714425,-0.003702782792970538,-0.0012174735311418776,0.036098137577064336,0.5133919662237167,-9.796550819277764
9.7,2.0999999046325684,197.0,25.645753860473643,0.0,-79.78284688986196,40.45889304005431,269.6412629241944,0.02228788286447525,-0.014115616679191591,0.7840080261230469,0.620189905166626,0.00588735983554357,-0.01128198924476597,0.0096106546913473,0.007908470928668976,0.002393178176134825,0.0065142717212438575,0.040401574093848466,0.5076695520803333,-9.799263342618943
9.8,2.299999952316284,199.0,25.641998291015625,-0.07156596332788467,-79.78284687721434,40.45889304634471,269.64227119636536,0.022278448566794395,-0.014125526882708073,0.7840107679367065,0.6201865673065186,0.0037504895667003603,-0.01282255566770932,0.010223010122096449,-0.004771993961185217,-0.0006285368581302464,-0.006781174335628748,0.033688139123842116,0.5177597632259131,-9.796083042025566
10.0,2.4000000953674316,199.0,25.639493942260746,-0.07951773703098297,-79.78284677811979,40.45889298141314,269.651053940773,0.022272029891610142,-0.014140339568257332,0.7840204238891602,0.62017422914505,0.002636600152762701,-0.01013170777803854,0.011126248121874495,0.009656605310738087,-0.00243370677344501,0.003422746434807777,0.03737977415788919,0.5097670214250684,-9.7974688321352
10.1,2.5999999046325684,199.0,25.63698959350586,-0.07156596332788467,-79.78284668501873,40.45889289462034,269.66007367324835,0.022267147898674008,-0.014172898605465887,0.7840353846549988,0.6201546788215637,-0.00324859725007514,-0.006280172573254906,0.01206381045203592,0.0004187246377114207,0.0016164622502401473,0.005241195205599071,0.04018246795982123,0.5246122248843312,-9.794582646489145
10.31,2.700000047683716,200.0,25.64450263977051,-0.08746951073408127,-79.78284667601756,40.45889289247139,269.66126874637604,0.022258784621953964,-0.014155833050608637,0.7840349078178406,0.620155930519104,-0.0027821453107096127,-0.007938756802203862,0.012235499256783815,0.01053603459149599,0.0044991536997258655,0.004053483717143536,0.037253147677984086,0.506186478920281,-9.797474094629287
10.4,3.0,201.0,25.6407470703125,-0.06361418962478638,-79.78284666584773,40.4588928899365,269.66249636363983,0.022266475483775142,-0.014158105477690697,0.7840347886085509,0.6201558709144592,-0.004831992647012366,-0.009127273793028865,0.012743148269864342,-0.008228306658565998,-0.0010140093509107828,-0.0063116042874753475,0.031161036472767592,0.5232403219118714,-9.793545350432396
10.6,3.0999999046325684,203.0,25.63698959350586,-0.09542128443717957,-79.7828465522834,40.45889280717322,269.67198554229736,0.022288646548986442,-0.01416186150163412,0.7840408682823181,0.6201473474502563,-0.004829220290579507,-0.010639395735709494,0.013201535739769626,0.005882824305444956,0.0007560743251815437,0.007679458241909742,0.042931687147356574,0.5020755939558149,-9.797826681733133
10.7,3.2000000476837163,203.0,25.64450263977051,-0.05566241592168808,-79.78284647434292,40.458892743035015,269.68177727413183,0.02228040061891079,-0.01418605260550976,0.7840294837951659,0.6201614141464233,-0.0010038188728613835,-0.006604050155960982,0.013163497501034365,-0.010590752586722374,-0.0015755807980895042,-0.008334497921168804,0.034084434164688,0.5147955172508956,-9.796473051309588
10.91,3.2000000476837163,203.0,25.641998291015625,-0.02385532110929489,-79.78284646570364,40.458892743474095,269.68309727859497,0.022280028089880943,-0.014202780090272428,0.7840335369110107,0.620155930519104,-0.0006601408335094829,-0.008341187281113438,0.013491344781872477,0.0018914270913228395,0.0008998369448818265,0.0006511331303045154,0.039226228930056097,0.5036208668723703,-9.798399708867072
11.0,3.2000000476837163,202.0,25.63448715209961,0.015903547406196594,-79.7828463683462,40.45889266211017,269.6919931526184,0.022279778495430943,-0.014194302260875704,0.784027099609375,0.6201642155647278,-0.0015440485903564446,-0.008410553417797263,0.013369657651989726,0.007047847378998996,0.002916814060881734,0.0043448428623378285,0.03706395827466622,0.5091754293814301,-9.797354226708412
11.2,3.2000000476837163,205.0,25.63573837280273,-0.015903547406196594,-79.78284627410325,40.458892560892785,269.70389035892487,0.022281525656580925,-0.014225182123482227,0.7840366959571838,0.6201513409614563,-0.006527312559871721,-0.004897945529832683,0.016874221567277876,-0.003255064832046628,-0.0031105284579098225,0.005729379598051311,0.03908097587060184,0.5025321518629791,-9.797676993012429
11.3,3.0999999046325684,204.0,25.63573837280273,-0.03180709481239319,-79.7828462656537,40.45889255541748,269.70556405735016,0.0222848579287529,-0.014221164397895338,0.7840242981910706,0.6201669573783875,-0.006191699003225593,-0.006348364529540761,0.017322852799534532,0.0070110284723341465,0.003442555898800493,0.001324333599768579,0.03949479885399342,0.5073608190938831,-9.797937778830526
11.5,3.0,204.0,25.629478454589844,0.02385532110929489,-79.78284613588947,40.45889248389494,269.71599081707,0.022274518385529518,-0.014216681942343712,0.7840366959571838,0.6201518177986145,-0.003164847389808484,-0.012183731178473777,0.01554105234185756,0.004718288313597441,0.002588028321042657,0.0013672335771843787,0.03875283743720502,0.5218766781315207,-9.795574918985366
11.6,2.9000000953674316,200.0,25.629478454589844,0.015903547406196594,-79.78284611990885,40.45889248273391,269.71754077625275,0.022263752296566963,-0.014217852614820004,0.7840323448181152,0.6201577186584473,-0.0035226209477515007,-0.013597191112810316,0.015947023053821268,0.003780147759243846,-0.0009666241239756346,0.0014044232666492462,0.036034457744099205,0.5152400152757765,-9.796720388531686
11.8,2.9000000953674316,200.0,25.615705490112305,0.02385532110929489,-79.78284601364439,40.45889240703934,269.7286247367859,0.022250425070524216,-0.014230548404157162,0.7840258479118347,0.6201661229133606,-0.0004427524825156682,-0.012985254201569436,0.014942899718613309,0.008938870392739773,0.0032824461814016104,0.0042325444519519815,0.03888471499085427,0.5018552270159126,-9.79789567887783
11.9,2.799999952316284,199.0,25.63573837280273,0.03180709481239319,-79.78284599785349,40.45889240807101,269.7301317806244,0.022241437807679176,-0.0142098693177104,0.7840273380279541,0.6201649308204651,-0.0017211327331151122,-0.014368777033163237,0.015480256344484175,0.0006242513773031533,0.0008611392695456742,-0.002809100318700075,0.03504413127433509,0.5191545068845154,-9.796271322369577
12.1,2.700000047683716,199.0,25.629478454589844,0.03180709481239319,-79.78284590963989,40.45889231695856,269.7419194335937,0.02225072868168354,-0.01424290891736746,0.7840452790260315,0.6201410889625549,-0.002177573226261388,-0.011765619328120768,0.015306888758562662,0.010554109700024128,0.004119166173040867,0.006607337854802609,0.03700036980444565,0.5048718055710196,-9.797831944227221
12.2,2.700000047683716,203.0,25.629478454589844,-0.007951773703098297,-79.78284583365792,40.45889220792368,269.7539970035553,0.02224346436560154,-0.014230542816221712,0.784051239490509,0.620134174823761,-0.0061288196101611115,-0.00592104584347831,0.0180674781940006,-0.003021620213985443,-0.002219395013526082,-0.006484398618340492,0.03799168299185112,0.5252283752337098,-9.79486974477768
12.4,2.5999999046325684,203.0,25.645753860473643,0.09542128443717957,-79.78284581248836,40.45889219830211,269.75761488628393,0.022241028025746342,-0.014231663197278975,0.7840341925621033,0.6201558113098145,-0.006870849655770218,-0.009327720339774543,0.01892108842329112,0.005701162852346897,0.00064291269518435,0.0009045771439559758,0.03531695413403213,0.5104434346407652,-9.796591165065768
12.51,2.5999999046325684,203.0,25.64450263977051,0.09542128443717957,-79.78284572724448,40.458892137434155,269.77023605060583,0.022248972207307816,-0.014228232204914091,0.7840368151664734,0.6201522350311279,0.001417055518373921,-0.00963449973936901,0.020146839755530874,-0.008196360431611538,-0.0028498158790171146,-0.0029034593608230352,0.03695768969831988,0.5152219254523516,-9.796123387813571
12.7,2.5999999046325684,203.0,25.645753860473643,0.07156596332788467,-79.78284562760953,40.458892051556546,269.7831191177368,0.0222396980971098,-0.01422556024044752,0.7840328216552734,0.6201577186584473,0.0023497173527776785,-0.009728110998515714,0.017539844337969502,-0.0016824199119582774,-0.002264257287606597,-0.003578759031370282,0.03794529355829582,0.5210179779678583,-9.796740269064905
12.8,2.5999999046325684,199.0,25.64700698852539,0.07156596332788467,-79.78284561582976,40.4588920549237,269.7848899717331,0.022236872464418408,-0.014227906242012978,0.7840390801429749,0.6201498508453369,0.0019460006075253079,-0.011064246532993212,0.01786865928633624,-0.004033489152789116,-0.004031907301396132,0.0021375680807977915,0.03898077378049493,0.5056216378882528,-9.797347794771195
13.0,2.5999999046325684,201.0,25.6407470703125,0.06361418962478638,-79.78284553432789,40.45889195900369,269.79800883483887,0.022189311683177948,-0.01423320360481739,0.7840449213981628,0.6201440095901489,-0.00024542977342563704,-0.007667170014838086,0.016800890247261703,-0.007853489369153976,-0.0003945695934817195,-0.007208972238004208,0.03551736288238317,0.5189050865918399,-9.795074397325516
13.1,2.9000000953674316,200.0,25.643251419067386,0.07951773703098297,-79.7828454526412,40.45889186784803,269.81165162277216,0.02217005006968975,-0.014226910658180712,0.7840405106544495,0.6201504468917847,0.002438234966250345,-0.004865223267363682,0.015416793859739382,0.0007022253121249378,0.002434705151244998,-0.004340469837188721,0.04069676712155342,0.5004635896906257,-9.796856628656386
13.3,2.9000000953674316,200.0,25.63448715209961,0.07951773703098297,-79.78284544638414,40.45889187024096,269.8132113571167,0.0221587996929884,-0.01422193180769682,0.7840533256530762,0.6201347708702087,0.001522130931145969,-0.006326441257289853,0.015808500136078606,-0.005146312993019818,-0.00334920734167099,-0.002953672781586647,0.03861377877183258,0.5079568330943585,-9.797657112479213
13.4,2.799999952316284,199.0,25.645753860473643,0.09542128443717957,-79.7828454390688,40.458891872399285,269.8148153181076,0.02214138954877853,-0.014195970259606838,0.784056544303894,0.6201319694519043,0.0020126945792794627,-0.007792311500685414,0.016193476088785387,0.0083875497803092,0.0016983230598270893,0.0035847967956215148,0.03722063624532893,0.5050557005032897,-9.798651723861695
13.6,2.9000000953674316,197.0,25.6407470703125,0.07951773703098297,-79.78284539516825,40.4588917580241,269.8288417215348,0.022136840969324112,-0.01419749204069376,0.784065842628479,0.6201203465461731,0.001173496718255658,-0.0006878709226805457,0.01539703494797193,0.002389217959716916,0.0017061657272279265,0.0038635805249214172,0.03981058047618717,0.5030387400090695,-9.79788573861122
13.7,2.799999952316284,197.0,25.639493942260746,0.09542128443717957,-79.7828452792526,40.45889166117495,269.8415730352402,0.022135838866233826,-0.014164890162646769,0.7840732932090759,0.6201117634773254,0.00174209225933341,-0.007428104021480627,0.014275127820463522,-0.003118271008133888,-0.0015645744279026985,-0.0032084682025015354,0.03722167092841119,0.5238976585865021,-9.795269694328306
13.9,2.799999952316284,197.0,25.64825820922852,0.11927660554647446,-79.7828452594091,40.45889166602733,269.844534790039,0.022114986553788185,-0.014157302677631378,0.7840734720230103,0.6201124787330627,0.0011110565532758976,-0.010202396394763577,0.01528762909451099,-0.002040792955085635,-0.0019689644686877728,-0.001470195478759706,0.03733024641405791,0.5135790405794979,-9.796693491339683
14.0,2.9000000953674316,202.0,25.649511337280273,0.04771064221858978,-79.78284517463673,40.458891554067065,269.85752335739136,0.022115122526884082,-0.01415484119206667,0.7840745449066162,0.6201109886169434,-0.000911198915325166,-0.009204365274403,0.014959646536057,-0.004656670615077019,-0.0016544188838452099,0.0023468357976526018,0.03808746540918947,0.5097759018838406,-9.797684009671212
14.2,3.0999999046325684,201.0,25.6507625579834,0.015903547406196594,-79.78284508056454,40.45889145461511,269.87017396640783,0.022118592634797096,-0.014156346209347246,0.7840768098831177,0.6201081275939941,0.0007347260678216388,-0.009496197082233137,0.010852348123565548,-0.0128009719774127,-0.002554764272645116,-0.007281276397407055,0.037812984315678484,0.5164021128416062,-9.795525802373888
14.32,3.0999999046325684,202.0,25.64450263977051,-0.015903547406196594,-79.78284506888738,40.458891457168534,269.87126961898804,0.02211611717939377,-0.014156487770378591,0.7840730547904968,0.6201128363609314,0.0016188014039432855,-0.011184474142106304,0.011112689908730712,0.0064028743654489535,0.00381329539231956,0.004174515139311552,0.038519793916493655,0.5032332330197096,-9.797712661027909
14.5,3.2000000476837163,204.0,25.6507625579834,0.02385532110929489,-79.7828450447959,40.45889134560493,269.88580492687225,0.022082112729549408,-0.014175686985254288,0.7840688228607178,0.6201190352439879,0.001467658685720839,0.002849007438574149,0.011918162605702188,-0.0044148555025458345,-0.001800574827939272,0.005135043989866972,0.03818430306622759,0.5037721635773779,-9.796654314994813
14.6,3.0,201.0,25.64825820922852,0.0,-79.78284497905472,40.45889124717928,269.9004875774384,0.02206122688949108,-0.01413946412503719,0.7840748429298401,0.6201129555702211,0.003768756236718225,0.0022727375237966787,0.012266224373857505,-0.007905848324298859,-0.002539612120017409,-0.007155092898756266,0.039456303161568944,0.5034190282970668,-9.797042570114137
14.8,2.9000000953674316,201.0,25.6507625579834,0.015903547406196594,-79.78284498168641,40.45889124994096,269.9017534608841,0.022065028548240655,-0.014139301143586637,0.7840632796287537,0.6201274394989014,0.0042096966300629625,0.0008873508739172008,0.012588466293800385,0.003166020382195711,0.0010128867579624057,0.008941921405494213,0.039549822066910566,0.5007918743044139,-9.797757099866867
14.9,2.9000000953674316,200.0,25.639493942260746,0.015903547406196594,-79.78284498298153,40.45889125262857,269.90305582237244,0.02205515094101429,-0.014109618961811066,0.7840639352798462,0.6201276183128357,0.003911665504062296,-0.00020902757503787808,0.013036602825644028,0.003899620613083243,0.0026664268225431442,0.0020619812421500683,0.04060790314804763,0.5156367854028939,-9.796566606760026
15.1,2.9000000953674316,200.0,25.64700698852539,0.007951773703098297,-79.7828448688037,40.45889114626196,269.9159483070373,0.022089147940278053,-0.014120829291641712,0.7840502858161926,0.6201435327529907,0.0007907745693750918,-0.006764375817139061,0.010530275911145092,0.0056926310062408465,0.0006181025528348982,0.005268332548439503,0.03710361655801535,0.5031773190200329,-9.796261382102966
15.2,2.799999952316284,203.0,25.64825820922852,0.015903547406196594,-79.78284479897339,40.458891050358574,269.92963007640844,0.022063817828893655,-0.014121108688414097,0.7840613126754761,0.6201304197311401,0.0030136913821172608,-0.00292901693877752,0.011218102316813321,-0.006772538647055626,-0.0006284545524977148,-0.007003198843449354,0.037772789276205004,0.5212080490216613,-9.794393196702003
15.4,2.799999952316284,201.0,25.65326690673828,0.02385532110929489,-79.7828447904149,40.45889105679765,269.9319672937393,0.02205849438905716,-0.014107381924986841,0.7840647101402283,0.6201266050338745,0.0035331021382667077,-0.005890281958486086,0.011981400605426951,0.006448446307331325,0.002352277981117368,-0.0017779465997591613,0.038009882450569424,0.5118591551855207,-9.796218697428703
15.51,2.799999952316284,198.0,25.64700698852539,0.015903547406196594,-79.78284472541368,40.45889093899413,269.9461229200363,0.0220737848430872,-0.014136461541056631,0.7840741872787476,0.6201133728027344,0.0008332547407287464,-0.001820870953871637,0.012546209859710613,-0.008683422580361366,-0.00045287547982297843,-0.004381716251373291,0.03738908858969808,0.5164522161707282,-9.79554158985615
15.71,2.700000047683716,197.0,25.649511337280273,0.03180709481239319,-79.78284465765847,40.45889082298555,269.9615229721069,0.022067608311772343,-0.014133166521787643,0.7840781807899475,0.6201086640357971,-0.000114888840959514,0.0002981294608270357,0.01304698189573708,-0.006652405485510826,0.0013540292857214804,-0.005236088298261166,0.035704311614390465,0.5243342263251544,-9.795661457777022
15.8,2.5,197.0,25.6507625579834,0.015903547406196594,-79.78284465708717,40.45889082239671,269.962834274292,0.022052334621548653,-0.01413954608142376,0.7840832471847534,0.6201026439666748,-2.8351068603927837e-05,-0.0007575580580586147,0.013323850533405457,0.0006777092930860817,0.0008630268857814372,0.0050529660657048225,0.04047704885713757,0.5037401135265828,-9.797589284777642
16.0,2.5,196.0,25.649511337280273,0.0,-79.78284456991994,40.4588907248417,269.9782036895752,0.0220432672649622,-0.014161732979118826,0.7840844988822937,0.620100736618042,0.0007271114398365253,-0.004100712589709666,0.01364774279288117,-0.006611124612390995,-0.0002131221117451787,-0.0007838353049010037,0.03747195688309148,0.5092469846829772,-9.797105135321617
16.11,2.4000000953674316,196.0,25.649511337280273,0.015903547406196594,-79.78284456451809,40.458890726052644,269.9795885438919,0.022040821611881256,-0.014156919904053213,0.7840721011161804,0.6201168298721313,0.001435953499738425,-0.005637754266084182,0.014045024433337595,0.008017352782189846,0.0026744208298623558,0.003283041063696146,0.03571404859889299,0.5074339458346367,-9.797744235992432
16.3,2.4000000953674316,197.0,25.641998291015625,0.02385532110929489,-79.78284449328301,40.458890626623784,269.9970935935974,0.022028999403119087,-0.014155121520161629,0.7840737700462341,0.6201151013374329,0.003956978145344258,-0.003811807093973521,0.017436450510414498,0.008787905797362328,0.003986651077866554,0.0036322784144431353,0.04136933396570384,0.5034915703162551,-9.797402758598327
16.4,2.4000000953674316,199.0,25.638242721557607,0.039758868515491486,-79.78284448912639,40.458890629477786,269.99888185215,0.022025831043720245,-0.014127471484243868,0.7840663194656372,0.6201252937316895,0.002728822463196493,-0.005052917415412867,0.018094259848675454,-0.004605111666023731,-0.0006789403851144018,-0.006425757892429829,0.035789322364144026,0.5227267171069979,-9.796102922558783
16.6,2.4000000953674316,200.0,25.64825820922852,0.015903547406196594,-79.78284439336484,40.45889051106556,270.0146340484619,0.022007687017321587,-0.014125250279903412,0.7840639352798462,0.6201289892196655,-5.488358462947315e-05,-0.006838402197439157,0.017458758519388818,-0.0019160377560183406,-0.0005719329346902668,-0.0056451489217579365,0.03597837243927643,0.5196666133403778,-9.795761445164679
16.7,2.299999952316284,199.0,25.65201568603516,0.015903547406196594,-79.78284433229184,40.458890403757465,270.02611938667303,0.0220031701028347,-0.014123026281595232,0.7840571403503418,0.6201377511024475,0.003759652509072679,-0.002181406244236135,0.01077625503738532,0.0015971376560628414,0.002792337676510215,0.0054921074770391,0.0418481889506802,0.5037233758717775,-9.797296923995019
16.9,2.200000047683716,199.0,25.649511337280273,0.03180709481239319,-79.78284432576005,40.45889041023035,270.02840939712524,0.021953502669930455,-0.01410987973213196,0.7840501666069031,0.6201486587524414,0.0033229455551277024,-0.004942044588652114,0.011760199762199013,-0.001985743409022689,-0.001585967605933547,0.005670262034982443,0.037556654715444886,0.5010473976284265,-9.798489755988124
17.0,2.0999999046325684,196.0,25.649511337280273,0.015903547406196594,-79.7828442530169,40.458890275576586,270.042286192894,0.02193622663617134,-0.014113706536591053,0.7840394377708435,0.6201627254486084,-0.0009960645170076345,-0.002347794678144391,0.012659149657385243,-0.00031053664861246943,0.002445076825097204,-0.0033688799012452364,0.037088237924035636,0.5168509597331286,-9.796343827843666
17.2,2.0999999046325684,196.0,25.64700698852539,0.02385532110929489,-79.78284416137754,40.45889016596307,270.0576837415695,0.021926578134298325,-0.014106983318924904,0.7840496897697449,0.6201503276824951,0.0013847503788785257,-0.004679551870545519,0.012950491932517851,0.002534995554015041,-0.004781883209943771,-0.004012881778180599,0.03770859552780167,0.5200852739810944,-9.795165613889695
17.3,2.0999999046325684,196.0,25.649511337280273,0.0,-79.7828441554578,40.458890167724746,270.05899563980097,0.02192955836653709,-0.014113177545368671,0.7840470671653748,0.6201533675193787,0.001576672622071798,-0.005842719842585218,0.013285227910454596,-0.00020983749709557745,0.00015489182260353118,0.004892067983746529,0.03973101723007858,0.5032715322822333,-9.797047247886658
17.5,2.0999999046325684,196.0,25.65326690673828,0.02385532110929489,-79.78284405821772,40.458890038501465,270.0744623298645,0.021924035623669624,-0.014121694490313532,0.7840327620506287,0.6201714873313904,-0.0007284413202014808,-0.006856962702735798,0.014145095051281113,0.00147777097299695,-0.0015178227331489325,0.0041338559240102785,0.03863428513985128,0.5016461159661413,-9.79742965579033
17.6,2.0,194.0,25.64700698852539,0.007951773703098297,-79.78284404910198,40.45889003859808,270.07589379501337,0.021896967664361,-0.014117189683020115,0.7840330004692078,0.6201722621917725,-0.0011748664814284675,-0.007910365147124385,0.014696623357085863,-0.0008247031946666539,-0.00028861404280178254,-0.00620533898472786,0.037385230797808616,0.5212466771900655,-9.79567899942398
17.8,2.0,196.0,25.638242721557607,0.02385532110929489,-79.78284395093574,40.458889922869155,270.0890524740219,0.02189783565700054,-0.014114310033619404,0.7840348482131958,0.620169997215271,0.00044455405054785626,-0.008906165768850262,0.011020759515020524,-0.0031532237771898512,-0.000125321646919474,-0.008594365790486336,0.03698940170696005,0.5210721378028393,-9.794340571761133
17.9,1.8999999761581416,195.0,25.65451812744141,0.02385532110929489,-79.7828439399381,40.458889924875066,270.09017375659937,0.021895747631788254,-0.014114093035459518,0.7840444445610046,0.620157778263092,0.0008558460338536646,-0.010216290252695872,0.0114440376068702,0.00045857421355322003,0.003781751031056047,0.005708563141524793,0.039568368704058235,0.5029327957704663,-9.797193428277973
18.1,1.8999999761581416,194.0,25.65201568603516,0.007951773703098297,-79.7828438718723,40.458889817106964,270.1030640954972,0.02187762781977653,-0.014107102528214456,0.7840489745140076,0.6201528310775757,0.0027982216090492174,-0.007681310606401259,0.009425943116028722,0.0014526229351758955,0.0017639382276684046,0.004213380161672832,0.03897761719767005,0.5023703667148948,-9.797541337609294
18.2,1.8999999761581416,191.0,25.65451812744141,0.02385532110929489,-79.78284380875648,40.45888968552511,270.11491254520416,0.021856768056750298,-0.01410374231636524,0.7840480804443359,0.6201548576354979,0.000675267162300678,-0.0030463945306522266,0.0072004017764316875,-0.00366049911826849,-0.00031474296702072024,-0.002000829204916954,0.03542014150181785,0.5190752405673266,-9.795478439927102
18.41,2.0,194.0,25.64825820922852,0.02385532110929489,-79.78284379980238,40.45888968790407,270.11645618629456,0.02185424417257309,-0.014120292849838734,0.7840642929077148,0.6201341152191162,0.0008214646383305999,-0.0051590957571159965,0.008186218126944728,-0.0019878579769283533,-0.00017509861208964142,-0.00235776137560606,0.037203428072389216,0.5191781881079078,-9.796426273584368
18.5,2.200000047683716,194.0,25.6507625579834,0.015903547406196594,-79.7828437368538,40.458889590302896,270.1280939931869,0.021849704906344414,-0.014125896617770197,0.7840690612792969,0.6201280355453491,0.007404594048662207,-0.00296066415304306,0.00593705372786381,-0.0030886575113981962,0.00034537515603005886,0.0021785565186291933,0.03922541580162943,0.5021722191944719,-9.797362412810326
18.7,2.299999952316284,195.0,25.6507625579834,0.015903547406196594,-79.78284364380899,40.45888945771085,270.1404852027893,0.02183590270578861,-0.014140324667096138,0.7840718626976013,0.6201247572898865,0.002407013662896403,-0.004002219037281908,0.005340210031409037,-0.0006569562829099598,-0.0008341216598637402,0.0040003550238907355,0.04054920258466155,0.5038088183104992,-9.799045241475106
18.8,2.4000000953674316,195.0,25.63698959350586,0.02385532110929489,-79.78284363906137,40.45888946071784,270.14104977798456,0.02184071019291877,-0.01413670927286148,0.7840795516967773,0.6201149225234985,0.0028851147599697736,-0.005300915904451599,0.005710818233716378,0.007050216197967529,0.00030889769550412893,-0.0004211507039144634,0.037382608687039465,0.512927478030324,-9.796687644124033
19.0,2.4000000953674316,196.0,25.6507625579834,0.015903547406196594,-79.78284356668506,40.45888936852085,270.15357104492193,0.021829184144735336,-0.014160193502902985,0.7840805649757385,0.6201134920120239,0.007283694992888981,-0.004483227341045701,0.005278585197722947,0.007825328968465328,0.0059785679914057255,0.0026730578392744064,0.04023946917615831,0.5059517497569322,-9.797096364498136
19.1,2.4000000953674316,195.0,25.64700698852539,0.007951773703098297,-79.78284356242376,40.45888937512096,270.1541546936035,0.021834896877408028,-0.01416526082903147,0.7840851545333862,0.6201074123382568,0.005852130861208046,-0.005518216523495784,0.005886171383436207,-0.007762228138744831,-0.0037941515911370533,-0.006766362115740776,0.03665875079808757,0.5179606516286731,-9.79577372431755
19.3,2.5,194.0,25.645753860473643,0.007951773703098297,-79.78284349898328,40.45888922950583,270.16384879302984,0.02184711024165153,-0.014168309979140759,0.7840818166732788,0.6201111078262329,-0.0011160710548766251,-0.0011990700610404494,0.0014268428380048177,-0.00608757371082902,-0.0043347468599677095,-0.00735771283507347,0.036779411290772265,0.5215810282900929,-9.794779112935066
19.5,2.5999999046325684,190.0,25.6507625579834,0.02385532110929489,-79.78284349694961,40.45888922905871,270.164001619339,0.02184830047190189,-0.014192533679306509,0.7840863466262817,0.6201047897338867,-0.0009178269453745287,-0.0021624225234680014,0.0017819086466084797,0.00132891908288002,0.0008352909935638309,0.0010475543094798925,0.04086317979265005,0.5011715047806502,-9.798028410673142
19.6,2.700000047683716,193.0,25.6507625579834,0.03180709481239319,-79.7828434328612,40.45888913652247,270.17628971290594,0.02184552513062954,-0.014192798174917696,0.7840880155563354,0.6201027631759644,0.005031011434846412,-0.0021255748469389945,0.002604856043168179,-0.00549281295388937,-0.0010490857530385256,-0.0001563734986120835,0.03871250992175192,0.5120092093572021,-9.796964802145956
19.7,2.799999952316284,194.0,25.65201568603516,0.02385532110929489,-79.78284336925209,40.45888902019775,270.19017854881287,0.02183668501675129,-0.014200038276612759,0.7840788960456848,0.6201143860816956,0.007113578799868637,0.00022259700159270527,0.0066236383722186746,0.010921946726739408,0.0038133929483592506,0.002144647529348731,0.038393366150558,0.5047239441052079,-9.797830190062523
19.91,2.9000000953674316,194.0,25.65451812744141,0.02385532110929489,-79.78284337165681,40.45888903098143,270.19168440055853,0.0218258872628212,-0.014169330708682537,0.7840808629989624,0.6201130151748657,0.0068429444500781094,-0.0015111348397101898,0.0076904067923936345,0.005260771606117487,-0.0018823648570105433,0.0034655919298529625,0.039503542268648745,0.5004743339493871,-9.79738170862198
20.0,2.700000047683716,191.0,25.64825820922852,0.015903547406196594,-79.78284330930836,40.45888892018917,270.20296326828003,0.021819857880473137,-0.0141612458974123,0.7840721607208252,0.6201243400573729,0.0067597353879861434,-8.035641966516608e-05,0.0064053925472472755,-0.007249585352838039,-0.0050039696507155895,-0.0002684238424990326,0.037385566555894915,0.5206881584599614,-9.795717591047287
20.2,2.5999999046325684,191.0,25.64700698852539,0.015903547406196594,-79.78284322959844,40.458888814266466,270.2164312953949,0.021841801702976227,-0.014191124588251112,0.7840449213981628,0.6201574206352234,0.007259974495560074,-0.002996659690195145,0.008743509780794094,0.009017919190227984,0.0006961889448575673,0.003109558019787073,0.04013010340277106,0.5072609047964216,-9.797198690772056
20.3,2.5,189.0,25.64700698852539,0.007951773703098297,-79.78284322744247,40.45888882030458,270.2173601741791,0.02185126580297947,-0.014204669743776318,0.7840459942817688,0.6201553344726562,0.005953339982653094,-0.003916415471606741,0.009196801435500088,-0.009292655624449251,-0.0021092870738357306,-0.009138847701251509,0.034023833256214865,0.5203927644342184,-9.793897352814676
20.51,2.4000000953674316,190.0,25.60694122314453,0.3498780429363251,-79.78284322420572,40.45888882636631,270.21833268356323,0.02184642292559147,-0.014220990240573885,0.7840204834938049,0.6201874613761902,0.006973628808953674,-0.004750174208324619,0.009569823366051295,0.004751584492623806,0.0035211697686463594,0.008384920656681059,0.03797655103728175,0.5098300982639193,-9.796781199574474
20.6,2.299999952316284,194.0,25.61946105957031,0.3180709481239319,-79.78284314110586,40.45888870052574,270.2300321216583,0.02187403291463852,-0.014207677915692331,0.7840338945388794,0.6201698780059814,0.002371736102330782,-0.0058201489293192715,0.00798831900614283,9.456278348807244e-05,0.005699197296053171,0.005818446166813374,0.04386379727628082,0.5192503281310201,-9.79690457582474
20.8,2.299999952316284,197.0,25.624469757080078,0.326022744178772,-79.78284308477835,40.4588885523701,270.2414449806213,0.021840525791049004,-0.014210784807801247,0.7840612530708313,0.6201363801956177,-0.0040361047664028106,-0.0004962173310667517,0.006542968897758012,-0.004893395584076643,-0.004800366703420878,0.004386747255921364,0.03648911302210763,0.5060559032857418,-9.79691393136978
20.9,2.200000047683716,203.0,25.624469757080078,0.3419262766838074,-79.78284308236098,40.4588885489686,270.2421108837128,0.021851683035492897,-0.01418268121778965,0.7840293049812317,0.6201770305633545,-0.003316520740503265,-0.0020915080464209285,0.007056352436595918,0.010904617607593536,0.003927913028746843,-0.0002541780413594097,0.04091006715316325,0.5108554806187751,-9.795803545117376
21.1,2.0,206.0,25.61946105957031,0.3180709481239319,-79.78284302489928,40.45888843668304,270.25357786369324,0.021845562383532524,-0.0141914589330554,0.7840436697006226,0.6201589107513428,-0.002425169708818069,-0.0007233696370856816,0.006541909665159889,0.003871479304507375,0.0034434155095368624,0.007358381059020758,0.04224883285816759,0.5077983370050788,-9.798856961131095
21.2,1.7999999523162842,210.0,25.611949920654297,0.3578298389911652,-79.7828429669302,40.45888833899385,270.2642895336151,0.02185886725783348,-0.0142050227150321,0.7840571403503418,0.6201409697532654,0.0008034690273265423,0.0006865800688787267,0.005201535088537788,-0.005488898605108261,-0.0033869845792651176,-0.0027123212348669767,0.035940865748561916,0.5112872974947095,-9.797697458267214
21.41,1.600000023841858,216.0,25.608192443847656,0.44529932737350464,-79.78284296739821,40.45888834002336,270.26540819358826,0.021819906309247017,-0.014207978732883932,0.7840701937675476,0.6201257109642029,0.0004382283695098945,-0.0008205139306620587,0.006052403057810318,-0.0047470671124756345,0.001889900071546436,-0.0034823573660105467,0.034571546057704836,0.5187028094753623,-9.79724137544632
21.5,1.399999976158142,221.0,25.59817695617676,0.4612028896808624,-79.78284291520272,40.45888823068467,270.27559057426447,0.021836305037140846,-0.01418278459459543,0.7840744256973267,0.6201204061508179,0.0008296181522656008,0.0017412625463393053,0.0045162057262084325,0.007920746691524979,0.0012496310519054534,0.00312570109963417,0.03797126570250839,0.5153558632358909,-9.793326664566994
21.7,1.399999976158142,222.0,25.523054122924805,0.8746951222419739,-79.78284283759675,40.458888120202666,270.2881919498444,0.02234024554491043,-0.014080902561545372,0.783970296382904,0.6202364563941956,-0.0025568294200732857,0.00206807694902461,0.007856951681330826,-0.011236322112381458,0.002679972443729639,-0.03687643632292748,0.0810354379657656,0.5692471648380161,-9.772329897880557
21.8,1.2999999523162842,221.0,25.608192443847656,0.3021674156188965,-79.78284283708938,40.45888811901748,270.2889153118133,0.022359978407621384,-0.014084096066653728,0.7840555906295776,0.6201278567314148,-0.001881540847245249,-0.003220602758777316,0.009151694891000784,-0.01455092430114746,0.0010698133846744897,0.008911875076591969,0.011393265437800438,0.5237805680930615,-9.783822600245477
22.0,1.2999999523162842,228.0,25.188756942749023,3.9281764030456543,-79.78284283445697,40.458888118074924,270.2897206897736,0.022390304133296013,-0.014077289029955862,0.7840358018875122,0.6201519370079039,-0.00241527936267972,-0.0032318594532887075,0.009075928425140557,-0.0022678819950670004,0.02809785306453705,0.00037638991489075124,0.05201637363061309,0.5113509956002236,-9.787981140017509
22.1,1.100000023841858,227.0,25.52931404113769,0.7633702754974365,-79.78284271534955,40.4588879426949,270.31201425743103,0.02291081473231316,-0.014037471264600756,0.7841097116470337,0.6200404167175293,0.0018224734649303703,0.00013328545830183628,0.010933272351251078,-0.0010951710864901543,-0.03384287655353546,0.00480072945356369,0.06292792671360076,0.5893540218472479,-9.792180025577546
22.31,1.100000023841858,227.0,25.61445426940918,0.2544567584991455,-79.78284271320905,40.45888794499228,270.3131004924774,0.022913577035069462,-0.014056296087801456,0.7840635776519775,0.6200982928276062,0.0010517685997179854,-0.0041637152854234975,0.011670342287101348,-0.002424331847578287,-0.01078665442764759,-0.0003017560229636729,0.04338134259916842,0.5036729436367751,-9.809458547830582
22.4,1.0,223.0,25.57313537597656,1.0496340990066528,-79.78284270933143,40.4588879472789,270.314243232727,0.023030400276184082,-0.013979274779558182,0.7840790748596191,0.620076060295105,0.00390313470264761,-0.004677156062440249,0.011354003466548256,0.011751573532819748,0.015386095270514488,0.005396833643317223,0.06551019418984652,0.539449169151485,-9.786443322300912
22.61,1.0,223.0,25.22005653381348,4.802871227264403,-79.78284266442317,40.45888787679528,270.323110496521,0.022989023476839062,-0.0140151996165514,0.7840995192527771,0.6200507879257202,0.008489961222917109,-0.00314704080429828,0.008687246625399934,0.010662527754902841,0.023189371451735497,0.005540123209357262,0.06277654778212309,0.5345484715327621,-9.807968677282334
22.7,1.0,223.0,25.164966583251953,5.8206987380981445,-79.7828426175234,40.45888779142438,270.3309873695373,0.022927522659301758,-0.013977337628602982,0.7840772271156311,0.6200821399688721,0.008450346444704916,0.0010018804989119757,0.0057228501063842285,0.009162169881165028,0.014217772521078588,0.013478048145771028,0.04286526186391711,0.5475823903083802,-9.794936987757684
22.9,1.0,221.0,24.953371047973643,8.309603691101074,-79.78284262118598,40.45888780446303,270.3324255104065,0.02300843596458435,-0.013919781893491743,0.7839815020561218,0.6202014684677124,0.008394564717119935,0.00318221218084162,0.007202599049062399,-0.0012396430829539895,-0.07744886726140976,0.0211982261389494,0.050603485330939287,0.4361304765567184,-9.792515071034432
23.0,1.2000000476837158,218.0,24.846946716308594,9.589838981628418,-79.78284255563453,40.45888772872015,270.34142605018616,0.022456027567386627,-0.01367845758795738,0.7840042710304259,0.6201983690261841,0.0017036316472262489,-0.0075104187133814785,0.010396879141349628,0.0012917198473587632,0.04196790605783463,-0.043859999626874924,-0.0002642027847468853,0.4149957521259785,-9.786772520542145
23.2,1.2999999523162842,217.0,24.59027671813965,12.698983192443848,-79.7828425224477,40.458887650049185,270.34704009246826,0.0220398548990488,-0.013176687993109226,0.7839457988739014,0.6202980875968933,0.004042023054658357,-0.0010695716772499873,0.003942691838469467,-0.008584323339164257,-0.0005758717306889594,-0.024138562381267548,0.09371740917675198,0.4480428628250957,-9.792353103160856
23.3,1.399999976158142,217.0,24.465070724487305,14.233675003051758,-79.78284252276534,40.45888766022741,270.34763089370733,0.021772123873233795,-0.01252549048513174,0.7840166091918945,0.620231568813324,0.012660288021115608,3.8116272009659086e-05,0.00905705857601185,0.022351406514644626,0.028378633782267567,-0.03539334237575531,0.07798743062652648,0.5192986407503486,-9.821011476516725
23.5,1.5,218.0,24.147050857543945,17.764263153076172,-79.78284246409495,40.458887596792096,270.3559939022064,0.023168988525867462,-0.009945189580321312,0.7841097116470337,0.6201099753379822,0.007293911095951963,-0.014782247315170591,0.018612916589662302,0.01480754092335701,0.058643810451030724,0.03761908039450645,0.07597961554303766,0.41340735599398615,-9.883082009553911
23.6,1.600000023841858,215.0,24.024349212646484,19.410280227661133,-79.78284244439341,40.45888760233262,270.35782734107966,0.024955186992883682,-0.007621680386364459,0.7839121818542479,0.6203231811523438,-0.009958869516174808,-0.0238451295798391,0.013366636823086135,-0.07756397873163222,0.11286014318466188,0.018064221367239952,0.03757257924182341,0.5208933591842652,-9.782651402950286
23.8,1.600000023841858,210.0,23.737628936767567,23.091951370239247,-79.78284236074822,40.458887480606386,270.36584035110474,0.0249394029378891,-0.005877459421753882,0.783435583114624,0.6209445595741272,-0.027440468693595663,-0.008490476068453249,0.04161788710649587,-0.004627055954188109,-0.14300556480884552,0.04142346978187561,0.17412712197750807,0.20279357179999352,-10.064641563892367
23.9,1.7000000476837158,211.0,23.569854736328125,25.42977333068848,-79.78284232997031,40.45888745647111,270.37261310768133,0.0204826295375824,-0.005506061017513275,0.7824908494949341,0.6223008036613464,-0.028386723132038032,-0.023263314021992342,0.10212686122361823,0.1459197849035263,-0.051719490438699715,0.0343305878341198,0.07600860037375241,0.35877608925104143,-10.309932260513307
24.1,1.7999999523162842,213.0,24.003063201904297,19.17967796325684,-79.78284217294112,40.45888721201703,270.4170340652466,0.007157943211495876,-0.0033241657074540854,0.7800489068031311,0.6256689429283142,-0.041012371239538666,-0.004078769361962626,0.3147188778777425,0.21182245016098025,-0.18603551387786865,0.056006886065006256,0.2156399045884609,-0.0063546808809041965,-10.773195462226868
24.2,1.8999999761581416,214.0,23.81024742126465,21.771957397460934,-79.78284204118891,40.458887126688,270.4460693950653,0.0014990796335041525,-0.003068131161853671,0.7791046500205994,0.6268846988677979,-0.04431067488214297,-0.0012395711538086276,0.3328282978712062,0.2147688865661621,-0.03360595181584358,0.05375579744577408,0.2332917532883585,0.09339273339137437,-10.371599335670473
24.4,2.0,214.0,23.89664077758789,19.64088249206543,-79.7828419986952,40.4588870405259,270.5172032470703,0.0014448286965489388,0.002981067635118961,0.77827388048172,0.6279162764549255,-0.03802499890628011,0.015465736918343263,0.3437168102370766,0.05109114572405815,-0.18679748475551605,0.0524359755218029,0.3199341685697437,-0.2507165472954512,-9.734893684387208
24.5,2.0,214.0,23.835289001464844,20.73822593688965,-79.78284190771359,40.458886859693926,270.53246847343445,0.004150509368628264,0.0021896171383559704,0.7782007455825806,0.6279981136322021,-0.054529633723587295,0.0201407333119562,0.26667248575185043,-0.19488082826137546,0.02384006790816784,-0.047224972397089005,0.31314990006387233,0.2934928218461573,-9.482529026269914
24.71,2.0,214.0,23.795223236083984,21.485692977905273,-79.78284183963513,40.4588868290219,270.53905979347235,0.007309728302061558,-0.0013106929836794734,0.7787812948226929,0.6272516846656799,0.005635096605486348,0.00997971803109492,0.15144183867895702,0.16511283814907074,-0.09396405518054962,0.1085033118724823,0.20281610185280444,-0.11108913056552412,-9.626336032748222
24.8,2.0,215.0,23.77143478393555,21.597017288208008,-79.7828418448409,40.45888681857531,270.55370656204224,0.00924944505095482,-0.0028640639502555128,0.7791345715522766,0.6267820596694946,-0.01393233664485892,0.006616812938671249,0.1404513705690256,-0.1177140176296234,0.08007173985242844,-0.018281200900673863,-0.07039031691849232,0.36316248770803217,-9.634526812434196
25.01,1.8999999761581416,213.0,23.66751480102539,22.70231437683105,-79.78284169509895,40.458886906107246,270.5754353160858,0.010427580215036869,0.0026452317833900447,0.7801847457885742,0.6254567503929138,0.04428636942100018,-0.03860906584837715,0.12616159486296802,0.1803966909646988,0.2561890482902527,-0.035009365528821945,0.0006514963111840189,0.536166469193995,-9.785993671417236
25.1,2.0999999046325684,212.0,23.649986267089844,22.614845275878906,-79.78284166594716,40.458886943077715,270.58820334625244,0.010394886136054993,0.005945934448391199,0.7804644107818604,0.6250855922698975,0.05641814446130415,-0.047783451630580856,0.13858547416206846,0.0905751734972,0.08206019550561905,0.04309144988656044,0.06824107687454671,0.30091957144439224,-9.990494191646576
25.3,2.0999999046325684,210.0,23.62244033813477,23.1953239440918,-79.78284155909664,40.45888680343092,270.6376103515625,0.01103515550494194,0.002727495273575187,0.7796564698219299,0.6261044144630432,0.04367330039844015,-0.03075804304705727,0.1490614293504591,-0.04181578755378723,0.010346944443881512,0.05858413502573968,0.21238103203475475,0.2060766920261085,-9.70976469039917
25.4,2.700000047683716,207.0,23.57736778259277,23.306650161743164,-79.78284153042833,40.458886850538796,270.65310374450684,0.010398847982287409,0.00035411439603194594,0.7788480520248413,0.6271263957023621,0.03877596629712137,-0.033125750552850684,0.16540356229153733,-0.11385158449411392,-0.041109785437583916,0.025339098647236824,0.31770031291991474,-0.01582208590116352,-9.960664036273958
25.51,2.700000047683716,212.0,23.748897552490234,20.73822593688965,-79.782841552068,40.45888674479324,270.68618313026434,0.01417535264045,-0.0016426679212599993,0.7783961892127991,0.6276112794876099,0.02639789615577961,-0.017491177778870017,0.19540926290876892,-0.09198592603206636,-0.08496866375207901,0.009099194779992105,0.33189537908881905,0.16939860658720138,-9.925850883722307
25.7,3.0999999046325684,209.0,23.59113883972168,23.083999633789066,-79.78284147874302,40.45888702698753,270.7508861179352,0.011684618890285492,0.0018842228455469008,0.7784600257873535,0.6275826692581177,0.09598040142413483,-0.014387399530864022,0.16842264131034798,-0.11545951664447784,-0.18944403529167173,-0.013500748202204704,0.2484344155713916,0.32673426110297443,-9.588470633625985
25.9,3.2000000476837163,207.0,23.44965744018555,25.19917106628418,-79.7828414695809,40.45888713045935,270.77044264030457,0.013739477843046188,-0.00011192941747140142,0.7786317467689514,0.6273307204246521,0.11217419567711803,-0.017461928458511317,0.21328255243834188,-0.18820886313915253,-0.1331038773059845,-2.2202943910087924e-06,0.18210964942350985,0.3830213131383062,-10.015659438371658
26.01,3.5,200.0,24.03561782836914,19.354618072509766,-79.78284136851944,40.45888707602134,270.79513875198364,0.01588374748826027,-0.002968171611428261,0.7794505953788757,0.6262552738189697,0.12441403211099153,-0.015573352251920703,0.2112233853019686,0.028528030961751938,-0.058424282819032676,-0.10636043548583984,0.19588183399289846,0.5354744512215257,-9.56593429505825
26.2,3.5999999046325684,200.0,23.22053337097168,28.06976127624512,-79.78284124034545,40.45888715127308,270.84100404930115,0.01840001530945301,-0.0130917401984334,0.7813783884048462,0.6236488819122314,0.13562710056234972,-0.032681525073619294,0.13190280992435102,0.08880460262298584,0.013112047687172891,-0.045562293380498886,0.07964705315418542,0.7108696150034667,-9.722673003673554
26.3,3.799999952316284,199.0,23.415851593017567,24.769775390625,-79.78284124203903,40.458887260614986,270.8570450897217,0.01812513545155525,-0.01309201680123806,0.782313883304596,0.6224830150604248,0.1329594048769012,-0.02482730113044317,0.18355227571005928,0.09131672233343124,-0.016372090205550194,-0.028689701110124588,0.08644016557373108,0.473890443071723,-10.190969488620759
26.51,3.9000000953674316,199.0,23.05776596069336,30.375776290893555,-79.78284125609069,40.458887361334256,270.87952367019653,0.018315933644771576,-0.012393517419695854,0.783687174320221,0.6207618713378906,0.12365872525940882,-0.01665938296262047,0.26459847328765496,0.052360307425260544,0.07409235090017319,-0.05229851230978968,0.07171183333732188,0.539452129304409,-10.539346597194672
26.6,4.199999809265137,200.0,22.932559967041016,30.69384765625,-79.78284137223963,40.45888739580553,270.967486536026,0.020109746605157845,-0.006558259949088097,0.7842157483100891,0.6201276183128357,0.12036624993062242,0.020347559167488892,0.5387109411313686,0.005978942848742008,-0.007007354870438576,0.05714132264256476,0.10471797698177396,0.3989634907990694,-11.307290664911273
26.8,4.199999809265137,191.0,23.06152153015137,30.41553497314453,-79.78284118295403,40.45888750671266,271.0898150558472,0.01577180996537209,-0.010319504886865616,0.7823694348335266,0.6225295066833496,0.12758194934481892,0.010346616462314495,0.8531279813368857,0.006324480753391981,-0.02506751753389836,0.07054849714040756,0.09061999286524952,0.3115393576025963,-11.537441750764847
26.9,4.099999904632568,193.0,22.804851531982425,33.46106338500977,-79.78284122553065,40.45888759227249,271.1831845397949,0.015693813562393192,-0.01305604074150324,0.7825480103492737,0.6222555637359619,0.131635808796448,0.01956838308022165,1.0076796151832164,-0.11681436747312544,0.02730400487780571,-0.09406749159097673,0.11861451538279652,0.6383765662461519,-11.337969835996628
27.1,4.0,191.0,22.362876892089844,40.19621658325195,-79.78284121532569,40.45888775869438,271.41863957595825,0.026576945558190342,-0.008549824357032776,0.7829708456993103,0.6214317083358765,0.15244729764787993,0.02578983730117513,1.3544227989346205,0.011874430812895298,0.04196072742342949,0.009384218603372574,0.2214963478781283,0.43194979045540094,-11.720139173269274
27.2,4.0,197.0,22.344097137451172,37.99357604980469,-79.78284124105944,40.4588878215618,271.56128302764887,0.02729036472737789,-0.007235378958284855,0.7834649682044983,0.6207943558692932,0.16432232594431434,0.05298326760734793,1.5727143511885868,0.07757169008255005,-9.602044883649796e-05,-0.025298921391367912,0.21926969161257148,0.5254629582166672,-12.050966448783875
27.4,4.0,192.0,22.3641300201416,37.802734375,-79.78284128372036,40.45888788121933,271.73234215927124,0.02235259860754013,-0.006378073710948229,0.7843739986419678,0.6198526620864868,0.16198269343937882,0.058319848338115314,1.8405611342565675,0.06064129993319513,-0.025536809116601944,-0.07780846208333969,0.12102346773259345,0.4843284904584289,-12.403368780612945
27.5,4.0,193.0,22.294015884399414,38.14466094970703,-79.78284124917728,40.4588879515081,272.14317742538447,0.018499977886676792,-0.004954865202307701,0.7844674587249756,0.6198742985725403,0.1275036830279065,0.02823433207435065,2.375449549211751,-0.1548549383878708,0.016040485352277756,0.016221871599555016,0.02825260399840772,0.3888912232965231,-12.524851702451706
27.6,3.799999952316284,194.0,22.64709281921387,33.755279541015625,-79.78284125169866,40.45888799817047,272.3942984695434,0.024791281670331955,-0.010086072608828545,0.7834771871566772,0.6208438873291016,0.14095587839640558,0.027790152450548226,2.6305195108522956,-0.1664218306541443,0.02052526548504829,0.04616227746009827,0.11850000131875275,0.4826448212563992,-12.376793185472488
27.81,3.700000047683716,195.0,22.753517150878906,31.695770263671875,-79.78284114090164,40.45888807550058,272.9183873291016,0.031470805406570435,-0.016728848218917847,0.7836203575134277,0.6202167868614197,0.17672819127910716,0.015277094649955697,2.965129228337401,-0.020324517041444785,0.03638605773448944,0.02601001039147377,0.09554019642993808,0.5030879662558436,-11.649084978103636
27.9,3.700000047683716,192.0,22.97763442993164,28.4912052154541,-79.7828411045371,40.45888805958753,273.2229417915344,0.032579351216554635,-0.013568842783570291,0.7844637036323547,0.6191698312759399,0.18357360327891895,0.01776367010737329,3.1091581162129214,0.06813983619213104,0.0318453349173069,0.020063560456037518,0.12594286730512974,0.3727634330838919,-11.30802624464035
28.1,3.700000047683716,190.0,23.079050064086914,27.71193122863769,-79.78284086489009,40.45888800399012,273.77836791229254,0.03201638162136078,-0.0007836099248379469,0.7848259806632996,0.6188881397247314,0.1071474359021638,0.05240036481960944,3.195394498606392,0.07173126935958862,0.05212726816534996,0.12336988002061845,0.2937069943919778,0.2439635248482228,-10.45601324915886
28.2,3.700000047683716,184.0,23.29941177368164,23.29074668884277,-79.78284065837511,40.45888789636157,274.35655728530884,0.03182477131485939,0.00312550668604672,0.7841033935546875,0.6198058128356934,0.05170832935835438,0.07632584679602218,3.1662190604316063,-0.10514941811561583,0.006593098863959312,-0.11047492176294328,0.38489077761769297,0.33910444781184196,-10.162121665477754
28.4,3.700000047683716,181.0,23.195491790771484,25.270736694335927,-79.78284055830306,40.4588878325108,274.6699852104187,0.03346690163016318,0.002511763712391257,0.7839290499687195,0.6199427247047424,0.03958216247063173,0.04415909949562999,3.1279896396963567,-0.10851378738880156,0.05145902559161186,0.04858791083097458,0.15382812911644578,0.4780234743654728,-9.485637406110763
28.5,3.799999952316284,180.0,23.2180290222168,26.360130310058594,-79.78284042135489,40.458887685810865,274.9545039291382,0.03564431890845299,0.0016635030042380097,0.7836944460868835,0.6201208829879761,0.045677788681064486,0.02550989395975777,3.054278582013773,-0.03688595071434975,0.013359000906348228,-0.021288439631462097,0.22327662404626608,0.4781135580316186,-9.374044464826584
28.7,3.799999952316284,181.0,23.08781433105469,27.41771697998047,-79.78284021835633,40.458887461058346,275.57512322616583,0.030796628445386887,-0.008051508106291294,0.783966064453125,0.6199871897697449,0.052073624880014206,-0.011441575478600814,2.9721892895561703,-0.08117447793483734,-0.07941313087940216,-0.024158574640750885,0.15149477030150593,0.5101899212971329,-9.405568558573725
28.8,4.0,179.0,23.211767196655273,25.294591903686523,-79.78284003625113,40.45888738695528,275.87099829864496,0.0308164581656456,-0.008692668750882149,0.7836671471595764,0.6203552484512329,0.05593092575696534,-0.07479083782333612,2.9616643995419802,0.028537563979625705,0.09161769598722458,-0.010863320901989935,0.030540016489103438,0.6219735183566809,-9.655576204061509
28.91,4.099999904632568,187.0,23.26936149597168,25.21507453918457,-79.78283982570953,40.45888731210076,276.16621009063715,0.03495869413018226,-0.004471071064472199,0.7826769948005676,0.6214295625686646,0.05143775057153836,-0.0918176203748748,2.9438790477343653,0.0232779048383236,0.125017911195755,0.0473632887005806,0.2050941587984562,0.5798286151885986,-9.64829992890358
29.11,4.099999904632568,189.0,23.135393142700195,26.376033782958984,-79.78283962394495,40.45888712823819,276.69481269073486,0.04301293939352036,-0.0071804169565439216,0.7801756262779236,0.624038815498352,0.05106728976317623,-0.05820286584466794,2.794258240189066,-0.11878098547458647,-0.01867353729903698,-0.030221212655305862,0.25433063820004465,0.5964425648376346,-9.184737349748614
29.31,4.0,189.0,23.00392723083496,29.18301010131836,-79.78283942527798,40.458887161208665,277.0550898666382,0.03815177083015442,-0.011687501333653929,0.7787796854972839,0.6260273456573486,0.03595509294939249,-0.08192252484782164,2.507710328464235,0.147871196269989,-0.2031148374080658,-0.03576801344752312,0.2091906449943781,0.4717866879701615,-9.034952149987221
29.4,4.099999904632568,190.0,22.89499855041504,29.9066219329834,-79.78283918423115,40.45888706652268,277.30112353515625,0.023281563073396683,-0.007463904097676276,0.7790476679801941,0.6264879703521729,-0.011983057518691394,-0.11531004348728692,2.4503444120770554,0.25583475828170776,-0.085561104118824,-0.04343609511852264,0.1530681920796633,0.35622451052069665,-9.143875252604484
29.6,4.099999904632568,201.0,22.96010589599609,28.690000534057607,-79.78283885019854,40.458886560139476,277.99616614532465,0.0005230075912550092,0.006805996876209974,0.7816924452781677,0.6236267685890198,-0.16678187954835613,-0.14072768010724593,2.4272394836686386,0.21184563636779785,-0.00044514934415929036,-0.06643389165401459,0.17879926655441525,0.054923581844195726,-9.424832210540774
29.7,4.099999904632568,203.0,22.82738876342773,31.60034942626953,-79.78283849190228,40.458886103330066,278.45265284729004,0.0002778241760097444,0.010014805011451244,0.7832874059677124,0.6215790510177612,-0.2219900074036292,-0.1180615189276096,2.501486637918678,-0.06447248160839081,0.01865588314831257,-0.0874086394906044,0.1253102168440819,0.21232630575075748,-9.59269407749176
29.9,4.0,207.0,22.73974418640137,30.93239974975586,-79.78283804183314,40.45888587003217,278.9638699645996,0.012429188005626202,0.012022640556097029,0.7869912981987,0.6167218089103699,-0.1747695955481382,-0.12593946939844353,2.6261124457181286,-0.14201971888542175,0.1661200374364853,0.009534657932817936,0.09629795903339984,-0.0030714281788095828,-10.483343135118485
30.01,4.0,209.0,22.97012138366699,27.990243911743164,-79.78283754928016,40.458885234750454,279.3538779373169,0.023833168670535088,0.007467216346412897,0.7883341312408447,0.614740252494812,-0.17128094450328096,-0.1039837889175408,2.7228209884227867,-0.06673035770654677,-0.034502528607845306,0.02375136874616146,0.1868169686570764,0.12751300916075708,-10.271910156011582
30.2,4.099999904632568,209.0,22.84491729736328,29.58059883117676,-79.78283703884566,40.458884891951776,279.9626349563598,0.001221274258568883,0.0042615667916834354,0.7876297831535339,0.6161328554153442,-0.1044161169418435,-0.17927486520611194,2.6646820030163703,0.3547349274158478,-0.1926831901073456,0.07250064611434938,-0.11108394116163256,0.3952800738438964,-9.391310123205184
30.3,4.099999904632568,219.0,22.714704513549805,31.46516990661621,-79.7828366944324,40.458884798829935,280.224781906128,-0.01573497802019119,0.002700625453144312,0.7857841253280641,0.6182948350906372,-0.16982198340437926,-0.24154499720518202,2.59257847290256,0.1721137762069702,-0.20420221984386444,0.1184285506606102,-0.23964643416926265,0.055938064623624086,-9.233382675647738
30.4,4.0,222.0,22.77605438232422,30.741558074951172,-79.78283635086946,40.45888471668715,280.4820002670288,-0.024580506607890133,-0.004274813458323479,0.7839433550834656,0.6203309893608093,-0.20354962913522268,-0.30317364439553546,2.547184067764957,0.04939544945955277,-0.16440993547439575,0.22276781499385834,-0.2603330608829856,-0.13679953878745438,-9.391359824538233
30.6,4.099999904632568,248.0,22.5744743347168,33.858654022216804,-79.7828354527283,40.45888418364696,281.45878592681885,-0.009596962481737135,-0.010586983524262905,0.7804192900657654,0.6250933408737183,-0.10452201417677708,-0.3430329903501516,2.6601342224841056,-0.15985393524169922,0.14766529202461245,-0.05767865106463432,-0.2588973684422672,-0.0016014335956424475,-9.746216232776645
30.8,4.199999809265137,253.0,22.47055435180664,34.70949172973633,-79.7828351690346,40.4588841860184,281.72797385406494,-0.004008892923593521,-0.009434944950044157,0.7805593609809875,0.6249976754188538,-0.05279844821402685,-0.3046507638299829,2.7057490079994557,-0.14050011336803436,0.009759606793522837,-0.024235781282186508,-0.2194843026995659,0.10383487382903696,-10.12704304933548
30.9,4.5,259.0,22.65085029602051,31.902517318725586,-79.7828349020109,40.45888420075377,282.0016812438965,-0.003315843176096677,-0.011448360048234464,0.7806740999221802,0.6248247623443604,-0.018941760195162215,-0.2761330694423355,2.751795766247492,-0.09886232018470764,-0.09517842531204224,0.05252840742468834,-0.17734329158440232,0.07157777678221465,-10.201282807588578
31.1,4.599999904632568,261.0,22.59701156616211,32.75335693359375,-79.78283421295954,40.45888400845534,282.62934867095953,-0.011078965850174429,-0.015438603237271309,0.7815476655960083,0.6235561966896057,0.036779757300551136,-0.2981222662463574,2.8211791571523506,0.2498465180397033,-0.10500720143318176,0.035758890211582184,-0.2421978667192161,0.4072201247513295,-10.050259752273561
31.2,4.800000190734863,264.0,22.61078453063965,32.196731567382805,-79.78283384172052,40.458883994413476,282.94523040008545,-0.016519717872142792,-0.016433235257864,0.7818877696990967,0.6229835748672485,0.023135608759550702,-0.3094669295743481,2.8378176285467087,0.005337449721992016,-0.11535698920488358,-0.002714067231863737,-0.32266975186765195,0.29195412704721097,-9.87903105854988
31.4,4.900000095367432,269.0,22.466798782348643,34.272144317626946,-79.78283341813703,40.458884127047924,283.5161599273682,-0.00941513478755951,-0.02374715730547905,0.7814724445343018,0.6234166622161865,0.0742830335938371,-0.3175336457826058,2.856133904184063,-0.08462361991405487,0.06468746811151505,-0.009403044357895851,-0.3681504915654659,0.5667964140325785,-9.937345340251923
31.5,5.199999809265137,265.0,22.63707733154297,31.93432426452637,-79.78283309533252,40.4588841631746,283.83746043396,-0.004424117971211672,-0.02601933851838112,0.7811939120292664,0.6237303614616394,0.11437918712503513,-0.3224046512449047,2.8736776896152034,-0.01957203820347786,0.05015575140714645,-0.09423308074474336,-0.3044091532006861,0.5051861299574375,-9.962574906349182
31.7,5.300000190734863,263.0,22.55444145202637,32.912391662597656,-79.78283260660234,40.45888430004629,284.4427289123535,-0.0069926874712109574,-0.026048090308904648,0.7801721096038818,0.6249833106994629,0.14902884224689222,-0.29806881735278673,2.8938054196477814,0.029400952160358432,-0.1041380688548088,0.05745465680956841,-0.2712759239785373,0.17810112727805974,-9.904190458059313
31.8,5.5,265.0,22.539417266845703,33.158897399902344,-79.78283243388134,40.45888439554602,284.73285762023926,-0.005959942005574703,-0.030789252370595925,0.7797005176544191,0.6253668069839478,0.13051799406747655,-0.3031552726328658,2.875734420016634,-0.08787237852811812,-0.024162698537111282,0.01860130950808525,-0.31615109313279394,0.23835107490420346,-9.738479781746863
32.0,5.599999904632568,264.0,22.4279842376709,34.57431411743164,-79.78283203964781,40.45888455511553,285.3256157989502,-0.0076367356814444065,-0.03746334463357925,0.7795122861862183,0.6252189874649048,0.1761956485459473,-0.2928542183810678,2.7769935004187776,0.006365504581481218,-0.14102868735790253,0.018465548753738403,-0.15557905957102774,0.3835658716410399,-9.381168127655984
32.1,5.599999904632568,265.0,22.33282852172852,35.40129852294922,-79.78283192463726,40.458884645386036,285.6041440124512,-0.012459129095077516,-0.04048315063118935,0.7798738479614258,0.6245019435882568,0.1748669438585455,-0.2860585339702749,2.7608484919183174,0.09833869338035583,-0.09433704614639282,0.09718716144561768,-0.3378074622899294,0.3271985300257802,-9.654907867312431
32.3,5.699999809265138,265.0,22.39793586730957,34.733348846435554,-79.78283175037588,40.45888483862488,286.2017621154785,-0.011636298149824142,-0.03317946940660477,0.7818602919578552,0.6224613785743713,0.15716865250768436,-0.3013818594801709,2.8308953677528743,0.1366177350282669,0.2572157979011536,0.004002602305263281,-0.6022897804901004,0.3443172405660153,-10.019068365097047
32.4,5.9000000953674325,271.0,22.446765899658203,33.779136657714844,-79.78283171245408,40.45888491581113,286.4880074615478,-0.011544933542609215,-0.024011751636862755,0.782640278339386,0.6219039559364319,0.15438298503908626,-0.23425734146416385,2.8665191184728727,0.1461571902036667,0.07753581553697586,0.047413643449544914,-0.4847991547733546,0.2306504197977484,-10.024637253284457
32.6,5.9000000953674325,269.0,22.499351501464844,32.618175506591804,-79.78283159744917,40.45888512544289,287.09942713928217,-0.015662506222724915,-0.027874942868947983,0.7816834449768066,0.6228553652763367,0.13207259852442138,-0.1854968428015208,2.877183214205852,-0.03264675289392471,-0.15712203085422516,-0.08200783282518387,-0.3687349207699299,0.1676717958971858,-9.677077000737189
32.7,6.0,271.0,22.501855850219727,32.20468521118164,-79.78283152424788,40.45888521570697,287.4047021026612,-0.012580804526805878,-0.03501968085765838,0.7813318967819214,0.6230055093765259,0.14529747278621746,-0.2117520779723892,2.8505370925274836,-0.10729372501373292,-0.09222285449504852,0.05665803328156471,-0.5701951812207701,0.18828419951722028,-9.6595049482584
32.9,6.0,271.0,22.471805572509766,32.999862670898445,-79.78283153232637,40.45888544498124,287.9734124298096,-0.009072298184037209,-0.04279119148850441,0.7814231514930725,0.622466504573822,0.23210877571836264,-0.21683335589876973,2.812186525077261,0.038976341485977166,-0.04378008097410202,-0.05458413437008858,-0.6633545558899642,0.3615010379254818,-9.695888662934305
33.0,6.0,275.0,22.312795639038086,34.28009796142578,-79.78283159370507,40.45888557772089,288.2863587493896,-0.012444257736206056,-0.039874117821455,0.7820653915405273,0.6217949390411377,0.2491548038712709,-0.21394431457233248,2.8462704657980016,0.09674530476331712,0.0862455740571022,0.012995145283639431,-0.6895193110406399,0.5584696865826846,-9.874527533054351
33.2,6.0,274.0,22.425479888916016,33.802989959716804,-79.78283174685383,40.45888584658184,288.8813466186524,-0.015184047631919384,-0.0354921817779541,0.7836326956748962,0.6200239658355713,0.1980780594077433,-0.18358704034061746,2.892720629922937,-0.03121226280927658,0.1040446162223816,0.07419298589229584,-0.7326905467361212,0.12940767148509622,-9.964391051530841
33.3,6.0,276.0,22.421724319458008,32.60227203369141,-79.78283184156128,40.45888595064732,289.1725319976806,-0.011323398910462856,-0.034405767917633064,0.7840026617050171,0.6196999549865723,0.1925391139811417,-0.1730360977597654,2.925672300739807,-0.05370036512613297,0.1432705670595169,-0.02711205370724201,-0.5248424955457449,0.3082848704606295,-10.231185468435287
33.5,6.0,276.0,22.58323860168457,29.99409103393555,-79.78283194233465,40.45888605198172,289.46809474182135,-0.005577056668698789,-0.032060593366622925,0.7820883393287659,0.6223174929618835,0.2143391129667349,-0.1507077422859822,2.9790767176910817,0.08609354496002197,0.15063528716564178,0.10369352996349336,-0.5830108892172575,-0.07023364808410408,-10.40616924405098
33.61,6.0,276.0,22.369138717651367,33.826847076416016,-79.78283227034633,40.45888635656032,290.07240954589844,-0.007460975553840399,-0.03346068039536476,0.7773200273513794,0.6281706094741821,0.22645099554282444,-0.09590895211781003,3.0437138786286817,-0.0673055350780487,-0.07947904616594315,0.14280182123184204,-0.6600838427245618,-0.10690888300538064,-10.062820740938188
33.8,6.099999904632568,278.0,22.55319023132324,30.91649627685547,-79.78283264470544,40.45888669140086,290.6705865020752,-0.008613995276391506,-0.03848493471741676,0.7750662565231323,0.630648136138916,0.19616168094691333,-0.07154220027530976,3.0284042122350145,-0.08609670400619507,-0.1515948325395584,-0.11402584612369535,-0.5565848000720144,0.09626837577670813,-9.832918746471403
33.9,6.0,279.0,22.575725555419922,30.789268493652344,-79.78283281617841,40.458886774837254,290.97387782287603,-0.011744116432964802,-0.035438358783721924,0.7748998403549194,0.6309805512428284,0.2257638454044869,-0.07593053027058637,3.0187398747358163,0.1512414515018463,-0.03947530686855316,-0.07425566762685776,-0.5681745662167669,0.3190742989629507,-9.697074478268624
34.11,5.9000000953674325,280.0,22.41421127319336,33.38949966430664,-79.78283336024948,40.458886832574244,291.5579442138672,-0.010723088867962359,-0.029290748760104183,0.7771578431129456,0.6285324096679688,0.1745761851187544,-0.047208907995504486,2.933148230418699,-0.06499714404344559,0.089241623878479,-0.07484719157218933,-0.6094399385154248,0.2261073890514672,-9.672089910507204
34.2,5.800000190734862,281.0,22.54317283630371,31.377700805664066,-79.78283366510782,40.45888689907879,291.86228839111334,-0.0015498616266995668,-0.024803781881928444,0.7787594795227051,0.6268302798271179,0.2030069957149709,-0.02555409975332314,2.9689600039045905,-0.04711131751537323,0.14052222669124606,-0.006095630116760732,-0.5598885500058532,0.3905811417102814,-10.105225918293
34.41,5.800000190734862,274.0,22.529399871826172,32.013843536376946,-79.78283387479772,40.4588869881126,292.1615819091797,0.007655433844774962,-0.0253866333514452,0.7798386216163635,0.6254188418388367,0.2371769595277049,0.03391862217724168,3.017209897362224,-0.030310606583952907,0.021734438836574558,0.10020315647125244,-0.3721870438009501,0.5457565972208978,-10.236795287132264
34.5,5.699999809265138,270.0,22.41421127319336,32.029747009277344,-79.7828343463688,40.458887140099705,292.77654544067383,0.012755057774484158,-0.03791399672627449,0.7795764207839966,0.6250283122062683,0.29255497602895136,0.07096868031446969,3.0648648184326865,-0.02706071920692921,0.05974237248301506,0.04448511451482773,-0.3639456491544843,0.5527120795100927,-10.016745851039886
34.7,5.599999904632568,269.0,22.58323860168457,29.96228408813477,-79.78283491381947,40.45888731353822,293.3932465667725,0.013263284228742123,-0.028402883559465405,0.7832925915718079,0.6208623647689819,0.3057812272938756,0.07799604475355229,3.0394795566250434,0.22240050137043,0.22504431009292605,-0.09777210652828217,-0.27260369874536994,0.4416678994148969,-9.687511357069015
34.8,5.599999904632568,272.0,22.41045570373535,32.618175506591804,-79.78283517880386,40.458887347046534,293.69659320068365,0.013046160340309143,-0.01668047346174717,0.7861628532409668,0.6176565289497375,0.2473492085243401,0.12619816618859447,3.0116585778505645,0.1623828262090683,0.1564611941576004,-0.09902506321668623,-0.1194891583453864,0.38625105924904346,-9.537254871726038
34.91,5.400000095367432,258.0,22.41796875,31.98998641967773,-79.78283544492528,40.45888737445824,293.99636927795416,0.007696348242461681,-0.0075612906366586685,0.7880007028579712,0.6155799031257629,0.2027980913011035,0.1808131199496246,2.98346323698958,0.1182028502225876,0.029827997088432312,-0.11920977383852005,-0.026838957387953995,0.31604332163929943,-9.556069457530976
35.1,5.300000190734863,257.0,22.38541412353516,32.093360900878906,-79.78283601934135,40.458887555846296,294.6250638122558,0.011866089887917042,-0.005092887673527002,0.7889269590377808,0.6143514513969421,0.1496379268438451,0.17502690150256628,3.0669426402332376,-0.14937178790569305,-0.0024690034333616486,-0.09880449622869493,-0.19981110809370875,0.2323098047822714,-10.128985494375227
35.3,5.300000190734863,255.0,22.53315734863281,29.930477142333984,-79.7828366738412,40.45888759824029,295.2635239715576,0.01624460332095623,-0.014147773385047913,0.7869287133216858,0.6166679263114929,0.20067963130554464,0.16155765339872935,3.1329443447340317,0.0007487427210435271,-0.16188760101795194,0.04931829497218132,-0.20734157267957928,0.4156310521066189,-10.09920328617096
35.41,5.199999809265137,245.0,22.52439308166504,30.36782455444336,-79.7828368317938,40.45888764440024,295.57804385375977,0.009534412063658236,-0.016395162791013718,0.7857493162155151,0.6182543635368347,0.2108048370580985,0.09921789525477094,3.1498112057016154,0.050390418618917465,-0.05146483331918717,-0.02668548934161663,-0.3885001176595688,0.3595998157560826,-10.03947163939476
35.6,5.199999809265137,252.0,22.473058700561523,31.03577423095703,-79.78283723906706,40.45888764451081,296.2299794311524,0.007171871606260537,-0.013359847478568554,0.7834076881408691,0.6213231682777405,0.1344604386162871,0.027219736667260644,3.207087939483444,-0.03557457029819488,0.05827857553958893,0.04107395559549332,-0.4207530668377876,0.07070770195685327,-10.117741298675536
35.7,5.300000190734863,251.0,22.7497615814209,27.33819961547852,-79.78283742541669,40.45888765588386,296.8780717010498,0.007033397909253836,-0.01690942607820034,0.7814594507217407,0.623687207698822,0.14569342399673565,-0.007902346145030992,3.166700580820069,0.09832890331745148,0.013114099390804771,0.18577603995800016,-0.4768990547955037,0.2203090159222484,-9.889876474142076
35.91,5.300000190734863,251.0,22.624555587768555,29.59650230407715,-79.78283746761103,40.4588876859107,297.1930207366944,0.006208427716046572,-0.01859129779040813,0.7812124490737915,0.6239575147628784,0.1328580558187341,-0.0400167387368931,3.130367729250393,-0.13140355050563812,-0.013363027013838293,-0.09365002810955048,-0.44130975745618345,0.4016410039365292,-9.439291790127754
36.0,5.199999809265137,252.0,22.761030197143555,27.179162979125977,-79.78283759139859,40.458887660533364,297.52417460632324,0.0053725210018455965,-0.020178105682134632,0.7808840274810791,0.6243270039558411,0.13265220814380166,-0.05423305065096823,3.1014937320980347,-0.0611528605222702,-0.10568156093358994,0.06131986528635025,-0.4756864884495736,0.15518581604585052,-9.448580092191696
36.2,5.300000190734863,259.0,22.648345947265625,27.79145050048828,-79.78283763857804,40.458887661016455,298.1701020355225,0.005979691166430712,-0.02197081409394741,0.7809781432151794,0.6241431832313538,0.1476223058795153,-0.0902742035991922,3.041828375039116,0.01625443622469902,-0.05046673864126205,-0.16584433615207672,-0.364480011574924,0.4828989924117923,-9.34582989513874
36.3,5.400000095367432,259.0,22.740997314453125,27.27458381652832,-79.78283761748649,40.458887701137755,298.47288600158686,0.004745190031826496,-0.020740924403071404,0.7812585830688477,0.6238447427749634,0.1582969946663007,-0.1141995076957744,3.0011987143217165,0.06326230615377426,0.022815963253378868,-0.025696923956274983,-0.30614855367690325,0.3783841422200203,-9.373156857490539
36.5,5.400000095367432,260.0,22.551937103271484,30.121318817138672,-79.78283757585012,40.458887747726045,298.7710122222901,0.00398763082921505,-0.02287696860730648,0.7814837098121643,0.6234933733940125,0.1519348293704111,-0.13152306145562473,2.9500060392904035,-0.005284200888127089,-0.10064422339200974,0.02100661210715771,-0.4461906476318837,0.24077357634902,-9.370102856755258
36.6,5.699999809265138,260.0,22.640832901000977,28.29241180419922,-79.7828374649983,40.45888770967882,299.39939776611334,0.001835572300478816,-0.0273100808262825,0.7812039256095886,0.6236755847930908,0.15279548445433155,-0.1929482809749734,2.917412924938993,0.11609729379415512,0.005190609954297543,0.040450479835271835,-0.5588863372430206,0.4181733849272132,-9.429643884301186
36.8,5.800000190734862,260.0,22.571969985961914,29.397708892822266,-79.78283742818824,40.45888774122149,300.02054301452637,-0.0013488730182871222,-0.02919986844062805,0.780592143535614,0.6243568658828735,0.14007831854809266,-0.21730737669360525,2.8770940185555283,-0.14550676941871646,-0.05763500183820725,-0.1030089184641838,-0.4328454742580653,0.4571334559097887,-9.30923685014248
36.9,5.9000000953674325,260.0,22.405447006225586,32.13311767578125,-79.78283733182235,40.458887809673435,300.30731478881836,0.0004115292977076024,-0.029021205380558968,0.7804942131042479,0.624488890171051,0.15427213123154107,-0.2365886560844213,2.846593424654913,-0.02205768972635269,-0.014969123527407646,0.10898906737565994,-0.5694888375699521,0.3585586093738675,-9.419352784752846
37.1,6.0,259.0,22.345348358154297,32.27624893188477,-79.78283717790903,40.45888788425261,300.9288128967285,0.0014609566424041984,-0.029687272384762764,0.7810086607933044,0.6238124966621399,0.16587071876205978,-0.21047235273675824,2.9141727625081093,-0.008578495122492312,-0.13977237045764926,-0.10030898451805116,-0.2842140215076506,0.3552600122988224,-9.844297428131103
37.31,6.099999904632568,261.0,22.172565460205078,35.02756500244141,-79.78283693629861,40.4588878715736,301.5690449829102,-0.0069435290060937405,-0.036307338625192635,0.7798156142234802,0.6249169707298279,0.16321098713467552,-0.2476735542835801,2.9653586281983544,0.00013630796456709504,-0.03301670029759407,0.06777894496917725,-0.4047827129065991,0.6252024970203638,-9.845268065929414
37.4,6.099999904632568,262.0,22.312795639038086,32.69769287109375,-79.78283688067383,40.45888794269329,301.86654177856445,-0.006487968843430282,-0.03757568821310997,0.7789390683174133,0.6259392499923706,0.1896947342160425,-0.24465340180580664,2.9567059101017974,-0.0033684726804494853,0.06131420657038689,0.1271897703409195,-0.4406179952993989,0.5424648340791464,-9.645609624981883
37.51,6.300000190734862,259.0,22.34785270690918,32.31600952148437,-79.7828367793748,40.45888786755536,302.20474520874023,-0.002541298046708107,-0.0353977270424366,0.7788584232330322,0.6261950135231018,0.1951840037697696,-0.2433225270050833,2.975704424271876,-0.11130791157484056,0.17782790958881378,0.04100370779633522,-0.5361570040136576,0.5477572220563889,-9.55165656387806
37.7,6.4000000953674325,258.0,22.350357055664066,31.36179542541504,-79.78283663890177,40.458888008853776,302.82999697875977,0.015539776533842087,-0.02818361669778824,0.7794656753540039,0.6256176829338074,0.2332669361362281,-0.16584852303664008,2.9356690342774643,-0.13571181893348694,0.163210928440094,-0.1874246448278427,-0.21424552638083694,0.8852167019248008,-9.332487133741381
37.8,6.5,258.0,22.12123107910156,34.677684783935554,-79.7828366082265,40.458888097732455,303.12315646362305,0.0231013260781765,-0.02555146813392639,0.7801586389541626,0.6246325969696045,0.2537495485973436,-0.12454272787571022,2.9063451513404384,-0.18074296414852145,0.11095619201660156,-0.17702512443065646,-0.09909075368195773,0.7222110206633806,-9.437578555941585
38.0,6.5,251.0,22.24768829345703,33.166847229003906,-79.7828365578145,40.45888818402821,303.4144810791016,0.02529474720358849,-0.026985062286257744,0.7811799049377441,0.6232094168663025,0.2713991940822602,-0.09662465280437836,2.897619324492811,-0.09823822975158693,-0.0933663621544838,0.03327526897192001,-0.14016959980130198,0.7250455315411091,-9.464609649181368
38.1,6.599999904632568,249.0,22.054872512817386,35.94997024536133,-79.78283700532575,40.45888844905127,304.01293460083014,0.009416434913873672,-0.03942378982901573,0.7817681431770325,0.6222506761550903,0.3062115385058299,-0.11819177415851605,2.9034982008692096,0.008472099900245667,-0.20308420062065125,-0.1675243228673935,-0.3666926345229149,0.7535353589057923,-9.786698260903359
38.31,6.699999809265138,248.0,22.10996437072754,34.431182861328125,-79.78283698942593,40.45888865963954,304.5985478515625,0.000591791293118149,-0.04156088083982468,0.7809340357780457,0.6232290863990784,0.2930443687381489,-0.22462125736690192,2.9614325559779853,0.09531740099191666,0.015075561590492725,0.07942496240139008,-0.535262014567852,0.7742293860018253,-10.0889075088501
38.4,6.9000000953674325,254.0,22.1350040435791,33.71552276611328,-79.78283698644778,40.45888877906197,304.89796343994135,0.004715720657259226,-0.04028041288256645,0.78060382604599,0.6237090826034546,0.29822670689093633,-0.22071039122196764,2.9852375413413186,-0.08512642234563828,0.03245408087968826,-0.03429339453577995,-0.4545049132034183,0.6195971368253231,-10.08270010471344
38.6,7.0,255.0,22.12123107910156,34.367565155029304,-79.78283710934147,40.45888896825519,305.48802081298834,0.019542012363672256,-0.04349036142230034,0.7791528701782227,0.6250180602073669,0.35987525069565995,-0.1686578576319867,3.0014117387516848,-0.08250166475772858,-0.06303466111421585,0.2300351709127426,-0.6011935371905566,0.4873163080215454,-9.845153460502623
38.7,7.199999809265138,254.0,22.299022674560547,32.18878173828125,-79.78283721257156,40.45888907420096,305.783053314209,0.02013792097568512,-0.04853104427456857,0.7783629298210144,0.6256120800971985,0.3865528592567881,-0.1503856482032268,2.9798889823245647,0.0050399787724018106,-0.08179496228694916,-0.010590340942144394,-0.31173268117010594,0.8891574329137802,-9.7632941955328
38.91,7.199999809265138,254.0,22.052370071411133,35.178646087646484,-79.78283723734678,40.45888928338881,306.38124743652344,0.017379313707351685,-0.05796407535672188,0.7778603434562683,0.6255168914794922,0.3798187772240919,-0.17352488819066444,2.9512235223264884,-0.04672355204820633,-0.10573070496320723,-0.0775865837931633,-0.4386851981654764,0.9049585830420256,-9.73244545519352
39.0,7.300000190734862,259.0,21.98350715637207,36.06924819946289,-79.78283731172726,40.458889418246564,306.97147265625,0.017473887652158737,-0.0569748729467392,0.7789164185523987,0.6242898106575012,0.3644165672721963,-0.18802676202562602,2.991327989042388,0.1206451877951622,0.05968128889799116,-0.00590018043294549,-0.6775466984510422,0.7217273097485304,-9.866070120334626
39.2,7.300000190734862,266.0,22.073654174804688,34.129013061523445,-79.78283738491032,40.45888952687617,307.2688054199219,0.016080869361758232,-0.05252252519130707,0.7792092561721802,0.6243523359298706,0.3550703961756569,-0.1672308874910778,3.0272751926572967,0.03833416104316712,0.1214689090847969,0.08820315450429916,-0.6188632381707431,0.7400861781835556,-10.128887261152267
39.3,7.400000095367432,265.0,22.04110145568848,35.91816329956055,-79.7828374537477,40.458889555127385,307.5750760192871,0.01823205128312111,-0.05064905434846878,0.7794740200042725,0.6241174340248108,0.3147480825073389,-0.1300490608896895,3.053610930361568,-0.06897764652967453,0.033962272107601166,-0.17898806929588318,-0.4702425114065409,0.6158786000311375,-9.976839773654936
39.5,7.400000095367432,264.0,21.98976707458496,35.91020965576172,-79.78283767696081,40.45888972538716,308.17320529174805,0.02278793975710869,-0.04751446843147278,0.7791783213615417,0.6245832443237305,0.3476510702913024,-0.09446708433548344,3.0894619750000185,0.023203231394290924,0.02518126182258129,0.09076861292123796,-0.5664930166304112,0.7843558864295483,-10.022994185686114
39.6,7.599999904632567,255.0,22.03609275817871,34.908287048339844,-79.78283776450891,40.458889759066174,308.48670474243164,0.020556282252073288,-0.04377486184239388,0.7787705063819885,0.6254420876502991,0.36240045579537467,-0.07324035444100037,3.1456230580699662,0.10721128433942796,0.036130856722593314,-0.1264711767435074,-0.3027298145927489,1.1139659178256989,-10.29744377732277
39.8,7.599999904632567,250.0,22.107460021972656,33.61214828491211,-79.78283805980881,40.45888984845853,309.09499255371094,0.020544124767184258,-0.05138779431581497,0.7774915099143982,0.6264538168907166,0.3350891958070096,-0.06000014018221675,3.1702977255006486,-0.17954203486442566,-0.01986813358962536,-0.028901614248752594,-0.3764081122353673,1.1433936385810377,-10.02877942085266
39.9,7.599999904632567,249.0,22.320308685302734,30.892641067504893,-79.78283816960516,40.458889892833206,309.4143895263672,0.02847986109554768,-0.05869712308049203,0.7778116464614868,0.6251021027565002,0.37554602488981137,-0.0917861171853464,3.1771757741970026,-0.14505551755428314,0.04857785999774933,-0.02986850030720234,-0.5143674279749394,0.977550011202693,-9.908739591836929
40.11,7.599999904632567,249.0,22.002286911010746,34.78105926513672,-79.78283853841977,40.45889022291368,310.0086125488281,0.034039780497550964,-0.0588482990860939,0.7803469300270081,0.6216405034065247,0.4632762298022959,-0.07205438885126893,3.0848395991002606,0.14059247076511386,0.02663284540176392,0.029747527092695236,-0.6755696817487479,0.8571065781265498,-9.699333257675173
40.2,7.699999809265138,262.0,22.145021438598643,32.761306762695305,-79.78283864395901,40.45889027389757,310.30980197143555,0.03142157569527626,-0.05444915965199471,0.7815709710121155,0.6206406950950623,0.4449295835381832,-0.0781289720842393,3.0926600078911264,0.13760942220687866,0.09766796231269836,-0.03338176012039185,-0.4584281390905379,1.2542496845126152,-9.950869950056076
40.4,7.699999809265138,254.0,22.031084060668945,34.48684310913086,-79.782838831329,40.45889031285516,310.938025390625,0.027720022946596142,-0.05083024874329567,0.7820039391517639,0.6205787062644958,0.3697049251877213,-0.0697675559796458,3.137911688274188,-0.08978495746850967,-0.011276381090283394,0.14043128490447998,-0.3733707760646939,1.0205719967186448,-9.959630248546599
40.5,7.699999809265138,253.0,22.111215591430664,33.413352966308594,-79.78283901764492,40.458890291620605,311.24027529907227,0.027216412127017968,-0.05335547775030136,0.7812213301658629,0.6213741898536682,0.3505520009309309,-0.0541068402112928,3.129568630258174,-0.03826979175209999,-0.02502039447426796,-0.05189748853445053,-0.4274053709954024,0.9887341267615556,-9.78114165186882
40.7,7.699999809265138,252.0,22.1350040435791,34.97190093994141,-79.78283923085404,40.458890289221785,311.85469332885737,0.026653163135051727,-0.05438390001654625,0.7799646258354187,0.6228862404823303,0.3103290124469936,-0.0672010474585947,3.0725679099212755,-0.05784626305103303,0.09492938965559006,0.011251813732087612,-0.42847526527941227,0.8777140664309264,-9.488006697893145
40.8,7.599999904632567,253.0,21.925912857055664,36.347557067871094,-79.78283934890317,40.458890236584104,312.1616276855469,0.02964604645967484,-0.05010990425944328,0.7804027795791626,0.6225605607032776,0.28942859822845096,-0.04118600938500205,3.0556449128200764,0.016049493104219437,0.1820800602436065,-0.07110866159200667,-0.3990476176142693,0.975802059173584,-9.581438187360764
41.0,7.599999904632567,249.0,21.97348976135254,34.59021759033203,-79.78283947959008,40.45889016316221,312.46908084106445,0.030273135751485825,-0.04411032050848007,0.7809981703758241,0.6222376227378845,0.2716126506086016,-0.0003840131784005,3.086630897537858,0.08660842478275299,0.13445943593978882,0.01565924845635891,-0.29379154147580266,0.8849212713539599,-10.017023009061814
41.1,7.599999904632567,248.0,22.04110145568848,35.02756500244141,-79.78283970681996,40.45889008653098,313.109599029541,0.03131459280848503,-0.02836317010223865,0.7808688282966614,0.6232647299766539,0.234197441410347,0.06040596814509031,3.2099617856694223,-0.0011605622712522745,0.05378628894686699,-0.06010304763913155,-0.07649319293908775,0.9504421732574702,-10.247236075401306
41.3,7.5,248.0,22.163801193237305,32.31600952148437,-79.78283995769789,40.45888997121322,313.74452105712885,0.02849951013922692,-0.0319761261343956,0.780120313167572,0.6241615414619446,0.2637675653411216,0.04610021383459763,3.2383495426679656,0.002889485796913505,-0.14977532625198364,0.0095858471468091,-0.3449857234954834,0.9870928133279084,-9.855989520549775
41.41,7.5,235.0,21.975994110107425,34.924190521240234,-79.78284002063661,40.45888995889814,314.0696248168945,0.02758280746638775,-0.038389261811971664,0.7793382406234741,0.6248178482055664,0.2881071683198053,0.001825731443705507,3.243815017538545,0.031186196953058243,-0.14268788695335388,0.13873305916786194,-0.2229881735891104,1.051234795600176,-9.872214374542237
41.6,7.400000095367432,244.0,22.02607536315918,33.874557495117195,-79.78284014667291,40.4588899258085,314.71053591918945,0.03015739470720291,-0.0483960397541523,0.7788034677505493,0.6246708035469055,0.3176948628908026,-0.04536481744141179,3.2213682157415406,-0.05393505096435547,-0.0691484808921814,0.1043558344244957,-0.3581336629763246,0.8445628387480975,-9.688131746649745
41.7,7.400000095367432,243.0,22.02607536315918,34.375518798828125,-79.7828402367227,40.45888987813486,315.02858630371094,0.03040561638772488,-0.04784095287322998,0.7791281938552856,0.6242964267730713,0.3337529869841696,-0.05919772555744681,3.2086476552019882,0.01800481416285038,0.10658560693264008,0.03256584331393242,-0.5160476984828711,1.021697512641549,-9.659127218127251
41.9,7.300000190734862,243.0,22.172565460205078,31.822999954223643,-79.78284033373791,40.45888984023309,315.67657748413086,0.03399096056818962,-0.03180388733744621,0.7807772755622864,0.6230729818344116,0.3108040633396432,-0.04920715746041456,3.2397961767807457,0.038460329174995415,0.08497767895460129,-0.024207105860114098,-0.4824976176023483,0.7767241736501456,-9.850673232078552
42.0,7.300000190734862,237.0,22.33282852172852,29.6760196685791,-79.78284048282492,40.45888977814131,315.99833193969727,0.0335601344704628,-0.029837792739272118,0.7814428210258484,0.6223589181900024,0.29594150052810364,-0.010449323790726023,3.225760427922733,0.07896426320075989,-0.15314283967018127,0.12283218652009965,-0.44009174589067696,0.8877956163883209,-9.657615712881089
42.2,7.400000095367432,234.0,22.25770568847656,30.12927055358887,-79.78284056831828,40.45888970486113,316.6554211730957,0.030478384345769882,-0.04043344408273697,0.7819279432296753,0.6213091611862183,0.27835929456678665,-0.07895255419260128,3.1673879266578475,-0.16525417566299438,-0.09694337844848633,-0.1946115642786026,-0.2726286955922842,1.1290790699422355,-9.385547107458114
42.3,7.400000095367432,234.0,22.21388435363769,31.115291595458984,-79.78284052323856,40.45888970699156,316.9716862792969,0.028558736667037014,-0.045141808688640594,0.7821002006530762,0.6208591461181641,0.29550111500992604,-0.12616251240916587,3.13124170880056,-0.11472497135400772,-0.03308526799082756,-0.14416317641735074,-0.6083030936121941,1.0172651769965888,-9.378082551956178
42.5,7.5,234.0,21.97974967956543,35.043468475341804,-79.78284045739618,40.458889712620646,317.2852200622558,0.02541274018585682,-0.044458698481321335,0.7822274565696716,0.6208848357200623,0.3039572171317463,-0.16953252421085466,3.1106968653941127,0.09673657268285753,-0.03314551711082458,-0.05386457219719887,-0.44392232995480296,0.91590829834342,-9.948487794399261
42.6,7.5,245.0,22.047361373901367,33.03166961669922,-79.78284030383139,40.45888969634314,317.9431408996582,0.024676591157913208,-0.04100565984845162,0.7816641926765442,0.621860682964325,0.25545811951408864,-0.2005249731125019,3.1938312671663143,-0.04894041270017624,0.042115896940231316,0.03714446723461151,-0.33145702064037325,1.012493775933981,-10.084020406007768
42.8,7.5,244.0,22.28274726867676,30.94830322265625,-79.78284008620633,40.458889627319,318.60519305419916,0.026866378262639046,-0.04194077476859093,0.7813107371330261,0.622151792049408,0.27467656997852624,-0.1823161521416872,3.2191055127923085,0.0823269933462143,-0.06544476002454758,0.09221237897872923,-0.2948128307797015,0.924103390350938,-9.720482636690141
42.9,7.400000095367432,245.0,22.20136260986328,31.00396728515625,-79.78283997877256,40.45888962485147,318.927153503418,0.024810781702399254,-0.04424181580543518,0.7804233431816101,0.6231906414031982,0.2902769776152421,-0.19672901267991444,3.190282357200352,0.05324451997876167,-0.038039661943912506,0.046776700764894485,-0.6073687816411257,0.8896179742366076,-9.502549307942393
43.01,7.400000095367432,245.0,22.33282852172852,30.09746360778809,-79.78284001037966,40.458889542865975,319.2668561096192,0.02352500334382057,-0.045959647744894035,0.7795959115028381,0.6241510510444641,0.2780828998843964,-0.20863289738766327,3.1828957830692968,-0.02767561748623848,0.012487886473536491,-0.08241105824708939,-0.33783037606626753,1.0485996747761963,-9.425176026821136
43.2,7.400000095367432,245.0,22.150028228759766,31.592397689819336,-79.7828397031939,40.4588894440356,319.9234074707031,0.02474313974380493,-0.042507540434598916,0.7792142033576965,0.6248250007629395,0.26510912291629884,-0.2284938705920372,3.187122032955476,0.056472815573215485,0.02819222211837769,-0.07215588539838791,-0.4503592738509177,0.9001543644815684,-9.695756515860557
43.41,7.300000190734862,244.0,22.20261573791504,30.94830322265625,-79.78283947588531,40.45888941192557,320.56582919311523,0.023285681381821632,-0.04036591947078705,0.7796296477317809,0.6245046257972717,0.258457243498349,-0.19094257419592808,3.1982103327139235,0.15120911598205564,-0.09010881185531616,0.12117727845907213,-0.2245430944114924,0.7897793982177973,-9.780730007886886
43.5,7.300000190734862,244.0,22.290258407592773,29.874814987182607,-79.7828393144121,40.458889349208995,320.9030751342773,0.020606357604265213,-0.040581200271844864,0.7795974016189575,0.6246250867843628,0.2382937834122449,-0.1925058934807532,3.226291031496197,0.008147385902702808,-0.09411943703889848,0.08037324994802475,-0.3811637258157135,0.8020866908133031,-9.784826567173004
43.7,7.199999809265138,244.0,22.258956909179688,30.526859283447266,-79.78283904976078,40.45888926463572,321.5598591918945,0.017281839624047283,-0.03835173696279528,0.7799848318099976,0.6243830323219299,0.20758306969310533,-0.2110435450022128,3.2368099688667584,-0.025817368179559708,0.055796410888433456,0.07539874315261841,-0.3852401122078301,0.9130823390185834,-9.760325564146044
43.8,7.199999809265138,246.0,22.439252853393555,27.457475662231445,-79.78283894458414,40.45888924949993,321.88436785888666,0.018026433885097504,-0.038172822445631034,0.7805677056312561,0.6236440539360046,0.22215603727833444,-0.20820406715767986,3.226323302517664,0.00761940097436309,0.04981774836778642,0.03463263064622879,-0.4366796031966806,0.8317795827984811,-9.651992445588114
43.9,7.199999809265138,245.0,22.322813034057614,30.67794418334961,-79.78283884506445,40.458889251246035,322.20683947753906,0.016337336972355843,-0.037532199174165726,0.7807903289794922,0.6234508752822876,0.24068566811312314,-0.20679746379574648,3.192990405007152,0.12937824428081512,-0.015117265284061432,0.2094935029745102,-0.32856959246099,0.7600995893776418,-9.565474703907967
44.1,7.099999904632568,245.0,22.439252853393555,27.94253349304199,-79.78283844973888,40.45888911280375,323.18913928222656,0.01929475925862789,-0.039911642670631416,0.7800261974334717,0.6241745948791504,0.2580680708353158,-0.18772704157628825,3.1350531787912943,0.1034187451004982,-0.049201425164937966,0.12447230517864227,-0.5043118981271982,0.9033389043062926,-9.407259573340417
44.3,7.099999904632568,245.0,22.3641300201416,28.499156951904297,-79.78283836776757,40.45888913729865,323.5020665283203,0.017794933170080185,-0.04513900354504585,0.7798076272010803,0.624136209487915,0.2566687924006461,-0.18314862969340973,3.096252864182933,-0.16573140025138855,-0.10510116070508957,-0.17355801165103912,-0.2772689911164343,1.040658059567213,-9.3477132833004
44.4,7.0,245.0,22.280242919921875,29.07963752746582,-79.78283829273497,40.45888916500557,323.81170550537115,0.017035042867064476,-0.04789769649505615,0.7796493768692017,0.6241495609283447,0.27608622566588553,-0.2175975834977944,3.060008208793556,0.06325282901525497,0.006272069644182921,-0.01929514855146408,-0.36747630760073663,0.9565139219909908,-9.433536960482597
44.6,7.0,250.0,22.319055557250977,30.121318817138672,-79.78283806642284,40.45888922790947,324.45025531005865,0.018389366567134857,-0.04496760293841362,0.7801671624183655,0.6236817836761475,0.2692009206317456,-0.2125525974616732,3.0250932933249404,-0.04975077882409097,0.06867800652980804,-0.09074799716472626,-0.4680472473800182,0.9004786656796933,-9.257055712938307
44.7,6.9000000953674325,251.0,22.326568603515625,29.771442413330078,-79.78283791457694,40.45888940908982,324.7696446533203,0.018097879365086555,-0.04234142601490021,0.7802703380584717,0.6237450242042542,0.2885541181979958,-0.2223848479929371,3.0180324231951765,0.1601785570383072,0.02925203181803226,0.0963274911046028,-0.4323398728296161,0.7686113081127406,-9.43625883936882
44.9,6.9000000953674325,251.0,22.24894142150879,30.35192108154297,-79.7828378369555,40.458889444827335,325.07249346923834,0.017429053783416748,-0.03889930620789528,0.7802460789680481,0.6240186095237732,0.2731370610891102,-0.20152979354274567,3.0047690255265254,0.13957098126411438,-0.004489917773753405,0.082929827272892,-0.2909524259157479,0.6334754300862551,-9.66805182337761
45.0,6.9000000953674325,246.0,22.171314239501953,30.26445198059082,-79.78283770833319,40.45888944380104,325.7039403076172,0.01250027772039175,-0.042392391711473465,0.780185341835022,0.6239852905273438,0.21875521753017216,-0.18201787597187435,3.045024595274899,-0.0646519809961319,-0.010912418365478516,-0.220407173037529,-0.23276110019534824,0.7818100818246604,-9.661009436845779
45.2,6.9000000953674325,248.0,22.099946975708008,31.886613845825195,-79.78283756971676,40.45888942030346,326.32055178833014,0.014077857136726381,-0.039337143301963806,0.7795544266700745,0.624939501285553,0.2227788264549406,-0.17395126605304967,3.085550145486103,0.014733023941516874,-0.003901365445926785,0.16931669414043427,-0.4048053708672524,0.6918886028230191,-9.810981162786485
45.3,6.800000190734862,249.0,22.24768829345703,31.210712432861328,-79.78283754099785,40.45888942230345,326.6308049316406,0.01271661091595888,-0.03944773226976395,0.7794603705406189,0.6250790357589722,0.21966321368387945,-0.15213668968707206,3.0843519189778066,-0.01519775390625,-0.01917858421802521,-0.003807018278166652,-0.2886466312408447,0.7535613790154457,-9.70909927725792
45.5,6.800000190734862,249.0,22.09243392944336,32.82492446899414,-79.78283750222296,40.45888939727393,327.24063388061523,0.0151851624250412,-0.041941914707422256,0.7814018726348877,0.6224318742752075,0.20877728879677776,-0.1776064131936185,3.0593632344103563,0.07196204364299774,0.2047187089920044,-0.12161564826965332,-0.3988075163215399,0.9908850250393152,-9.74222492337227
45.6,6.800000190734862,248.0,22.07740974426269,32.999862670898445,-79.7828374802193,40.45888938585794,327.54836169433594,0.01784881204366684,-0.03853772208094597,0.7823789119720459,0.6213529706001282,0.2281116812345234,-0.16680881874971362,3.0731328929608748,0.15283627808094025,0.11809253692626953,-0.10000154376029967,-0.4980267991125584,0.8711178955435753,-9.975132386684418
45.8,6.800000190734862,250.0,22.197607040405273,30.685895919799805,-79.7828374787253,40.45888937947147,328.1556386108398,0.01899017207324505,-0.03860998898744583,0.7822455167770386,0.6214827299118042,0.2489192026060649,-0.13322017667326735,3.094162371529075,0.10959213227033617,0.03314575925469398,0.09617692232131958,-0.4386911550164223,0.9591166638582944,-9.925867255926134
45.9,6.800000190734862,251.0,22.292762756347656,30.638185501098643,-79.78283746209604,40.45888939325407,328.46644488525385,0.013768568634986876,-0.037700776010751724,0.78155916929245,0.622538685798645,0.2645855456279053,-0.1324475294594396,3.093019863226413,0.117756225168705,-0.040135156363248825,-0.02360440045595169,-0.4346582938358188,1.0103859277814626,-9.761188028454779
46.11,6.800000190734862,251.0,22.126239776611328,31.695770263671875,-79.78283752275937,40.45888940212095,329.0586575622558,0.011866303160786629,-0.04237225651741028,0.7790666222572327,0.6253951191902161,0.2468223657433901,-0.16098288457065038,3.065101458645984,0.06874169409275055,-0.015973439440131187,0.11030300706624983,-0.47914387397468106,0.8731576236337424,-9.792444319725037
46.21,6.9000000953674325,252.0,22.207622528076172,30.42348670959473,-79.78283754813332,40.45888943543657,329.35005465698237,0.011106502264738085,-0.04431089013814926,0.7776532173156738,0.6270318031311035,0.263700778747306,-0.15126201451728366,3.0614841347053448,-0.02135148644447327,-0.05177466943860054,-0.08760907500982285,-0.4203822802752257,1.0012435868382454,-9.91032652616501
46.4,6.9000000953674325,255.0,22.127492904663086,31.2584228515625,-79.78283762902943,40.458889516005,329.97084704589844,0.00887338910251856,-0.04933888837695122,0.7767566442489624,0.6278026700019836,0.2857189321420123,-0.15553209194299095,3.125395815631012,-0.033759281039237976,0.06180748715996742,0.2727883458137512,-0.5711094299331307,0.6314361405372622,-10.079976471662524
46.5,6.9000000953674325,255.0,22.34660148620605,29.2863826751709,-79.78283765562612,40.45888958406726,330.2565449829102,0.011301623657345772,-0.049649931490421295,0.7774690985679626,0.6268563866615295,0.28904539202118096,-0.147189542072375,3.1317923381292094,-0.04017525911331177,0.047066479921340935,-0.018639106303453445,-0.4735757897794247,0.8264342044293881,-10.128086192607881
