time,wind_speed,wind_angle,battery_voltage,battery_current,position_x,position_y,position_z,orientation_x,orientation_y,orientation_z,orientation_w,velocity_x,velocity_y,velocity_z,angular_x,angular_y,angular_z,linear_acceleration_x,linear_acceleration_y,linear_acceleration_z
0.0,1.2999999523162842,198.0,23.891632080078125,0.06361418962478638,-79.78285762018396,40.45889103638647,267.920278342247,0.0032281973399221893,-0.010873028077185154,0.8526426553726196,0.5223713517189026,0.015074736863741143,-0.0014706676012129234,0.011021690016727476,0.005424150731414557,0.0017771573038771746,0.005540178157389164,-0.15810143876820806,0.15190094165503978,-9.80481878221035
0.1,1.2999999523162842,199.0,23.89288330078125,0.04771064221858978,-79.78285770973271,40.45889118044013,267.91985133457183,0.003227007342502475,-0.010879749432206154,0.8526415228843689,0.5223732590675354,0.00946670008399182,-0.0019124738252814333,0.013377114083526162,0.0007522663800045848,0.003636403474956751,0.0031930075492709875,-0.15997839499264954,0.15063131013885142,-9.804272067546846
0.3,1.2999999523162842,200.0,23.89413642883301,0.05566241592168808,-79.78285771234543,40.4588911882791,267.92120954561227,0.0032246208284050226,-0.010883153416216372,0.8526414632797241,0.5223730802536011,0.008526793508213667,-0.0030002574091315113,0.013381521442896352,-0.0053736241534352285,-0.002667887602001429,-0.004472329281270504,-0.16146614592522385,0.17124206922948362,-9.80442877292633
0.4,1.2999999523162842,201.0,23.891632080078125,0.06361418962478638,-79.7828578246596,40.45889133967898,267.91923591661447,0.003210193943232298,-0.010883790440857407,0.852640688419342,0.5223744511604309,0.01324426841525405,0.0013120577991014171,0.015407792054951531,-0.00011867222201544793,-0.0024795092176645994,0.0016522395890206099,-0.1591694327071309,0.15197896543890238,-9.804531683921814
0.6,1.2999999523162842,205.0,23.891632080078125,0.06361418962478638,-79.78285783951517,40.458891359451385,267.92235264348983,0.0032059557270258665,-0.010885489173233507,0.8526394367218018,0.5223764777183533,0.01285843913888426,-0.0006433674872403866,0.015436426696129891,0.0006844901945441961,0.0052005816251039505,0.0065873186103999615,-0.15861297877505426,0.1523292958829552,-9.80402531504631
0.71,1.2999999523162842,206.0,23.887874603271484,0.05566241592168808,-79.78285791455198,40.458891494118035,267.92560526895517,0.003204457694664597,-0.010890264064073564,0.8526402711868286,0.5223750472068787,0.007815812910511056,-0.0015243251925392404,0.022384848441618903,0.0005452511832118034,0.0015850745839998126,0.0059835906140506285,-0.1587310559861362,0.15203074984252454,-9.804704761505127
0.9,1.399999976158142,211.0,23.89664077758789,0.07951773703098297,-79.78285798546801,40.45889163415345,267.9255875067711,0.003201473737135529,-0.010888306424021721,0.852639377117157,0.5223766565322876,0.006223605952150462,-0.0023990027989590572,0.024891406892586083,-0.002359754173085093,-0.004293262027204037,-0.003773873904719949,-0.15988778142258525,0.17108313459903002,-9.804420002102852
1.0,1.399999976158142,212.0,23.897891998291016,0.05566241592168808,-79.7828579859065,40.458891645859296,267.93060955572133,0.0031989621929824352,-0.010890738107264042,0.8526383638381958,0.5223782658576965,0.005711639556038653,-0.004166113734299565,0.024962887343462425,-0.003673367900773883,9.207529365085064e-05,-0.00996200181543827,-0.16009855527430775,0.17157822931185365,-9.804417078495026
1.2,1.399999976158142,215.0,23.89413642883301,0.06361418962478638,-79.78285807827739,40.45889178645081,267.9311889128685,0.0031897819135338072,-0.010893292725086212,0.8526387810707092,0.5223775506019592,0.007863374527236764,-0.00033441568760167163,0.02683874971637164,0.00467540230602026,0.0006073645781725645,0.004944136831909418,-0.15692267663776874,0.15174329523928465,-9.804547471404076
1.3,1.399999976158142,216.0,23.89288330078125,0.05566241592168808,-79.78285812686649,40.45889192002032,267.93413373994827,0.003189319977536797,-0.010894447565078735,0.8526374101638794,0.5223796963691711,0.004617183568953449,-0.003270806489931121,0.027455269928799896,0.004482273943722248,0.00430671451613307,0.004756229463964701,-0.15900518076494338,0.17077484015375374,-9.804646289348602
1.5,1.399999976158142,219.0,23.89413642883301,0.04771064221858978,-79.78285812534229,40.45889192414055,267.93689230251306,0.0032004821114242077,-0.010885107330977915,0.8526362180709839,0.5223817825317383,0.0032997858529433648,-0.004088447853612599,0.027474559013858098,-0.007127466145902872,-0.00241426401771605,-0.006467283703386785,-0.1603183374926448,0.16700592594221236,-9.804411231279373
1.6,1.399999976158142,217.0,23.89664077758789,0.06361418962478638,-79.78285817496439,40.45889206566496,267.93867728281015,0.003197938436642289,-0.010877232998609545,0.8526487350463867,0.5223616361618042,0.0037236362575754976,-0.004971273578512698,0.02505708227930157,-0.003666497301310301,-0.0026671802625060077,-0.0007522921077907085,-0.1601177779957652,0.1597486725077033,-9.804077355265617
1.8,1.399999976158142,221.0,23.89037895202637,0.07951773703098297,-79.78285817180566,40.45889207051841,267.94119632410997,0.003196902340278029,-0.010870102792978287,0.8526489138603209,0.5223615169525146,0.004103218193703049,-0.006074029186967968,0.025004910690494164,0.000781766779255122,0.00172466691583395,0.0023502823896706104,-0.16024327386170625,0.16447620118036868,-9.804432865977287
1.9,1.399999976158142,223.0,23.90290069580078,0.08746951073408127,-79.78285821631755,40.458892197802356,267.94297337698936,0.0032270518131554127,-0.010839554481208323,0.8526428937911987,0.5223718285560608,0.0011101850034108784,-0.0052040040612136036,0.02337353507084962,-0.00017845440015662462,-0.0021439874544739728,0.003542104503139853,-0.1603769923746586,0.1688967875763774,-9.805213469266892
2.1,1.2999999523162842,227.0,23.89413642883301,0.06361418962478638,-79.78285821146034,40.45889220046258,267.9453207271099,0.0032248722855001692,-0.010859115049242972,0.8526419997215271,0.5223727822303772,0.0011054048515925512,-0.006154416875618623,0.023378084389857296,0.000891529256477952,-0.0008964025182649492,0.0028158403001725674,-0.1595530465990305,0.15236246055923405,-9.804107176065443
2.2,1.2999999523162842,226.0,23.89664077758789,0.06361418962478638,-79.78285825841421,40.458892396384186,267.94717577266687,0.003221944440156221,-0.010825946927070621,0.852641761302948,0.5223739743232727,0.010376850300468064,-0.010458607160752666,0.021534233732006167,0.0052480632439255714,0.004175017587840557,0.0030084336176514626,-0.15835983088240027,0.15252912447787825,-9.805722177028656
2.4,1.2000000476837158,227.0,23.891632080078125,0.04771064221858978,-79.7828583356969,40.458892539381495,267.94606095719337,0.0032033580355346203,-0.01082381047308445,0.8526452779769897,0.5223682522773743,0.013365963135417387,-0.0038902339058576015,0.017517728052740083,-0.003071472980082035,-0.0024243502411991358,-0.007789030671119691,-0.16040547927841545,0.17114918986335398,-9.805191834568976
2.5,1.2000000476837158,226.0,23.89037895202637,0.04771064221858978,-79.78285834042904,40.45889256463431,267.9496135728359,0.003197222482413053,-0.010833206586539744,0.8526440262794495,0.5223702788352966,0.013112485321031144,-0.006065693455222931,0.01744046578154277,-0.0062247319146990785,-0.003321599680930376,-0.004985825624316932,-0.1618160652369261,0.16998736638575793,-9.8045924949646
2.7,1.100000023841858,226.0,23.88912773132324,0.10337305814027786,-79.78285836948805,40.45889270811685,267.94924235510825,0.003195527940988541,-0.010830678045749664,0.8526437282562256,0.5223708152770996,0.013665846018517098,-0.007252543727908175,0.01462127822327217,0.0032467269338667393,0.005672744009643793,0.0005777692422270776,-0.15932153340429067,0.15494286423549056,-9.80399958729744
2.8,1.100000023841858,230.0,23.88411903381348,0.198794350028038,-79.78285839427733,40.45889284245178,267.9511679427624,0.003194410586729645,-0.010839285328984259,0.8526425361633301,0.5223726034164429,0.008083440250542234,-0.005959536978797017,0.0132146250786786,0.005004727747291327,0.004495278932154179,0.006220423616468906,-0.15895118538290262,0.15697243278846146,-9.805161429047585
3.0,1.0,228.0,23.89538764953613,0.14313192665576935,-79.78285839172786,40.45889285081249,267.9525070207119,0.003194410586729645,-0.010839285328984259,0.8526425361633301,0.5223726034164429,0.006993407129360817,-0.006769468158280325,0.013143848949232269,-0.006260058376938105,-0.002651630435138941,-0.002504809061065316,-0.160086605027318,0.16283594755455852,-9.80344351708889
3.1,1.0,226.0,23.89288330078125,0.15903547406196594,-79.78285846568315,40.458893007369646,267.95450213718414,0.003172409487888217,-0.01084372494369745,0.8526414036750793,0.5223743915557861,0.013345660951580808,-0.0002278840594824704,0.011597724212625476,-0.0013805173803120852,-0.0008310455596074463,-0.003466284135356545,-0.1609484115242958,0.15775175699964167,-9.803990231752397
3.3,1.0,219.0,23.88411903381348,0.17493902146816254,-79.78285847245952,40.45889301827571,267.95568588542943,0.0031713363714516163,-0.010847045108675957,0.8526414036750793,0.5223742723464966,0.01376643162598818,-0.0012710406777894515,0.011575783185632923,0.0035228333435952663,0.0005191187956370413,0.0018245779210701587,-0.15869509560987355,0.16578957717865705,-9.804609451889991
3.41,0.8999999761581421,218.0,23.881614685058594,0.14313192665576935,-79.78285846521162,40.45889317056447,267.9583309905529,0.003174608573317528,-0.010839874856173992,0.8526403307914734,0.5223762989044191,0.011408539452322194,-0.007616064530435685,0.01103442611640452,4.439396798261441e-05,-0.002776509849354625,-0.0012152233393862846,-0.16151122430339454,0.16917754529044032,-9.804461517333984
3.6,1.0,217.0,23.87911033630371,0.11132483184337616,-79.78285846331288,40.458893182826415,267.959472479105,0.0031713694334030147,-0.01084232609719038,0.8526390790939331,0.5223782658576965,0.011696466872744771,-0.00851490196980477,0.011128635601264116,0.0011303424835205078,0.0029070163145661354,0.00393544090911746,-0.1582815512828529,0.15288777806796133,-9.804720548987387
3.7,1.0,218.0,23.881614685058594,0.10337305814027786,-79.78285852197341,40.458893313921415,267.96246776151656,0.003158260136842728,-0.010854987427592278,0.8526392579078674,0.5223777890205383,0.011656128225604141,-0.00041624980586566033,0.010695993062754356,0.006066004280000925,0.005402636248618364,0.0020519536919891834,-0.1593342693708837,0.15357711911201474,-9.804263296723366
3.9,1.0,221.0,23.88036346435547,0.13518016040325165,-79.78285850081652,40.45889345429392,267.9651791470051,0.003161825705319643,-0.010845814831554891,0.8526389598846436,0.5223786234855652,0.0094275223959162,-0.006441045018375783,0.010461258926402392,-0.0023167533800005913,-0.004608610644936562,-0.001963334856554866,-0.15950482534244656,0.1679972848109901,-9.804852111339567
4.0,1.0,221.0,23.88411903381348,0.11927660554647446,-79.78285849576676,40.458893475858055,267.967336745739,0.003160472493618727,-0.01084910798817873,0.8526380658149719,0.5223798751831055,0.009430653895671324,-0.00858230985348737,0.010542146245155131,-0.008515856228768827,-0.0014118737308308482,-0.002395344199612737,-0.1576740073040128,0.1574954479560256,-9.80613382101059
4.2,1.100000023841858,222.0,23.88411903381348,0.14313192665576935,-79.78285851316548,40.458893615394274,267.9724414961338,0.0031520824413746595,-0.010849636048078535,0.8526389598846436,0.5223785042762756,0.01272871743587102,-0.005466451565945311,0.014269770038680931,0.0009291450842283666,0.0007753825047984719,0.0006768692401237786,-0.15897806430235506,0.16305231280624868,-9.804693651795388
4.3,1.100000023841858,222.0,23.88912773132324,0.13518016040325165,-79.78285850095706,40.4588937437378,267.97866103219985,0.003149661701172591,-0.010853377170860769,0.8526377677917479,0.5223802924156189,0.008922667272621044,-0.005923725839655752,0.015620589041879303,0.0016083758091554046,-0.0021899535786360502,0.0004394514253363013,-0.16097527217119936,0.16866381257772448,-9.805003554224973
4.5,1.100000023841858,221.0,23.881614685058594,0.11132483184337616,-79.78285849917988,40.45889375316453,267.98024881052964,0.003149661701172591,-0.010853377170860769,0.8526377677917479,0.5223802924156189,0.009064479177687088,-0.006773272369714635,0.015635946991509022,0.0015492425300180912,0.00423088064417243,0.0037385658361017695,-0.1591004355624318,0.1529369494970888,-9.804487245082855
4.6,1.100000023841858,222.0,23.885372161865234,0.13518016040325165,-79.78285848030755,40.458893872171494,267.9855807440281,0.003148816525936127,-0.010859345085918905,0.8526360988616943,0.522382915019989,0.0051807329274267035,-0.0060752176466504154,0.01419415031082169,0.006739131174981594,0.0010788040235638616,0.00626326072961092,-0.1595220198109746,0.15314623413607478,-9.804858543276787
4.8,1.0,222.0,23.88411903381348,0.12722837924957275,-79.7828584763252,40.458893878175786,267.9870173947811,0.003147263079881668,-0.010862521827220915,0.8526360988616943,0.5223827958106995,0.004102101958730819,-0.006883213892645239,0.014191773115832987,-0.0046512573026120645,-0.003562782891094685,-0.0059878677129745475,-0.1598727979324758,0.1675204261019826,-9.804796562790873
4.9,1.0,222.0,23.88912773132324,0.14313192665576935,-79.78285848180295,40.45889402376675,267.9923134760857,0.0031359822023659945,-0.010860100388526915,0.852634847164154,0.5223850011825562,0.008984430393669739,-0.0051382637456323255,0.012534121364047829,-0.004127485211938621,-0.0005934024811722338,-0.002176839392632246,-0.16129971954971553,0.16143548458814622,-9.804589571356773
5.1,1.0,222.0,23.89288330078125,0.14313192665576935,-79.78285848124848,40.45889403344147,267.9935940818786,0.0031316569074988365,-0.010861428454518318,0.8526335358619691,0.5223870873451233,0.00956122010757204,-0.006150016205242149,0.012511754217154248,0.003156635444611311,0.0014387340052053332,0.0016054779989644885,-0.15819011544808745,0.16343437353149054,-9.80484450995922
5.2,1.0,219.0,23.88662338256836,0.15108370780944824,-79.78285848311846,40.45889415836472,267.99941948223113,0.003126496681943536,-0.010868820361793041,0.8526335954666138,0.5223868489265442,0.008529005622370084,-0.003122843401492256,0.011825863982667476,-0.005021643824875355,-0.0016174849588423967,-0.0038724485784769054,-0.16122476555407048,0.17052633348852395,-9.805384207963943
5.4,0.8999999761581421,215.0,23.885372161865234,0.13518016040325165,-79.78285846769786,40.45889427705498,268.00543910431855,0.0031232743058353662,-0.0108681907877326,0.8526327013969421,0.5223883390426636,0.009305393376403235,-0.002019148074430667,0.013859176879708404,0.004790553823113442,0.005851055029779673,0.00521182082593441,-0.15845510395243764,0.15409677213057876,-9.80486322104931
5.51,0.8999999761581421,216.0,23.88662338256836,0.13518016040325165,-79.78285847146095,40.45889429318488,268.00823840665817,0.0031191946472972627,-0.01086939312517643,0.8526313304901123,0.5223908424377441,0.00921266113804174,-0.0039337381070588045,0.013705014228528902,0.00578463077545166,0.004321612883359194,0.0017756916349753735,-0.15816913856193426,0.1603623377904296,-9.804167402386666
5.7,0.8999999761581421,217.0,23.88662338256836,0.14313192665576935,-79.78285841509903,40.45889440784615,268.0149673538208,0.003124870359897613,-0.01086574699729681,0.8526314496994019,0.5223904252052307,0.005188011753817857,-0.007658021345638412,0.016044049247179698,-0.002365217776969075,-0.0026673534885048858,-0.0006701793754473329,-0.1617922561056912,0.15596647415310144,-9.803378612995148
5.8,0.8999999761581421,213.0,23.887874603271484,0.15108370780944824,-79.78285837421106,40.45889453081985,268.02347693014144,0.003122003050521016,-0.010869275778532028,0.8526305556297302,0.5223919749259949,0.0048839018993506785,-0.007359088567529569,0.017874444000805484,0.0012620720081031322,0.0017646688502281906,0.0019495229935273528,-0.15790018491446972,0.15256862059235576,-9.805464899539947
6.0,0.8000000119209291,211.0,23.885372161865234,0.07156596332788467,-79.78285836839603,40.45889453727288,268.02528533506387,0.003122003050521016,-0.010869275778532028,0.8526305556297302,0.5223919749259949,0.0039941057678036015,-0.0083830322369904,0.017910488623225758,-0.006893625017255546,-0.0044174520298838615,-0.00773485703393817,-0.1603352396003902,0.1677995758317411,-9.804786037802694
6.1,0.8000000119209291,209.0,23.88912773132324,0.05566241592168808,-79.78285831700727,40.45889466087674,268.0343022363186,0.003116088919341564,-0.010869098827242851,0.8526296615600586,0.5223934650421143,0.0043090609013209545,-0.008950513380146036,0.01903331782287689,-0.002855246420949697,-0.0020408066920936108,0.0024822617415338755,-0.16071291491389275,0.15787118637934328,-9.805238612294195
6.31,0.8000000119209291,207.0,23.88912773132324,0.07156596332788467,-79.78285830984723,40.458894667897674,268.0362284796238,0.0031153548043221235,-0.01087245624512434,0.8526296615600586,0.5223933458328247,0.0044745144075564475,-0.010071565590834736,0.019047625651123872,-0.0002228399098385125,-0.000431500724516809,0.000908371526747942,-0.16149839697405696,0.16804102929309012,-9.805033375024797
6.4,0.699999988079071,206.0,23.891632080078125,0.06361418962478638,-79.78285828395045,40.45889478160566,268.04351002144807,0.003108882578089833,-0.01087536569684744,0.8526293635368347,0.5223937630653381,0.004755974153730636,-0.006578930040235815,0.016439155738572662,-0.004964325111359358,-0.004087946843355894,-0.005070764105767012,-0.16087539441883564,0.16839456656947732,-9.804784868359569
6.6,0.699999988079071,211.0,23.89288330078125,0.04771064221858978,-79.78285827987959,40.458894788468776,268.04517001080507,0.003104753326624632,-0.01087665557861328,0.8526282906532288,0.5223954916000366,0.005741166992735402,-0.0075340478996239425,0.016397884035459106,0.002475367859005928,0.0035482398234307775,0.003345944453030825,-0.15780328558757906,0.1601674976013601,-9.805106465220453
6.7,0.699999988079071,216.0,23.891632080078125,0.05566241592168808,-79.78285828714223,40.45889492014457,268.0548720972538,0.0030904107261449107,-0.010881898924708366,0.8526290655136108,0.5223942399024963,0.011301453888966414,-0.0019427765038734605,0.018109416929014386,-0.005479488521814346,-0.002282471163198352,-0.0009205435635522008,-0.16016296600922944,0.16977487491443755,-9.804614129662514
6.9,0.6000000238418579,226.0,23.89538764953613,0.06361418962478638,-79.7828582319939,40.45889504619071,268.06068030166625,0.003090775338932872,-0.0108758807182312,0.8526281118392944,0.5223959684371948,0.012266208089457468,-0.004963741475585333,0.015103534121893547,0.0045400182716548425,0.005166005343198775,0.0007703948067501187,-0.16003418108448386,0.15906120439991356,-9.803446440696716
7.01,0.6000000238418579,234.0,23.89037895202637,0.07951773703098297,-79.7828582329229,40.45889506930718,268.06374055314063,0.0030875108204782013,-0.010877097025513649,0.8526276350021362,0.5223967432975769,0.011417755242093595,-0.006697672188868839,0.01493143414515485,-0.0013153859181329608,-0.002296741120517254,-0.005270261783152819,-0.1596543678827584,0.17004969405010342,-9.803511344790461
7.2,0.5,246.0,23.89288330078125,0.07156596332788467,-79.78285817538321,40.45889517053315,268.0700220482349,0.0030916349496692428,-0.010880607180297376,0.8526274561882019,0.5223969221115112,0.0073860296901086375,-0.005573169774335212,0.013776635836524529,0.006102468352764845,0.00244623888283968,0.0016014021821320055,-0.1583077175728977,0.15895085647702215,-9.804205994009973
7.31,0.5,256.0,23.89538764953613,0.07156596332788467,-79.78285813923794,40.45889530403609,268.0791093723774,0.0030798930674791336,-0.010847714729607105,0.8526317477226257,0.5223907232284546,0.009652894381629694,-0.0048830631324346865,0.015993232181337722,0.000354734918801114,-0.003932084422558546,-0.002243629191070795,-0.159394513964653,0.17055774400010704,-9.804616468548776
7.5,0.4000000059604645,279.0,23.891632080078125,0.05566241592168808,-79.78285813912831,40.45889531390834,268.08073431420326,0.003090260084718466,-0.010826954618096352,0.8526313900947571,0.522391676902771,0.0105194493372101,-0.0058439686621180285,0.016038384597314506,0.004943697713315487,0.004206741228699684,0.0041152499616146105,-0.15854833049699665,0.15575699765235188,-9.804813519716264
7.6,0.30000001192092896,289.0,23.88912773132324,0.06361418962478638,-79.78285808316059,40.458895439683964,268.0900146381855,0.003098824992775917,-0.010845355689525604,0.8526313304901123,0.5223913788795471,0.00841390063444722,-0.007149509285715315,0.017300600227584974,0.0017006576526910069,-0.0025702151469886303,-0.005022969096899033,-0.1591272413916886,0.16992231611162426,-9.803913048505784
7.8,0.30000001192092896,313.0,23.89413642883301,0.07156596332788467,-79.78285808027171,40.45889544934258,268.09177145528787,0.0031027125660330053,-0.010850990191102028,0.8526312708854675,0.5223913192749023,0.009023729017988914,-0.008049817293936777,0.017341372711674716,0.004703189712017775,0.0035101461689919233,0.0064562205225229255,-0.15773094456642867,0.1525610466208309,-9.804170910716056
7.91,0.30000001192092896,324.0,23.887874603271484,0.06361418962478638,-79.78285802096256,40.45889558737585,268.1015586571693,0.003105044597759843,-0.010840993374586105,0.852629542350769,0.5223943591117859,0.010222651895250278,-0.009815258811085704,0.01877537810670276,0.00343726109713316,0.0036047487519681454,0.003429540432989597,-0.15874854281544687,0.16174953488633034,-9.80561107993126
8.1,0.30000001192092896,340.0,23.891632080078125,0.06361418962478638,-79.78285801588609,40.458895598968965,268.1034652309417,0.003122301306575537,-0.010859268717467785,0.8526454567909241,0.5223679542541504,0.009900283829012986,-0.010623652692260722,0.01875416583753679,-0.0016185996355488894,-0.003766797482967377,0.0007327661151066422,-0.1604834299720824,0.1550047168135643,-9.804128810763359
8.2,0.30000001192092896,351.0,23.89037895202637,0.05566241592168808,-79.7828579877357,40.4588957419491,268.11304614114755,0.003139328910037875,-0.010836883448064329,0.8526474833488464,0.5223648548126221,0.012848687306425246,-0.007937107475903659,0.01955361106250276,0.00655395770445466,0.003238392993807793,0.0038130206521600494,-0.15810333911329508,0.15483651800081136,-9.804602435231208
8.4,0.30000001192092896,0.0,23.89037895202637,0.07156596332788467,-79.78285794734667,40.45889585335327,268.1202439682484,0.003137132618576288,-0.010839705355465412,0.8526471853256226,0.5223653316497803,0.010418014334842265,-0.004837967339387292,0.01998201592840337,-0.004058102145791054,-0.0036155332345515494,-0.005309176165610553,-0.1602257504872978,0.1616475740633905,-9.804114777445793
8.5,0.30000001192092896,3.0,23.89288330078125,0.04771064221858978,-79.78285794698407,40.458895874661906,268.1242939250469,0.003135358449071645,-0.010842688381671906,0.852645754814148,0.5223675370216371,0.011078262448967485,-0.006963220222340064,0.02003452689740792,0.004563173279166222,0.0021070155780762434,0.004146725405007601,-0.15791619166731835,0.1527247138414532,-9.804649797677994
8.7,0.30000001192092896,12.0,23.891632080078125,0.06361418962478638,-79.78285791246982,40.458895997358624,268.12937951254844,0.0031301127746701236,-0.0108427032828331,0.8526455760002136,0.5223678350448608,0.01198042882261575,-0.004644414443518872,0.0163155230786456,-0.0045836656354367716,-0.002661601873114705,-0.005243503022938968,-0.16047118736431004,0.16879173869267106,-9.804904736280443
8.8,0.30000001192092896,16.0,23.891632080078125,0.07156596332788467,-79.78285783560943,40.458896132143366,268.1363303976059,0.003132161684334278,-0.010838252492249012,0.8526450991630554,0.5223687887191772,0.010044546852894595,-0.01080086309364778,0.014153275601334675,-0.0016341162845492365,-0.0007179852691479027,0.0017153038643300533,-0.1628440422937274,0.15500087957829234,-9.804642196297646
9.0,0.30000001192092896,23.0,23.901647567749023,0.12722837924957275,-79.78285782926034,40.45889614470376,268.137776763916,0.003132161684334278,-0.010838252492249012,0.8526450991630554,0.5223687887191772,0.00995223575997313,-0.01185788704087978,0.014093583025544504,-0.0010368041694164276,-0.003856378374621272,-0.0041468855924904355,-0.1596946953982115,0.17088220965117218,-9.805084830522537
9.1,0.30000001192092896,23.0,23.89037895202637,0.06361418962478638,-79.78285782208272,40.4588961576109,268.139229865551,0.0031295218504965305,-0.010840783827006815,0.8526439666748047,0.5223705768585205,0.01069358679636183,-0.012884935942310613,0.014276233381845119,0.007261095568537712,0.002603811677545309,0.00367445359006524,-0.1586900706589222,0.15328654903918507,-9.805225163698195
9.2,0.30000001192092896,24.0,23.89288330078125,0.06361418962478638,-79.78285779312559,40.4588962680725,268.1456113474369,0.0031228666193783283,-0.010851647704839706,0.8526439666748047,0.5223703980445862,0.008730484653841438,-0.006769253798494752,0.012883706990052712,0.0016694284277036786,0.0007447797688655554,0.0004255313833709806,-0.159091902282089,0.1637020481005311,-9.805884729623797
9.4,0.30000001192092896,14.0,23.89288330078125,0.04771064221858978,-79.78285773713542,40.4588963803398,268.15057051348685,0.003123994683846832,-0.01085495576262474,0.8526362180709839,0.522382915019989,0.006980786813658749,-0.006606055772764782,0.012298004376779104,-0.0006757492083124816,-0.00023298425367102027,0.0022552607115358114,-0.1593647479824722,0.15325688355602324,-9.805309948325158
9.5,0.30000001192092896,14.0,23.89288330078125,0.05566241592168808,-79.78285772896274,40.45889639726305,268.1530810015201,0.003124049864709377,-0.010850707069039343,0.8526357412338257,0.5223838686943054,0.007550524787376274,-0.008693547868718886,0.0124111494473233,0.004349241498857737,0.0010459659388288856,-0.0005266114603728057,-0.15998117242008447,0.15632231377065184,-9.804968470931053
9.7,0.30000001192092896,12.0,23.89288330078125,0.05566241592168808,-79.78285771564332,40.4588965207574,268.1594770269394,0.0031123100779950623,-0.010845238342881204,0.8526436686515808,0.5223709344863892,0.011614865703213326,-0.002134343020392432,0.015460818589713191,-0.004945883993059397,-0.0022401988971978426,-0.004420294892042875,-0.16040314039215448,0.15861767482012512,-9.804681957364084
9.8,0.4000000059604645,10.0,23.88912773132324,0.07156596332788467,-79.78285766399736,40.45889665276061,268.16536840963363,0.00312810973264277,-0.010804885998368263,0.8526503443717957,0.5223609805107117,0.012160936690212669,-0.005737381144816138,0.013659955766548285,0.0023287725634872913,0.002026419388130307,0.003027801401913166,-0.15967786638066173,0.1533193665370345,-9.80523334980011
10.0,0.4000000059604645,10.0,23.891632080078125,0.06361418962478638,-79.78285766386384,40.458896664590995,268.16676083374017,0.003132880199700594,-0.010793810710310936,0.8526611924171448,0.5223435163497925,0.011312198862163956,-0.006709551493894022,0.013617692816619805,-0.0052327667362988,-0.005586208309978247,-0.006289646960794926,-0.1595958774536848,0.16987703673541546,-9.804801825284956
10.1,0.4000000059604645,12.0,23.89288330078125,0.07951773703098297,-79.78285762504822,40.45889676742189,268.1723430173397,0.003129135584458709,-0.010808629915118216,0.8526631593704224,0.5223399400711061,0.006530618746519278,-0.002298487934033631,0.012528597131657777,-0.003079017857089639,-0.003460361156612635,-0.0016122417291626336,-0.1615874939225614,0.15954732729122045,-9.804348081350328
10.3,0.4000000059604645,11.0,23.89037895202637,0.07951773703098297,-79.78285762598705,40.45889677383735,268.17361492085456,0.003116000443696976,-0.010802957229316236,0.8526554703712463,0.5223526954650879,0.007084651565790717,-0.0035324755067394,0.012585880124111146,0.0050362758338451385,0.0009234445751644672,-0.0007111927261576056,-0.16047191826626658,0.16647234924137594,-9.804953268170356
10.4,0.5,8.0,23.887874603271484,0.05566241592168808,-79.78285758412513,40.45889688278313,268.1803421692848,0.0031209099106490608,-0.010811883956193924,0.8526707887649536,0.5223274230957031,0.0065629945980142145,-0.002726701233320813,0.01509000892733896,-0.0031688616145402197,-0.000921646016649902,-0.005543035920709372,-0.1599488665536046,0.1720758273638785,-9.805195342898367
10.6,0.5,3.0,23.885372161865234,0.02385532110929489,-79.78285758489531,40.45889688942832,268.1818740384578,0.003123681293800473,-0.010816518217325207,0.8526680469512941,0.5223318934440613,0.007581766044645387,-0.003781307816186343,0.015177412691104378,0.0033472077921032906,0.005031093955039978,0.004623061046004295,-0.15826393654569984,0.1529907621536404,-9.805131608247756
10.7,0.5,3.0,23.88411903381348,0.02385532110929489,-79.78285752560794,40.45889699666717,268.18660204279416,0.0031173210591077805,-0.010802336037158966,0.8526698350906372,0.5223292708396912,0.005621868154341998,-0.005524098486083533,0.013586645652364743,0.003702419577166438,0.004549455363303423,0.00019396288553252816,-0.15807214787229895,0.15945992968976502,-9.806149023771287
10.9,0.6000000238418579,7.0,23.88411903381348,0.04771064221858978,-79.78285746618845,40.45889708687543,268.1897935734986,0.00311984377913177,-0.010813867673277857,0.8526736497879028,0.5223227739334106,0.0016775047596026835,-0.004669173582618584,0.012764415763243392,-0.00398894352838397,-0.0010545682162046432,-0.0001836066658142954,-0.160082786064595,0.15518550541251902,-9.80458372414112
11.0,0.6000000238418579,8.0,23.887874603271484,0.039758868515491486,-79.7828574566511,40.45889709427103,268.19238361883157,0.003105932613834739,-0.010806813836097716,0.8526668548583984,0.5223341584205627,0.002571284318402893,-0.0068750957191293476,0.012946981467937492,0.0038404332008212813,0.003113437211140991,0.0033588344231247893,-0.16013016678392888,0.1709050137922168,-9.805014079213144
11.2,0.6000000238418579,1.0,23.88912773132324,0.05566241592168808,-79.7828574185354,40.4588972135861,268.19522231984143,0.0031050152610987425,-0.010791255161166193,0.8526721596717834,0.5223256945610046,0.006774604920110182,-0.005309345229199888,0.011989383603419676,-0.009985341690480707,-0.0039033971261233096,-0.0076353494077920905,-0.16149890860542654,0.1684756966866553,-9.805485364794732
11.3,0.6000000238418579,356.0,23.89037895202637,0.06361418962478638,-79.78285737791306,40.45889731559361,268.1992459462881,0.003106574760749936,-0.010799086652696131,0.8526740670204163,0.5223224163055421,0.00705068243096522,-0.002899746508722493,0.011739079414091738,-0.0018085814081132405,-0.0028910397086292505,0.0009818769758567212,-0.16081516809761526,0.15512040032073854,-9.805497059226036
11.5,0.6000000238418579,351.0,23.88912773132324,0.0,-79.78285737811825,40.4588973226328,268.20043780076503,0.0030947788618505,-0.010776197537779808,0.8526695966720581,0.5223302841186523,0.007040220527130673,-0.004217931743827891,0.011768970841893376,-0.001783590763807297,0.0014446908608078954,-0.003201589919626713,-0.16121985023841262,0.1715774984098971,-9.80518072485924
11.6,0.6000000238418579,354.0,23.88912773132324,0.04771064221858978,-79.78285731574663,40.458897435293004,268.2044859098196,0.0030922915320843467,-0.01076052524149418,0.8526651859283447,0.5223378539085388,0.008171370747963655,-0.007189364064441902,0.011346737359333428,-0.0060506383888423425,-0.003717124927788973,-0.004238062538206577,-0.15929682891815902,0.16669936738908292,-9.805154412388802
11.8,0.6000000238418579,351.0,23.88662338256836,0.05566241592168808,-79.78285731264201,40.45889744520605,268.205652298212,0.0031027458608150482,-0.0107501819729805,0.8526668548583984,0.5223352313041687,0.009280333938374685,-0.008408604762804674,0.011444585588663823,0.005256033036857843,0.0014017994981259108,0.0032545775175094604,-0.15811062986031174,0.1614180525764823,-9.805991148948669
11.9,0.6000000238418579,348.0,23.89037895202637,0.07156596332788467,-79.78285727266758,40.458897544251656,268.20715515482425,0.003104564035311341,-0.010735579766333105,0.8526533246040344,0.5223575830459595,0.008087721354956905,-0.005323308543271094,0.007490486997470484,-0.0024013295769691467,0.0008413174073211849,0.0005031649488955736,-0.15955438049510126,0.16972069680690766,-9.805361988544464
12.1,0.6000000238418579,340.0,23.89037895202637,0.08746951073408127,-79.78285727123614,40.45889755315451,268.2079296426773,0.0031089168041944504,-0.010730409063398838,0.8526464104652405,0.5223689079284668,0.008888989951746872,-0.006578962269849538,0.007541752177453912,0.002369895577430725,0.004954245407134295,0.004973079543560743,-0.15952296998351814,0.15278437371365727,-9.804817028045656
12.2,0.5,339.0,23.88662338256836,0.2942156493663788,-79.78285720203965,40.45889769115021,268.20912943947314,0.003096811007708311,-0.010721664875745772,0.8526450991630554,0.5223714113235474,0.013224228232787457,-0.011402436767717159,0.00509658426690289,0.005156863946467638,0.003155834507197141,0.0006871950463391839,-0.15960987422615291,0.16167638987302782,-9.805430985689165
12.4,0.5,337.0,23.870346069335927,0.3896369338035584,-79.78285715264383,40.4588977876934,268.21006536650657,0.0030871429480612282,-0.010724423453211784,0.8526439070701599,0.5223734378814697,0.013166571666375727,-0.010031934692091156,0.0038746391384043796,-0.0014641318703070285,-0.006351968739181757,-0.004195407498627901,-0.15857361970469355,0.17177579211071134,-9.809803533554078
12.5,0.5,336.0,23.862834930419922,0.3498780429363251,-79.78285714511978,40.45889781857048,268.21092945504193,0.003087637713178993,-0.01073264703154564,0.8526532053947449,0.5223580598831177,0.01472696549022525,-0.012074703889964084,0.0038329743849452257,0.003985602874308825,0.0025193840265274052,0.001757889986038208,-0.1594222699664533,0.14777262467890978,-9.806520321965216
12.7,0.5,332.0,23.87285041809082,0.3657816052436829,-79.78285708532223,40.45889790024305,268.21129770743846,0.003089227480813861,-0.010732594877481459,0.8526618480682373,0.5223438739776611,0.009985661487457135,-0.010203400690551813,0.0027822967314728485,-0.010066806338727474,-0.005682509392499925,-0.0040409890934824935,-0.15760082574561238,0.17907214879989625,-9.804214180111886
12.8,0.5,331.0,23.875354766845703,0.3816851377487183,-79.7828570383044,40.45889799197465,268.2120983170271,0.0031047675292938948,-0.010718397796154022,0.8526512980461121,0.5223614573478699,0.008788524682898417,-0.007065496632621838,0.001943135032177421,0.000479681883007288,-0.002575765131041408,-0.0022399821318686013,-0.16244420237839222,0.15796395611017944,-9.805139794349671
13.0,0.5,327.0,23.86909484863281,0.3896369338035584,-79.78285703576758,40.45889800241802,268.21232758629316,0.0031127906404435635,-0.010703395120799541,0.8526447415351868,0.5223721861839294,0.00914764480145724,-0.008365493468011685,0.0021271130423058293,0.002619602950289845,0.0026512055192142725,0.0008731800480745733,-0.16437915567308664,0.1690834964811802,-9.8049357265234
13.1,0.5,325.0,23.86659049987793,0.4214440286159515,-79.78285702064778,40.45889811236755,268.2147938178777,0.0030985383782535787,-0.010727153159677979,0.852640688419342,0.5223785042762756,0.013686357965566852,-0.0027002360289021003,0.005191821999330225,-0.002467127051204443,-0.005474602803587914,-0.003556488780304789,-0.15848582010716195,0.1655778896994889,-9.805830935239793
13.3,0.4000000059604645,325.0,23.862834930419922,0.5009617805480957,-79.78285702432373,40.4588981246209,268.2153578119278,0.003085443517193198,-0.010722815059125423,0.8526514768600464,0.5223609209060669,0.015176048415137281,-0.0038533487383356564,0.005279999656378454,0.003252047346904874,0.0030339250806719065,0.008627315051853657,-0.1573002423159778,0.1592274115048349,-9.803488540649417
13.4,0.4000000059604645,324.0,22.24894142150879,22.050268173217773,-79.78285697339034,40.45889821455327,268.21727030146116,0.0032298348378390074,-0.010624890215694904,0.8525688648223877,0.5224969983100891,0.008347513394293663,-0.008170291275478784,0.007435816618864348,-0.010885830037295818,0.016586465761065483,-0.013372383080422878,-0.18723107943311326,0.16151014622300866,-9.811079396009443
13.6,0.4000000059604645,321.0,23.85907745361328,0.44529932737350464,-79.78285697445638,40.45889822687747,268.21802981364726,0.0032776289153844122,-0.010540124960243702,0.8525987267494202,0.5224495530128479,0.016447676246490142,-0.0032172183482477605,0.006299725141536516,0.009197238832712172,0.009668040089309216,0.00859589222818613,-0.1050112239830196,0.14722836767323316,-9.788890966773033
13.7,0.4000000059604645,321.0,23.865339279174805,0.2862638533115387,-79.78285691012627,40.458898299158726,268.21903693842887,0.0032507148571312428,-0.010588382370769978,0.8525855541229248,0.5224703550338745,0.008876151514743207,-0.003104259200706909,0.007648817638730973,0.015600099228322506,0.008455848321318626,-0.014200871810317041,-0.13763908931985494,0.1465072872117162,-9.807757008075717
13.9,0.30000001192092896,323.0,23.80524063110352,1.0814412832260132,-79.78285686192295,40.45889834536592,268.21953727471833,0.003222267841920257,-0.010552478022873402,0.8525813817977905,0.5224781036376953,0.004703236951020819,-0.001112362126944275,0.009888320894211943,-0.00016448265523649752,-0.002494998509064317,-0.034701067954301834,-0.1481638125423342,0.1879035092331469,-9.801064285039905
14.0,0.30000001192092896,323.0,23.85031318664551,0.41349223256111145,-79.78285686533891,40.4588983520562,268.2212761657238,0.003196811536327005,-0.010532953776419164,0.8525917530059814,0.5224617123603821,0.0025050600166736433,-0.0013786391721990487,0.008571179415505463,-0.02765813283622265,-0.003039636416360736,-0.003990143071860075,-0.13516067387536168,0.1772515999339521,-9.793281056284904
14.2,0.4000000059604645,327.0,23.865339279174805,0.3339745104312897,-79.78285679653455,40.45889845629881,268.2185036407709,0.0031469555106014013,-0.010563462041318415,0.8525918126106262,0.5224613547325134,0.01299340915885039,-0.008533034812626218,0.005090575240642722,0.025555377826094627,0.006385148968547583,0.011269592680037022,-0.18406923411414028,0.14117594216018914,-9.816702078580855
14.3,0.4000000059604645,333.0,23.77393913269043,2.5286641120910645,-79.78285679035972,40.458898479193074,268.21959689426416,0.0031846922356635328,-0.010540425777435304,0.8526082038879395,0.5224348306655884,0.008248288446952941,-0.01089455150033429,0.0061233486984664295,-0.015778301283717155,0.00775799248367548,-0.0001226470631081611,-0.1469441107660532,0.1448685958888382,-9.817459877729416
14.5,0.4000000059604645,346.0,23.616180419921875,4.842630386352539,-79.782856758182,40.458898566849534,268.21875107455253,0.0031863320618867874,-0.010519758798182007,0.8525956869125366,0.522455632686615,0.015720900759959126,-0.004833790734647451,0.007573753741037005,0.007032723631709814,0.002312277909368277,0.010801175609230995,-0.16461682671681047,0.12607802021317185,-9.806232054233552
14.6,0.4000000059604645,356.0,23.556081771850586,6.091058731079103,-79.78285673370546,40.45889863757416,268.2190506027937,0.0031269167084246874,-0.0105204489082098,0.8525829315185547,0.5224767923355103,0.01362795317157582,-0.0007577563284458027,0.0082191199899668,0.018258672207593918,0.04441838711500168,0.01411656104028225,-0.14330135023221374,0.19230872841551905,-9.827041125297546
14.8,0.5,11.0,23.43964195251465,8.079002380371094,-79.7828567403757,40.45889864954196,268.2199696766138,0.002997997682541609,-0.010489830747246742,0.8525772094726562,0.5224875211715698,0.01606482053619734,-0.001350520799098559,0.00832511250188025,-0.04448498785495758,-0.025411507114768028,0.06508569419384003,-0.15712034907191993,0.15623827831819653,-9.812706091403962
14.9,0.6000000238418579,22.0,23.35199737548828,9.565983772277832,-79.78285668707625,40.458898721406676,268.21720032560825,0.00312410481274128,-0.01023689191788435,0.852538526058197,0.522554874420166,0.0047825126762779824,-0.002353915557081715,0.011774303456785935,-0.06485709547996521,0.03432510793209076,0.051175206899642944,-0.14777054160833358,0.3093986188620329,-9.817459877729416
15.11,0.699999988079071,49.0,23.151670455932607,12.046937942504885,-79.78285668623509,40.45889873316191,268.218243332386,0.00342145306058228,-0.009577606804668905,0.8525698184967041,0.5225143432617188,0.027391920319273004,-0.007554219611256853,0.014001444434345985,0.03770256415009498,0.073801189661026,0.11182233691215517,-0.2257423217967153,0.019861529767513274,-9.825378177165986
15.2,0.8000000119209291,65.0,23.09031867980957,13.796327590942385,-79.7828565784036,40.458898786497386,268.2146656380892,0.005081135779619217,-0.008441009558737278,0.8524550199508667,0.5227078795433044,0.004515219661220746,-0.009186543118710562,0.012808392309209831,-0.004096137825399636,0.07344221323728561,-0.09327594935894012,-0.0648678684141487,0.36685613729059696,-9.846092523336411
15.4,0.8000000119209291,91.0,22.900007247924805,16.984989166259766,-79.78285650898016,40.45889886057575,268.2121527956724,0.005489625502377749,-0.0073659950867295265,0.8522516489028931,0.5230514407157898,0.013561066797280813,-0.010492355623424323,0.015152411804645759,0.009664123877882956,0.06154489517211914,0.020597856491804126,-0.0624273593723774,0.17279815949499608,-9.931226813793183
15.5,0.8999999761581421,101.0,22.803600311279297,18.5117301940918,-79.78285652999368,40.458898886813,268.21602648663514,0.001813563518226147,-0.006273322738707066,0.8523027300834656,0.5230080485343933,0.032701139704802415,-0.004091253361591643,0.02679088738910281,0.1394159495830536,0.08100591599941254,0.016431672498583794,0.02116078108549118,0.16762487199157478,-9.965219017267225
15.7,0.8999999761581421,110.0,22.59575843811035,22.257015228271484,-79.78285645631385,40.45889894316511,268.2118399010897,-0.002518410561606288,-0.005683304741978645,0.8521280884742737,0.5232963562011719,0.01878561745997999,0.011163358776993568,0.03037299571539865,0.009982823394238949,0.008350720629096031,-0.10239893943071364,0.08761003810912371,0.3038045876473189,-9.853979247808457
15.8,1.0,115.0,22.479318618774414,24.197248458862305,-79.7828564659046,40.458899100964345,268.2122186141014,-0.0036594502162188287,-0.0018590297549963,0.8521114587783813,0.5233442187309265,0.03133783233702532,0.030115091015411582,0.1412094984896941,0.018363658338785168,0.12602289021015167,-0.05313706025481224,0.10257465267553928,0.2193137101829052,-10.6716164624691
16.0,0.8999999761581421,128.0,22.78356742858887,18.2811279296875,-79.78285652365159,40.45889911784035,268.2326043264866,-0.0040728808380663395,0.003957217559218407,0.8519856929779053,0.5235344171524048,0.02738296982133508,0.043631681870779516,0.2733416585410007,-0.07507999241352081,0.031135080382227894,-0.03464091941714287,0.10122632129117846,0.006944792848080397,-11.006733255386353
16.1,1.0,134.0,22.710947036743164,18.877511978149414,-79.7828565120658,40.45889920191336,268.28450110721593,0.0049650599248707294,0.0006905188201926649,0.85197913646698,0.5235517621040344,0.03619926913862176,0.05289910899110385,0.3379653315135968,-0.0927477926015854,0.04571021348237991,0.00981254316866398,0.1377650785446167,-0.09108390547335148,-10.060145055055619
16.3,1.0,136.0,22.72221565246582,18.78208923339844,-79.78285658327907,40.458899207158645,268.3178644271493,0.010121258907020092,0.0002179034345317632,0.8523016571998596,0.5229526758193971,0.027921362755519333,0.05953803599917073,0.3204217222995769,-0.06525035202503204,-0.0507243387401104,0.022852389141917232,0.1871431702002883,-0.1404491241183132,-9.721471400856974
16.4,1.0,134.0,22.674638748168945,19.13991928100586,-79.78285680719978,40.458899315128576,268.31988717782497,0.010354640893638134,-0.0005587163614109161,0.8524073362350464,0.5227756500244141,0.0342358890181704,0.08656075687038436,0.2413504056896863,-0.04564328119158745,-0.1873877048492432,-0.013231382705271244,0.2313377234525979,-0.002461690637574065,-9.429535126090054
16.5,1.0,139.0,22.619548797607425,19.99871063232422,-79.7828569990292,40.45889929140985,268.35939996111387,0.00623897695913911,-0.002617793856188655,0.8526251912117004,0.522479236125946,0.011863325125212395,0.0867205780250115,0.14629122883518386,0.02706853486597538,-0.004364396911114454,-0.006407843437045814,0.10840869382023813,0.0004015449725557118,-9.338553619980813
16.7,1.0,139.0,22.568214416503906,21.175573348999023,-79.78285708554007,40.45889923779525,268.36597662585973,0.004999937955290079,0.0004901757347397506,0.8527103066444397,0.5223600864410399,0.013730739090894627,0.09300472931409703,0.12194030682204768,0.08729999512434006,0.13277778029441833,-0.0183775257319212,0.05772332006134093,0.1333137394487858,-9.658849475383759
16.8,1.0,134.0,22.513124465942386,21.87532997131348,-79.78285732193763,40.45889910874535,268.3995582217276,0.0041701514273881895,0.00900367833673954,0.8524120450019836,0.5227765440940857,-0.005774242721290848,0.11557722208131505,0.15000844123566978,0.08710216730833054,0.11457493156194687,-0.0030745065305382013,0.14067056913860146,-0.015525380820035937,-9.862009813785553
17.0,1.0,124.0,22.54692840576172,20.746177673339844,-79.78285744037954,40.45889905174911,268.41501084323227,0.004680520389229059,0.012361506931483746,0.8522182106971741,0.5230196714401245,-0.013432085464619357,0.11402222970298855,0.15803607345297896,0.013083399273455143,0.05421401560306549,0.0540345273911953,0.1412628920841962,-0.21087128095328808,-9.888324623107913
17.1,1.0,59.0,22.489334106445312,22.424001693725586,-79.78285780402483,40.45889904223327,268.432670017336,0.0151950279250741,0.014950615353882313,0.8516273498535156,0.5237140655517578,0.002352693386412155,0.11419954526105845,0.1387518945535983,-0.06776726990938188,0.04652995988726616,0.01561944931745529,0.14859801398590208,-0.03222679887665436,-9.731412836909293
17.3,1.0,323.0,22.43048858642578,23.29869842529297,-79.78285791202006,40.45889900807547,268.4476995680406,0.016703730449080467,0.01785656064748764,0.8517272472381592,0.5234147310256958,0.003609442537830822,0.09430757405188918,0.1560683559107855,0.0178225114941597,-0.005308347288519144,0.07403665781021118,0.21645465927198526,-0.06022177135571837,-9.946250649690633
17.4,1.0,321.0,22.486831665039066,20.97677993774414,-79.782857909888,40.458898812322396,268.4813326949179,0.011334100738167764,0.016347182914614674,0.8515315651893616,0.5239258408546448,-0.03498612184915146,0.052311430560092936,0.2259711259154559,0.12694893777370453,-0.012955776415765284,0.06297137588262558,0.1265295074880123,0.0023898666724562648,-10.08800820708275
17.6,1.100000023841858,319.0,22.44300842285156,22.77388000488281,-79.78285793032812,40.4588987638479,268.5046114863753,0.007222497370094061,0.016890378668904305,0.8512037992477417,0.5245137214660645,-0.035106298636672334,0.032559297424371164,0.2377787717823611,0.10854963213205338,0.009741990827023985,0.03862132504582405,0.09915436956100168,0.04170160199515522,-9.986511068344118
17.7,1.0,318.0,23.24056434631348,9.48646640777588,-79.78285784861896,40.45889874180603,268.54012947696447,0.003704294795170426,0.01891590841114521,0.8499165773391724,0.5265645980834961,-0.007160879415395327,0.0050671014780238645,0.16614032739119514,0.09750243276357652,0.017223991453647614,0.04038840904831886,0.12492115773260595,-0.06304720991291106,-9.873206062316894
17.9,1.0,331.0,22.2426815032959,25.326400756835927,-79.78285785417117,40.458898617445335,268.5580141263008,4.2306637624278665e-06,0.017050795257091522,0.8487597107887268,0.5285038948059082,-0.016297386455128817,0.013145937626246496,0.0704463432740064,0.06114276498556138,-0.07782641053199768,0.06511006504297256,0.3351481851562858,0.07246299041435122,-9.041766495108606
18.0,1.0,341.0,22.292762756347656,25.46953201293945,-79.7828578650374,40.45889860645232,268.5651411728859,-0.006741039454936981,0.01025183591991663,0.8472927212715149,0.5309844017028809,0.008377706878266524,0.015358739000054604,0.08510719322360548,0.07268351316452026,-0.0975884422659874,0.05932004749774932,0.23734107803553345,0.05273304127156735,-9.80065614938736
18.1,1.0,352.0,22.138761520385746,26.60663604736328,-79.78285788175165,40.458898611744864,268.57729827034467,-0.008152451366186142,0.0057741254568099976,0.8458085060119629,0.5333931446075441,0.010402915005261838,0.02097987542972206,0.16084795210869282,-0.15756581723690033,-0.08480814844369887,-0.01996777765452861,0.0847139304690063,0.07052462015300989,-10.354038977622986
18.3,1.0,93.0,21.99352264404297,30.431438446044922,-79.78285785473334,40.458898487384154,268.6473916040659,0.004679142963141203,0.006050019059330225,0.8441100120544434,0.5361155867576599,0.039807694893446856,0.02200081648574608,0.412793209087334,-0.02445182949304581,0.02443748340010643,-0.028343986719846725,0.1765145766735077,-0.006747255173977465,-11.019501235485077
18.4,1.0,129.0,21.805715560913086,32.76926040649414,-79.78285813377073,40.45889854310288,268.7401616292,0.012841660529375076,0.006879440974444151,0.8444625735282898,0.5354164838790894,0.043146559042679694,0.03924713880534784,0.7191760933113626,0.0667448490858078,-0.020667580887675285,0.012884745374321938,0.24368110433220866,0.06712743354029954,-11.704060499668126
18.6,1.100000023841858,132.0,21.746868133544922,33.96997833251953,-79.78285816588101,40.45889855975345,268.823455454588,0.013711381703615187,0.006548084318637848,0.8450677394866943,0.5344434380531311,0.049329873000776084,0.03274285143134638,0.942908195995267,0.09432585537433624,0.06511292606592177,0.006597338244318962,0.2818064121901989,0.10283044095151128,-11.961293549537661
18.7,1.100000023841858,133.0,21.76690101623535,32.864681243896484,-79.78285813283685,40.458898569649314,269.0535744147301,0.014051024802029131,0.005451501347124578,0.847098708152771,0.5312219262123108,0.029506733829409826,0.04244880384592812,1.4327231827197235,-0.07486288994550705,-0.05974359437823296,-0.02930616401135921,0.2594782893173397,0.017500424087047578,-12.320751131772996
18.9,1.2999999523162842,132.0,21.888351440429688,31.96613121032715,-79.78285807808555,40.458898541842544,269.19607594776147,0.016299108043313026,0.002078730147331953,0.8482950925827026,0.5292689800262451,0.023855359416539882,0.041921624822401735,1.669744893356699,-0.026393117383122444,-0.06296909600496292,-0.009383419528603556,0.2737532430700958,0.0746488486463204,-12.337962995767596
19.0,1.2999999523162842,135.0,21.526508331298828,36.24418640136719,-79.78285804667662,40.45889848571589,269.5766574459076,0.02151303738355637,-0.0039059887640178212,0.849483847618103,0.5271615386009216,0.004154559446583521,0.03855805313696505,2.150107555001758,-0.14789585769176486,0.0039811707101762295,-0.09914007037878036,0.2717892912402749,0.3527999424934387,-12.352712012529373
19.2,1.2999999523162842,127.0,21.733097076416016,33.03961944580078,-79.78285795363394,40.45889838982539,269.7762252407074,0.020252743735909462,-0.0015170251717790961,0.8490344285964966,0.5279471874237059,0.004538753522351958,0.0392994763711627,2.3806669271423444,0.02023493126034737,0.04497891664505005,0.057298243045806885,0.1541117373481393,0.1776171788200736,-12.372266271114347
19.3,1.399999976158142,127.0,21.922155380249023,28.92855262756348,-79.78285776058038,40.45889818715229,270.25163749027246,0.013694291934370995,0.01010616309940815,0.8458715677261353,0.5331150889396667,-0.06449202050952894,0.056247666801127874,2.7653279552110224,-0.08233647793531418,0.039617814123630524,-0.007358532398939133,0.22216046366840608,0.2390692957118153,-11.790223900079727
19.5,1.7000000476837158,132.0,21.962221145629886,28.05385780334473,-79.7828576743576,40.45889809372236,270.53534880447387,0.014712514355778694,0.010952645912766457,0.8441429138183594,0.5358043909072876,-0.0959242279555732,0.06775068110864096,2.9086343448686915,-0.0649646669626236,0.032786756753921516,0.09756456315517427,0.24311560548841954,-0.03194201434962452,-11.355219122171402
19.6,1.7999999523162842,141.0,22.150028228759766,25.42182159423828,-79.78285740302839,40.458897931661184,271.0643183307648,0.02056309208273888,0.00438524316996336,0.8424215912818909,0.538408637046814,-0.08100685590443175,0.02754750667309205,3.019840500960136,-0.007796273101121187,-0.01816861517727375,0.07061564922332764,0.1702041519060731,-0.07893009315244852,-10.530024966001509
19.8,1.8999999761581416,148.0,22.08241844177246,26.07386589050293,-79.78285727798439,40.4588978483182,271.36091652679437,0.0244965348392725,0.0032557998783886433,0.8428850173950195,0.5375261306762695,-0.07310845215300946,-8.164109227958363e-05,3.0389481103022447,0.018587028607726097,0.003427702467888593,-0.008415460586547852,0.11117786206305028,0.02113160667708144,-10.16825305581093
19.9,2.0,151.0,22.12123107910156,25.1673641204834,-79.78285679623238,40.45889764885498,271.8846942501068,0.026940517127513885,0.0038966431748121977,0.8454499840736389,0.533360481262207,-0.08753206364006542,-0.03563398094041908,2.9927462394766837,0.029728572815656662,0.042531780898571014,-0.0734584704041481,0.08227625367231667,0.11982121624052525,-9.883165040016175
20.1,2.299999952316284,162.0,22.071149826049805,26.7497673034668,-79.78285655290878,40.45889753344651,272.177458436966,0.027594244107604027,0.005873660556972028,0.8467897772789001,0.5311789512634277,-0.11334471625572301,-0.05160935498329312,2.9846868621327136,0.10663285851478577,-0.032558441162109375,-0.03948645666241647,0.07825068323872984,-0.026750956792384387,-9.796837332844737
20.21,2.4000000953674316,168.0,22.1888427734375,24.10977935791016,-79.78285575815956,40.45889715921789,272.74382153320306,0.020389415323734283,0.006198606453835964,0.8482522964477539,0.5291633605957031,-0.1656420899335183,-0.08553174967963142,2.9488035204794807,0.1583818942308426,-0.0709434300661087,0.03483644500374794,0.19618665665388108,0.0100684976472985,-9.759757799506188
20.4,2.4000000953674316,179.0,22.06238555908203,26.06591415405273,-79.78285516140619,40.45889681693558,273.0522803382873,0.01589285954833031,0.004564337432384491,0.8487076759338379,0.5286037921905518,-0.23098788162742226,-0.12448750159734118,2.9295967409298886,0.01154001522809267,-0.12470424175262453,-0.004327339120209217,0.04123882685322314,-0.0808306575100869,-9.698183695077896
20.5,2.4000000953674316,190.0,22.160045623779297,24.865196228027344,-79.78285474778495,40.458896647974775,273.342725189209,0.016317166388034817,0.0036066733300685883,0.8489447832107544,0.5282173752784729,-0.2731158746764826,-0.16954075171706806,2.9031539659725856,-0.070225790143013,0.08958052098751068,-0.02340127341449261,0.08771635693497956,0.12051326162181795,-9.61189516425133
20.6,2.5999999046325684,216.0,22.08617401123047,24.93676376342773,-79.78285379879955,40.45889611855239,273.9015263633728,0.013964743353426456,0.008640986867249012,0.8493494987487793,0.5275754332542419,-0.28638791729645635,-0.1815296383474745,2.8164362137397703,0.1024472564458847,0.0985373482108116,0.02329674549400806,0.20399449853226545,0.2783559885062277,-9.526207142472266
20.8,2.700000047683716,221.0,22.114971160888672,24.761823654174805,-79.78285289699255,40.45889565640106,274.4227975921631,0.002182235009968281,0.014759423211216928,0.848069965839386,0.529674232006073,-0.3208891895787737,-0.18984660200589387,2.7191559032464685,0.0939045175909996,-0.0449405200779438,0.02306426130235195,0.14439846147783095,0.13394140150398018,-9.534948729872703
20.9,2.799999952316284,225.0,22.03609275817871,26.527118682861328,-79.78285243159009,40.4588955121971,274.69347468185424,-0.0017425490077584982,0.013448551297187805,0.8474298119544983,0.5307343602180481,-0.3353007611507698,-0.21646659702151846,2.71061393369439,0.037549939006567,-0.13651470839977264,-0.015241537243127825,0.028492988515645263,-0.07705078890547158,-9.747184531688688
21.1,2.700000047683716,225.0,22.150028228759766,24.42784881591797,-79.78285195993901,40.458895395524,274.964497001648,-0.005197327118366957,0.013395816087722778,0.8467733263969421,0.5317599773406982,-0.32778392956105323,-0.25081814496436744,2.715437020723164,0.018238285556435585,0.021068526431918144,0.033210985362529755,0.035743133928626776,0.14325999945402146,-9.837520505189897
21.3,2.5999999046325684,227.0,22.11246681213379,24.85724449157715,-79.78285110486927,40.458894777532656,275.56591454315185,-0.014545015059411526,0.00974925886839628,0.8470775485038757,0.5311809182167053,-0.2917247574291365,-0.25000777377448913,2.711505358208585,-0.043794699013233185,0.0008782189688645303,-0.08860238641500473,0.07842911467887463,0.2910776842385531,-9.884283027648928
21.4,2.5999999046325684,219.0,22.113719940185547,24.03026008605957,-79.7828502765103,40.458894467666866,275.94435873794555,-0.018066052347421646,0.008306010626256466,0.8481621146202087,0.5293634533882141,-0.2485006803127438,-0.2729905152182921,2.7379806219432856,0.15797321498394012,-0.052029509097337716,0.01276056282222271,0.22987345274537802,-0.1951440615579486,-9.94986305952072
21.6,2.5,207.0,22.038597106933594,25.42977333068848,-79.7828495945435,40.45889445414032,276.49300232696527,-0.008754273876547812,0.007836511358618736,0.8495016098022461,0.5274552702903748,-0.16476963255099836,-0.2488926855362913,2.7255045310122963,0.10406549274921416,-0.005200682207942009,0.1051926538348198,0.1985932244360447,-0.2263853693380952,-9.749623405337337
21.7,2.4000000953674316,210.0,22.06614112854004,24.49941635131836,-79.78284905014061,40.45889395600294,276.88213578033447,-0.004534968174993992,0.009618256241083143,0.8489738702774048,0.5283279418945312,-0.1652511401004306,-0.2094052303016673,2.754934640966564,-0.12046720832586287,0.16725507378578186,0.033430054783821106,0.18704475425183767,0.2362919779121876,-9.705459970235825
21.8,2.4000000953674316,228.0,22.113719940185547,24.769775390625,-79.78284834885163,40.458893640166146,277.55060330200195,-0.006410629954189062,0.01377912610769272,0.8464536070823669,0.5322455167770386,-0.095315640298134,-0.15333323909043928,2.7809520410474886,0.06623077392578125,0.08325422555208206,0.027199173346161842,0.19191811613738533,0.24229017963632946,-9.657445558905602
22.0,2.5,227.0,22.118728637695312,23.942790985107425,-79.78284790031576,40.458893772852136,278.1022476272583,-0.0093757351860404,0.018482882529497147,0.844021201133728,0.5359092354774475,-0.06714487323463221,-0.15763428575977162,2.7284340074640445,0.07003644108772278,-0.041655834764242165,0.13355891406536102,0.14069167393259704,-0.26288003493100404,-9.491563559174539
22.2,2.700000047683716,223.0,22.064889907836914,25.827362060546875,-79.78284728247716,40.45889350444313,278.4975656585693,-0.007705664727836847,0.011553066782653332,0.8424978256225586,0.5385206937789917,-0.05333473771620795,-0.13802030841378535,2.7292738292738283,0.025209104642272006,-0.2407177984714508,0.13346393406391144,0.1996766952238977,-0.24447181234136225,-9.341520497202874
22.3,2.700000047683716,216.0,21.97348976135254,27.47337913513184,-79.78284709782851,40.45889362120747,278.76870098876947,-0.010633132420480251,0.001616713940165937,0.8411000370979309,0.5407726764678955,0.0038294686854419314,-0.16333075235142225,2.700289711144128,0.02454609982669353,-0.19393697381019592,0.07877665013074875,0.06677675591781736,-0.059932279363274575,-9.49007134974003
22.5,2.700000047683716,211.0,22.07490539550781,24.55507850646973,-79.78284657131793,40.45889349558753,279.42415467071527,-0.012310661375522614,-0.006410962902009487,0.8421268463134766,0.5391009449958801,0.0404762907255256,-0.2474431780274918,2.752876984416234,-0.1730983406305313,0.0397954061627388,-0.07905006408691406,-0.21214195400476452,0.14873900497332215,-9.722269545793534
22.61,2.700000047683716,222.0,21.97348976135254,26.495309829711914,-79.7828460041701,40.458893736393726,280.05657139587396,-0.007093911059200764,-0.002200519200414419,0.8458751440048218,0.5333292484283447,0.1288958250399704,-0.20048044256227224,2.7710358549113496,0.0804402083158493,-0.012700360268354416,-0.0394052155315876,0.11535578900948168,0.10265723546035588,-9.784061166644095
22.8,2.9000000953674316,232.0,21.984758377075195,27.735788345336914,-79.78284592373427,40.45889392159929,280.3343147354126,-0.0077520529739558705,-0.0013569797156378627,0.8473191857337952,0.5310256481170654,0.14872282408106394,-0.16778045807502964,2.777059220940312,0.0792374387383461,-0.07187043875455856,0.03668409585952759,0.08419513626024128,0.06200472902040929,-9.848731956481934
22.9,2.9000000953674316,237.0,21.888351440429688,27.55289649963379,-79.78284544279215,40.4588938772912,280.6835321502685,-0.0077134515158832065,-0.003219280391931534,0.8484593033790588,0.529194712638855,0.14201249576435576,-0.16464167020158654,2.8104376773609667,0.05209056288003922,-0.02266712673008442,0.01001683995127678,0.04727985029574484,-0.04477127144113184,-9.83103009581566
23.1,3.2000000476837163,241.0,21.99978256225586,26.12952995300293,-79.78284538525703,40.45889427348117,281.24949017333984,-0.0068712686188519,-0.006219254340976478,0.8493294715881348,0.5277819037437439,0.18346301237490706,-0.14837345603474866,2.8456442880103507,-0.06853395700454712,0.04420983046293259,-0.006296043749898672,-0.03847738333046437,0.13481545060873032,-9.920505359172822
23.2,3.299999952316284,246.0,21.912139892578125,26.312419891357425,-79.78284539799775,40.45889417047098,281.6139253692627,-0.005121313501149416,-0.006715843454003334,0.8492593169212341,0.5279085040092468,0.19058148197656205,-0.12152922798789545,2.8726287648938933,-0.1020154505968094,-0.01191743928939104,0.004984330385923386,0.040554743735119705,0.15329574013128874,-9.724780340194703
23.31,3.299999952316284,238.0,21.99352264404297,25.57290458679199,-79.78284528882898,40.458894365569186,282.26180401611333,-2.1728903448092748e-05,-0.007788131479173899,0.8481642007827759,0.5296762585639954,0.2375842580327243,-0.07811943446687587,2.901965246323319,-0.010978193953633308,-0.025757204741239548,0.1005191057920456,-0.0061880443710833795,0.05996814837679267,-9.726981232166287
23.5,3.5,235.0,21.79820251464844,28.864938735961914,-79.78284548319311,40.45889476919234,282.8422216491698,0.0016854334389790893,-0.006837964523583651,0.8469610810279846,0.5316083431243896,0.2779172515102434,-0.0367670481217296,2.914333969299801,0.041366785764694214,-0.004002468194812536,0.026569746434688568,0.047163239456713205,0.05857140387408436,-9.941133166551593
23.6,3.5,229.0,21.85204124450684,28.022050857543945,-79.78284544518176,40.45889484026589,283.194944770813,0.0014917189255356784,-0.009270885027945042,0.8471825122833252,0.5312191843986511,0.28612130133417923,-0.029083759039225308,2.9714074394664536,0.052007872611284256,-0.048014070838689804,0.04360382258892058,0.01695713210036047,0.030219324119389063,-10.103808553218842
23.8,3.5,231.0,21.918399810791016,26.90085029602051,-79.78284557866266,40.45889503895936,283.4932445602417,0.0016452149720862508,-0.012427731417119505,0.8478392362594604,0.5301051735877991,0.2877387120827617,-0.03275580652373713,2.982141567106778,0.021659091114997864,-0.09787903726100924,0.05440590903162956,-0.11326746507547795,-0.023728110752999784,-9.916063814163213
24.0,3.5999999046325684,237.0,21.7456169128418,29.413612365722656,-79.78284567846063,40.45889525029375,284.1375383453368,0.009776338934898376,-0.011099234223365784,0.8490605354309082,0.5280885100364685,0.2829498609433114,-0.039392761740903864,3.0227032327923675,-0.11406157910823822,0.03081499971449375,-0.02394724264740944,-0.09639270219951868,0.06154837667942047,-9.995527474880221
24.1,3.5999999046325684,240.0,21.8670654296875,26.853139877319336,-79.78284579522796,40.45889541726421,284.44246807861333,0.012038946151733398,-0.011676963418722151,0.8498547673225403,0.5267501473426819,0.2873614733148404,-0.018522917437415243,3.0689262874255454,0.012814383022487164,0.01785142533481121,-0.05311121419072151,-0.08850924851372838,0.1546029765531421,-10.23270808339119
24.21,3.700000047683716,237.0,22.043603897094727,24.348331451416016,-79.78284581458446,40.45889568527815,285.10053005981445,0.0011549254413694145,-0.012941179797053335,0.8506976366043091,0.5254948735237122,0.2457122308060529,-0.047879634373200836,3.121151060358121,-0.004887241404503585,-0.05641327798366546,-0.004642792511731386,-0.2350881823897362,0.013948350213468077,-9.922854770421985
24.41,3.700000047683716,243.0,21.924659729003906,26.16133689880371,-79.78284584443897,40.45889573972796,285.75258580017083,-0.003767602844163776,-0.014440826140344143,0.8498262763023376,0.5268517136573792,0.17790508755893295,-0.0647538871011423,3.054702088237362,-0.06804028153419495,-0.057901687920093536,0.006243460811674595,-0.22052501572296024,0.03910351049154997,-9.623446338772775
24.6,3.700000047683716,248.0,21.998531341552734,25.09579849243164,-79.78284594030237,40.458895856620046,286.0587228851318,-0.002491195918992161,-0.014138988219201563,0.8487610220909119,0.5285817980766296,0.16658037149026195,-0.06126834496706541,3.0662799436698323,-0.09568088501691817,0.10651617497205734,-0.010547089390456676,-0.2635959899425507,0.0725161087140441,-9.800578966140748
24.7,3.5999999046325684,249.0,21.95345687866211,25.81941032409668,-79.78284603959227,40.45889581516112,286.40064945983886,-0.0003364850126672536,-0.013437421061098577,0.8476596474647522,0.5303702354431152,0.17448156796900827,-0.0341814214227104,3.059223725024637,-0.03578870743513106,-0.03586537018418312,-0.008453063666820526,-0.14195376802235846,-0.01069264337886125,-9.725820559859276
24.9,3.700000047683716,255.0,21.96722984313965,24.88109970092773,-79.782846195619,40.45889581292172,287.04903736877435,-0.0007594835478812456,-0.011232600547373295,0.8465577960014343,0.5321778059005737,0.16271647598955455,0.005536418415991186,3.0415734829437406,0.005979816894978285,0.09362225979566574,-0.020957540720701214,-0.2526876436918974,0.14787860546261072,-9.666346190571783
25.01,3.700000047683716,257.0,21.968481063842773,26.58278083801269,-79.78284647468134,40.45889596021853,287.65454426574706,0.0005917001399211586,-0.0071031227707862845,0.8457760214805603,0.5334905982017517,0.14678297980212046,0.02786091174047552,2.9991522625876392,-0.09273750334978104,0.03703384846448898,-0.0515136867761612,-0.047923596762120726,0.11338387034833433,-9.594644708633425
25.12,3.700000047683716,258.0,21.883342742919922,26.06591415405273,-79.78284656509531,40.458895849416606,287.9991106109618,0.005578793119639157,-0.006744855549186468,0.8457150459289551,0.5335630774497986,0.14681088272527293,0.02723687980837039,3.0140106959211588,0.0035921239759773016,0.08991400897502899,0.0678945854306221,-0.2112098530121148,-0.07599819872528316,-9.69092320740223
25.3,3.700000047683716,259.0,21.912139892578125,25.76374816894531,-79.78284668356551,40.45889573528672,288.6407140808105,0.01379246450960636,-0.006908624898642302,0.8461756706237793,0.5326808094978333,0.17913456256093946,0.06270961196224042,2.9981088960149225,0.08146411925554277,-0.07412755489349365,-0.003901345189660789,-0.0317308659106493,-0.033670800758991384,-9.689473682641983
25.5,3.9000000953674316,252.0,21.90337562561035,25.946638107299805,-79.78284677211025,40.45889578947459,288.9398836212158,0.011778873391449451,-0.012083698995411396,0.8469218611717224,0.5314497351646423,0.1783244271676919,0.041232236138827316,2.975997663869161,0.05813371390104294,-0.08989135921001434,-0.08655191957950592,-0.1203448709473014,0.14897771755233408,-9.61739973306656
25.6,3.9000000953674316,248.0,21.9309196472168,25.07194328308105,-79.78284683517457,40.45889584343057,289.23667088317865,0.00783696211874485,-0.015209345147013663,0.8476025462150574,0.5303558111190796,0.1609268372458694,-0.009776724672066564,2.956290833609198,-0.04410020262002945,-0.0023519196547567844,0.054194554686546326,-0.3735777674987912,0.1917595835030079,-9.595431159138679
25.8,4.0,245.0,21.932172775268555,25.31049728393555,-79.78284703933484,40.45889571441501,289.87802639770507,0.0034403388854116197,-0.017449114471673962,0.8491073846817017,0.5279209017753601,0.13519618312901005,-0.05242271027934983,2.9482915553636904,0.06944380700588226,-0.022343391552567482,0.03595028817653656,-0.2163209773041308,0.02442476538475603,-9.61165367424488
25.9,4.0,243.0,21.765649795532227,29.49312973022461,-79.78284700081015,40.45889559118368,290.2114061431885,0.00474904989823699,-0.016408126801252358,0.8495333194732666,0.5272583961486816,0.11905582404731313,-0.05578432924243085,2.9621729280150992,0.03249692544341086,-0.006294164806604385,-0.0004952084273099898,-0.2567530300095677,0.10425205439329148,-9.635461782217027
26.0,4.099999904632568,246.0,21.801958084106445,28.093616485595703,-79.78284707102189,40.45889563263295,290.8061346130371,0.007314001210033894,-0.014010029844939707,0.8498158454895021,0.5268427133560181,0.10171628633402964,-0.03953522174554837,2.9952695751877187,-0.003285282524302602,0.017068216577172283,-0.07308570295572281,-0.1128614399023354,0.07596834138035774,-10.02145052075386
26.2,4.199999809265137,241.0,21.78192710876465,26.702056884765625,-79.7828470475021,40.458895425745155,291.4398111419677,0.006888415198773146,-0.015201049856841562,0.8493172526359558,0.5276188850402832,0.0877628051339061,-0.04067928220765432,3.041286145111887,0.0643368512392044,-0.040216151624917984,0.11655163764953612,-0.2045392397604883,-0.003302763216197491,-9.907137454748154
26.4,4.300000190734863,239.0,21.85204124450684,25.85121726989746,-79.78284703479684,40.45889530208333,291.75247135925287,0.004878624342381954,-0.016787586733698845,0.8488233685493469,0.5283876061439514,0.08286393308359813,-0.04440270667768067,3.0182729021746892,0.008750997483730316,-0.05035732313990593,-0.024211382493376732,-0.21963823065161706,0.3385949726030231,-9.756010318994523
26.5,4.300000190734863,239.0,21.928415298461914,24.70616149902344,-79.78284705551208,40.45889531324597,292.35387936401366,-0.0033738540951162572,-0.014549536630511284,0.8485361337661743,0.5289266109466553,0.06727566616516778,-0.0846458586196698,2.979934488171168,-0.0026251322124153376,0.013800028711557388,0.010397789999842644,-0.44408861014992,0.2706250740587711,-9.552505579590797
26.7,4.5,239.0,21.858301162719727,26.216999053955078,-79.78284694622032,40.458895134716734,292.66568890380864,-0.004390584770590067,-0.014351725578308104,0.8484008312225342,0.5291416645050049,0.04594396454330585,-0.08970281009284986,2.960505128881397,-0.08093546330928802,0.0813615545630455,0.05774210765957832,-0.3587311387807131,0.14757568314671518,-9.585603159070017
26.8,4.599999904632568,242.0,21.908382415771484,26.19314384460449,-79.78284683206765,40.45889504730181,293.2780355529785,0.0044881305657327175,-0.0162243340164423,0.8477697372436523,0.5300973653793335,0.08469360995104032,-0.102462253842596,2.962687592206996,-0.1595579832792282,0.0698051005601883,-0.0365302711725235,-0.3704995739087463,0.3928224891051649,-9.795177308321
27.0,4.699999809265137,240.0,21.832008361816406,26.550973892211914,-79.78284682273602,40.45889509506456,293.5746110992432,0.008341466076672077,-0.017947692424058914,0.8474236726760864,0.5305482745170593,0.1163431287772304,-0.10089386728612534,2.96766260493348,-0.13541993498802185,-0.07992325723171234,0.12142667919397356,-0.4236713025346399,0.2046569697931409,-9.84303326010704
27.1,4.800000190734863,240.0,21.96597671508789,24.32447624206543,-79.78284680507781,40.458895146570725,293.8719266967773,0.010140049271285534,-0.02189247123897076,0.8472992777824402,0.5305675864219666,0.1395670840940885,-0.10405589871475224,2.9713270109049774,-0.08986916393041611,-0.008987274952232838,-0.012260360643267632,-0.3454818231984973,0.3682024221494794,-9.787458983659745
27.3,4.800000190734863,235.0,21.753129959106445,28.538917541503906,-79.7828469002912,40.4588949873233,294.47851696777343,0.011672929860651491,-0.026442507281899445,0.8468979001045227,0.5309693813323975,0.13995837886817056,-0.1101782226272254,2.95151022972308,-0.11525803804397584,-0.11527082324028015,0.0813269391655922,-0.4058055005595088,0.3860563469678164,-9.736242052316666
27.4,4.900000095367432,237.0,21.82449531555176,26.28061294555664,-79.7828469466444,40.458894896342095,294.7855505065918,0.008827880956232548,-0.026952218264341358,0.8463748693466187,0.5318321585655212,0.1517932449732224,-0.08953860274384219,2.9548213013451528,-0.09333522617816924,-0.009029087610542774,-0.004596004262566567,-0.37028289802372455,0.5345615912228823,-9.864814138412477
27.5,5.0,234.0,21.864561080932614,26.28856468200684,-79.78284697589457,40.458894919934146,295.3836282806396,0.0053137135691940784,-0.02540426515042782,0.8446850180625916,0.5346342325210571,0.14414193761157273,-0.11194984588324104,3.0137253934490875,0.130769744515419,0.06400592625141144,0.02386908978223801,-0.3135138526931405,0.26313124593347315,-10.101959663629533
27.7,5.099999904632568,234.0,21.88960266113281,25.7876033782959,-79.78284691222872,40.458894870765064,295.997847946167,0.011392629705369473,-0.021963424980640408,0.8456442356109619,0.5331733226776123,0.1261041017723185,-0.10386791294514383,3.031570207654183,-0.13243627548217773,0.03519420325756073,0.011167488060891628,-0.34523024674504993,0.449059583991766,-9.880924386978151
27.8,5.199999809265137,234.0,21.82574844360352,26.495309829711914,-79.78284676663233,40.45889485787081,296.3059133605957,0.014794974587857725,-0.021748900413513184,0.847314178943634,0.5304400920867921,0.13285896095362015,-0.11199206491894896,3.0234882739036024,-0.130488321185112,0.05261363834142685,-0.09476255625486374,-0.4187072722613812,0.5876786849275232,-9.918531339168547
28.1,5.300000190734863,232.0,21.9209041595459,24.539175033569336,-79.78284666647494,40.45889491141241,296.91452351379394,0.01138765923678875,-0.02436423487961293,0.8501136898994446,0.5259121060371399,0.1436621019455592,-0.1376848953861702,3.0363448791811263,-0.04920557886362077,-0.0949043408036232,0.06836333125829698,-0.4338797736167908,0.2719495963118971,-9.839686313867567
28.2,5.300000190734863,231.0,21.937179565429688,25.93868637084961,-79.78284649916353,40.458894783056,297.2249540405273,0.008903499692678452,-0.02558647468686104,0.8508152365684509,0.5247661471366882,0.14701609380354366,-0.1655814169995127,2.996140559134091,0.029230648651719093,-0.03807753324508667,0.06548351049423218,-0.6224657808244228,0.2758356010168791,-9.567245825529099
28.3,5.300000190734863,231.0,21.8570499420166,26.209047317504893,-79.7828464230245,40.45889482462122,297.52391949462884,0.0071767657063901424,-0.02694023959338665,0.8510178923606873,0.5243961811065674,0.13613217915851705,-0.19087123880238888,2.9700091420939625,-0.02930058352649212,-0.030418012291193005,-0.03888554126024246,-0.4251121295616031,0.5138845210522414,-9.603809634447098
28.5,5.5,234.0,21.71807098388672,27.505186080932607,-79.78284611685214,40.45889482272106,298.1436056213379,0.005909404717385769,-0.029153797775506973,0.8506929278373718,0.5248208045959473,0.1367767304125546,-0.2361266157225066,2.9874280522060768,-0.09000403434038162,-0.020975839346647263,0.059156708419322974,-0.4491333319991827,0.4575341729074717,-9.800963128209112
28.6,5.5,233.0,21.864561080932614,23.27484130859375,-79.78284581389087,40.45889476586438,298.7661565856933,0.007198100443929435,-0.0312275942414999,0.8497458696365356,0.5262177586555481,0.14003912078265704,-0.2595496191953308,3.037604684109283,-0.03060653991997242,0.07288479804992676,0.05788306146860123,-0.6340726500749588,0.36728842925280336,-10.088998725414275
28.8,5.5,233.0,21.83451271057129,26.24880599975586,-79.78284569227688,40.4588948155026,299.07091275024413,0.006899447645992041,-0.031053967773914337,0.8492245078086853,0.5270729064941406,0.1468521692269243,-0.25830501320680604,3.033395083205378,0.07014931738376617,-0.018973613157868385,0.055110178887844086,-0.6077860170230269,0.2844969536550343,-9.80712901711464
28.9,5.599999904632568,233.0,21.90337562561035,23.51339530944824,-79.78284546929642,40.45889470929541,299.3930276947021,0.0043156910687685,-0.03185016289353372,0.8488429188728333,0.527667224407196,0.14259348299135385,-0.2561862261662735,3.0308662299012297,0.10424157977104187,-0.08045335859060287,0.013441001996397972,-0.5242672757059336,0.3234317171573639,-9.728307965397835
29.0,5.599999904632568,232.0,21.85204124450684,26.216999053955078,-79.78284522088336,40.45889481556164,300.0008977966308,-5.8491728850640357e-05,-0.032803915441036224,0.8479742407798767,0.5290213823318481,0.11486217136150367,-0.2812439013783316,3.0210432703991037,0.0561140812933445,-0.02874642238020897,-0.035714540630578995,-0.4810095743089914,0.2526930158212781,-9.789319567680359
29.2,5.699999809265138,239.0,21.835763931274414,25.159412384033203,-79.78284490484477,40.458894834569676,300.6243299560547,0.003798965131863953,-0.03650401160120964,0.8478642702102661,0.5289415717124939,0.14667574714775766,-0.2817746806540525,3.0141630677770848,0.1029895395040512,-0.04474152624607086,0.031154677271842963,-0.3762663538008929,0.2359515237808228,-9.845203746557237
29.4,5.599999904632568,240.0,21.93592834472656,24.435800552368164,-79.78284468561088,40.45889471964861,300.95038357543945,0.003900386625900865,-0.037292137742042535,0.8478604555130005,0.5288921594619751,0.16370181734234585,-0.279211010908654,3.00279270751728,0.13788029551506042,0.054998207837343216,0.027734478935599327,-0.4347658095136285,0.2112564114667476,-9.729100263118744
29.52,5.599999904632568,240.0,21.699291229248047,27.9345817565918,-79.78284458390222,40.45889477073501,301.25063076782226,0.005050945095717907,-0.03635463491082192,0.848148763179779,0.5284851789474487,0.16047916716295674,-0.27586727608700723,2.9721104848847486,0.1332949697971344,0.0004477827169466764,0.0002730432024691254,-0.6079831778258086,0.2074384902790189,-9.4662158793211
29.71,5.599999904632568,241.0,21.770658493041992,26.717960357666016,-79.78284420974944,40.45889470379139,301.881673248291,0.0067555843852460384,-0.03495769575238228,0.8486663699150085,0.5277289748191833,0.13431536081064405,-0.2506486006379509,3.0185058969426253,0.07023851573467255,-0.005742681212723254,-0.0874498188495636,-0.4923156043142081,0.4175721815228463,-9.857847765684127
29.8,5.599999904632568,243.0,21.7456169128418,26.137481689453125,-79.78284411262149,40.458894725555204,302.1850904541016,0.007093978580087423,-0.03470945358276367,0.8492135405540466,0.5268598198890686,0.12700425017012984,-0.2434216454747209,3.0297180393136376,0.0397985465824604,-0.03759294375777245,0.04780543223023415,-0.5221472945809364,0.37190082259476187,-9.823710551261902
30.0,5.5,243.0,21.776918411254886,27.27458381652832,-79.78284392192836,40.45889461734158,302.8199895935058,0.005731686484068632,-0.03254074603319168,0.8499962687492371,0.525751531124115,0.11104565027664726,-0.2133719629890441,3.057638614708101,-0.028654729947447773,-0.013020897284150124,-0.173776313662529,-0.2973709145374596,0.6590906931459904,-9.875652537345886
30.1,5.5,243.0,21.7744140625,26.92470741271973,-79.78284384200447,40.458894621100036,303.1267561035156,0.002592246746644377,-0.03222082182765007,0.8501471281051636,0.5255520343780518,0.10524060408473243,-0.21136534474414329,3.062655944634384,0.02674071863293648,-0.007756419014185667,-0.09772322326898576,-0.33010306131094697,0.5214865226671099,-9.914603179693225
30.2,5.5,238.0,21.756885528564453,26.638442993164066,-79.78284358571106,40.458894412678156,303.764169128418,0.00038981356192380174,-0.03093344531953335,0.8507214188575745,0.524705708026886,0.056426857056460375,-0.21657229601765374,3.0995946927981994,-0.08980035036802292,0.045500099658966064,-0.0008226133650168778,-0.5941204162314534,0.5641846455261111,-9.985389572381974
30.4,5.5,238.0,21.86581420898437,25.453628540039066,-79.78284348945449,40.458894255815046,304.4015173034668,0.001903390744701028,-0.030031139031052582,0.8511071801185608,0.5241289734840393,0.08669080365701133,-0.1922843581369381,3.09155489810053,-0.08492331951856613,0.07418990135192871,0.01580863445997238,-0.5115640900656582,0.38117593187838794,-9.771066899299623
30.6,5.5,238.0,21.838268280029297,26.25675773620605,-79.78284343699056,40.45889426542104,304.7107442932129,0.0008878186345100403,-0.029946183785796162,0.8511305451393127,0.5240986347198486,0.10083731352997867,-0.19549171007844574,3.079701912483148,-0.03703149408102036,0.015946203842759132,0.01685367338359356,-0.6028694222867489,0.427940171957016,-9.580620746612553
30.7,5.5,238.0,21.6817626953125,28.284460067749023,-79.78284345283626,40.458894099816135,305.03884259033197,0.0003425506001804024,-0.03136549890041351,0.8508397936820984,0.5244882106781006,0.08252570755477075,-0.17445355062470916,3.063955105852787,-0.09399639815092088,-0.04877220839262009,0.018200740218162537,-0.5035934215039015,0.38250975485891103,-9.703305855989457
30.9,5.5,242.0,21.821990966796875,24.411945343017567,-79.78284341002531,40.45889392077804,305.67984906005864,-0.00024403423594776544,-0.03203379735350609,0.8498318195343018,0.5260795950889587,0.08624600664943388,-0.16106083061367427,3.1040918442782655,-0.11237624287605286,0.03164173290133476,0.0065568294376134855,-0.5308950581029058,0.5532488539069891,-9.950068881511687
31.0,5.5,240.0,21.91714859008789,23.56905746459961,-79.78284342378744,40.4588938886213,306.30257550048833,0.002811412326991557,-0.031123874709010124,0.8499435186386108,0.5259463787078857,0.0716803503991188,-0.14891572051526286,3.097168117526015,-0.20703475177288053,0.11985578387975693,0.008622940629720688,-0.4684800509735942,0.3688361506909133,-9.643219867944715
31.2,5.5,241.0,21.76439666748047,27.48928260803223,-79.78284338759542,40.45889377300135,306.63094464111333,0.006356685422360897,-0.030271466821432117,0.8502012491226196,0.52554851770401,0.10350097804939136,-0.1366389633329873,3.057663680076887,-0.06609904766082764,0.05679287761449814,-0.07296736538410188,-0.2941154954954982,0.3955216734856367,-9.516965033411982
31.3,5.5,241.0,21.845781326293945,25.04808807373047,-79.78284340168433,40.45889375881777,306.9362196044922,0.005068915896117686,-0.02887482568621636,0.8504625558853149,0.5252181887626648,0.1213232676865052,-0.11753528119590813,3.0421231020684814,0.021272005513310432,-0.030362656340003014,-0.01490569394081831,-0.33816885676234965,0.3949874572455883,-9.680328637361523
31.5,5.599999904632568,237.0,21.7456169128418,26.20109558105469,-79.78284339181914,40.458893614531156,307.58458843994134,0.0004184842109680176,-0.028388584032654762,0.8504382967948914,0.5253081917762756,0.09214056704366616,-0.12030579854948165,3.045396476442628,0.12095442414283752,-0.053010739386081696,-0.0018005629535764454,-0.4486672723665834,0.21277687026187772,-9.689074902534486
31.61,5.599999904632568,240.0,21.730592727661133,27.354103088378906,-79.78284341061068,40.45889359327404,307.8888982849121,-0.0004519145586527884,-0.0286788996309042,0.8502174615859985,0.5256496071815491,0.08438704687070818,-0.1169313339772135,3.0330082818013118,0.07811892777681351,-0.05834629014134408,-0.08222995698451996,-0.2827674020826817,0.3368086482211948,-9.645224293470383
31.7,5.5,239.0,21.758136749267575,26.360130310058594,-79.78284337933384,40.458893368393774,308.527181060791,-0.002853544894605875,-0.027862964197993282,0.8498157858848572,0.5263351202011108,0.08583401229507584,-0.11343405413508635,3.0279707182476514,0.08591481298208238,0.06728257983922957,-0.08962107449769974,-0.3597546207904816,0.4572026357799769,-9.726949657201768
31.9,5.5,239.0,21.63167953491211,28.30831527709961,-79.78284334979524,40.45889318908514,309.16798916625976,0.0010512564331293106,-0.02162542939186096,0.8496558666229248,0.5268930196762085,0.0563820282411384,-0.07139098683134476,3.0511170259566085,-0.17937417328357694,0.0821940079331398,0.09011222422122957,-0.2584140960685909,0.35771690268069506,-9.77156157374382
32.0,5.5,240.0,21.809471130371094,24.793630599975586,-79.78284341363658,40.458893170762,309.47281781005864,0.0045971102081239215,-0.021904263645410538,0.8496548533439636,0.5268641710281372,0.08253503183868995,-0.047170071193564894,3.0401937193687067,-0.12467774748802185,0.05965312942862513,-0.1541072577238083,-0.2888850514590741,0.4240776474773884,-9.665414729118346
32.2,5.5,236.0,21.659225463867188,27.958436965942386,-79.78284339701544,40.45889297860314,309.8076528625488,0.006077978760004044,-0.022728050127625462,0.8497139811515808,0.5267187356948853,0.11247403862091704,-0.038202338048470605,3.0314955296655914,0.033243585377931595,-0.02358428761363029,0.04399334266781807,-0.2233893839456141,0.06045556861907244,-9.665830466151238
32.4,5.400000095367432,236.0,21.818235397338867,25.779651641845703,-79.78284342148321,40.45889280964019,310.4418310241698,0.007471943274140358,-0.022697754204273224,0.8502686023712158,0.5258063077926636,0.12927242811085898,-0.06394624521727471,3.035625335622462,0.04453536868095398,0.06858468800783157,-0.01903306506574154,-0.3902262888103724,0.44639508090913305,-9.800598846673967
32.5,5.400000095367432,236.0,21.725584030151367,27.68807601928711,-79.78284346427169,40.45889280932243,310.7457708435058,0.0093616945669055,-0.020175611600279808,0.8508069515228271,0.5250076055526733,0.13235821461709718,-0.0706736921970634,3.0268944411357057,0.08600155264139175,0.1018015444278717,-0.10432305932044984,-0.3068972165510059,0.4975511281192303,-9.786483083367347
32.6,5.400000095367432,234.0,21.7205753326416,26.01025199890137,-79.78284345847914,40.45889268101112,311.3795675354004,0.00800844095647335,-0.022308621555566788,0.8515337109565735,0.5237638950347899,0.11438833521764202,-0.06777974234885119,3.038337545023256,-0.09716784209012984,-0.03455981612205505,-0.052102379500865936,-0.3895071543753148,0.5398935575410724,-9.794129487276075
32.8,5.400000095367432,232.0,21.74186134338379,25.61266326904297,-79.78284349985022,40.45889246694458,312.0156072692871,0.005153574049472811,-0.02771333605051041,0.8515197038650513,0.5235644578933716,0.10893201908513024,-0.09363861758968324,3.0316324624697457,-0.01111021637916565,0.006431045942008495,-0.038477476686239236,-0.3620394203066826,0.3258951491117478,-9.795519955158236
33.0,5.300000190734863,231.0,21.74812126159668,26.3521785736084,-79.78284352059461,40.45889245484473,312.3186315612793,0.0063956789672374725,-0.029167866334319118,0.8507839441299438,0.5246666669845581,0.1020053290957302,-0.10175999194127514,3.020655670800504,-0.11371134221553802,-0.012787451967597008,-0.0016512570437043905,-0.4325464257225394,0.3890314102917911,-9.673754028081897
33.1,5.300000190734863,230.0,21.66798973083496,28.093616485595703,-79.78284354824467,40.45889243686192,312.6203970031738,0.007829852402210236,-0.03001237101852894,0.84954434633255,0.5266045331954956,0.1069133148292416,-0.0914122108596786,3.0058798502774318,-0.08604545146226883,-0.0256379172205925,0.08915478736162186,-0.32170295130461457,0.3986030464991928,-9.6469737803936
33.21,5.199999809265137,234.0,21.746868133544922,25.70013236999512,-79.78284362530601,40.45889232338044,313.24522915649413,0.004085561260581017,-0.021516932174563408,0.8476430177688599,0.5301148295402527,0.1461459442237405,-0.07051195733132101,3.0259780842871886,0.19182902574539185,0.03820246830582619,0.11003905534744264,-0.3033242754265666,0.2417505364492536,-9.935739694833755
33.4,5.300000190734863,233.0,21.942188262939453,21.95484733581543,-79.78284366079005,40.45889213884799,313.86325588989257,0.008745688013732433,-0.019640311598777768,0.8484657406806946,0.5288134813308716,0.10484842017670942,-0.026980090413030428,2.925771168393159,-0.06467027962207794,-0.02079535275697708,0.009644881822168829,-0.1585464484244585,0.3295653001964092,-9.226015183925627
33.5,5.199999809265137,232.0,22.151281356811523,18.88546371459961,-79.78284372513735,40.458892141049816,314.1518873291016,0.014664375223219396,-0.02318025939166546,0.8496558666229248,0.5266238451004028,0.1344716934749562,-0.020567309352912587,2.8346610912480474,-0.11803283542394638,-0.13100330531597135,-0.07666821032762527,-0.3830933800712228,0.25587945599108936,-8.9163355332613
33.7,5.199999809265137,231.0,22.197607040405273,18.654861450195312,-79.78284378839967,40.4588919297852,314.4622053222656,0.018316792324185368,-0.02544203773140908,0.8505688309669495,0.5249285697937012,0.19433227894117372,-0.03663922664499841,2.741109194723102,0.0845150277018547,0.10243292897939682,-0.028908643871545788,-0.2891425482183695,0.4338179758563638,-8.738670224547386
33.9,5.199999809265137,226.0,22.223899841308594,18.5117301940918,-79.78284388925627,40.458891807870025,315.01680126953124,0.021038362756371498,-0.029560094699263576,0.8519509434700012,0.5223631858825684,0.20510331748964544,-0.04397305649142609,2.5007157109164484,0.034910790622234344,-0.08153660595417023,-0.008762749843299389,-0.3855744267627597,0.3991432561352849,-8.453254764676094
34.0,5.099999904632568,223.0,22.207622528076172,18.00281524658203,-79.78284392458781,40.45889182958983,315.2616552429198,0.021791972219944,-0.029785750433802605,0.851863443851471,0.5224620103836061,0.20409434358959894,-0.05366902831196154,2.3753384899277683,0.12950296700000766,0.005121634341776371,0.06220391392707825,-0.2029100775718689,0.2513050330057741,-8.584202574491501
34.2,5.099999904632568,220.0,22.180078506469727,18.60715103149414,-79.78284387121633,40.45889169531824,315.74765530395507,0.023330315947532654,-0.028506299480795864,0.8510711789131165,0.5237566828727722,0.15737725417130766,-0.05142517705683279,2.144294317547288,-0.00041846686508506536,0.02528669312596321,-0.015012528747320175,-0.3517090713232756,0.6099226992577315,-8.402134312391281
34.3,5.0,220.0,22.099946975708008,20.22931289672852,-79.78284387506268,40.45889169884588,315.957471282959,0.023057270795106888,-0.027122315019369125,0.8509122133255005,0.5241003036499023,0.12479652300161788,-0.04617198306764253,2.039425292979649,-0.2138751745223999,0.01361231692135334,-0.004367699380964041,-0.29358423940837386,0.6997819054126739,-8.577553705573083
34.4,4.900000095367432,218.0,22.11622428894043,19.49774932861328,-79.78284379354959,40.45889147692535,316.3971036987305,0.025569943711161613,-0.024942943826317787,0.8510939478874207,0.5237969160079956,0.08592644477187589,-0.056839336575041866,1.8824199648402449,0.0801776871085167,0.09162317961454393,0.016453664749860764,-0.2720312015153468,0.4252914198115468,-8.843492674827576
34.6,4.900000095367432,213.0,22.054872512817386,21.0483455657959,-79.78284365368759,40.45889111912183,316.84022274780267,0.018166707828640938,-0.029077425599098206,0.8515931963920593,0.5230809450149536,0.06844007942915828,-0.05382362877152142,1.7936253761798135,0.19283370673656464,-0.131538525223732,0.11096885055303574,-0.1788962206989527,0.3166479602828622,-9.153096311688424
34.81,4.900000095367432,212.0,22.017311096191406,21.45388603210449,-79.78284359484542,40.45889106434245,317.0166753845215,0.01438960153609514,-0.030804090201854706,0.8514556884765625,0.5233232975006104,0.025262791905424808,-0.08276175284647706,1.7302356656133715,0.031939849257469184,0.01072879508137703,0.0057619959115982064,-0.2692965501174331,0.8381702971458436,-9.170140360593797
34.9,4.800000190734863,212.0,22.145021438598643,19.79196548461914,-79.78284350364632,40.45889072622976,317.27675762939447,0.012468071654438972,-0.03179815411567688,0.8511549830436707,0.5238020420074463,-0.002547973264297884,-0.08071584000358957,1.7627602847614399,-0.09397918730974196,-0.05252966657280922,-0.1633889526128769,-0.4576627020165324,0.6261023835092784,-9.22331610918045
35.1,4.800000190734863,221.0,21.97974967956543,22.84544563293457,-79.78284337293275,40.45889060105209,317.61618557739257,0.015514540486037731,-0.029588153585791588,0.8514332175254822,0.5233979225158691,-0.021686297054031613,-0.08230629581071956,1.626672074013665,-0.27036359906196594,0.04277956485748291,-0.046449605375528336,-0.5497405976057053,0.6881681656837464,-8.936626541018489
35.21,4.800000190734863,221.0,22.002286911010746,21.779909133911133,-79.78284312813837,40.458890048018354,318.07958737182616,0.015666618943214417,-0.024393675848841667,0.8527982831001282,0.5214350819587708,-0.033985015798519674,-0.07278313233406436,1.6162734864551764,-0.08877282589673996,0.14603345096111298,-0.04545338824391365,-0.3404342142865062,0.6676924590021373,-9.261686123013497
35.4,4.699999809265137,221.0,23.11786460876465,5.502627372741699,-79.78284309644485,40.45888955718532,318.3896268920898,0.013734418898820877,-0.02312229759991169,0.8534687757492065,0.5204496383666992,-0.05573020909155589,-0.054613568306296406,1.6723719535010606,0.06430946290493011,-0.12604351341724396,0.10967202484607697,-0.2931879260949791,0.3182700875401497,-9.202050955295563
35.5,4.699999809265137,221.0,22.047361373901367,20.63485336303711,-79.78284300301706,40.45888945465715,318.54706707763665,0.010324960574507713,-0.02080451138317585,0.85395348072052,0.5198307633399963,-0.06111250734341525,-0.06470708210305252,1.4374091947262282,0.07907814532518387,0.058275632560253136,0.2163543403148651,-0.28599577775225044,0.5570515175163746,-7.714128114581107
35.7,4.599999904632568,215.0,22.153785705566406,19.50570106506348,-79.78284288255622,40.45888914117892,318.8572286682129,0.005791365634649992,-0.016800966113805767,0.8187186717987059,0.5739198327064514,-0.03556065379558962,-0.059568584762371875,1.0504742076374978,0.007177730090916156,-0.052184469997882836,1.0220503807067869,-0.24119664067402485,0.5705552966147661,-7.9136497306823745
35.8,4.5,224.0,22.11246681213379,20.110036849975586,-79.78284280301354,40.45888909350742,318.9576124267578,0.005596133414655924,-0.0187419168651104,0.7886616587638855,0.6145162582397461,0.005256479441710107,-0.06633593307999475,0.9350004685879888,0.004896891303360461,-0.012210159562528132,1.119185209274292,-0.2402958588302136,0.6028023620322347,-8.453219096660613
35.9,4.599999904632568,220.0,22.081167221069336,20.213409423828125,-79.78284272636822,40.45888895361479,319.1670087890625,0.012463324703276156,-0.021196689456701282,0.7022725343704224,0.7114834785461426,0.05504994349522016,-0.08212352158552183,0.8102804293634418,-0.10732359439134598,-0.016583029180765152,1.3737938404083252,-0.26387402504682544,0.7996953257918358,-8.976750134825707
36.1,4.5,218.0,22.24894142150879,17.589323043823242,-79.78284256938684,40.45888879549779,319.36364117431634,0.02131154015660286,-0.02321067452430725,0.5891518592834473,0.807407796382904,0.10989397570310536,-0.06310034114341116,0.7050216539656052,-0.10526425391435623,-0.0722062811255455,1.6270155906677246,-0.09355323946103454,0.4793224333226681,-8.989180730581284
36.2,4.400000095367432,260.0,22.17882537841797,19.394376754760746,-79.78284247790069,40.4588888549696,319.42999020385736,0.025315038859844208,-0.023944610729813576,0.5248966217041016,0.8504524827003479,0.12680674649185025,-0.05731241268854932,0.6094757188497364,-0.009055910632014276,0.005015578120946884,1.6625970602035522,-0.007320650042966009,0.5142003803327679,-8.869045007228852
36.4,4.300000190734863,283.0,22.12123107910156,20.348588943481445,-79.78284191152181,40.45888875194546,319.52627697753906,0.027918076142668724,-0.023246364668011662,0.4570639133453369,0.8886917233467102,0.14611404201543635,-0.05602471173336347,0.5887557910569005,0.026475198566913605,-0.05868314951658249,1.591588854789734,0.13484949236735702,0.5544963208213449,-9.002281417250634
36.6,4.199999809265137,273.0,21.97974967956543,21.55725860595703,-79.78284166424751,40.45888885081715,319.63506832885736,0.03343716636300087,-0.019135823473334312,0.3190307021141052,0.9469611048698424,0.1403322902446864,-0.02857714423808339,0.4842058829629715,-0.0021224413067102432,0.050535913556814194,1.5488903522491455,0.3049308710172773,0.5117743340134621,-9.328119848370553
36.7,4.199999809265137,266.0,21.959716796875,22.765928268432607,-79.78284105878316,40.458888990474684,319.6771329956054,0.037966467440128326,-0.015133851207792759,0.24793975055217746,0.9679129123687744,0.17430756416824414,-0.02703719532724124,0.5091033011288241,0.07074704766273499,0.11672257632017136,1.4031331539154053,0.4772842401266098,0.6005011903122067,-9.59993585407734
36.81,4.0,285.0,21.958465576171875,22.447856903076172,-79.78284099269695,40.45888944425672,319.65883770751947,0.04890938848257065,-0.009579007513821123,0.10466253012418747,0.99325829744339,0.1842551805966786,0.005844420621875922,0.4768089968846281,-0.009985333308577538,0.14636145532131195,1.4865459203720093,0.5236527698859572,0.2911564571969211,-9.901526466608047
37.0,4.0,291.0,21.952205657958984,22.89315795898437,-79.7828405952345,40.458889432307174,319.75177899169915,0.0643579289317131,-0.006211911793798208,-0.04284987226128578,0.9969872236251832,0.1809343899816007,-0.010425162503983437,0.4308343935754553,-0.002957057673484087,0.08727715164422989,1.5492119789123535,0.7396213976293803,0.06960444199852646,-9.505770539045336
37.2,4.099999904632568,273.0,22.068645477294922,20.444011688232425,-79.78284096735955,40.45888943257235,319.67482510375976,0.06749847531318665,-0.004024823196232319,-0.11546436697244646,0.9910074472427368,0.15485910831032002,-0.03127074879828366,0.3686266329263619,-0.010184057988226414,0.002745206234976649,1.421276330947876,0.6036346766352654,0.14481190530583266,-9.55539118051529
37.3,4.099999904632568,264.0,22.073654174804688,20.61894989013672,-79.78284079870944,40.458889323183186,319.71067944335937,0.06974074244499208,-0.0008363302913494407,-0.18806830048561096,0.979676365852356,0.16421969735077166,-0.06625515140531665,0.3652269265095153,-0.09635476768016817,-0.01516878791153431,1.5184201002120972,0.7439731878787279,0.06746491838246585,-9.703609911203383
37.4,4.199999809265137,274.0,22.014806747436523,21.565210342407227,-79.78284073359511,40.4588894279733,319.65447750854486,0.07174237817525864,0.0014761867932975292,-0.2597373425960541,0.9630095958709716,0.1895675562742576,-0.08638077565160246,0.30263703800584,-0.014292676933109759,0.08921392261981964,1.58426034450531,0.6935714314877988,-0.1985019713267684,-9.513744971752168
37.6,4.199999809265137,285.0,21.915895462036133,24.34037971496582,-79.78284038268669,40.458889111148856,319.6233953552246,0.07101687788963318,0.007045126054435968,-0.4320361316204071,0.8990282416343689,0.2612039154775588,-0.1373521991705046,0.2117630145690952,0.08992387354373932,-0.010831661522388458,0.9056018590927124,0.8917497228831053,-0.4140084863081575,-9.795915811657906
37.7,4.400000095367432,269.0,21.76064109802246,26.876995086669922,-79.78284031244316,40.45888881638989,319.64354458618163,0.06958671659231186,0.009774531237781048,-0.4660964608192444,0.8819389939308167,0.27724012458368485,-0.15139973711907875,0.27613488086787746,-0.09783633798360823,0.07325145602226257,0.7108462452888489,0.7131127531081438,-0.35952793154865503,-10.180594189167024
37.91,4.400000095367432,262.0,21.751876831054688,25.68422889709473,-79.78284043078598,40.45888868165991,319.5826963500976,0.06197454780340195,0.0073898062109947205,-0.4875601828098297,0.8708556890487671,0.29265281233956314,-0.1512735452260297,0.3174610568238045,-0.028706369921565056,-0.1463235467672348,0.4219532907009125,0.84929075114429,-0.3449153741821647,-10.540064635276797
38.1,4.599999904632568,258.0,21.76690101623535,25.54109764099121,-79.7828402627859,40.45888799664387,319.6610197143554,0.02596808969974517,0.050006162375211716,-0.5058103799819946,0.8608025312423706,0.3687414677106295,-0.05989484249616805,0.550351163640039,0.2871401607990265,-0.6539916396141052,0.2196333408355713,0.7099143261462451,-1.0040175059437753,-10.950559054613114
38.2,4.599999904632568,239.0,21.71431541442871,26.805429458618164,-79.78284031599681,40.45888777803841,319.6248106079101,-0.002135394373908639,0.06358527392148973,-0.5044324398040771,0.8611041307449341,0.34851177826333857,0.00830532475672735,0.6228865610200508,-0.17554599046707153,-0.34888750314712524,-0.12101607769727707,0.6639054366946221,-0.7131819695234299,-10.908443899154664
38.3,4.800000190734863,229.0,21.763145446777344,25.21507453918457,-79.78283968475799,40.458887331686334,319.661328704834,-0.04335013777017594,0.05450212582945824,-0.4924022555351257,0.8675772547721863,0.3532276301095493,0.2434401626750595,0.8244609784523254,-0.4134385287761688,0.05643451586365701,-0.15624354779720304,0.5155056981369853,-0.3446856151521206,-10.97775211572647
38.5,4.800000190734863,225.0,21.90462684631348,23.64857482910156,-79.78283806430389,40.45888716299553,319.82441082763665,-0.053168591111898415,0.05080123990774155,-0.478642076253891,0.8749253153800964,0.3806739435714753,0.6278506383161413,0.9562956249868994,-0.0917448103427887,-0.09770450741052628,-0.2388341277837753,0.6353627651184798,-0.4561132264137268,-10.289130206108092
38.61,4.800000190734863,207.0,21.95721244812012,22.38424301147461,-79.78283743588437,40.45888728132349,319.75982418823236,-0.05782335624098778,0.05783578380942345,-0.4711745083332062,0.8782404065132141,0.35138981812451353,0.8186113311910878,0.9330458635603964,-0.05891859531402587,-0.16554147005081174,-0.2289054095745087,0.6891220658272506,-0.40281709827482703,-10.19932165145874
38.8,4.699999809265137,200.0,21.991018295288086,22.93291664123535,-79.78283613957689,40.458887490904786,319.84008923339843,-0.06260349601507187,0.0655001625418663,-0.4652250409126282,0.8805432319641113,0.35735083109482496,1.0217387741774342,0.999978845562618,-0.04942954704165459,-0.11291766166687013,-0.2887701988220215,0.7315164989233017,-0.3380183275043965,-10.134643260240557
39.0,4.599999904632568,194.0,21.816984176635746,24.483510971069336,-79.78283352550356,40.45888809823269,319.81891384887695,-0.0715499296784401,0.07241291552782059,-0.455804318189621,0.8842394351959229,0.3878222709508612,1.4182094531625808,1.0087727566770035,-0.01278342492878437,-0.19871197640895846,0.013200682587921621,0.5452013675495982,-0.7688523595780135,-10.092001855373383
39.1,4.5,192.0,21.91965103149414,22.60689353942871,-79.78283029613688,40.45888881678603,319.70840588378906,-0.08757274597883223,0.06589147448539734,-0.4512493014335632,0.8856430053710938,0.4067291368929246,1.837246673308624,1.0110244988506594,-0.15739445388317108,-0.1788187026977539,-0.0022326824255287647,0.4327786698192359,-0.4097581817954779,-10.115646826028824
39.2,4.199999809265137,182.0,21.908382415771484,22.75002479553223,-79.78282794760162,40.45888961093947,319.76703778076165,-0.09744220227003098,0.06365250051021576,-0.4513260424137116,0.8847362399101257,0.4073101180144336,2.0851430677559324,1.0658977007196306,-0.20400692522525787,-0.1905514150857925,0.024065524339675903,0.37102838147431616,-0.34214964117854835,-9.970778549909591
39.4,4.199999809265137,180.0,21.86581420898437,23.338457107543945,-79.78282306982442,40.45889096346753,319.64962521362304,-0.12328848242759705,0.0612700842320919,-0.4513547122478485,0.8816604018211365,0.37651854303085536,2.5615047202138306,1.1335054503771065,-0.26468223333358765,-0.12575209140777588,-0.004871665500104427,0.2829025458544493,-0.32393823221325874,-10.057962874174116
39.6,3.9000000953674316,174.0,21.83451271057129,24.42784881591797,-79.78282002681296,40.45889222741051,319.69337979125976,-0.1335139274597168,0.05954020842909812,-0.4515922367572784,0.8801668286323547,0.3437276242516561,2.834114068279187,1.2504331468783891,-0.1329900175333023,-0.05214501917362213,-0.07251770794391632,0.2796995873004198,-0.17107821928337216,-10.089351897239686
39.7,3.799999952316284,171.0,21.859554290771484,24.26086235046387,-79.78281676009655,40.45889298020701,319.56228009033197,-0.13910140097141266,0.06046528369188309,-0.4515416324138642,0.8792639374732971,0.34119705873491674,3.0878779600228503,1.3032740946232826,-0.02589927613735199,0.044865358620882034,-0.06474655866622925,0.26607630573213104,-0.17339801073074346,-10.185844988822938
39.91,3.5999999046325684,162.0,21.75438117980957,25.501338958740234,-79.78280908928905,40.458895823089186,319.5226835327148,-0.1395372450351715,0.0624123252928257,-0.4521856009960175,0.8787276744842529,0.2784261301508345,3.6545256195673486,1.4709314072117006,0.035677045583724976,0.07113032788038254,0.0152191873639822,0.15313612941652538,-0.3552777001261711,-10.214012196063997
40.0,3.5,158.0,21.83075523376465,23.96664619445801,-79.78280501170856,40.458897793653676,319.55185452270507,-0.1365247368812561,0.06236265972256661,-0.4519152641296386,0.8793432712554932,0.2198339611233906,3.95329404892256,1.5453639738925502,0.05201707407832146,0.11323492228984833,0.04862978309392929,0.12872050487436354,-0.4788695664703846,-10.211597295999526
40.1,3.299999952316284,149.0,21.809471130371094,25.54109764099121,-79.78279548779986,40.45890162627382,319.5223440246582,-0.12930399179458618,0.05716849863529205,-0.4506771266460418,0.8814207315444946,0.17556046158863856,4.526255623690046,1.6213183606926211,-0.14676138758659366,0.12032781541347505,-0.016096074134111404,-0.08831545899622142,-0.2741502141952515,-10.141456435918807
40.31,3.299999952316284,144.0,21.875829696655273,23.338457107543945,-79.78278474989999,40.458905970634135,319.5011953430176,-0.1273825466632843,0.047363899648189545,-0.4492079913616181,0.883030354976654,0.17452373965907975,5.061755366935532,1.6738974593249043,-0.16711856424808502,0.05035701021552087,-0.12393409013748168,-0.1125602900236845,-0.16286951422691345,-10.156986640691755
40.4,3.299999952316284,136.0,21.89335823059082,22.60689353942871,-79.78277946712362,40.45890875922645,319.5239042358398,-0.12566235661506653,0.047571472823619836,-0.4488263428211212,0.8834596872329712,0.12557688753021218,5.311676299873441,1.695223928779479,-0.11577588319778442,-0.035646893084049225,-0.1863395273685456,-0.17752819150686264,-0.0829575273860246,-9.97333846092224
40.6,3.4000000953674316,130.0,21.74812126159668,25.11170196533203,-79.7827670330238,40.4589137609866,319.5225233154297,-0.12296628206968307,0.05018095672130585,-0.4507986605167389,0.8826901316642761,0.12324315858361412,5.771137261817966,1.7707566801710883,-0.04928083345293999,-0.04276703670620918,0.0677790716290474,-0.4570906616002322,-0.5058398486673832,-10.000047372579576
40.8,3.5,120.0,21.811975479125977,23.990501403808594,-79.7827611348585,40.45891697247528,319.5403188781738,-0.12077441811561584,0.048307642340660095,-0.4518970251083374,0.8825355768203735,0.048763726380332016,5.987358634701632,1.8052259117627616,0.09226635098457336,-0.006689720787107945,0.1970496028661728,-0.3610602309554816,-0.6963128985464573,-9.960609072446823
40.9,3.5999999046325684,115.0,21.912139892578125,23.115806579589844,-79.78275381754617,40.45891946850511,319.53725567626947,-0.1180587187409401,0.04713404551148415,-0.4545974433422089,0.8815792202949524,0.08449067039135291,6.2082773553475015,1.8308642464350355,0.25770241022109985,0.0473354309797287,-0.004015226848423481,-0.28298329224810004,-0.6552516306191684,-10.069041008949279
41.0,3.799999952316284,108.0,21.7744140625,24.722064971923828,-79.78274107455164,40.45892652198377,319.57051220703124,-0.11529847979545592,0.045054562389850616,-0.4572673439979553,0.8806719779968262,-0.10822301581814776,6.620707340135037,1.8464650323699885,-0.02496889419853688,0.018108287826180455,-0.011099016293883324,-0.5725234694033862,-0.1735706680454314,-9.855024729967118
41.2,3.9000000953674316,106.0,21.864561080932614,22.75002479553223,-79.78272612096927,40.45893289578028,319.58487835693364,-0.11453219503164293,0.0499584786593914,-0.4630303084850311,0.8774905204772949,-0.17089283595671811,6.991980346255577,1.9241723419774759,0.09287262707948683,-0.1131962314248085,0.1741030216217041,-0.7947727011144161,-0.4300370200350881,-9.883662053346637
41.4,4.300000190734863,98.0,21.992271423339844,21.55725860595703,-79.7827172055122,40.458935561884154,319.60758343505864,-0.11478758603334427,0.05277686193585397,-0.4678993821144104,0.8747049570083618,-0.12166886293340574,7.1786347525273735,1.9789983292177813,0.2048904150724411,-0.050169020891189575,-0.04967530444264412,-0.5346726883202791,-0.3812900256738067,-9.87881821990013
41.5,4.5,95.0,22.012304306030273,21.49364471435547,-79.78270998957755,40.45893952321497,319.6205267028808,-0.11521335691213608,0.053259041160345084,-0.4707050025463104,0.8731129169464111,-0.26262191570431304,7.341848487773343,2.024302484893141,0.08318925648927689,0.1232604682445526,0.056046660989522934,-0.7891044102609158,-0.34462663136422633,-9.688414167165757
41.6,4.800000190734863,89.0,22.04861259460449,20.245216369628906,-79.78269304998649,40.45894630789711,319.6461729125976,-0.09903710335493088,0.04475932940840721,-0.4788613021373749,0.8711373805999756,-0.3099075178171272,7.667196378674435,1.9780095976643908,-0.09543926268815994,0.20550550520420074,0.005250887945294379,-0.921224148273468,-0.22103805407881733,-9.509881716370582
41.8,5.0,90.0,22.052370071411133,19.815820693969727,-79.78267572087304,40.45895365040635,319.6782049255371,-0.07695197314023973,0.03627416491508484,-0.4869813024997711,0.8692593574523926,-0.3917640731102797,7.986285709002688,1.5514616142316973,0.05745351314544678,0.27275004982948303,0.0027113847900182013,-0.6213961058109999,0.15208432495594024,-9.507907111644746
41.9,5.400000095367432,86.0,22.10871124267578,18.59124755859375,-79.78266780355303,40.458957876733386,319.67626324462884,-0.0722229927778244,0.034161921590566635,-0.4885104894638062,0.8688925504684448,-0.5026998025895489,8.114183039448054,1.3498401633295316,-0.04545700922608376,-0.03573617711663246,-0.13193383812904358,-0.6911293418705464,-0.11386684122495355,-9.364919300079348
42.1,5.599999904632568,84.0,22.104955673217773,18.217514038085934,-79.78264985449138,40.458965729941454,319.6810659484863,-0.07110273092985152,0.035338487476110465,-0.4903956055641174,0.8678755164146423,-0.5092337761000948,8.297708972286078,1.2009364394134168,-0.15442341566085815,0.06305447220802307,-0.08749059587717056,-0.8163977511227132,0.07680858626961709,-9.281359080076216
42.3,5.800000190734862,86.0,22.01105117797852,21.000635147094727,-79.78264169165665,40.45897004914233,319.66454449462884,-0.0692957192659378,0.03431519865989685,-0.4892184138298034,0.8687266111373901,-0.5484883308816513,8.351055818561303,1.137731114773248,-0.10546446591615677,0.041583046317100525,-0.109743133187294,-0.989853210747242,0.02862594414968044,-9.103224824666977
42.4,6.0,86.0,22.071149826049805,19.386425018310547,-79.78263159213881,40.45897395493692,319.6670278625488,-0.06434151530265808,0.03211192414164543,-0.4886007308959961,0.8695392012596129,-0.4443745818158241,8.453115088641539,1.095596274302702,0.17228882014751434,0.12526167929172516,-0.15218223631381989,-0.6785338546335697,-0.3178112638369203,-9.343688644766805
42.6,6.199999809265138,84.0,22.0423526763916,21.45388603210449,-79.78261491432066,40.45898269234458,319.6155294494629,-0.051094483584165566,0.02856624685227872,-0.4843061864376068,0.8729380965232849,-0.4497680732932128,8.569760426689427,0.8436559539260609,-0.10266614705324173,0.2069949060678482,-0.18600523471832275,-0.8340860170125962,-0.044226731210947036,-9.466575483083725
42.71,6.300000190734862,83.0,22.12123107910156,18.957029342651367,-79.7826046275748,40.45898688776232,319.60462704467767,-0.04501443728804588,0.028881408274173737,-0.4841123819351196,0.8733698725700378,-0.3286027569675614,8.645623438691416,0.7498344318778487,0.17564666271209714,0.12248964607715608,0.0037272300105541945,-0.7870273330807687,-0.6090597598627211,-9.660394309759141
42.8,6.4000000953674325,84.0,22.141263961791992,17.98691177368164,-79.78258606648046,40.45899529043249,319.564290435791,-0.03195863589644432,0.0265046413987875,-0.4838345944881439,0.8741741180419922,-0.26560557505944565,8.700385792315691,0.5499211140882696,-0.07041770964860916,-0.0058722086250782,0.008613609708845615,-0.9285929556190968,-0.25404443526640536,-9.507724678516388
43.0,6.5,86.0,22.014806747436523,22.11388397216797,-79.78256902423556,40.45900400379292,319.50720349121093,-0.02536557056009769,0.024099109694361687,-0.48241710662841797,0.8752425909042358,-0.2692801065865477,8.680030859422105,0.3222095603842296,-0.12697535753250122,0.12689949572086334,-0.03062543459236622,-0.8452175076305867,0.12736282708123328,-9.517747975587843
43.2,6.5,85.0,22.133752822875977,18.74233055114746,-79.7825588141709,40.45900830230459,319.49715557861333,-0.02132452465593815,0.02157152071595192,-0.4827847182750702,0.8752136826515198,-0.15762004353215586,8.708833221415745,0.3438829483533961,0.1895885020494461,0.15933772921562195,-0.11431121826171875,-0.6591779628396035,-0.33619377695024016,-9.94731718182564
43.4,6.5,86.0,22.05612564086914,20.777984619140625,-79.78254058343526,40.45901704930538,319.4268850402832,-0.0068261874839663506,0.01852404698729515,-0.4838865995407105,0.8749080896377563,-0.15425772238319654,8.682229769703921,0.14275607612876562,-0.14873622357845304,0.037860430777072906,-0.014732304029166697,-0.9455310237407684,-0.1988954158499837,-9.390424854755404
43.5,6.4000000953674325,91.0,22.007295608520508,22.12978744506836,-79.78253204627948,40.4590212973694,319.39967098999017,0.0024844144936650987,0.017812425270676613,-0.4839042723178864,0.8749361038208008,-0.11696877211265914,8.609348633854184,-0.04120418647348187,0.23000125586986545,0.3061099350452423,-0.021622231230139732,-0.5274587225541473,-0.33374046798795465,-9.541014046669007
43.6,6.4000000953674325,93.0,21.964725494384766,21.62882423400879,-79.78251466746943,40.45903032318068,319.28721752929687,0.02335732989013195,0.01365902554243803,-0.4821966290473938,0.875645101070404,-0.11692392326153685,8.471704030280742,-0.33791711677736985,0.023996111005544662,0.1235714703798294,-0.10822846740484238,-0.6849883767217398,-0.2119689129665494,-9.831383267641069
43.8,6.300000190734862,94.0,21.962221145629886,22.48761749267578,-79.78250633188846,40.45903444662849,319.2594083862305,0.033060766756534576,0.012977574951946735,-0.4805245399475098,0.8762617707252502,-0.060928776241069314,8.359157997103214,-0.5126919901120435,0.05067125707864762,0.1813148856163025,-0.014891108497977257,-0.7132240694761277,-0.3278233781084419,-9.702109515666963
43.9,6.300000190734862,95.0,21.928415298461914,22.17749786376953,-79.78249789435074,40.45903902158029,319.1454214172363,0.03857797011733055,0.011669006198644638,-0.478177547454834,0.8773379921913147,-0.023474712641835274,8.249163067972543,-0.6557886613636084,0.06531008332967758,0.0021832187194377184,0.07954147458076477,-0.7018320123106242,-0.5371537350118161,-9.966310107707976
44.1,6.199999809265138,102.0,21.898366928100586,22.38424301147461,-79.78248167688946,40.459046955209175,319.09472409057616,0.04230869561433792,0.008091644383966923,-0.4736680388450623,0.8796494007110596,0.13405854021967326,7.992066677842374,-0.7575307992254591,-0.02763278968632221,-0.0943257063627243,-0.039195071905851364,-0.7226891767233611,-0.27747950915247205,-9.890792148113249
44.2,6.099999904632568,104.0,21.91714859008789,22.097980499267575,-79.78247363035827,40.45905140192051,318.9802412109375,0.042929507791996,0.008250255137681961,-0.4717096090316773,0.8806697130203247,0.15763960822267362,7.896794866088254,-0.7765814663320482,0.026290643960237503,-0.0066905017010867604,-0.11642713844776155,-0.6008478205651046,-0.16025953643023969,-10.06681205034256
44.4,6.0,105.0,21.95721244812012,22.32858085632324,-79.78245824541618,40.459059240494106,318.83532849121093,0.04269567131996155,0.013289368711411951,-0.4690238237380981,0.8820528388023376,0.2656346968111769,7.640318353928398,-0.7660632667745809,0.0940542072057724,-0.21337340772151947,-0.04021170735359192,-0.5647751046717168,-0.4479193403944373,-10.001582851409912
44.5,5.9000000953674325,106.0,21.83325958251953,24.141586303710927,-79.78244310666341,40.459066430616886,318.7861761169433,0.033637937158346176,0.015010131523013115,-0.4673340916633606,0.8833131790161133,0.38439237671917,7.421058612193189,-0.606746171082034,0.0569068118929863,-0.07224804908037186,-0.010156994685530664,-0.4337235433235765,-0.3133201636746526,-10.11167539715767
44.6,5.699999809265138,104.0,21.948448181152344,21.604969024658203,-79.78243582752863,40.459070242515615,318.6880239562988,0.030428670346736908,0.016418734565377242,-0.4679665267467499,0.8830695748329163,0.36956746873034296,7.326321919226492,-0.5479528420545381,-0.07494371384382248,-0.07437244057655333,-0.1125640943646431,-0.6391573888063431,-0.0819080344028771,-9.920863208770752
44.8,5.699999809265138,101.0,21.789438247680664,24.435800552368164,-79.78242844765141,40.45907367311112,318.6647199707031,0.02630750276148319,0.01845625601708889,-0.4682931900024414,0.8829886317253113,0.4102807118360248,7.24176767332686,-0.500674220640517,0.12881389260292053,-0.2349242568016052,0.14562760293483734,-0.4993090935051441,-0.3665829992294312,-9.869537519216538
45.0,5.5,101.0,21.776918411254886,24.165441513061523,-79.78241406873936,40.45908055352271,318.5534376220703,0.019376398995518684,0.02545494399964809,-0.4682970643043518,0.8829917311668396,0.4584783102933885,7.099769947295497,-0.3267489732161131,0.10808202624320984,-0.16560736298561096,0.0905425027012825,-0.564570525214076,-0.4524337563291193,-10.015299249887466
45.11,5.300000190734863,101.0,21.778169631958008,24.70616149902344,-79.7824068506347,40.459083786261,318.53392926025384,0.014512204565107822,0.028007457032799717,-0.4674929976463318,0.8834339380264282,0.5005156845198504,7.0560141368616645,-0.2161427166333856,0.0210677869617939,-0.07301346212625504,-0.18501928448677066,-0.4217779741063714,0.0190182150900364,-10.231156232357025
45.2,5.099999904632568,98.0,21.695533752441406,26.535070419311523,-79.78239282764922,40.45909033330923,318.4406522827148,0.00018525240011513239,0.02777121402323246,-0.4666158556938171,0.8840240836143494,0.5645904457651546,6.9757819008609605,0.014548017331301696,-0.0031167480628937483,-0.1130381003022194,0.07644015550613402,-0.4328942985087633,-0.14150588957592847,-10.23038089156151
45.4,5.0,95.0,21.709306716918945,25.779651641845703,-79.78237889141916,40.45909677649059,318.36996212768554,-0.011711017228662971,0.02704424783587456,-0.4652402698993683,0.8846936821937561,0.570066268826538,6.956032589399327,0.2675187596656564,-0.21427808701992035,-0.07208075374364853,-0.07148024439811708,-0.3256269811838865,-0.11809120785444975,-10.380784142017363
45.6,4.800000190734863,96.0,21.76690101623535,25.49338722229004,-79.78237172022268,40.4590998778451,318.37181225585937,-0.020101817324757576,0.02475782297551632,-0.4635505080223084,0.8854964375495911,0.6191270214693484,6.962046598164491,0.38312331375748404,0.04377938061952591,-0.09076201170682907,-0.03249881789088248,-0.25773735394701364,-0.2155484687536955,-10.359896718263627
45.7,4.599999904632568,96.0,21.660476684570312,26.471454620361328,-79.78236511322876,40.45910322216256,318.3069967346192,-0.0247567929327488,0.02442781999707222,-0.4627245962619782,0.885819673538208,0.5954760068820403,6.956459063386098,0.4855345504925596,-0.10033506900072098,-0.032395076006650925,-0.10121671110391617,-0.3237639486417174,0.15447896076366305,-10.3384690117836
45.8,4.5,92.0,21.795698165893555,24.70616149902344,-79.78235125979637,40.45910966328272,318.267285736084,-0.028479658067226413,0.028550192713737488,-0.466852605342865,0.8834153413772583,0.5805222227225013,6.973770388494147,0.6800309109480633,0.010923469439148905,-0.03239066153764725,0.08413496613502502,-0.4763274529203773,-0.1042205799277872,-10.465939482450484
46.0,4.5,91.0,21.75438117980957,24.22110366821289,-79.78233681711076,40.45911597851561,318.3099912719726,-0.028105894103646282,0.03346304222941398,-0.4734513759613037,0.8797352313995361,0.4933180393307399,7.028038844238603,0.8588868949752427,0.058685079216957085,-0.08223158121109009,-0.010383537039160728,-0.4911136725917459,-0.4062207625061274,-10.33045130968094
46.1,4.400000095367432,90.0,21.835763931274414,22.614845275878906,-79.78233034863767,40.45911935861192,318.25976696777343,-0.028702348470687863,0.03393792733550072,-0.4759382009506226,0.8783548474311829,0.40033022468750107,7.019267036020877,0.8447567038389423,-0.08026955276727676,0.01841273158788681,0.21192438900470734,-0.5189161232113838,-0.2738780263066292,-10.181423324346543
46.31,4.400000095367432,90.0,21.944692611694336,21.756053924560547,-79.78232310543736,40.45912254725789,318.2864393310547,-0.03206402808427812,0.03387488052248955,-0.4763946533203125,0.8779934644699097,0.3775859727146014,7.049246877632147,0.8663698279694646,-0.003731910837814212,-0.1098809689283371,0.12131285667419435,-0.4819139923900366,-0.42641547393053775,-9.885142568349838
46.5,4.5,90.0,21.981002807617188,20.420154571533203,-79.78230966617326,40.45912932907583,318.24206677246093,-0.0427236445248127,0.03741477057337761,-0.474699467420578,0.8783138990402222,0.3267260925253838,7.079344578535816,0.8918462470365907,0.15968267619609833,-0.16725081205368042,0.012685728259384632,-0.476049527451396,-0.4849314480274916,-9.747410234212877
46.6,4.5,89.0,21.85454559326172,24.26086235046387,-79.78230238460988,40.459132599636966,318.25925198364257,-0.04773382470011711,0.04088098555803299,-0.4726347327232361,0.8790146112442017,0.3425547875831819,7.122384634231764,0.954017247384248,0.12471010535955428,-0.09254765510559082,0.06014575809240341,-0.4740211283415556,-0.2667146937735379,-9.499415785074234
46.8,4.699999809265137,88.0,21.914644241333008,22.153642654418945,-79.78228903938704,40.459139204312685,318.2116102294922,-0.049838755279779434,0.04750771075487137,-0.4701288342475891,0.8799079656600952,0.35516068050254984,7.151754820943951,1.0484060314951422,-0.03705894574522972,0.02231874875724316,-0.09807660430669783,-0.6846720423549414,-0.021820890619419515,-9.656243371367458
