time,wind_speed,wind_angle,battery_voltage,battery_current,position_x,position_y,position_z,orientation_x,orientation_y,orientation_z,orientation_w,velocity_x,velocity_y,velocity_z,angular_x,angular_y,angular_z,linear_acceleration_x,linear_acceleration_y,linear_acceleration_z
0.0,0.699999988079071,28.0,24.123260498046875,0.11927660554647446,-79.78282421518117,40.45904285531535,264.77276717853545,0.016949797049164772,-0.0027410080656409264,-0.7266815900802612,0.6867598295211792,-0.0013353105488187965,-0.006756917882638427,-0.0035791228054355326,-0.001576235517859459,6.143244718259666e-06,-0.0055767474696040145,0.2675995236821473,-0.2027494435943664,-9.800804668664929
0.1,0.6000000238418579,28.0,24.12200927734375,0.11132483184337616,-79.78282419991974,40.459042889327954,264.76222240161894,0.016941813752055168,-0.002742060692980885,-0.7266822457313538,0.6867594122886658,-0.0066045689848824645,-0.0019418232614294587,-0.005912746213372538,-0.0037906153593212366,-0.00042377610225230455,-0.004010493401437998,0.2671585705317557,-0.2030322478339076,-9.80095143377781
0.2,0.6000000238418579,32.0,24.123260498046875,0.10337305814027786,-79.78282420145484,40.459042895283815,264.76164322328566,0.016941813752055168,-0.002742060692980885,-0.7266822457313538,0.6867594122886658,-0.00635494867791266,-0.0016668876454151286,-0.0058365017191775405,0.0019260853296145801,-0.0022011268883943558,0.004623568151146174,0.26487512318417433,-0.19987645072862506,-9.80430832028389
0.4,0.6000000238418579,33.0,24.123260498046875,0.11927660554647446,-79.78282424313224,40.45904292225831,264.75106596183775,0.016945039853453636,-0.0027479217387735844,-0.7266837358474731,0.6867577433586121,-0.006848476985407242,-0.007015248713499911,-0.007358865125938473,0.0027585565112531185,-0.005842647515237331,0.002750339917838573,0.2660766163654625,-0.20092129334807396,-9.803580341935158
0.6,0.5,36.0,24.1144962310791,0.08746951073408127,-79.78282421742725,40.459042927906594,264.73904757928847,0.016941476613283157,-0.002739823656156659,-0.7266830801963806,0.6867585182189941,-0.003940364709170825,0.0002494685665296978,-0.013478314038279869,-0.002584847388789057,0.002212938154116273,-0.00229241163469851,0.2679192750155926,-0.20510625522583725,-9.802475218176845
0.7,0.5,38.0,24.12075614929199,0.12722837924957275,-79.78282421480276,40.459042935083716,264.736370496273,0.01694175973534584,-0.002740084193646908,-0.7266847491264343,0.6867567300796509,-0.003624716296370068,0.0005994794713440572,-0.013453126502617612,0.001774697913788259,0.0039650555700063705,0.0006973749841563404,0.2686800160445273,-0.208067285232246,-9.800197727680208
0.9,0.4000000059604645,39.0,24.12075614929199,0.11132483184337616,-79.782824233468,40.459042954914096,264.7266296072006,0.01694335974752903,-0.0027442520949989557,-0.7266853451728821,0.6867560744285583,-0.0053117622632476175,-0.0026317307421511536,-0.013237379150544218,0.0053959768265485755,-0.0008119841222651303,0.001900607254356145,0.2690217309817672,-0.20131599867716432,-9.802744190096854
1.0,0.4000000059604645,40.0,24.124513626098643,0.13518016040325165,-79.78282425286463,40.45904296507942,264.71641182136534,0.016947345808148384,-0.002745097503066063,-0.726685106754303,0.6867561936378479,-0.003097101334253036,-0.005305303626445203,-0.012324879137936343,0.004636311437934637,-0.002302039414644241,-0.0025563379749655732,0.2720024222508073,-0.1985218884050846,-9.80518423318863
1.2,0.4000000059604645,43.0,24.123260498046875,0.10337305814027786,-79.78282425855775,40.45904296816826,264.7151830716133,0.016947327181696892,-0.002745308447629213,-0.7266861200332642,0.6867551207542419,-0.002660222371354787,-0.005336876377003893,-0.012090975014958852,-0.0009045226033777,0.0008895434439182281,0.005288172513246536,0.2652109726332128,-0.20772324968129396,-9.80199223816395
1.3,0.5,46.0,24.12075614929199,0.11132483184337616,-79.7828242622532,40.45904299332015,264.70484869909285,0.016944313421845436,-0.0027468453627079725,-0.7266862392425537,0.6867550015449524,-0.004723269963798175,-0.0036589277204261694,-0.011844825321337802,-0.0012963407207280395,0.0013095298781991005,0.006343010347336532,0.2654879479296506,-0.2061741029843688,-9.801775306463243
1.5,0.5,51.0,24.12075614929199,0.11132483184337616,-79.78282426576544,40.45904299807057,264.703658513546,0.016944313421845436,-0.0027468453627079725,-0.7266862392425537,0.6867550015449524,-0.004946120667572282,-0.0035836493093282843,-0.01205085836524018,0.0018739292863756414,-0.002792551182210445,-0.010663293302059174,0.27038215879350896,-0.2001508130505681,-9.803837034702301
1.6,0.5,53.0,24.12200927734375,0.07951773703098297,-79.78282427963599,40.459043024417184,264.6936893982887,0.01694488525390625,-0.002749511972069741,-0.7266867160797119,0.6867544651031494,-0.006280458586044522,-0.0056802062191871104,-0.011794264938758807,-0.0024741787929087877,0.000993189518339932,-0.004410594701766968,0.27036538459360604,-0.1999904166162014,-9.80517429292202
1.8,0.6000000238418579,54.0,24.12952041625977,0.039758868515491486,-79.78282428541802,40.45904303023857,264.6925255579948,0.01694488525390625,-0.002749511972069741,-0.7266867160797119,0.6867544651031494,-0.005660825686910421,-0.005448639807604681,-0.011507060203616323,0.0060477014631032935,0.0015159560134634376,0.004228792153298855,0.2657117866538465,-0.2034276657924056,-9.804004849791527
1.9,0.6000000238418579,59.0,24.12701797485352,0.04771064221858978,-79.78282427898017,40.459043039822156,264.68254619073866,0.01694430038332939,-0.002746998332440853,-0.7266877293586731,0.686753511428833,-0.0036906760496627374,-0.0032815108119277955,-0.011684107716197054,0.00044945807894691836,-0.0007937974878586829,0.0018230659188702703,0.2656283359229565,-0.20062705049291246,-9.802878676056864
2.1,0.699999988079071,61.0,24.12576484680176,0.03180709481239319,-79.7828242854326,40.45904304436886,264.6748426480293,0.016947619616985318,-0.0027477790135890245,-0.7266875505447388,0.6867536306381226,-0.0018390442140090368,-0.006014514726366797,-0.011253842911150178,-0.0052076783031225204,0.005738560110330582,0.001385391689836979,0.26816589960828424,-0.2042262492701412,-9.801186491847039
2.2,0.699999988079071,65.0,24.124513626098643,0.039758868515491486,-79.78282429810834,40.459043048267006,264.6725695056915,0.016948174685239792,-0.002748465398326516,-0.7266904711723328,0.6867505311965942,-0.0012896031496568404,-0.0056400804375167255,-0.011162728789282685,0.0015377963427454233,0.00166615832131356,0.0053734858520329,0.2684132551029325,-0.20889450179412966,-9.800317595601085
2.3,0.8000000119209291,71.0,24.12952041625977,0.02385532110929489,-79.78282428033714,40.45904307718891,264.6647528333664,0.016942616552114487,-0.002750881016254425,-0.7266905307769775,0.686750590801239,-0.00679840426140463,-0.004228329046613022,-0.011546944640582864,-0.0008720124606043098,-0.003261068370193243,-0.004434040281921625,0.2696637004427612,-0.19940008537843826,-9.805108804106712
2.5,0.8000000119209291,71.0,24.12826919555664,0.039758868515491486,-79.78282427683635,40.45904309952788,264.6560426278114,0.016943002119660378,-0.0027530265506356955,-0.7266903519630432,0.6867507696151733,-0.007496810487246474,-0.005979103666062074,-0.011468949274528724,-0.001597451977431774,0.0006267920252867043,-0.004503011237829925,0.2691960328258574,-0.20278079928830267,-9.80266993045807
2.7,0.8000000119209291,75.0,24.124513626098643,0.02385532110929489,-79.78282428288925,40.45904310656505,264.6549032254219,0.0169428288936615,-0.0027538912836462264,-0.7266903519630432,0.6867507100105286,-0.007163285922715803,-0.0056399543286057285,-0.011316308776591354,0.0042604729533195496,-0.00035046215634793043,0.003433076897636056,0.26715930143371225,-0.1996451202593744,-9.805487118959428
2.8,0.8999999761581421,74.0,24.124513626098643,0.04771064221858978,-79.7828242804118,40.45904307816475,264.649680606842,0.01695171184837818,-0.002747471211478114,-0.7266920804977417,0.686748743057251,0.002030229934126999,-0.007286726702834995,-0.005539647865854961,0.0010726595064625144,-0.004507414996623993,-0.0046795913949608785,0.26933002542704343,-0.1982578135281801,-9.805109973549843
3.0,0.8999999761581421,70.0,24.12701797485352,0.06361418962478638,-79.78282428887928,40.459043076512046,264.6491157336235,0.01695171184837818,-0.002747471211478114,-0.7266920804977417,0.686748743057251,0.002578976864041643,-0.007033775293189483,-0.005269069726083722,-0.00226721353828907,-0.0003630873397924007,0.002832443453371525,0.26468337105587125,-0.2037129368260503,-9.802549477815626
3.1,0.8999999761581421,68.0,24.12826919555664,0.039758868515491486,-79.78282426465881,40.45904307605405,264.64301537704466,0.016950143501162532,-0.0027539986185729504,-0.72669917345047,0.6867411732673645,0.0020338687058770576,-0.004986298155552358,-0.0044499641447925415,0.0016947005642578006,-0.0018164727371186016,-2.1902829757891595e-05,0.2705747514590621,-0.19860733084380627,-9.806351922154429
3.3,0.8000000119209291,65.0,24.12826919555664,0.03180709481239319,-79.78282427050459,40.45904307443851,264.6425602955818,0.01694853417575359,-0.002748854691162705,-0.7267062664031982,0.6867337822914124,0.002388769056596059,-0.004858341419783141,-0.004257092969207115,-0.002912125084549189,0.003053135238587857,0.003498233621940017,0.2665156691707671,-0.20608036480844025,-9.801587610840798
3.4,0.8000000119209291,65.0,24.12075614929199,0.039758868515491486,-79.78282423418075,40.45904307551647,264.6374497337341,0.016964027658104897,-0.0027319102082401514,-0.7266896963119507,0.6867509484291077,0.0018928997690934675,-0.0023713615324840237,-0.00286023132935462,0.0038472756277769813,-0.002559866989031434,0.0049969274550676354,0.26629444342106584,-0.20073904294520611,-9.804160970449448
3.6,0.699999988079071,60.0,24.12701797485352,0.05566241592168808,-79.7828241924127,40.459043072707296,264.6328637523651,0.016970859840512276,-0.002721889642998576,-0.7266776561737059,0.6867635846138,0.0010155034525711154,-0.0009684668857207496,-0.0017006026875211898,-0.002346632070839405,0.004698870237916708,-0.000650369911454618,0.2669134991057217,-0.20867629101499915,-9.800960789322852
3.7,0.8000000119209291,61.0,24.11950492858887,0.03180709481239319,-79.78282419415898,40.45904307069736,264.63254206609724,0.016971280798316002,-0.002686044666916132,-0.7266739010810852,0.6867676973342896,0.0015743936771427025,-0.0005923523021848018,-0.0013551846134231874,-0.0010822891490533948,-0.00010563950490904972,0.006992222741246224,0.26500469382852315,-0.20637800635769965,-9.80234014749527
3.9,0.699999988079071,59.0,24.123260498046875,0.04771064221858978,-79.78282416961498,40.45904306743851,264.62822061014174,0.01697232574224472,-0.0026791004929691553,-0.7266600131988525,0.6867823600769043,0.00111050977468369,-0.0036689108311710366,-0.001207068271481752,-0.0023524330463260412,-0.0019702715799212447,-0.004207130055874586,0.26875663284212353,-0.20225312462076545,-9.802645956873896
4.0,0.6000000238418579,60.0,24.12826919555664,0.039758868515491486,-79.7828241288933,40.459043057923616,264.62580531072615,0.016974149271845818,-0.0026340968906879425,-0.7266560196876526,0.6867867112159729,0.0015969970702641807,-0.001935150554817413,0.0026143260291313503,-0.0005375283071771264,0.0015576076693832874,0.0006674678297713399,0.2670171410031617,-0.20777132475748653,-9.802541291713714
4.2,0.699999988079071,67.0,24.123260498046875,0.039758868515491486,-79.78282413120746,40.459043056546,264.62605678272246,0.01697605662047863,-0.0026285501662641764,-0.7266465425491333,0.6867967247962952,0.0015254130556678052,-0.0017291452741838005,0.0024992955716037052,0.0015777084045112133,-0.0039511960931122286,-0.0021213374566286802,0.26969375878572466,-0.19881993195042014,-9.805561378598213
4.3,0.699999988079071,63.0,24.124513626098643,0.039758868515491486,-79.78282410432206,40.45904302850279,264.6247931046486,0.016980618238449097,-0.0026280011516064405,-0.726648211479187,0.6867948174476624,0.006084295816826406,-0.00431686922151691,0.006025310264546608,-0.0019592514727264643,-0.0015879322309046984,-0.007712231948971748,0.2686680840700865,-0.20108987588435406,-9.802877506613733
4.5,0.6000000238418579,69.0,24.12701797485352,0.03180709481239319,-79.78282410975923,40.4590430228121,264.6253835482597,0.016980618238449097,-0.0026280011516064405,-0.726648211479187,0.6867948174476624,0.006484312431543092,-0.0038900648441171056,0.006116797514533098,0.0026966012082993984,-0.004035382531583309,0.0020371635910123587,0.2682151989452541,-0.19950010931119325,-9.804744522571564
4.61,0.6000000238418579,73.0,24.12075614929199,0.039758868515491486,-79.78282405564589,40.459042989210246,264.62475245428084,0.016979843378067017,-0.002625209745019675,-0.7266489863395691,0.6867940425872803,0.008329582790107459,-0.0014807807360191119,0.007426884892186888,0.0009758450905792416,0.0010395647259429095,-0.008458956144750118,0.2701678400672972,-0.1997015458904207,-9.804111269116405
4.7,0.699999988079071,80.0,24.118253707885746,0.015903547406196594,-79.78282405788862,40.45904298122999,264.62548767757414,0.016979843378067017,-0.002625209745019675,-0.7266489863395691,0.6867940425872803,0.009189926357811198,-0.0009034804839120641,0.0076350407762541764,0.003091286635026336,-0.0005079062539152801,0.0032205842435359955,0.2656151796877385,-0.20257706036791207,-9.803628289103507
4.9,0.699999988079071,85.0,24.123260498046875,0.02385532110929489,-79.78282399325208,40.4590429911237,264.62294244003294,0.016971256583929062,-0.002631232608109713,-0.7266497611999512,0.6867935061454773,0.0009280272981783645,0.00023668584673647481,0.003912468109180001,0.001739947940222919,0.0015355009818449614,-0.0009047434432432057,0.2699319962784648,-0.1993482827022672,-9.80512985408306
5.1,0.8999999761581421,94.0,24.12826919555664,0.05566241592168808,-79.78282392137208,40.45904297243664,264.62249159049986,0.0169687457382679,-0.002628410700708628,-0.7266498804092407,0.6867934465408325,0.0012618021234738332,0.003016718139876259,0.005331597271085528,-0.004005047958344221,0.005719806998968124,0.004329475574195385,0.26713558366522194,-0.20570676427334547,-9.80254070699215
5.2,0.8999999761581421,99.0,24.12826919555664,0.015903547406196594,-79.78282391423468,40.45904296945624,264.62357597780226,0.016969356685876846,-0.002628972986713052,-0.7266508936882019,0.6867923736572266,0.0018267754878670808,0.0036315134884582533,0.005545529831376004,0.0005440490785986185,-0.0008062473498284818,0.003930127248167993,0.26558711305260657,-0.2022018518485129,-9.803605484962464
5.4,1.0,108.0,24.12826919555664,0.06361418962478638,-79.7828238498671,40.45904294705864,264.623967818737,0.016968630254268646,-0.0026295767165720463,-0.7266519665718079,0.6867912411689758,0.0015539453497087506,0.0033596195138334032,0.006978485296620774,-0.0010372016113251448,6.203150405781344e-05,-0.0021735779009759426,0.27089623868465423,-0.20514320231974129,-9.803153495192527
5.5,1.100000023841858,106.0,24.124513626098643,0.039758868515491486,-79.78282380302036,40.45904292415149,264.6254953069687,0.016971945762634274,-0.0026332242414355282,-0.7266520857810974,0.6867910027503967,0.002028655042827945,-0.0015590801556758505,0.008612991337252398,-0.0016191598260775204,0.001710259821265936,0.005275752395391464,0.2673181812465191,-0.2054163951985538,-9.801968264579774
5.7,1.2000000476837158,103.0,24.12200927734375,0.02385532110929489,-79.78282380519855,40.45904292240511,264.62634389829634,0.01697215810418129,-0.002633672207593918,-0.7266520857810974,0.6867910027503967,0.0017920506229264547,-0.0014438951025864688,0.008563784146120459,0.0006202821969054637,-0.002020434243604541,-0.006314869504421949,0.2697282390855253,-0.2015133056603373,-9.80446444094181
5.8,1.2000000476837158,97.0,24.12576484680176,0.07156596332788467,-79.78282372754681,40.459042895963094,264.6285487337112,0.016969619318842888,-0.002633295254781843,-0.7266534566879272,0.6867895722389221,0.0018712125963184663,0.00038712179304477317,0.009603716155670778,-0.000595591904129833,0.003281553741544485,0.0029749954119324684,0.2666937168873847,-0.20730588639155031,-9.8027114456892
6.0,1.2000000476837158,100.0,24.123260498046875,0.039758868515491486,-79.78282372721345,40.45904289401086,264.629506878376,0.016969619318842888,-0.002633295254781843,-0.7266534566879272,0.6867895722389221,0.0017281408204239384,0.0008482362325094085,0.009481166978806202,-0.0014490487519651651,-0.0025337720289826393,-0.003638280788436532,0.2720574226230383,-0.19843156719580293,-9.80521113038063
6.11,1.2999999523162842,101.0,24.118253707885746,0.03180709481239319,-79.78282365194914,40.45904285200255,264.6321382446289,0.016970975324511528,-0.002630054717883468,-0.7266542315483093,0.6867887377738953,0.004684410968732901,0.001781516101424941,0.010079795984478659,0.0006560102920047939,-0.0021908036433160305,-0.004770431201905012,0.2690719987638295,-0.2036674929969013,-9.80286522746086
6.3,1.2999999523162842,106.0,24.124513626098643,0.03180709481239319,-79.7828236502301,40.459042847236034,264.63314496707915,0.016970975324511528,-0.002630054717883468,-0.7266542315483093,0.6867887377738953,0.0051069598914992645,0.00222663775214636,0.010133531767515698,0.0023745030630379915,-0.0018620309419929981,0.0030552779790014037,0.2665788921900093,-0.20142128510400653,-9.806089382171633
6.4,1.2999999523162842,102.0,24.12701797485352,0.03180709481239319,-79.78282357311086,40.45904283835333,264.6340880317688,0.016965566202998158,-0.002635072451084852,-0.726655125617981,0.6867879629135132,-0.0005640968888922178,0.0022476432546359665,0.006242043712370653,0.00342201953753829,-0.004826023709028959,-0.009041264653205872,0.27149981752038005,-0.19949884850531813,-9.806424427628516
6.6,1.2999999523162842,104.0,24.130773544311523,0.06361418962478638,-79.78282349642308,40.45904280747363,264.6351627035141,0.01696549355983734,-0.002633691532537341,-0.7266549468040466,0.6867881417274475,0.0005288722780029449,0.002407057194891131,0.003842799615037937,0.0002813111641444266,0.0024989186786115174,0.0040695336647331715,0.2666975358501077,-0.2026900212652981,-9.804096066355706
6.7,1.5,107.0,24.12200927734375,0.02385532110929489,-79.78282349089034,40.459042805813816,264.6359517498016,0.016965895891189575,-0.002634089207276702,-0.7266565561294556,0.6867863535881042,0.0009693857238411297,0.0027746717574486947,0.003972359705320934,0.0026197826955467467,-0.005551656242460013,0.000171085906913504,0.2697609469480813,-0.1979747169278562,-9.806108093261717
6.9,1.5,105.0,24.12200927734375,0.039758868515491486,-79.78282340656054,40.45904275736589,264.6395763082504,0.01696772873401642,-0.0026313131675124173,-0.7266592383384705,0.6867835521697998,0.005078877262929539,0.003110998787036175,0.006554979158572641,0.00036687872488982975,0.003594433888792992,0.0057936180382967,0.2659904612973333,-0.20479215011000634,-9.802764070630074
7.0,1.600000023841858,103.0,24.124513626098643,0.07156596332788467,-79.7828233074348,40.45904270902597,264.6438754720688,0.016966408118605614,-0.0026270379312336445,-0.7266594767570496,0.6867833137512207,0.006668462161324438,0.005974326349960975,0.007581304773070819,-0.0004235978703945875,-0.0010115599725395439,0.0035892333835363392,0.26566767672076824,-0.20158064000308515,-9.80462348520756
7.2,1.7000000476837158,107.0,24.12200927734375,0.03180709481239319,-79.78282330097139,40.45904270251968,264.6446371598244,0.01696654409170151,-0.002627093344926834,-0.7266601324081421,0.6867825984954834,0.0067846361571971036,0.006177689301824826,0.007655170708698446,-0.004560620058327913,-0.0006655366742052138,-0.0007757979328744112,0.2691420008987189,-0.2068405211158097,-9.802186950445176
7.3,1.7000000476837158,101.0,24.12200927734375,0.039758868515491486,-79.78282323029333,40.45904268220996,264.64780526590346,0.016965335234999657,-0.0026366366073489193,-0.7266609668731691,0.6867817640304565,0.0013225862539971483,0.0010030622583503503,0.005306697483317281,-0.0011161926668137312,0.0022245424333959822,0.004929369781166315,0.2668082857690752,-0.20662704292684794,-9.80247054040432
7.5,1.7000000476837158,104.0,24.12576484680176,0.039758868515491486,-79.78282322927573,40.45904268086999,264.6483353896141,0.016965335234999657,-0.0026366366073489193,-0.7266609668731691,0.6867817640304565,0.0012519434718851648,0.0011942254571034616,0.005206353164646594,-0.001743075903505087,-0.002605817746371031,-0.00728662358596921,0.2704113217815757,-0.1995096293091774,-9.804594833850864
7.6,1.7999999523162842,106.0,24.123260498046875,0.03180709481239319,-79.78282313733703,40.45904262262938,264.6519240064621,0.01696806028485298,-0.0026317071169614788,-0.7266617417335509,0.6867808103561401,0.0062022896644475965,0.0021209785364381265,0.0034201238990944787,-0.0001436060993000865,-0.003751794807612896,-0.007035142742097378,0.2673469787836075,-0.20192655762657524,-9.80233020722866
7.8,1.7999999523162842,108.0,24.12200927734375,0.07156596332788467,-79.7828231349637,40.459042616587574,264.65227966737746,0.01696806028485298,-0.0026317071169614788,-0.7266617417335509,0.6867808103561401,0.006647646911667667,0.0026023319239014677,0.0037235732618921343,0.002273335587233305,-0.0007428248063661157,0.0022171398159116507,0.26497083479538563,-0.2010316778160632,-9.806253688931466
7.9,1.7999999523162842,106.0,24.124513626098643,0.03180709481239319,-79.78282306919509,40.45904259971741,264.65909218025206,0.016965385526418686,-0.002640425693243742,-0.7266619801521301,0.6867806315422058,0.00036633698698144426,-0.001848069155107545,0.0069982151512361,-0.0005982673028483987,-0.0007251797360368072,-0.0013057247269898653,0.2699281042255461,-0.1969005285948515,-9.806011029481887
8.1,1.7000000476837158,108.0,24.078187942504893,0.8269844651222229,-79.78282297539582,40.459042557719705,264.6651509923935,0.016964193433523178,-0.002637628698721528,-0.726662278175354,0.6867803931236267,0.0012258633244445153,-0.000464693231817118,0.008145300939771125,-0.0003020045114681125,0.003045317716896534,0.0054707815870642645,0.2673519123718143,-0.2057146214693785,-9.80226881146431
8.2,1.7000000476837158,107.0,24.11199188232422,0.3578298389911652,-79.78282297683185,40.45904255520146,264.66679071617125,0.0169575996696949,-0.002633170923218131,-0.7266613245010376,0.6867815852165222,0.0015442270607791634,0.0001523045983660978,0.008483638890196819,0.002457240363582969,0.003020239295437932,0.0055593387223780155,0.27045751478523017,-0.20808566741645332,-9.801556035876272
8.4,1.399999976158142,103.0,24.105731964111328,0.326022744178772,-79.78282288147916,40.459042525305534,264.67370145750044,0.016974983736872673,-0.002627692883834243,-0.726668119430542,0.6867738962173462,-0.003184701562581113,0.0006132575905311782,0.009354952421822852,-0.002703764941543341,-0.00114778324496001,-0.000522101589012891,0.2679340940527618,-0.19984644720330835,-9.800732747912408
8.5,1.5,104.0,24.10823631286621,0.3419262766838074,-79.78282278174869,40.45904247650749,264.68200372886656,0.016960173845291138,-0.0026167717296630144,-0.7266390323638916,0.6868051886558533,-1.6179906349210485e-05,0.0022381480965842165,0.010293395091843969,-0.0016270647756755352,0.003890012158080936,0.0020290450192987928,0.2669262350723148,-0.19540756998583675,-9.800876004695892
8.6,1.399999976158142,103.0,24.104480743408203,0.326022744178772,-79.78282277946636,40.45904247658285,264.6830343527794,0.016952315345406532,-0.0026175964158028364,-0.7266725301742554,0.6867699027061462,-6.565103256831791e-07,0.0029110795684765428,0.010371294275315648,0.00033635468571446836,-0.0020415703766047955,0.00028234149795025587,0.2692003268748522,-0.1974902933835984,-9.80352479338646
8.8,1.399999976158142,101.0,24.10698509216309,0.37373337149620056,-79.78282267412327,40.459042427157186,264.69016581010817,0.016982009634375572,-0.002616304438561201,-0.7266572117805481,0.6867853999137878,0.00024418740145491584,0.002826009194679577,0.006903407717412199,0.0013731059152632956,-0.00602676859125495,0.00016333950043190268,0.2738788302987814,-0.2085010024532676,-9.805699957609175
9.0,1.2000000476837158,102.0,24.096967697143555,0.4612028896808624,-79.78282267057736,40.45904242580461,264.6908903045654,0.016975300386548042,-0.002618779195472598,-0.726657509803772,0.6867852210998535,0.00118920277509328,0.0026228314818458795,0.007535522787078455,0.002256199484691024,0.002904494758695364,0.0049918913282454005,0.25720671912655235,-0.20991644890978933,-9.80305877029896
9.1,1.2000000476837158,99.0,24.09571647644043,0.4691546559333801,-79.78282260214496,40.459042387036014,264.6983132882118,0.016969023272395134,-0.002609416376799345,-0.7266658544540405,0.6867765784263611,0.00034344156137731583,-0.0012027095526798445,0.0066743495422824034,-0.004002521280199289,-0.0003856263938359916,0.0022028088569641113,0.26004386125132445,-0.1958120876736939,-9.809349789619446
9.3,1.100000023841858,99.0,23.99680328369141,1.3995121717453003,-79.78282260521755,40.459042386796405,264.6990165634155,0.017127435654401783,-0.0025966104585677385,-0.7265527248382568,0.6868923306465149,0.002168408737292891,-0.003422471372182896,0.007616970866005341,-0.004566953517496586,-0.005065278150141239,0.012134147807955742,0.2411570257879793,-0.17124908588826654,-9.80140283882618
9.4,1.100000023841858,99.0,24.090707778930664,0.4293957948684693,-79.78282250369588,40.45904231154025,264.7062231225967,0.01731744222342968,-0.002561817644163966,-0.7265151739120483,0.6869274973869324,0.0032228547490063372,0.002057334184548164,0.005305195059670286,-0.03828030824661255,0.0018266334664076567,-0.008961122483015059,0.2757974113896489,-0.20424368128180506,-9.786639788746834
9.6,1.100000023841858,105.0,23.219280242919922,10.774653434753418,-79.78282240084073,40.45904226825985,264.7139249367714,0.017262326553463936,-0.002559732412919402,-0.7265077233314514,0.6869366765022278,0.0022616405513846585,0.0011450200302534706,0.002464446870025037,0.02900458872318268,0.023086372762918472,-0.0012149257818236947,0.2910244197584689,-0.2655194315314293,-9.809150399565695
9.7,1.2999999523162842,101.0,24.01934051513672,1.0575859546661377,-79.78282239670291,40.459042263446456,264.71466677618025,0.017417466267943382,-0.002539539709687233,-0.7264005541801453,0.6870462894439697,0.0016280882830566614,0.003641465387778832,0.0024110516284149624,0.00839250348508358,-0.039128277450799935,0.00180342560634017,0.281779423635453,-0.2257172335870564,-9.776970832943917
9.9,1.399999976158142,97.0,24.096967697143555,0.3021674156188965,-79.78282229074496,40.45904220519351,264.72273873519896,0.017353039234876633,-0.002529482590034604,-0.7264556884765625,0.6869896054267883,0.0013245322978125455,0.00339461561861708,0.0036706589457077563,-0.04153906926512718,-0.004786585457623005,0.004940878599882126,0.2620952837727964,-0.19408569725230332,-9.78867988228798
10.0,1.5,99.0,24.07568359375,0.6918043494224548,-79.78282228195461,40.45904219935477,264.723305873394,0.017247213050723076,-0.002519277157261968,-0.7264181971549988,0.6870319843292236,0.0012723939236249206,0.0058687082834866745,0.002781715657889825,-0.02487097680568695,-0.012866570614278315,0.010210536420345306,0.2750789347663522,-0.17473393505439164,-9.801555451154707
10.2,1.7000000476837158,98.0,23.904151916503906,4.286005973815918,-79.78282217640917,40.45904213640853,264.7323659582138,0.01728399284183979,-0.002476210705935955,-0.7265200614929199,0.6869234442710876,0.004146735511214619,0.005089384000179314,0.0035861094649276603,-0.006048849318176508,-0.004178992938250303,0.006663875188678503,0.27936147205531603,-0.2744992746971548,-9.814497678279876
10.3,1.7000000476837158,97.0,23.849061965942386,5.192508220672607,-79.78282207055989,40.45904207920229,264.74203848075865,0.017258083447813988,-0.0025060484185814857,-0.7264805436134338,0.6869657039642334,0.0037809550445651796,0.004344548759983833,0.0024000664849043872,0.018616780638694763,-0.012201504781842232,0.00940138753503561,0.2884671765379608,-0.2030053871870041,-9.808624150156977
10.5,1.8999999761581416,103.0,23.718849182128906,7.259969711303711,-79.78282206561336,40.459042076034905,264.7423789424896,0.017324246466159817,-0.002496393630281091,-0.7264979481697083,0.6869457364082336,0.004408407449316744,0.004353629973631039,0.0019026083084798817,0.029703492298722267,-0.0140415383502841,-0.03282001242041588,0.2642588997446001,-0.2015390699543059,-9.825109205245973
10.6,2.0,100.0,23.63996887207031,8.222134590148926,-79.78282196039268,40.45904202444769,264.75255381298064,0.01785019226372242,-0.0019773689564317465,-0.7264800071716309,0.6869530081748962,0.0024279382887200827,0.0012570205916452835,0.00342397913372546,0.007852314971387386,-0.02764054760336876,-0.00028010358801111584,0.2884594655223191,-0.1996562847867608,-9.814156200885774
10.8,2.299999952316284,112.0,23.473445892333984,11.315374374389648,-79.78282195547071,40.4590420202143,264.75324457120894,0.01845781877636909,-0.0014926405856385827,-0.7264941334724426,0.6869231462478638,0.004956289040977328,-0.00012993298837894046,0.003474568112556143,0.06420606374740599,-0.02419642545282841,-0.07457529008388519,0.2957040195353329,-0.2980378260277212,-9.851359695196154
10.9,2.4000000953674316,109.0,23.37954330444336,12.738741874694824,-79.78282188716756,40.45904194254987,264.76699434947966,0.01996576599776745,3.699183434946463e-05,-0.7264799475669861,0.6868975758552551,0.010018380584558449,-0.007124423389649452,0.01021573299093401,0.030331160873174667,-0.0052194413729012,0.004560832399874926,0.28617539690807464,-0.13062875283882022,-9.821915456056596
11.1,2.4000000953674316,105.0,23.17170333862305,16.006921768188473,-79.78282189339599,40.45904193269569,264.7684499545097,0.02101815678179264,0.0004239822155795992,-0.7265660762786865,0.6867750287055969,0.013357992151549009,-0.010942659561614916,0.012451630764393424,-0.0597507543861866,-0.006277170497924089,0.12709365785121918,0.15221685575321314,-0.20441206282004715,-9.837115877866744
11.2,2.4000000953674316,110.0,23.07654571533203,17.61318016052246,-79.78282181437035,40.45904188789371,264.7791122121811,0.02221724018454552,0.0005675962311215699,-0.7263779044151306,0.6869361996650696,0.00428212632040912,0.0034121813245430576,0.015389792008621832,0.04477546364068985,-0.11563485860824585,-0.07026693224906921,0.344581900164485,-0.35849447272717955,-9.820191696882251
11.4,2.299999952316284,116.0,22.886234283447266,21.024490356445312,-79.78282173183881,40.459041851016714,264.79006826114653,0.0198639202862978,-0.0006427436601370572,-0.7258648872375488,0.6875501871109009,-0.02125777081182077,-0.011518357432039841,0.020893429893415614,-0.09741982072591784,0.04588053748011589,-0.058382380753755576,0.24963843036442995,-0.3534635649248958,-9.789245892763141
11.5,2.4000000953674316,115.0,22.747257232666016,22.972675323486328,-79.78282169984006,40.45904173476429,264.7997430486679,0.005996589083224535,-0.010438850149512293,-0.7280139923095703,0.6854566335678101,-0.04019493833091575,-0.016767352100919106,0.08786819029151155,-0.27305862307548523,-0.06244613602757454,-0.03133952245116234,0.04921606896445156,-0.08451879791915418,-10.221480259895324
11.7,2.299999952316284,116.0,22.87621879577637,19.17172622680664,-79.7828217298977,40.45904179427188,264.81266777944563,-0.0058442698791623116,-0.020481595769524567,-0.7295179963111877,0.6836299896240234,-0.07673272439559987,-0.02470228763820282,0.1806704645389557,-0.2825692892074585,-0.11668979376554488,0.16019807755947113,0.0975020377803594,-0.18974041203036907,-10.59224401831627
11.8,2.200000047683716,113.0,22.85368156433105,20.300878524780273,-79.78282193754356,40.45904186788499,264.86237638425825,-0.009705008007586002,-0.013740897178649902,-0.7315915822982788,0.6815356016159058,-0.10255473111680642,-0.054485466969234495,0.2943571570635542,0.2637040317058563,-0.0636976808309555,-0.019802866503596302,0.17874134257435798,0.3851639887690544,-10.332911818027496
12.0,2.200000047683716,112.0,22.936317443847656,18.766185760498047,-79.78282200402376,40.45904199300832,264.8919851703644,-0.003978753462433815,-0.004483775235712528,-0.7315776348114014,0.6817318201065063,-0.12862471083532442,-0.06432706968231683,0.3026584451983946,0.2273498773574829,-0.03647977113723755,0.08333528786897659,-0.008308253902941943,0.06255439013242722,-9.987630225419998
12.1,2.200000047683716,106.0,22.83615303039551,20.730274200439453,-79.78282211936998,40.45904257934021,264.92934691143034,0.0010785595513880253,0.009411913342773914,-0.730098307132721,0.6832765340805054,-0.15241947758052452,-0.054263335124227284,0.191914844207936,-0.0757044330239296,-0.03302627429366112,-0.008514141663908958,0.06810378151014447,-0.0862276284210384,-9.454327320456503
12.3,2.200000047683716,106.0,22.69216728210449,22.41604995727539,-79.7828221632696,40.45904270941124,264.9467218441963,0.0017191830556839705,0.010219160467386246,-0.7295007109642029,0.6839015483856201,-0.14340326322605834,-0.04511268719627708,0.15589420157513986,-0.03024353459477425,0.08644738793373108,-0.04105478525161743,0.001142029738985002,0.016582831498235466,-9.452300675511358
12.4,2.0,105.0,22.79608726501465,21.12786293029785,-79.78282226504173,40.45904271693573,264.98790844511984,0.00631888536736369,0.003045005723834037,-0.7292138934135437,0.6842498779296875,-0.1027022739905703,-0.04228137532668797,0.12589689913430538,-0.04482530057430266,0.06582745909690857,0.009594098664820194,0.08576103888452054,-0.12514580044895413,-9.692010204792023
12.6,2.0,101.0,22.628313064575195,23.09990310668945,-79.78282223335506,40.4590428181662,265.03080689144133,0.006370682269334793,-0.0005401966045610607,-0.7289661765098572,0.6845199465751648,-0.12302700995684455,-0.03914148686164953,0.13612289244539785,-0.1685088723897934,-0.022341480478644368,-0.03312209993600845,0.11206737888045608,-0.11411868263036015,-9.656930419206619
12.7,2.0999999046325684,105.0,22.71720886230469,21.8355712890625,-79.78282231102182,40.45904302211833,265.0577247364521,0.0031448453664779663,-0.0018116041319444773,-0.728132963180542,0.6854263544082642,-0.11261079282857465,-0.03834006263489627,0.1443561026753542,-0.04652336984872818,0.01026439294219017,0.0013255896046757698,0.015353399589657785,0.03004164185374975,-9.821107370853424
12.9,2.200000047683716,103.0,22.672134399414066,22.662555694580078,-79.78282221651756,40.45904299168758,265.0994014365673,0.0019786001648753877,-0.0020075023639947176,-0.7282532453536987,0.6853023767471313,-0.09591172667868758,-0.042733678336990856,0.1747590039576269,0.02190465107560157,-0.018792327493429184,0.0395713746547699,-0.0201160846464336,-0.010357817192561923,-9.854051753282548
13.0,2.200000047683716,103.0,22.59075164794922,23.9825496673584,-79.78282212670534,40.45904310370072,265.1537801845073,0.0017701159231364727,0.00045901027624495333,-0.7285423278808594,0.6849983930587769,-0.10707713561973582,-0.03119003888196228,0.19529093989488985,0.06782887876033783,-0.05900903791189194,0.003888189792633057,0.15367204500362278,-0.027148083234205842,-9.996082960367202
13.2,2.299999952316284,101.0,22.598262786865234,23.82351493835449,-79.78282215953544,40.45904319882134,265.17550014686583,0.0021543982438743114,0.004024570807814598,-0.7284592390060425,0.685073971748352,-0.09770138878600136,-0.03390083550692016,0.2322548000328553,0.14478906989097595,-0.031988438218832016,-0.016520719975233078,0.1147003252711147,-0.061330193309113386,-10.154424390792848
13.3,2.299999952316284,99.0,22.67338562011719,21.398223876953125,-79.78282214668721,40.45904342223477,265.23853991162775,0.0049710883758962154,0.007367793470621109,-0.7286319732666016,0.684847891330719,-0.09826214466551013,-0.036551824986696235,0.311327856601987,-0.003874377114698291,-0.07057701796293259,0.03995928168296814,-0.011445518075488508,-0.14399888651445508,-10.291276134252547
13.5,2.4000000953674316,98.0,22.769794464111328,20.52352905273437,-79.78282218126364,40.4590434985128,265.27101080846785,0.005221267230808735,0.008412261493504047,-0.7290456891059875,0.6843934655189514,-0.08476336099168136,-0.03433141702574482,0.3254634505112198,-0.02403376437723637,-0.059732571244239814,0.0385013148188591,-0.016217937832698228,-0.11393799453042447,-9.992097498178484
13.6,2.4000000953674316,97.0,23.5247802734375,8.492494583129883,-79.78282229544354,40.459043666807325,265.3382250590324,0.004203860182315111,0.011160907335579395,-0.7292191982269287,0.6841762065887451,-0.07271727549756442,-0.06287019528885213,0.2441590497940349,0.13735373318195346,-0.0034435458946973085,-0.08048474043607713,-0.038561966959387066,-0.02577412459999323,-9.320269376635553
13.8,2.5999999046325684,97.0,22.56696128845215,24.04616355895996,-79.78282236294639,40.45904372655532,265.3552709741592,0.004971171263605356,0.012119906023144722,-0.7285283803939819,0.6848903298377991,-0.06829022778326156,-0.06331481472786933,0.10135300523469308,-0.04158223420381546,0.023154662922024727,-0.09948638826608658,-0.028746186657808724,-0.004787051500752568,-8.716585875749589
13.91,2.799999952316284,95.0,22.493091583251953,25.461580276489247,-79.78282240276745,40.459043705805314,265.41193609294294,-0.0021539919544011354,0.008400695398449898,-0.7269759774208069,0.6866081953048706,-0.04919186875757157,-0.05773030576343696,0.1137584466880412,-0.010029909200966358,0.03993811085820198,-0.035699263215065,-0.16133352376520635,0.037136822347529234,-9.8389472258091
14.1,3.0,99.0,22.1888427734375,30.26445198059082,-79.78282223933073,40.45904372662388,265.45543099549405,-0.002844749949872493,0.0063704163767397395,-0.7263672947883606,0.6872713565826416,-0.0318229966518212,-0.030458743633816707,0.2548891028445232,0.0003644521057140082,0.1005168929696083,-0.02921250835061073,-0.08879283847287298,0.07763820567168296,-10.692644219398499
14.2,3.0,102.0,22.27898979187012,28.76156616210937,-79.78282230215373,40.459043767061075,265.5385828388929,0.0015551180113106964,0.006532162893563509,-0.7255250215530396,0.6881630420684814,-0.019139013648113767,-0.0341184211135111,0.5807986018165899,0.032644208520650864,0.00546977249905467,0.0327373743057251,-0.046040615164674815,0.02165004685521126,-11.41631433963776
14.4,3.2000000476837163,101.0,22.079914093017575,32.610225677490234,-79.78282229295762,40.45904370887442,265.61254069936274,0.0007844811188988388,0.008334818296134472,-0.7256574630737305,0.6880052089691162,-0.012667485196222274,-0.04080732248066442,0.7423563072580394,0.06142375618219376,-0.01570799946784973,-0.031804896891117096,-0.08469238713383677,-0.05169303174130619,-11.636863127946857
14.5,3.2000000476837163,105.0,21.992271423339844,30.94035148620605,-79.78282230273858,40.459043617203605,265.8149874432087,-0.007096029352396727,0.011060831137001514,-0.7258067131042479,0.6877732276916504,-0.003145177766666989,-0.04485383120316675,1.1543538769981003,-0.09238285571336746,-0.034893117845058434,-0.04020130261778832,-0.1638363878801465,0.009315678910352293,-11.996182715892795
14.7,3.2000000476837163,106.0,21.910886764526367,33.739376068115234,-79.78282232632326,40.45904360807732,265.9409620387554,-0.009708443656563759,0.010999154299497604,-0.7259371876716614,0.6876046061515808,-0.0019450524411988009,-0.041233254547675985,1.3620524896020512,-0.1492988020181656,-0.05338301509618759,-0.024494944140315056,0.01305153351277113,-0.02064600912155584,-11.944267627000807
14.8,3.2000000476837163,108.0,21.974742889404297,31.218664169311523,-79.78282224566286,40.45904347996087,266.2676360530853,-0.014232154935598372,0.013767031952738762,-0.722975492477417,0.6905899047851562,0.017489325593019172,-0.013622426838195728,1.7979857599409228,0.02624921128153801,-0.061879158020019524,-0.02890112064778805,-0.044107484556734564,-0.07169714220799506,-11.996824740171435
15.0,3.0999999046325684,109.0,21.96347427368164,31.26637458801269,-79.7828221703783,40.45904346345685,266.4574729127884,-0.009351045824587343,0.015219511464238169,-0.7203537821769714,0.6933768391609192,0.01485214515486921,0.006868373599320282,1.9980485512913444,0.038114208728075034,0.05083242058753967,-0.1348492056131363,0.07660735982470215,0.045345627903006974,-11.920016884803774
15.1,3.0999999046325684,103.0,21.86330986022949,33.53263092041016,-79.78282173039868,40.459043316627024,266.9145756883621,0.00524694612249732,0.022081313654780388,-0.7159453034400941,0.6977874636650085,0.017024772789901527,0.10570771198016783,2.3660599868716936,0.07138707488775252,-0.08962514251470566,-0.07024277001619339,0.18711967170238492,0.015093011199496688,-11.683857200145724
15.3,3.299999952316284,96.0,22.344097137451172,24.28471755981445,-79.78282152387426,40.459043223654795,267.16153942775725,0.005887613631784916,0.02220191247761249,-0.7133533954620361,0.7004280686378479,0.03428489937528163,0.134631555974274,2.59096441348275,-0.012026982381939888,-0.09767280519008636,-0.10645640641450882,-0.02454530482180417,0.05700518148019911,-11.930477553606035
15.4,3.4000000953674316,91.0,22.32155990600586,23.25893783569336,-79.78282088031752,40.4590427562953,267.73333858680724,0.007664157543331385,0.01677971892058849,-0.7087106704711914,0.7052581310272217,0.22369438315459467,0.17651402703884522,2.822093921705102,-0.13263007998466492,0.07895104587078093,-0.12354178726673125,-0.015088100451976059,0.6060031644254923,-10.58660262465477
15.6,3.299999952316284,79.0,22.349105834960934,26.08976936340332,-79.78282019115241,40.45904233603622,268.0834412498474,-0.0018723607063293453,0.003935870714485645,-0.7137075662612915,0.7004302144050598,0.3075792321534756,0.21631139174071307,2.8475755053089533,-0.4459749758243561,0.06219710037112236,0.16059264540672302,0.11090583862736822,0.5664742324501276,-9.82724110007286
15.7,3.299999952316284,73.0,22.114971160888672,28.62638664245605,-79.78281956360873,40.4590415962241,268.630170337677,-0.041623938828706734,-0.0254428181797266,-0.7323380112648009,0.6791915893554688,0.5582924243913129,0.30786537135107883,2.7100919003641377,-0.23683106899261475,-0.055428557097911835,0.3353107273578644,0.04588883880525828,0.6292731823772192,-9.482761160731316
15.9,3.299999952316284,54.0,22.061134338378906,30.272403717041016,-79.7828187382051,40.459041130891436,268.99764823150645,-0.04248051345348358,-0.03305372223258018,-0.7402511239051819,0.6701725721359253,0.6200127833450091,0.3070360960286803,2.7538190058914167,0.03734089434146881,0.24847804009914398,0.11212708055973053,-0.06520249360240997,0.6706335353851318,-9.878042879104617
16.0,3.2000000476837163,43.0,22.00604248046875,29.516984939575195,-79.78281743103388,40.4590404615808,269.6117196006775,-0.007946229539811611,-0.035370007157325745,-0.7482599020004272,0.6624144911766052,0.5229132198927146,0.4354853155013638,2.850016182321391,0.4462862014770508,0.22030949592590326,0.022771181538701057,0.18189359480515124,0.3891137098520994,-10.313009065389632
16.2,3.2000000476837163,24.0,21.974742889404297,31.04372596740723,-79.78281701462642,40.4590402118421,269.9033451004028,0.011608671396970749,-0.02766096778213977,-0.7478948831558228,0.6631391048431396,0.3937383233578989,0.4943119111148298,2.9056873868318536,0.3431876301765442,0.16482889652252194,-0.016421932727098458,0.30145027935504914,0.2405082954838872,-10.28051491856575
16.3,3.4000000953674316,22.0,22.033588409423828,29.62830924987793,-79.78281603313349,40.45903974734417,270.50429820251463,0.010252228006720543,-0.01909907907247544,-0.7429493069648743,0.6689966320991516,0.21690047691943806,0.5210528685880733,3.0455581522332813,-0.11791468411684035,-0.13111326098442078,-0.12129923701286315,0.3111043613031507,0.0953550772368908,-10.505397663116458
16.5,3.5999999046325684,8.0,21.838268280029297,33.40540313720703,-79.7828156617784,40.4590395255993,270.8139820022583,0.0011640643933787946,-0.017822178080677986,-0.7391667366027832,0.6732856631278992,0.2435097888673396,0.4597359941733441,3.0994266440337577,-0.08662518113851547,-0.01268906146287918,-0.1994069367647171,0.2145695169456303,0.2771430749818683,-10.35684564113617
16.6,3.799999952316284,2.0,21.84703254699707,32.832874298095696,-79.78281481513946,40.45903909217504,271.44877433013914,-0.0007105628028512001,-0.02183056436479092,-0.7322286367416382,0.6807085871696472,0.30077132400299644,0.4117757294017367,3.196199800849676,0.03556209057569504,0.06477370858192444,-0.0721810981631279,0.2808073240332305,0.2252686607837677,-10.384978934526444
16.81,4.0,343.0,22.09368705749512,28.83313179016113,-79.78281444415194,40.45903888666487,271.7722310943604,0.0027269835118204355,-0.02387119457125664,-0.7303032279014587,0.682700514793396,0.2962618477458097,0.4315112389175112,3.224854976115324,0.07808231562376022,0.06799272447824478,-0.10155926644802094,0.426367417126894,0.2480623133853078,-10.171843246221544
16.91,4.0,341.0,22.08993148803711,29.19891357421875,-79.78281354810511,40.45903855558251,272.42005824279784,0.016246773302555084,-0.027370577678084373,-0.7286567091941833,0.6841391324996948,0.2683728022536053,0.4718273806618453,3.138320614209108,0.15379533171653748,0.07951327413320541,-0.09651796519756316,0.4248640614375472,0.2263021196052432,-9.50165760755539
17.1,4.099999904632568,331.0,22.028579711914066,28.212894439697266,-79.78281284027757,40.45903842275429,273.02923678588866,0.02271391823887825,-0.027381869032979008,-0.7290350794792175,0.6835512518882751,0.18904084733424206,0.4718911942597656,3.0720153096070515,-0.0954154133796692,0.08583126217126846,-0.004312524106353521,0.4473858550563455,0.2274929233454168,-9.533290459513664
17.3,4.300000190734863,322.0,21.924659729003906,31.20276069641113,-79.78281255214905,40.4590382438665,273.33749388885497,0.019180884584784508,-0.02664848789572716,-0.7297388315200806,0.6829372644424438,0.20769645016766866,0.4604507931856191,3.0473843094169784,0.002288785995915532,-0.058982886373996735,0.10835935920476912,0.33172434803098444,0.11345527946949005,-9.559692392349245
17.4,4.400000095367432,319.0,21.803211212158203,32.82492446899414,-79.78281231810998,40.45903810945964,273.85229872894286,0.016247272491455078,-0.027097182348370552,-0.731659471988678,0.6809378266334534,0.19703387783440895,0.3971856888802787,2.9801276211898307,-0.11730112135410307,0.03580428659915924,0.08813351392745973,0.3794970866292715,0.026000532901380213,-9.796501702666284
17.6,4.699999809265137,318.0,21.99978256225586,29.07963752746582,-79.7828121651956,40.45903836411527,274.1684417648315,0.014252566732466219,-0.03339189663529396,-0.7322548627853394,0.6800623536109924,0.1538939304568891,0.385315195472208,2.9987460450121013,-0.09485619515180588,0.03129265084862709,-0.10013225674629213,0.5979109834134579,0.06092217186000199,-10.158374769687653
17.7,4.800000190734863,319.0,21.908382415771484,29.739633560180664,-79.7828117675811,40.45903814632142,274.7797555847168,0.020173097029328343,-0.05041805654764176,-0.7271642088890076,0.6843122839927673,0.21870958636666235,0.4000180952494193,3.0365525836392164,-0.0014127262402325864,0.13640934228897095,-0.01862088218331337,0.6032094378769398,0.2020677861571312,-9.823316448926926
17.91,5.0,317.0,22.061134338378906,28.196990966796875,-79.78281135405902,40.45903792201898,275.0687484664917,0.0246164295822382,-0.05173948407173157,-0.7240017652511597,0.6874143481254578,0.2271622542372564,0.4048050903668409,2.9678604972204687,0.01012023352086544,-0.0051263426430523396,0.05806926265358925,0.5085953490436077,0.36413685310632,-9.670512331724169
18.01,5.099999904632568,317.0,22.078662872314453,27.147356033325195,-79.78281076798282,40.4590375018792,275.73862742614745,0.01857272535562516,-0.04890759289264679,-0.7215269207954407,0.6904071569442749,0.20897828592719306,0.3526270221960255,2.9219888504486167,-0.1771378368139267,-0.1446150541305542,-0.02692004665732384,0.6662841571122409,0.2824379114806652,-9.367517217993736
18.2,5.099999904632568,318.0,21.848285675048828,32.228538513183594,-79.78281073686473,40.45903739484862,276.03068350982664,0.010879024863243105,-0.0468967966735363,-0.7212826609611511,0.6909658312797546,0.23056814998791936,0.28375019679415586,2.8592854916349544,0.041145585477352135,-0.17961210012435913,-0.03805916756391525,0.5581670931726694,0.4806914857774973,-9.139505628347397
18.3,5.099999904632568,316.0,21.756885528564453,32.17287826538086,-79.78281028504063,40.459036937865314,276.7075090332031,0.0034057784359902143,-0.036918502300977714,-0.7259778380393982,0.6867180466651917,0.228331937385911,0.18791292642940427,2.812172226884373,-0.0006629083654843273,-0.02791852131485939,0.10243220627307892,0.5207046402990818,0.3342481159418821,-9.48690742135048
18.5,5.300000190734863,315.0,21.872074127197266,31.385652542114247,-79.78281030306974,40.45903685652824,276.98991202545164,0.005375693552196026,-0.03797468915581703,-0.7293195724487305,0.6830973625183105,0.20610574119038447,0.15417549552767165,2.802781688896824,-0.058524943888187415,0.18927475810050964,0.06696494668722153,0.696878909021616,0.2092553663626313,-9.638628634214404
18.6,5.300000190734863,315.0,21.723079681396484,33.32588577270508,-79.78281034560287,40.45903648037584,277.6384868545532,0.01590588316321373,-0.04906695336103439,-0.7323547601699829,0.6789668798446655,0.17964232624879778,0.2090893793708261,2.8284417737099825,-0.10825824737548828,0.053066696971654885,0.06708759069442749,0.654314541220665,0.23698454406112435,-9.715446429848672
18.8,5.400000095367432,311.0,21.819488525390625,31.31408500671387,-79.78281037747146,40.459036432841756,277.9235191268921,0.017246134579181668,-0.05382142588496208,-0.7320574522018433,0.6788944602012634,0.16085646407443904,0.24093506811493626,2.8455376585716823,-0.12167315930128098,-0.019858196377754208,0.1309107542037964,0.8573805932700634,0.1448138056509197,-9.897260338068007
18.9,5.400000095367432,316.0,21.76439666748047,33.437210083007805,-79.7828104200805,40.4590361679207,278.5680932922363,0.017068801447749138,-0.05445659160614014,-0.7306742668151855,0.6803368926048279,0.17623461871010945,0.22169353242130635,2.909685847276533,0.03980638086795807,-0.07304845005273819,0.01962975040078163,0.7755033481121064,0.2468587736785412,-9.911573152542116
19.1,5.400000095367432,317.0,21.700542449951172,34.55045700073242,-79.78281036070445,40.45903602075163,278.9026060028076,0.015539580024778843,-0.05203567072749138,-0.7300222516059875,0.6812623739242554,0.17217488069423054,0.21292460300548888,2.9572160550515534,-0.015082248486578463,-0.11406033486127852,-0.03708111494779587,0.8809038687497378,0.1878759907744825,-10.071378725767136
19.2,5.5,318.0,21.929668426513672,29.18301010131836,-79.78281062359389,40.45903603142367,279.4988279266357,0.010589566081762314,-0.04863051697611809,-0.7294291257858276,0.6822434067726135,0.13619273664435275,0.1369156786915377,2.9915527659730263,0.07577411085367203,0.007476077415049077,-0.11494313180446625,0.8283696328103543,0.3880988524854184,-9.915929328203203
19.4,5.599999904632568,316.0,21.713064193725586,32.538658142089844,-79.78281075008579,40.459035977654466,279.8204994125366,0.011851015500724316,-0.045014914125204086,-0.7296717762947083,0.6822113394737244,0.1265298439761846,0.12206548933130475,2.9935369750323924,0.08279849588871002,-0.03306466713547706,0.1872042864561081,0.7370206291973591,0.17769406970590354,-9.8635417842865
19.51,5.800000190734862,315.0,21.823244094848643,31.75143241882324,-79.78281109336909,40.459035987927706,280.4376573486328,0.013310412876307964,-0.043612580746412284,-0.7288263440132141,0.6831786036491394,0.07282540510434339,0.09578689670022836,2.9888295249502437,0.06646934151649475,-0.028016427531838417,-0.11751943826675415,0.9686911140382288,0.3349072798714042,-9.739232903122902
19.7,5.9000000953674325,313.0,21.630428314208984,33.27022171020508,-79.78281125076055,40.459036050070466,280.7349262161255,0.015173159539699553,-0.04619363322854042,-0.7286447882652283,0.6831638216972351,0.051839799728629364,0.10785518438759366,2.9599278562848066,0.046608343720436096,0.041063092648983,-0.03296459093689918,1.0660344638675452,0.1390229425393045,-9.620927358269693
19.8,6.0,312.0,21.7205753326416,31.322036743164066,-79.78281172124481,40.459036260692024,281.35706519317625,0.025950796902179718,-0.045925792306661606,-0.7274317741394043,0.6841493844985962,0.023478644692659104,0.10997512697635414,2.956248661396097,0.2058531641960144,0.1670529991388321,-0.1367272436618805,0.8958844352513552,0.4617607961967588,-9.686895645260812
20.0,6.0,309.0,21.654216766357425,32.96010208129883,-79.7828119140768,40.45903635662707,281.6510190887451,0.028816554695367813,-0.041235893964767456,-0.7265158891677856,0.6853057742118835,-0.0196611975926886,0.121050638537175,2.9285100444360648,0.13648509979248047,-0.07326363772153854,0.0743747130036354,0.7620368450134993,0.060172380656003964,-9.531881865262983
20.11,6.0,311.0,21.659225463867188,32.005889892578125,-79.78281230673566,40.45903655626042,282.2623796386718,0.021054929122328758,-0.03479298949241638,-0.7261077165603638,0.6863772869110107,-0.06602991565989742,0.0786047808422545,2.9676388588247646,-0.14147429168224335,0.011953516863286495,0.08367257565259932,0.7760662157088518,-0.051496537886559966,-10.07954728603363
20.3,6.199999809265138,311.0,21.71932411193848,32.109264373779304,-79.78281250916895,40.45903664470164,282.56063174438475,0.016706662252545357,-0.037448469549417496,-0.7261919975280762,0.6862679719924927,-0.026284630874804774,0.06228799927411456,3.005494816779781,-0.09610314667224884,0.1524953693151474,0.02539185434579849,0.7947664884477854,0.34821141310036186,-10.02742286682129
20.4,6.300000190734862,311.0,21.799455642700195,31.783241271972656,-79.78281270975691,40.459036712802,282.8766393585205,0.015353532508015631,-0.041539408266544335,-0.7259476184844971,0.6863227486610413,0.0040309976566692395,0.06695780378302907,2.9909515031829392,-0.11525187641382215,-0.014686642214655874,-0.08483973890542984,0.9085583482682704,0.29833934135735035,-9.766004964709284
20.5,6.4000000953674325,309.0,21.60163116455078,36.22032928466797,-79.78281309083418,40.45903690843644,283.48124026489256,0.014809372834861282,-0.043451130390167236,-0.7265235185623169,0.6856064796447754,0.034943258112578035,0.1172436368545634,2.9504077769881176,0.007480398751795292,-0.019685424864292145,0.06369660049676895,1.0662880137562751,0.4559559363126755,-9.627723577022556
20.71,6.5,310.0,21.632932662963867,33.23046493530273,-79.78281335643051,40.45903705249923,284.07281970214837,0.016873255372047424,-0.04632370918989182,-0.7272154092788696,0.6846365928649902,0.04048903832151378,0.15372150610749485,2.9587609958617587,0.014963795430958271,0.05595386028289795,0.1820582449436188,0.8692933449894191,0.29258418280631304,-9.728997352123262
20.8,6.5,312.0,21.80070686340332,29.461322784423828,-79.78281347961892,40.45903720630919,284.38745021057133,0.01907480880618096,-0.048807982355356216,-0.7275786399841309,0.6840199828147888,0.05048440818704717,0.13281096008631876,2.9290789243728725,0.0022465884685516357,-0.049357961863279336,-0.05330350622534752,0.8979743763059378,0.4015390796586871,-9.489288992285733
21.01,6.4000000953674325,312.0,22.14752578735352,23.457733154296875,-79.78281363331826,40.45903727497881,284.6779088897705,0.01779683120548725,-0.05194821581244469,-0.727830708026886,0.6835547685623169,0.03807506153869643,0.14462295238033604,2.8710502980718697,-0.14412927627563474,-0.015589083544909952,0.105891652405262,0.7251418644189835,0.4037892344221473,-9.039470878243447
21.2,6.4000000953674325,316.0,21.959716796875,28.90469741821289,-79.78281387518851,40.4590375814589,285.25218295288084,0.011606879532337187,-0.055015597492456436,-0.7288838624954224,0.6823246479034424,0.07143097807138526,0.0987368608247907,2.5211714211579497,0.18188165128231049,-0.04928521439433098,0.012333742342889307,0.690778582021594,0.5628150814399123,-7.842620678544044
21.3,6.5,314.0,22.17882537841797,23.354360580444336,-79.78281403750042,40.45903765793877,285.4950838012695,0.017765475437045097,-0.04538533464074135,-0.730571448802948,0.681094765663147,0.06785815364108883,0.08152713002228895,2.3582386924730625,0.25751757621765137,0.05403293296694756,0.0265078954398632,0.8247217742353679,0.6413976033031941,-8.123613304495812
21.4,6.599999904632568,315.0,22.22640419006348,24.38809013366699,-79.78281423369141,40.459037672276395,285.97096347045897,0.021470153704285615,-0.033776313066482544,-0.7327391505241394,0.6793317198753357,-0.021959247027890504,0.08390755224058774,2.1789264085158973,0.02269195392727852,0.2831208407878876,-0.204353615641594,0.9960753791034224,0.4775851890072227,-8.676798496842384
21.6,6.599999904632568,315.0,22.04110145568848,26.5748291015625,-79.78281437832419,40.45903775210999,286.40915393066405,0.017149761319160458,-0.05898842215538025,-0.7312685251235962,0.6793177723884583,-0.0012746569502643662,0.11176746258977333,1.9401817715414984,-0.09471716731786728,0.28930702805519104,0.01669175736606121,0.6625278326869011,0.1663741160184145,-8.264313685297967
21.7,6.599999904632568,317.0,22.047361373901367,24.523271560668945,-79.78281443681269,40.4590378285673,286.596732131958,0.01953422464430332,-0.06733899563550949,-0.7292333245277405,0.6806633472442627,0.01722013466194671,0.14600809236751305,1.810858981490877,0.0013109560823068025,0.07594002783298492,-0.052894093096256256,1.05761454641819,0.35606045957654714,-8.527199238538742
21.9,6.599999904632568,318.0,22.044857025146484,26.7497673034668,-79.78281452715291,40.45903782694304,286.80826663208006,0.024722112342715263,-0.06799285858869553,-0.7270493507385254,0.6827628016471863,0.005841215273118011,0.1570048780609597,1.7304092991084032,0.12970513105392456,0.12532353401184082,-0.07997206598520279,0.9241959956288338,0.3341731619462371,-8.531399293541911
22.1,6.5,317.0,22.08241844177246,25.11170196533203,-79.7828146650072,40.45903787346236,287.19412898254393,0.03325600177049637,-0.06137523800134659,-0.7235541343688965,0.6867289543151855,-0.05376691193157111,0.12649910978970708,1.619261080463105,0.2008269429206848,0.06653943657875061,-0.13986311852931976,1.0086025270074606,0.4389799343794584,-8.984057984948159
22.2,6.5,317.0,22.091182708740234,24.61869239807129,-79.78281477284948,40.45903799611559,287.35422801208495,0.03456590697169304,-0.055486761033535004,-0.7226693630218506,0.6880955696105957,-0.07468216634287576,0.11379036305384654,1.5847058992262997,0.0729077011346817,-0.1214500367641449,0.01098499447107315,1.283758096843958,0.3148810048028827,-9.296463607549668
22.3,6.5,318.0,21.984758377075195,28.228797912597656,-79.78281490727166,40.45903803379916,287.72359561157225,0.03052794747054577,-0.049276620149612434,-0.7222440838813782,0.6892049312591553,-0.06983912199912473,0.06818571322857613,1.5212462023632782,0.03354432061314583,0.07877853512763977,-0.1574278324842453,1.052465195953846,0.39233786456286907,-9.155358599424364
22.5,6.599999904632568,315.0,22.038597106933594,25.827362060546875,-79.78281516728273,40.45903807136384,288.10034083557133,0.02623809315264225,-0.04875458776950836,-0.7229618430137634,0.6886658668518066,-0.05057564289986943,0.059410993413302526,1.5007424002836682,0.003782875137403608,-0.020560314878821373,0.1319599747657776,0.978225145339966,0.30749081857502464,-9.198467781543734
22.7,6.599999904632568,316.0,21.843276977539066,28.363977432250977,-79.78281528499762,40.45903814779458,288.24654483032225,0.023913031443953514,-0.046759534627199166,-0.7234945893287659,0.6883293390274048,-0.027943613486550875,0.053595585975882064,1.4322198550189442,0.06755311042070389,0.06934069097042084,-0.15457473695278168,1.0909357088059188,0.5593143168836833,-9.171477618813515
22.8,6.699999809265138,316.0,22.03984832763672,25.70013236999512,-79.78281539709492,40.45903821243709,288.38776873779295,0.02303836122155189,-0.04561641439795494,-0.7241753339767456,0.6877197623252869,-0.02282998222029422,0.04445526665810138,1.4087386338597094,-0.0385197214782238,0.03687641769647598,0.1317550539970398,0.9473865645378828,0.33311459664255383,-9.439480070471763
22.9,6.599999904632568,313.0,22.355365753173828,15.490056037902832,-79.78281544651125,40.45903818005411,288.75945567321776,0.02287312038242817,-0.04620104283094406,-0.7260456085205078,0.6857113242149353,0.020561066331173515,0.08666014549288208,1.3346486032370186,0.003023014171048999,-0.14333415031433105,-0.014679919928312303,1.1929942533373834,0.4942522021383047,-8.80273992061615
23.1,6.599999904632568,317.0,22.193851470947266,23.608816146850586,-79.78281549434081,40.45903812960296,288.9463663024902,0.02049468830227852,-0.04008304700255394,-0.7244140505790709,0.6878936886787415,0.04371423073548879,0.11225028524169384,1.106598315702712,0.1512053906917572,-0.2936131954193115,-0.14477552473545074,1.1501885417103768,0.15849791653454304,-7.194724041223528
23.2,6.599999904632568,320.0,22.151281356811523,23.79170799255371,-79.78281548189837,40.4590381121875,289.04408168029784,0.01915808767080307,-0.028879225254058838,-0.7082657814025879,0.7050946950912476,0.045414294657419856,0.10795579835020463,0.8621146535332113,0.13739480078220367,-0.2268371433019638,-0.5634133815765381,1.0666653053462505,0.07929743533954024,-7.462696672081948
23.41,6.599999904632568,322.0,22.131248474121094,24.75387191772461,-79.7828154236017,40.459038133842895,289.1621084136964,0.02000120468437672,-0.03684364259243012,-0.6588432192802429,0.7511112689971924,0.10443523754277792,0.1128772410196928,0.6094000344294642,-0.0270922277122736,0.2412880212068557,-0.8745603561401367,1.053505561798811,0.6748179490864277,-8.591950719952585
23.6,6.5,312.0,22.05111694335937,26.137481689453125,-79.7828152827482,40.45903811629137,289.2259530944824,0.021645762026309967,-0.046511128544807434,-0.6077978014945984,0.7924330234527588,0.1964161936701971,0.11897212551607715,0.4772237968672057,-0.030414178967475888,0.1911822408437729,-0.4850242137908936,0.6645226833969355,0.8269847197830678,-9.146911126971244
23.7,6.4000000953674325,308.0,21.55655670166016,31.767335891723643,-79.78281514092703,40.45903796642264,289.2739324493408,0.01985388621687889,-0.05116536840796471,-0.5881619453430176,0.8068788051605225,0.22721892810096564,0.11799888488638875,0.4489970483367861,-0.1003001108765602,0.11781436949968338,-0.3488061726093292,0.9236368556320668,0.7752005354315042,-9.392076693177225
23.8,6.4000000953674325,313.0,21.76439666748047,30.57457160949707,-79.78281485771056,40.45903793296154,289.3195810241699,0.0068506752140820035,-0.05884847790002822,-0.5621872544288635,0.8248851299285889,0.23956587966864115,0.12264048557991428,0.5081793968121551,-0.25541651248931885,-0.2378300875425339,-0.13254603743553162,0.8840392919629813,0.6458388559520245,-10.210169405937195
24.0,6.300000190734862,315.0,21.994773864746094,28.06976127624512,-79.78281436981698,40.459037846301605,289.3519983215332,-0.038224957883358,-0.03423511981964111,-0.5516334772109985,0.8325067162513733,0.2721897808125573,0.2169510950806628,0.5586912286128349,0.12232134491205215,-0.6035779118537903,0.011896642856299877,0.8598335733264685,0.9262852788716556,-10.000668346881868
24.2,6.099999904632568,309.0,21.90087127685547,27.5369930267334,-79.7828139995884,40.45903776250611,289.4127969665527,-0.060821592807769775,-0.012060606852173805,-0.5513743162155151,0.8319506049156189,0.2693166666390383,0.3033010359532753,0.6066326545127309,0.20580925047397614,-0.635965883731842,0.01386171206831932,0.885510159060359,0.7688037545979023,-10.177586381435397
24.3,6.099999904632568,297.0,21.987262725830078,27.131452560424805,-79.78281347116304,40.4590377345971,289.47693156433104,-0.07726477831602098,0.007004220969974996,-0.5531632900238037,0.829452633857727,0.2697023450132404,0.42669003059059396,0.6790984105412289,0.19501852989196772,-0.2962762117385864,0.015919309109449387,0.6205943794548512,0.8917433640360832,-10.240730463266372
24.5,5.9000000953674325,300.0,21.81447982788086,29.310237884521484,-79.78281244944155,40.45903834081764,289.43655108642577,-0.0916738510131836,0.026411905884742737,-0.5594102740287781,0.8233823776245117,0.24431359912560266,0.7935676667711185,0.7880396665788431,0.02571192756295204,-0.12110088765621185,-0.04082626476883888,0.6053716651350259,0.8070126045495272,-10.312997370958328
24.6,5.9000000953674325,302.0,21.8282527923584,29.02397537231445,-79.78281148359865,40.45903896019196,289.3857126159668,-0.09518208354711533,0.027031457051634792,-0.5633130073547363,0.8202975988388062,0.20813014946465647,1.0118435660359075,0.8397129999685709,-0.15512560307979584,-0.17281381785869598,0.1659819632768631,0.5870385244488716,0.6829468213766814,-10.366868938207627
24.7,5.699999809265138,286.0,21.950952529907227,26.964466094970703,-79.78280824011209,40.459039586752944,289.525385848999,-0.09753613919019699,0.02339259535074234,-0.5702551007270813,0.8153212070465088,0.2189864337250751,1.5004796890295309,1.0268073381666374,-0.06659141182899475,0.07358506321907042,0.09919294714927672,0.49030836481601,0.6596064175665379,-10.461931800842283
24.9,5.699999809265138,290.0,22.22890853881836,21.072200775146484,-79.7828042443176,40.459040981889984,289.55830287170414,-0.09258457273244858,0.022601233795285225,-0.5737927556037903,0.8134366869926453,0.19581695739118693,1.95489006568214,1.067405173486322,0.10579724609851836,0.15231990814208984,-0.11200691759586334,0.5448195078223944,1.0080083768069743,-9.85206603884697
25.0,5.599999904632568,292.0,22.044857025146484,25.501338958740234,-79.78280216422611,40.459042152673156,289.5144987030029,-0.09311334788799286,0.023045260459184647,-0.5737184882164001,0.8134162425994873,0.1370521740668102,2.1658393907173434,0.9972623266079944,-0.021240070462226868,0.01650240272283554,-0.03253202140331268,0.5110052058845759,0.8842177051305772,-9.568341009020807
25.2,5.599999904632568,295.0,22.262714385986328,20.809791564941406,-79.78279971214151,40.45904282464559,289.5703535003662,-0.09638887643814087,0.02443337254226208,-0.5734320282936096,0.8131961226463318,0.14189260772975873,2.3622829233266924,0.9925537287202164,-0.015064377337694168,-0.05978820100426674,0.00640763295814395,0.3973267455026507,0.8541812161356211,-9.625521515607836
25.4,5.5,299.0,22.360374450683594,20.595094680786133,-79.78279413476305,40.4590450694443,289.5692071838379,-0.1025124043226242,0.02997172623872757,-0.570854127407074,0.814075231552124,0.10144955506731336,2.7740394854454173,0.8853057773334881,-0.08735451847314835,-0.15815921127796173,0.025600168853998184,0.3509962226450443,0.8780571518093347,-8.91231791138649
25.5,5.5,301.0,22.290258407592773,21.62882423400879,-79.78278767601981,40.45904766707872,289.5412664337158,-0.11929180473089218,0.03877849131822586,-0.5670639276504517,0.814066469669342,0.08165939456793521,3.200244154146245,0.7620538426898629,0.0293200071901083,-0.2411826103925705,-0.03734658658504486,0.18807105023413892,0.7876945734769106,-8.666695677638055
25.6,5.400000095367432,308.0,22.30152702331543,21.68448829650879,-79.78278413909774,40.45904869318433,289.5400991363525,-0.1279045343399048,0.04396392032504082,-0.5659457445144653,0.8132730722427368,0.08898452408137014,3.409529227033496,0.7538350579259672,-0.11755450069904327,-0.27127760648727417,0.06652436405420302,0.06974123943597077,0.6575029548257589,-8.722468174695969
25.8,5.400000095367432,312.0,22.133752822875977,24.9924259185791,-79.78277616050354,40.459051894353024,289.4699258728027,-0.13970376551151276,0.05219975858926773,-0.5645016431808472,0.8118473291397095,0.020301510569595446,3.877110168157805,0.8288509730705924,0.022526651620864868,-0.22287949919700625,0.012872347608208656,-0.1211030446831137,0.6338542565703392,-9.10009130179882
25.9,5.300000190734863,317.0,22.05988121032715,24.539175033569336,-79.78277165008241,40.459053165811795,289.4400815887451,-0.1433023065328598,0.05629898607730865,-0.5664005279541016,0.8096205592155457,0.026543479128948208,4.119367307965124,0.8940010773555019,0.029882701113820083,-0.12836064398288727,0.2188422530889511,-0.37873395189642906,0.5494988152384759,-9.449452496767043
26.1,5.400000095367432,319.0,22.073654174804688,25.40591812133789,-79.78276708714802,40.45905557069611,289.3892145080566,-0.14049045741558075,0.05807344987988473,-0.5696915984153748,0.8076766133308411,-0.05061530238557752,4.3443773885141495,1.015999983559527,0.08583137392997743,0.09295139461755753,0.2082943469285965,-0.3577727435901761,0.6284743796288967,-9.712386581897738
26.2,5.400000095367432,330.0,21.91339111328125,27.68807601928711,-79.78275671832726,40.45905859094373,289.31621836853026,-0.1394396275281906,0.05598321557044983,-0.5790489315986633,0.8013269305229187,-0.12810716353656496,4.853664873444537,1.0695839135539889,0.003055023727938533,-0.055350229144096375,0.02433911897242069,-0.2813104038499296,0.7979320979118347,-10.040483207702637
26.4,5.300000190734863,335.0,21.96973419189453,25.93073463439941,-79.78274541764813,40.45906290625613,289.24137210083006,-0.13295726478099826,0.05806968733668327,-0.5828836560249329,0.7994980216026306,-0.25349957089327857,5.303285204406134,1.334229244681426,0.12987488508224487,0.10063370317220688,-0.07109936326742172,-0.4277990347892046,0.8939783891290427,-10.557795732021331
26.5,5.400000095367432,347.0,21.962221145629886,26.185192108154297,-79.78273979460519,40.45906594829548,289.2014627380371,-0.13216568529605865,0.06187393143773079,-0.5800390839576721,0.8014103770256042,-0.38310214405693976,5.512390402057086,1.4597784096286333,0.006831016857177019,-0.058418452739715576,-0.11095145344734192,-0.5305623515322805,0.677179347127676,-10.688013224601749
26.7,5.5,351.0,21.93592834472656,26.7418155670166,-79.78272679012696,40.4590699184614,289.17895793151854,-0.12831361591815948,0.060869868844747536,-0.574196994304657,0.8063052892684937,-0.27863348888382355,5.917617549571274,1.7133897189373457,-0.05555052310228348,0.0350186787545681,-0.2273037135601044,-0.6643415658921004,0.7040817285329104,-10.69305001616478
26.9,5.599999904632568,0.0,22.02607536315918,25.906879425048828,-79.78272049749948,40.45907301824845,289.1023530883789,-0.12446309626102448,0.06052841246128082,-0.5678495764732361,0.8114137649536133,-0.2870735997993063,6.113465173424825,1.78394296348629,-0.010592062026262285,-0.08693511039018631,-0.1914749592542649,-0.7578642719238997,0.5064195635542273,-10.978913372755056
27.0,5.599999904632568,5.0,21.964725494384766,26.566877365112305,-79.78271341693168,40.459075204397415,289.1084813995361,-0.12256569415330887,0.06114881485700607,-0.561659038066864,0.8159520030021667,-0.1829935964459745,6.309558264336612,1.891758825944479,-0.076769158244133,-0.0653621107339859,0.0741209015250206,-0.7889488012343645,0.2463349362462759,-10.903328754901883
27.1,5.9000000953674325,9.0,22.018564224243164,25.270736694335927,-79.78269882834812,40.4590807668852,289.06252764892577,-0.11840488016605374,0.06782485544681549,-0.5484980940818787,0.824942409992218,0.01838219168844028,6.692152315588903,2.0847113001793334,0.13586270809173584,-0.2609567642211914,-0.11956336349248885,-0.8044170255213976,0.3980442354083061,-10.701204543113713
27.3,6.0,10.0,21.78693389892578,28.745662689208984,-79.78268337333267,40.45908655749318,289.0276307983398,-0.11982720345258713,0.0774175226688385,-0.5397166013717651,0.8296710848808289,0.16459022927164285,7.022535662839488,2.2561097297318407,-0.041302014142274864,0.07869072258472443,-0.23482100665569305,-0.7440854544192553,0.5419693190976977,-10.202525925636293
27.4,6.300000190734862,14.0,21.85204124450684,28.16518402099609,-79.78267521330048,40.45908907580528,289.05152224731444,-0.11822672933340073,0.0776992067694664,-0.5386554002761841,0.8305634260177612,0.27456394838864023,7.168141359413912,2.392090485588384,0.09503938257694244,0.07659421116113663,0.007722922600805759,-1.1801926517486574,0.4763669581711292,-10.44069471359253
27.6,6.5,16.0,21.838268280029297,27.38591003417969,-79.78266734022745,40.45909292127126,288.98155879211424,-0.11756410449743272,0.08075737208127975,-0.5360838174819946,0.8320283293724059,0.2294801030751528,7.346683098739022,2.4373434826957605,0.06749207526445389,-0.12651588022708893,0.2106489539146424,-1.2898872944712645,0.07877555307000876,-10.431287713050844
27.8,7.099999904632568,15.0,22.32155990600586,19.49774932861328,-79.78265007010128,40.45909829843861,289.05813693237303,-0.11849214136600494,0.08051366358995438,-0.5382069349288939,0.8305483460426331,0.33152191953335536,7.584125565609638,2.7917052425559,0.05974271893501281,-0.040520790964365005,0.045563295483589165,-1.3465894988179208,0.2911976983398199,-10.882837772369383
27.9,7.300000190734862,19.0,22.352861404418945,20.300878524780273,-79.78263261302773,40.45910564276407,289.02265834045414,-0.12839767336845398,0.10191620141267776,-0.5376261472702026,0.8270944952964783,0.2610578279669633,7.863160487349282,2.96540087690153,0.1470744162797928,-0.2276898473501205,-0.04535187408328056,-1.8678369069099428,0.1807641868293285,-9.870315198898316
28.0,8.0,23.0,22.36788558959961,19.680641174316406,-79.78262399174929,40.45911056403881,288.9104356689453,-0.1344456672668457,0.10772814601659776,-0.5347816348075867,0.8272409439086914,0.1286333593784254,7.997624178295839,3.114363596113926,0.08299115300178528,-0.1724897474050522,0.04175793007016182,-1.7298937806487085,0.10265095883980394,-9.626011512279511
28.21,8.300000190734862,25.0,22.23141288757324,21.978702545166016,-79.78261456216839,40.45911356313669,288.94546221923827,-0.14221276342868805,0.1101396381855011,-0.5341507792472839,0.8260313868522644,0.20405185798366152,8.110710465777416,3.2732484324972866,-0.07385372370481491,-0.1213255226612091,0.03916767612099648,-1.6535563337802888,0.18881090573966505,-9.57800938010216
28.4,8.699999809265138,23.0,22.286502838134766,20.261119842529297,-79.78259572819223,40.45912170753935,288.87525462341307,-0.15612651407718658,0.10373174399137496,-0.5311487913131714,0.8262839913368225,0.1910320080781456,8.43698948262395,3.5025948914243834,-0.12279485166072845,-0.2094191610813141,0.16241785883903506,-1.8184663800895216,0.3416593886911869,-9.775765721797944
28.5,9.0,25.0,22.352861404418945,19.489797592163086,-79.78258568835362,40.45912492000915,288.89556407165526,-0.1612890064716339,0.10391902923583984,-0.5322080850601196,0.8245856165885925,0.3008745406601777,8.611068323903396,3.611845156036592,0.022481333464384082,-0.2293773889541626,-0.002559656510129571,-1.4300877383351327,0.3541819684579969,-9.711939269900322
28.6,9.399999618530273,28.0,22.031084060668945,24.68230628967285,-79.78256530550397,40.45913333822392,288.8573827667236,-0.1773490309715271,0.09759241342544556,-0.5275039672851562,0.8250834941864014,0.2134624542391316,8.973396709053697,3.762592500097561,-0.1443222016096115,0.14060941338539126,-0.08744995296001434,-1.4961618599295616,0.2556872470490635,-8.950750490427017
28.8,9.5,28.0,22.22139549255371,21.80376434326172,-79.78255468450611,40.459136869182146,288.8520498199464,-0.16813980042934418,0.09238381683826448,-0.5307286381721497,0.8255430459976196,0.2626234660653461,9.144733317588717,3.858610669947027,0.07630506902933121,0.24284251034259804,0.1383974403142929,-1.7761304922401906,0.1399332078360021,-9.459747689366342
28.9,9.899999618530273,33.0,22.08867835998535,23.03628921508789,-79.78253229307705,40.459145390499415,288.88332843017577,-0.12047184258699414,0.08910758048295975,-0.5425524115562439,0.8265489935874939,0.047688228415253664,9.703340991121015,3.432506340466402,0.08714964985847473,0.4457909464836121,0.19665206968784327,-1.7629637320339682,0.027719602882862092,-9.716171484589577
29.1,10.0,37.0,22.345348358154297,20.762081146240234,-79.78252041385282,40.45915010964001,288.92600535583495,-0.0976088121533394,0.0803343802690506,-0.5463569760322571,0.8279570937156677,-0.1232144341970923,9.977643899928463,3.0850403103465283,0.11311139911413193,0.5492417812347412,0.17006175220012665,-1.5014961285889152,0.08076542451046408,-9.828128707408906
29.3,10.199999809265137,37.0,22.35787010192871,19.22739028930664,-79.7824977493167,40.45915774476522,288.92154597473143,-0.07197193801403046,0.051534753292799,-0.5512623190879822,0.8296229243278503,-0.16692585116631387,10.322765845582213,2.1683690274553618,-0.1857558786869049,0.1574837565422058,0.13004650175571442,-1.3630573046207428,0.04382137298583985,-9.600712364315989
29.4,10.300000190734863,37.0,22.489334106445312,17.83582878112793,-79.78248572972731,40.459162637492476,288.97589205932616,-0.06391691416501999,0.037711352109909065,-0.5503056645393372,0.8316587805747986,-0.2086684452078626,10.41941675538015,1.8974068222370275,-0.007240885868668556,0.18012617528438568,0.0037999567575752735,-1.654612340927124,0.2788255199231208,-9.805215808153156
29.5,10.399999618530273,57.0,22.233917236328125,20.937021255493164,-79.7824620524351,40.459171241841396,289.00459193420414,-0.05591735988855362,0.030214875936508182,-0.5491759777069092,0.8332862854003906,-0.19508606164755748,10.484345843372756,1.382022587872426,0.043331652879714966,-0.059042610228061676,0.035665079951286316,-1.5362597259879114,0.09922184094786644,-9.444112234711648
29.7,10.399999618530273,57.0,22.283998489379886,21.06424903869629,-79.78243935796853,40.459178951547386,289.01203059387205,-0.05434349924325943,0.02237688936293125,-0.544153094291687,0.8369250297546387,-0.05646844693258984,10.392453648548402,1.371646048356754,-0.05087617039680481,0.04673497751355171,-0.25798025727272034,-1.932633119523525,0.3804379767179489,-10.06427786707878
29.9,10.5,57.0,22.33407974243164,19.04449844360352,-79.78242685566886,40.459183610939185,289.0404176635742,-0.05292636156082153,0.018589461222291,-0.5411680340766907,0.8390414118766785,-0.039029544665019074,10.432231447927293,1.3643547101388385,-0.035351287573575974,0.014779985882341862,-0.1822219789028168,-1.7205342887341977,0.06514086943119765,-10.117683995962144
30.0,10.5,58.0,22.22890853881836,22.105932235717773,-79.78241558566788,40.45918749710082,289.05828379821776,-0.05064072832465172,0.017635442316532142,-0.5411030650138855,0.8392448425292969,0.028917013010960262,10.38775044625121,1.3336282349282014,0.1276654750108719,-0.00683630956336856,0.1413172036409378,-1.2395815055072308,0.00931567434221506,-10.11281794309616
30.2,10.600000381469727,60.0,22.52439308166504,15.21969509124756,-79.78239231307779,40.45919554397477,289.06019686889647,-0.05821791291236876,0.0321364663541317,-0.5456359386444092,0.8353798985481262,-0.06343144155839794,10.318871309840816,1.3997547399088497,-0.01041853241622448,-0.12900596857070926,0.09396088868379593,-1.7549081692099573,0.05475201174616814,-9.737513236999511
30.3,10.699999809265137,60.0,22.33282852172852,19.13991928100586,-79.78238117125389,40.45919942499201,289.0760507507324,-0.058703511953353875,0.03652253374457359,-0.5487213730812073,0.8331416249275208,-0.132697266669837,10.252210671452607,1.5139312334236243,0.12422411143779755,-0.024405049160122868,-0.12823595106601715,-1.7261335824429989,0.2015875104814768,-9.512204815149307
30.4,10.800000190734863,61.0,22.39417839050293,18.57534408569336,-79.7823585516472,40.45920739484611,289.0932149810792,-0.0489838607609272,0.028603343293070793,-0.5529471635818481,0.8312833309173584,-0.2849217097447187,10.171845916402033,1.4569835285445327,-0.002301109256222844,0.3301045596599579,-0.16856089234352112,-1.5874633549153805,0.29277301132678984,-9.42880831718445
30.6,10.699999809265137,61.0,22.41671562194824,18.543537139892575,-79.7823360890462,40.45921524078826,289.12281321716307,-0.02565442211925984,0.015939950942993164,-0.5556424260139465,0.830872654914856,-0.3639520288743617,10.112930563450924,0.9228278668004832,-0.009274221956729887,0.1918250471353531,0.23236814141273496,-1.6236051410436632,-0.02648364767432213,-9.520596154332159
30.7,10.600000381469727,64.0,22.330324172973643,19.17172622680664,-79.78232524711156,40.45921902458597,289.12832164001463,-0.01401541568338871,0.009516920894384384,-0.5554553270339966,0.8313737511634827,-0.37012215876844,10.0344261141423,0.6699292823951877,-0.08826306462287903,0.383188933134079,0.1399013102054596,-1.3343799278140072,0.07795686978846789,-9.769394595623018
30.9,10.600000381469727,71.0,22.446765899658203,18.05052757263184,-79.78231405738988,40.45922282337885,289.1498212738037,-0.002879837760701776,-0.00017576573009137064,-0.5542081594467163,0.8323731422424316,-0.3513305143775354,9.959148230113204,0.4444612205551651,-0.12153467535972595,0.16617591679096222,-0.013085788115859032,-1.2324633975327015,0.2072863530367613,-9.88896547794342
31.1,10.300000190734863,72.0,22.519384384155273,16.269329071044922,-79.78229229238684,40.45923009426578,289.17234324645995,0.00817280076444149,-0.017802342772483826,-0.5482301712036133,0.8360981345176697,-0.2391871705709156,9.744008208539896,-0.03843792371732649,-0.13299955427646634,-0.07704335451126099,-0.15006381273269653,-1.060021918192506,0.25621526889503005,-10.06612207889557
31.2,10.199999809265137,72.0,22.4279842376709,19.87943458557129,-79.78228191445315,40.45923369460028,289.18941592407225,0.009858100675046444,-0.019231494516134262,-0.5457280278205872,0.8376836776733398,-0.16139862904847574,9.604584599904047,-0.14234378674934806,0.15216714143753052,0.07037834078073503,-0.08779276907444,-0.7003167063742877,0.1146568366046995,-10.070122743844989
31.3,10.0,86.0,22.475563049316406,17.374626159667972,-79.78226108941514,40.459240741830776,289.2207212371826,0.005510867573320866,-0.013456834480166435,-0.5461267232894897,0.8375763297080994,-0.0987488179208571,9.355467700999396,-0.0939406174060398,0.04037956893444061,-0.15028078854084015,-0.30209881067276,-1.1220453811436892,0.24230249533429746,-9.963459005355837
31.5,9.800000190734863,80.0,22.42422866821289,16.762338638305664,-79.78224090593702,40.459247320277626,289.25892161560057,0.003890561405569315,-0.017012793570756912,-0.5478072762489319,0.8364226222038269,-0.12883367555032735,9.111002602920246,-0.02940454345840357,-0.1343679577112198,0.021284878253936768,0.1553678810596466,-0.8626700576394797,0.22410184890031806,-10.041480742692947
31.7,9.600000381469727,80.0,22.47430992126465,17.668842315673828,-79.78223120127016,40.45925069882794,289.2789430541992,0.0014177308185026052,-0.017882991582155228,-0.5482763051986694,0.8361048698425293,-0.15728705144909236,8.996803559280625,-0.0243723500641308,-0.1189136654138565,-0.19348664581775665,0.10158650577068327,-0.9740609045326708,0.15069102482870222,-9.80709685742855
31.8,9.5,79.0,22.432992935180664,16.778242111206055,-79.78221183745055,40.45925705710521,289.31812380981444,-0.01915163174271584,-0.008162530139088629,-0.5462983250617981,0.8373319506645203,-0.13490800279955165,8.796373648591349,0.1899338822312852,-0.04885637387633324,-0.2258776277303696,0.14669005572795868,-0.7135088288784027,0.05437040783464909,-9.852720927000046
31.9,9.300000190734863,79.0,22.45052146911621,17.8835391998291,-79.78220245484539,40.45926033604845,289.3377332611084,-0.03276441991329193,-0.0015878789126873016,-0.5453401207923889,0.8375727534294128,-0.12625343817707307,8.71762028689542,0.3881793897250412,-0.0732346922159195,-0.4355535805225372,0.23764725029468536,-0.8058670619130135,0.08862622937187553,-9.59236078619957
32.1,9.100000381469727,71.0,22.58949851989746,15.25150203704834,-79.78218374131067,40.459266458027294,289.3531427307129,-0.05520335584878922,0.006443156395107508,-0.5425733327865601,0.8381678462028503,-0.08160461355635193,8.580350762047246,0.7192808416288861,-0.1026078760623932,-0.2532368302345276,-0.03243932500481605,-1.125385676175356,0.03899140840396285,-8.864636791348458
32.2,9.0,70.0,22.431739807128906,17.120168685913086,-79.782174540627,40.45926969741284,289.3502263946533,-0.06072397902607918,0.006949893198907375,-0.5421240925788879,0.8380727171897888,-0.08493318823509009,8.54606250705559,0.7820550263769273,0.024071104824543,-0.06195540353655815,-0.20086489617824554,-1.2230871679633857,0.2405158968642354,-8.810942979454994
32.4,8.899999618530273,70.0,22.43800163269043,17.501853942871097,-79.78216515905626,40.45927268435397,289.3738851470947,-0.06234641745686531,0.007304789964109659,-0.5417264699935913,0.8382076621055603,-0.07290730988531317,8.522646442613084,0.8371272263030074,0.00039237007149495184,0.040932707488536835,-0.06979607790708542,-0.832112362459302,0.3742330576479435,-9.057827627062796
32.6,8.600000381469728,62.0,22.369138717651367,19.076305389404297,-79.78214677284527,40.459279015114326,289.3635969085693,-0.06278608739376068,0.012106014415621758,-0.5426437258720398,0.8375257253646851,-0.12311746506143086,8.515012134349456,0.8006481348849874,0.10338810831308363,0.035866446793079376,-0.0325363352894783,-1.1044609033316375,0.15200969986617566,-9.340629966259003
32.7,8.600000381469728,60.0,22.38791847229004,18.28907966613769,-79.7821376453799,40.45928230331576,289.34432887268065,-0.06626645475625992,0.01811023615300656,-0.5429216027259827,0.8369689583778381,-0.16779177847713786,8.517055597435672,0.8090635825942485,0.1267917901277542,-0.0285264365375042,-0.007065949961543083,-1.10412351898849,0.12964308586902915,-9.44952909529209
32.8,8.5,60.0,22.362876892089844,18.79004096984864,-79.78211929843155,40.459288674630066,289.337943069458,-0.073180191218853,0.02711380273103714,-0.5439614057540894,0.8354732990264893,-0.2171206656580557,8.53758035648158,1.047863588746527,0.11433669924736024,0.06957091391086577,-0.1906932592391968,-1.085238181874156,0.2916907282546163,-9.69899762749672
33.0,8.399999618530272,60.0,22.309040069580078,20.92906951904297,-79.78211012212401,40.45929203038703,289.3178701324464,-0.07605183124542236,0.031154664233326912,-0.5435266494750977,0.8353587985038757,-0.2519520867716095,8.584635171252206,1.1146141920234882,0.044352319091558456,-0.10870704799890518,-0.11380118876695633,-0.9892353062331676,0.042402089294046166,-9.627301408052443
33.1,8.300000190734862,56.0,22.302780151367188,20.245216369628906,-79.78209160584703,40.459298418293926,289.3184995574951,-0.08856546133756638,0.03886342793703079,-0.5434034466743469,0.8338815569877625,-0.2441537953357193,8.670379385104567,1.3157532878947849,-0.05455974489450455,-0.01470844354480505,-0.035880982875823975,-0.7903334949910641,0.09460668845102192,-9.385759946107862
33.31,8.199999809265138,52.0,22.19510269165039,23.17146873474121,-79.78208227253383,40.459301859367045,289.2938814086914,-0.09126029908657074,0.04228699952363968,-0.5448115468025208,0.8325046300888062,-0.29307269919374324,8.715589832815969,1.4318061109904845,-0.02292928658425808,0.044536545872688287,-0.06708931922912598,-0.8537407015264035,0.08557754594832659,-9.517969585061074
33.4,8.0,53.0,22.260210037231445,19.92714500427246,-79.78206346999478,40.459308319896586,289.2890806121826,-0.08506894111633301,0.05113482475280762,-0.5477184057235718,0.8307545185089111,-0.35577935008431705,8.791789579573948,1.555356548076109,0.11763980239629745,-0.038498204201459885,0.12034982442855835,-1.4762327948212624,-0.1379726638365537,-9.722378304004671
33.6,8.0,54.0,22.172565460205078,21.461837768554688,-79.78204454638463,40.45931529405785,289.2755021972656,-0.082511305809021,0.05808006599545479,-0.5498510003089905,0.8291457295417786,-0.451938394311947,8.910026469163906,1.6535218050405596,0.022665856406092644,-0.04630167409777641,0.05242791026830673,-0.8985257687419653,0.03856368457898498,-10.100445234775544
33.8,8.100000381469728,52.0,22.193851470947266,22.765928268432607,-79.78203488651228,40.45931886500318,289.26163577270506,-0.08569466322660446,0.06115005910396576,-0.5494055151939392,0.82889723777771,-0.465917589649067,8.97339976291267,1.693460461050095,0.005714218597859143,-0.1824669986963272,0.03960266709327698,-1.1622686699777842,-0.016408666698262096,-9.814999369382859
33.9,8.199999809265138,50.0,22.21388435363769,21.501596450805664,-79.78201557243435,40.45932578442263,289.21782397460936,-0.09532792866230012,0.0684872716665268,-0.5466422438621521,0.8290984630584717,-0.42119105789564815,9.035267785593415,1.930349733308372,0.02481716498732567,0.08679736405611037,-0.20104704797267914,-1.464857913851738,0.12461297292262315,-9.916020544767381
34.1,8.399999618530272,50.0,22.014806747436523,24.411945343017567,-79.78200578213622,40.45932938626868,289.1870832366943,-0.10237795114517212,0.07018855959177017,-0.5444272756576538,0.8295729160308838,-0.4064010495048666,9.089526942510707,2.042632058557249,-0.1091645285487175,-0.07504916191101074,0.07936139404773712,-1.70826522231102,-0.02532924285158515,-9.829979935884477
34.2,8.5,49.0,22.068645477294922,24.03026008605957,-79.78199580501443,40.45933303706802,289.17613314819334,-0.1070873811841011,0.07088638097047806,-0.5422612428665161,0.8303374648094177,-0.3536407712488378,9.149071484182599,2.23821361312176,-0.017039699479937553,0.043113790452480316,-0.028267245739698414,-1.9451970317959784,0.11508192004635932,-10.02395897626877
34.3,8.699999809265138,46.0,22.123735427856445,23.219179153442386,-79.78197551382259,40.45934052338379,289.14733027648924,-0.09635107964277267,0.062189310789108276,-0.5409297347068787,0.8332131505012512,-0.2796620309233686,9.287451129760708,2.4024522322784763,-0.07518450915813446,0.2139273285865784,0.09926357865333556,-1.8332981349527842,-0.00658600678201765,-10.511989814043048
34.5,8.800000190734863,48.0,22.273983001708984,20.300878524780273,-79.78196525704995,40.459344267503575,289.15350436401366,-0.08727692067623137,0.05633912980556487,-0.5407883524894714,0.8347195386886597,-0.25050195735361624,9.403449822329646,2.2901200037107707,0.042507220059633255,0.12298281490802765,0.01667848229408264,-1.6070521120727064,0.05451429045293482,-10.21892970442772
34.6,9.100000381469727,48.0,22.217639923095703,21.962799072265625,-79.781944356365,40.45935192496695,289.1558313293457,-0.07547744363546371,0.05735338851809501,-0.541056752204895,0.8356263637542725,-0.21498706320110572,9.569932848855244,1.9599129484013016,0.09472522884607316,0.02033536694943905,-0.17283010482788086,-1.418170089572668,0.2048296819254756,-9.833659003973008
34.8,9.199999809265137,48.0,22.167558670043945,22.47171401977539,-79.78192340072134,40.459359655774385,289.1450605316162,-0.06704115122556686,0.0579175241291523,-0.5424522161483765,0.8354021310806274,-0.2117002676730821,9.635825216290005,1.7976679425750182,0.07481591403484343,0.08194608241319656,-0.1700591892004013,-1.4125700649619104,0.2108510532416404,-9.686031426787377
35.0,9.399999618530273,49.0,22.246437072753906,20.85750389099121,-79.78191292861125,40.45936341140247,289.14918612670897,-0.06739841401576996,0.05509406328201294,-0.5430890917778015,0.8351505398750305,-0.20352472974278726,9.651758929656863,1.7579320769905888,-0.100444994866848,-0.00013915746239945292,0.06290806084871292,-1.7740854285657406,0.04264227738138288,-9.716018287539482
35.11,9.5,51.0,22.33282852172852,19.05245018005371,-79.78189163062241,40.45937115849331,289.1413698120117,-0.07151032984256744,0.04601055756211282,-0.542857825756073,0.8355087041854858,-0.18537522601272888,9.710539168666694,1.7200263556387874,-0.10542416572570801,0.14859572052955627,0.051239047199487686,-1.6334384036064151,0.066386509090662,-9.699211050868037
35.2,9.600000381469727,50.0,22.250192642211914,21.040393829345703,-79.78188107935738,40.45937490573922,289.14465045166014,-0.0735621303319931,0.04372106492519379,-0.5432083010673523,0.8352256417274475,-0.15149126824538928,9.734259669771854,1.7005085408038139,0.02427350357174873,-0.047880902886390686,-0.13367581367492676,-1.3319663433730602,0.2762082879245281,-9.699138545393943
35.4,9.600000381469727,50.0,22.183834075927734,21.620872497558594,-79.78187014580989,40.459378608326006,289.13900088500975,-0.07478164881467819,0.043256647884845734,-0.542815625667572,0.8353967666625977,-0.14164170155377018,9.770808034656694,1.67328682786918,-0.0038702441379427906,-0.13822174072265625,-0.10762903839349748,-1.5636527618765832,0.2508042007125914,-9.44681072473526
35.6,9.600000381469727,52.0,22.24518585205078,20.85750389099121,-79.7818485652019,40.45938617018445,289.14602755737303,-0.06869971007108687,0.03546418622136116,-0.5414179563522339,0.8371912240982056,-0.11239366846700706,9.806260755862006,1.6814607022060517,-0.08382661640644072,0.23703162372112274,-0.2698459625244141,-1.5739935627579689,0.44853508874773984,-9.993707821369172
35.7,9.600000381469727,53.0,22.2526969909668,21.49364471435547,-79.78183791274445,40.45938992162146,289.1513166351318,-0.06657861173152924,0.030322937294840813,-0.5405371785163879,0.8381333351135254,-0.0747708901050319,9.806565928203225,1.5973120595041608,0.0126065481454134,0.2332363575696945,-0.058416415005922324,-1.870714321732521,0.21724787062034007,-10.08286265730858
35.9,9.699999809265137,52.0,22.32781982421875,19.49774932861328,-79.78181626620399,40.45939742631619,289.17022227478026,-0.06990541517734528,0.02882075682282448,-0.5406032204627991,0.8378727436065674,-0.04370096559391473,9.839923881944284,1.5229580744012776,-0.08327396214008331,0.02887225709855556,-0.1231408566236496,-1.5724003426730633,0.41543889798223976,-9.913976358175278
36.0,9.699999809265137,52.0,22.31780433654785,20.213409423828125,-79.78180560879935,40.45940117874945,289.1806688232422,-0.07128763198852539,0.030961915850639343,-0.5413250923156738,0.8372136950492859,-0.04774032195446089,9.82893575398463,1.5909552485961715,-0.004697700031101704,-0.01669502630829811,0.09947674721479416,-1.4678844326734544,0.29058781547471885,-9.883133465051651
36.1,9.699999809265137,53.0,22.220144271850586,20.99268341064453,-79.78178406704923,40.45940876668196,289.20253466796873,-0.07304780930280685,0.033907506614923484,-0.5418634414672852,0.8365992903709412,-0.08937323425516512,9.817724863564033,1.6630500084889464,0.02990043722093105,0.07744454592466354,-0.05418607592582703,-1.4542911180853844,0.232103690430522,-9.798688561320306
36.3,9.699999809265137,51.0,22.345348358154297,19.13991928100586,-79.7817624301333,40.45941643768048,289.23964595031737,-0.07333479076623918,0.0297204963862896,-0.5408954620361328,0.8373594880104065,-0.07404386039919036,9.839293524118643,1.651326802778061,0.03214820474386215,0.1419881284236908,-0.025725232437253,-1.3803608237206937,0.31342300157994035,-9.559522238373756
36.4,9.699999809265137,51.0,22.206371307373047,21.779909133911133,-79.7817517547389,40.45942021275248,289.24579333496087,-0.07348700612783432,0.02841608040034772,-0.5403965115547179,0.8377135396003723,-0.08172772700720927,9.847347073884107,1.6047981251804082,-0.13743676245212555,-0.02043028362095356,0.18199114501476288,-1.6012575213611129,0.04574115092866123,-9.515475747585297
36.6,9.699999809265137,51.0,22.375398635864254,19.14787101745605,-79.78174080014341,40.45942404643103,289.2759275360107,-0.07394944131374359,0.026872728019952767,-0.5404835939407349,0.8376675248146057,-0.06890065507200657,9.856097409845377,1.5991840354226063,-0.02945359982550144,-0.05154411867260933,0.07614199817180634,-1.598933106958866,0.09485528647899627,-9.585097959637645
36.8,9.699999809265137,55.0,22.362876892089844,18.57534408569336,-79.7817194625771,40.45943163573767,289.2855195922852,-0.07261274009943007,0.02460501529276371,-0.5416838526725769,0.8370786905288696,-0.09333874881122113,9.869616102793957,1.5242155358254952,0.04075402766466141,0.01285644806921482,-0.19376660883426666,-1.3608116814494131,0.4560796049237251,-9.475173813700676
36.9,9.699999809265137,54.0,22.256452560424805,20.66666030883789,-79.7817083867306,40.45943545962557,289.32623957824705,-0.07154667377471924,0.0257166288793087,-0.5422487258911133,0.8367711901664734,-0.1178773781165821,9.87747362216528,1.5099788629521695,0.012618397362530231,0.10239056497812273,-0.11995166540145875,-1.4960390684008602,0.6230951604992152,-9.373183754682538
37.0,9.699999809265137,54.0,22.20887565612793,21.891233444213867,-79.7816867992865,40.459443105855435,289.36684130859373,-0.07146024703979492,0.02848266437649727,-0.5431859493255615,0.8360809087753296,-0.15306996798266706,9.87330757293148,1.5005384789592242,0.013369101099669932,0.06279907375574112,-0.21943406760692605,-1.7264274050295354,0.4210410787537694,-9.518307554125787
37.21,9.699999809265137,54.0,22.489334106445312,17.430288314819336,-79.78166546630759,40.45945073336282,289.37560176086424,-0.07312478125095367,0.026609916239976883,-0.5427908897399902,0.8362552523612976,-0.15684052458421058,9.870303681904804,1.5613531607313027,-0.02564765140414238,0.15760698914527893,-0.22144301235675806,-1.3489516277611255,0.5973621491342783,-9.64915479183197
37.4,9.600000381469727,54.0,22.30152702331543,19.34666633605957,-79.78165450892368,40.45945459040153,289.4076623840332,-0.07520666718482971,0.02574410662055016,-0.5429561734199524,0.8359903693199158,-0.1663944320077869,9.870350431642423,1.5346314948613953,-0.026895850896835327,0.09488572925329207,0.1591663360595703,-1.7390265467762949,0.2758108782581985,-9.453898134827618
37.5,9.600000381469727,56.0,22.30778694152832,19.704496383666992,-79.78164383478857,40.45945841174729,289.4083776397705,-0.07508016377687454,0.02427440881729126,-0.543204665184021,0.8358842730522156,-0.16449175011654488,9.882718737469533,1.535164113122228,0.028132176026701927,-0.03791207820177078,-0.00027806288562715054,-1.3830803637206557,0.18219158353284,-9.367352911233905
37.6,9.600000381469727,56.0,22.30528259277344,20.75412940979004,-79.7816222433867,40.45946598611029,289.43979930114745,-0.07316374778747559,0.015926921740174294,-0.54367595911026,0.8359485268592834,-0.1872853387640256,9.884389787054511,1.4628089048895156,-0.09654422849416733,-0.10031291097402573,0.1966579407453537,-1.6508449798822404,0.02714816546067596,-9.554139291644095
37.8,9.600000381469727,56.0,22.240177154541016,20.110036849975586,-79.78160069057292,40.45947362828649,289.46326541137694,-0.07040727883577348,0.013488824479281902,-0.5432472229003906,0.836506724357605,-0.20519289821869052,9.887149767431547,1.3298614836330986,-0.01521230861544609,0.00997753534466028,-0.05585512891411781,-1.3261882710456852,0.4196540826559067,-9.64395661711693
37.9,9.600000381469727,59.0,22.34785270690918,18.81389617919922,-79.78159007868237,40.45947747553454,289.4613523406982,-0.06806563585996628,0.015850601717829704,-0.5431965589523315,0.8366919755935669,-0.2108750191074224,9.861346614638157,1.3072600893964037,0.05622579529881477,0.15531300008296967,0.03618069365620613,-1.5183402027189732,0.4974561839550734,-9.604317172765732
38.1,9.600000381469727,60.0,22.39417839050293,18.686668395996094,-79.78157912246779,40.45948126555018,289.487393371582,-0.06588617712259293,0.02059946395456791,-0.5437632799148561,0.8363948464393616,-0.22416006070168007,9.865803758849133,1.2853027859602797,0.13374042510986328,-0.053608763962984085,0.021524988114833832,-1.3926547408103944,0.14064858726225793,-9.496982173919678
38.3,9.5,60.0,22.34660148620605,19.27510070800781,-79.78155797550299,40.4594889784596,289.4749803466797,-0.06292847543954849,0.02129087597131729,-0.5459102988243103,0.8352057337760925,-0.2785131499549894,9.845993744847592,1.2373573817763401,0.008588799275457859,0.22416546940803528,-0.1946539431810379,-1.2587087711691858,0.5363539820909501,-9.581119514107703
38.4,9.5,60.0,22.336584091186523,20.451963424682614,-79.78154706831053,40.459492742504224,289.5007734222412,-0.06272845715284348,0.0211501494050026,-0.5468469858169556,0.8346114158630371,-0.30812807770928946,9.8428717882012,1.2259247775195323,-0.021689228713512417,-0.10600653290748596,0.13829675316810608,-1.3186596885323525,0.060045843254774814,-9.687577430605893
38.5,9.399999618530273,63.0,22.40043830871582,17.772214889526367,-79.78152583193662,40.4595002825484,289.4989995880127,-0.06259493529796599,0.02348162606358528,-0.547746479511261,0.8339690566062927,-0.3444230617960408,9.807396497482427,1.1900628222896623,-0.015252350829541685,-0.16617140173912048,0.2501043975353241,-1.4201590199768543,-0.005727420821785927,-9.342563640475273
38.7,9.300000190734863,61.0,22.25770568847656,20.8177433013916,-79.78150481935535,40.459507961345096,289.47332858276366,-0.06258522719144821,0.026688698679208755,-0.5491216182708739,0.8329684734344482,-0.3782501796218893,9.795234025355224,1.1674982917655576,0.05478805676102638,-0.02694781497120857,-0.09811309725046158,-1.5211627998948098,0.274218480437994,-9.443310581445692
38.8,9.199999809265137,62.0,22.29151153564453,20.579191207885746,-79.78149411949488,40.45951189719002,289.4835252685547,-0.05457468703389168,0.024191690608859062,-0.5504618287086487,0.8327233791351318,-0.4228055501849413,9.758730459376801,1.2169407254476172,0.052847180515527725,0.3094581961631775,-0.11776307970285416,-1.8068492782115937,0.2839238717034459,-9.746900941729546
39.0,9.100000381469727,62.0,22.322813034057614,20.086181640625,-79.78148371007913,40.459515733204604,289.47437571716307,-0.029242955148220062,0.010751847177743912,-0.5516760349273682,0.8334764242172241,-0.4480459128077952,9.692326191866734,1.0738496093489471,0.08004000037908554,0.6490645408630371,-0.009973119013011456,-1.790023330450058,0.19618970816954973,-9.903744900226592
39.2,8.800000190734863,67.0,22.352861404418945,18.32088661193848,-79.78146285301933,40.45952327232122,289.4521474761964,0.037552401423454285,-0.029656767845153805,-0.5514843463897705,0.8328118324279785,-0.4663010662918646,9.489625678871713,-0.21919320684574886,0.10390541702508926,0.7533008456230164,-0.05083273351192474,-1.1100236519426108,0.17688996791839606,-10.0280906188488
39.3,8.699999809265138,87.0,22.28775405883789,20.54738426208496,-79.78144273326994,40.45953057828275,289.4350843353272,0.08658098429441452,-0.058145508170127876,-0.5483157038688661,0.8297426700592041,-0.4379386571041327,8.904466616014695,-1.4939622228801883,-0.07279328256845474,0.33048978447914124,0.09369640797376633,-0.7405473042279482,0.08942156033590437,-10.156182063817976
39.4,8.399999618530272,87.0,22.34660148620605,19.27510070800781,-79.78143329305256,40.45953406678045,289.43005656433104,0.09552215784788133,-0.06562063843011856,-0.5479151606559753,0.8284675478935242,-0.4198914362657669,8.533996801081015,-1.8716660340518336,0.03671035170555115,0.1850695163011551,-0.09107616543769836,-0.5415646552294493,0.10691443786025047,-10.140546609163287
39.6,8.300000190734862,87.0,22.40043830871582,16.937278747558597,-79.7814239366675,40.459537480388185,289.4220743103027,0.096228688955307,-0.06773544102907181,-0.548039436340332,0.8281333446502686,-0.4287064788956099,8.214471987789143,-2.038941522826735,-0.04821862280368805,-0.062338151037693024,0.04336361959576607,-1.0669677525758745,0.05659372022375465,-9.907487118244171
39.8,7.900000095367432,113.0,22.392927169799805,18.551488876342773,-79.78140660955873,40.45954390656454,289.39769076538084,0.09272118657827376,-0.06513186544179916,-0.5469153523445129,0.8294843435287476,-0.4091879675252333,7.604626900913951,-1.98428882282044,0.0010919262422248721,0.008005175739526749,0.06626737862825394,-0.8366391306370498,0.12474281765520573,-9.55419542491436
39.9,7.599999904632567,111.0,22.218891143798828,21.000635147094727,-79.78139809149657,40.45954687210364,289.3825006408691,0.09449727088212967,-0.06765816360712051,-0.5456401705741882,0.8299214243888855,-0.35823839992094136,7.343604926289357,-1.99486548616638,-0.04389094933867455,0.0365729071199894,0.014654480852186682,-0.8108934015780688,-0.0033063629083335397,-9.351463687419892
40.0,7.099999904632568,110.0,22.2714786529541,21.8355712890625,-79.78138230224258,40.45955245315717,289.31892108154295,0.11169662326574326,-0.08617427945137024,-0.541833758354187,0.8285614848136902,-0.2930143140162649,6.681654543785652,-2.1697509925079204,0.01572186499834061,0.4273366928100586,-0.03048775903880596,-0.5703936211019754,0.3458447525650263,-9.600724643468856
40.2,6.9000000953674325,109.0,22.14627265930176,22.495569229125977,-79.7813681181251,40.45955767927353,289.2236032409668,0.1292790025472641,-0.10389707237482072,-0.5375573635101318,0.8267554044723511,-0.2740248317128034,5.861857648145556,-2.4091641000180504,-0.15769076347351074,0.14428268373012546,0.09865450859069824,-0.5225548455119133,0.1330008220486343,-10.113282212018966
40.3,6.4000000953674325,114.0,22.01981544494629,25.49338722229004,-79.78136124162863,40.45955983510795,289.1876039428712,0.12958818674087524,-0.11360163986682892,-0.5362547039985657,0.8262763619422913,-0.2404140059297105,5.492418106267043,-2.400270188515877,-0.1133611798286438,0.0031115429010242232,-0.08947718143463135,-0.3208767031878233,0.346489115729928,-10.449153295755387
40.5,6.099999904632568,114.0,22.03984832763672,23.091951370239247,-79.78135511242692,40.459562115850574,289.1393232269287,0.12751120328903198,-0.1202765479683876,-0.5364629626274109,0.8255192041397095,-0.27686392884112154,5.1083409289343535,-2.311853072714858,-0.112664096057415,0.013674812391400335,-0.05393636971712112,-0.02374408096075058,0.42272112999111416,-10.693580943346024
40.7,5.5,110.0,21.70179557800293,30.42348670959473,-79.78134368407105,40.45956602015927,289.0631685180664,0.1198306605219841,-0.11650282144546507,-0.5390946269035339,0.8254966735839844,-0.3271290891416966,4.44738994122842,-2.0064244581407347,-0.031105149537324905,-0.03566904366016388,0.014700528234243391,-0.18456940859556198,0.462550097219646,-10.658349130153656
40.81,5.199999809265137,108.0,21.610395431518555,31.52878379821777,-79.78133377980778,40.45956927735693,288.9961976928712,0.11624468117952348,-0.11356398463249208,-0.5427541136741638,0.824019730091095,-0.3662011189756891,3.847876795179333,-1.5178861704837536,0.05576466768980026,-0.015399109572172163,0.007848809473216534,-0.22331307778134946,0.3821882676333189,-11.504955790042878
40.9,4.599999904632568,99.0,21.610395431518555,30.956254959106445,-79.78132966087195,40.45957096392678,288.98022364807133,0.11507373303174973,-0.1119442954659462,-0.5447900891304016,0.8230615854263306,-0.4027126312152656,3.5462770173823275,-1.2379147873339684,-0.02714213728904724,0.031585592776536935,0.05276332795619965,0.046013548951596026,0.3577844380214811,-11.89978084087372
41.1,4.300000190734863,94.0,21.749372482299805,29.10349273681641,-79.78132561344546,40.459571895276106,288.95273875427245,0.11509613692760468,-0.11024485528469086,-0.5449046492576599,0.8232119679450989,-0.3844172912531692,3.258142401401344,-1.0076371495056038,0.03891570121049881,-0.017546040937304497,0.09036990255117416,-0.06039644778706134,0.21233578920364385,-11.77339678287506
41.3,3.799999952316284,84.0,21.619159698486328,30.26445198059082,-79.78131932584388,40.459574696813064,288.9830503387451,0.12160585075616835,-0.10916650295257567,-0.5448896884918213,0.8224292397499084,-0.4312699700485438,2.662757510852192,-0.5681595100477776,-0.003756152465939522,0.1337931603193283,-0.02647734992206097,0.09520409116521478,0.3734083078801632,-11.518807843923572
41.4,3.5,78.0,21.815731048583984,27.52108955383301,-79.78131661496668,40.459575147904786,288.9709367675781,0.1249692365527153,-0.11065368354320526,-0.542302668094635,0.8234357237815857,-0.3896491232339907,2.3564847593625746,-0.3970184348009467,0.048812318593263626,0.00815469678491354,0.059512387961149216,0.1543970266543329,0.12833171071484686,-11.565742274522787
41.5,3.2000000476837163,66.0,21.758136749267575,29.397708892822266,-79.78131259713331,40.45957653865932,289.01686190795897,0.12853138148784635,-0.12023138254880905,-0.5372188091278076,0.8248758316040039,-0.37743221700297147,1.730237824746222,-0.06463737541942807,-0.0954008474946022,0.2159365862607956,-0.07940074801445007,0.2729894870705903,0.3507027289643884,-11.262032046318055
41.71,3.0999999046325684,58.0,21.63919258117676,29.9066219329834,-79.78131013433496,40.45957813051742,289.1296033782959,0.14893943071365354,-0.10669942945241928,-0.5313885211944579,0.8270782828330994,-0.35608488189959003,1.1479137248628886,0.2414884101709159,0.33049607276916504,-0.2080185413360596,0.07581847161054611,0.6160951662808657,0.18987080493941905,-10.956920825242996
41.8,2.9000000953674316,41.0,21.76064109802246,28.817228317260746,-79.78130925157734,40.45957789413313,289.115624420166,0.14698262512683868,-0.0956014320254326,-0.5291855931282043,0.8301922678947449,-0.31433408751150205,0.8300479637059199,0.3518125855327044,-0.0044305319897830495,-0.2187074571847916,0.02520484104752541,0.3940334109216929,0.011788772474974394,-10.903947390317917
42.0,2.9000000953674316,32.0,22.37790298461914,18.495826721191406,-79.7813088935811,40.45957833481585,289.17995738220213,0.13998115062713626,-0.09820843487977984,-0.5292574763298035,0.8310518264770508,-0.30852343991204595,0.5270934190533713,0.5119004805705227,-0.19533810019493106,-0.045143257826566696,-0.019999569281935692,0.3516271006688476,0.04993614443577826,-10.744480955600741
42.2,2.9000000953674316,20.0,22.309040069580078,18.233417510986328,-79.78130828066992,40.45957780089857,289.1855001373292,0.04593769833445549,-0.06081445142626761,-0.5501958131790161,0.8315504193305969,-0.1952330273521235,0.25262423153363395,0.40715769069619095,-0.2382339388132096,-1.922285079956055,0.5646711587905884,1.3379533074796202,0.5305969597399235,-9.00450218975544
42.3,3.0,3.0,22.223899841308594,21.445934295654297,-79.78130944514719,40.459576859964706,289.1645345611572,-0.022997964173555367,-0.01813873276114464,-0.6228093504905701,0.7818251252174377,-0.08513410559227583,-0.10104437290948888,0.32459872108322063,0.3940679430961609,0.005004835780709982,1.2217761278152466,-0.21746814619749785,0.6520749114453793,-9.18705752491951
42.4,3.299999952316284,348.0,22.20011138916016,20.4837703704834,-79.78130959482199,40.4595769374655,289.19290827941893,-0.0012904751347377894,-0.014461123384535313,-0.6687684059143066,0.7433290481567383,-0.10373380732766203,-0.0793363022941269,0.254421619492652,0.29439088702201843,0.3607931733131409,1.2433043718338013,0.18356792673468592,0.22695720875635744,-9.113966744542124
42.6,3.4000000953674316,341.0,22.15503692626953,21.223283767700195,-79.78131054737987,40.45957624885582,289.2918481750488,0.026610469445586205,-0.03543361276388168,-0.7625810503959656,0.6453731656074524,-0.07376663690785948,-0.08257264485030923,0.12727882710601668,-0.10031983256340027,0.20652313530445104,1.527548909187317,0.4524820689484477,-0.1892676829174161,-8.96840966641903
42.8,3.700000047683716,315.0,22.17882537841797,20.133892059326172,-79.78131064272561,40.4595763214441,289.30083178710936,0.030279692262411118,-0.04677538946270944,-0.8084161281585693,0.5859681963920593,-0.06964512328926435,-0.09167383948443196,0.06964183195601073,-0.19995953142642967,0.24986329674720764,1.4280716180801392,0.8753263559192419,-0.02423930814955384,-9.176935994625092
42.9,3.799999952316284,331.0,22.218891143798828,20.913166046142575,-79.78131159366441,40.4595754743288,289.3787050170898,0.03138521686196327,-0.052757736295461655,-0.8508785963058472,0.5217636823654175,-0.012755768291854824,-0.14282135495116172,0.06192488120299186,-0.13670223951339722,0.04002951830625534,1.675870418548584,0.8428050926327706,-0.11513355826959015,-9.20511781990528
43.1,4.099999904632568,319.0,21.994773864746094,23.49749183654785,-79.781312659198,40.459574549884465,289.4878930969238,0.03311588987708092,-0.05494530871510506,-0.9226123690605164,0.3803564310073853,0.061244386970370136,-0.2248252532169237,0.047875204492277966,-0.07011958211660385,0.01252805907279253,1.5602705478668213,0.6422819946706295,-0.049299172516912224,-9.366687498092652
43.2,4.199999809265137,312.0,21.99352264404297,25.27868843078613,-79.78131293965838,40.459574649646136,289.48920916748045,0.03836260735988617,-0.05239804834127426,-0.950125813484192,0.30503103137016296,0.0792113721512252,-0.27152465429503564,0.045546329513223,-0.002462521195411682,-0.0031613332685083147,1.6322060823440552,0.7843684579432011,-0.3204823084920645,-9.690939579606056
43.3,4.300000190734863,332.0,21.89335823059082,26.55892562866211,-79.78131413750666,40.45957382341757,289.6061506195068,0.043938733637332916,-0.04394768178462982,-0.9869715571403505,0.14840921759605408,0.19521302120589146,-0.31265535493201746,0.18995547650624567,-0.06904657930135727,-0.0868505984544754,1.7359485626220703,0.4148627645149827,-0.8185871679335833,-10.12815635919571
43.5,4.400000095367432,350.0,22.081167221069336,23.15556526184082,-79.78131453346131,40.459574037781465,289.6236352844238,0.0422399640083313,-0.03989826515316963,-0.9959955811500548,0.06794670224189757,0.2283060658510085,-0.33586591088102224,0.25478785488255473,-0.13284508883953094,0.028061095625162125,1.6115493774414062,0.3725339664146304,-0.6350648494809866,-10.37455919623375
43.7,4.5,336.0,22.008546829223643,24.70616149902344,-79.78131574174365,40.45957389981906,289.71046923828123,-0.04034031927585602,0.03198491409420967,0.9949573874473572,0.08607836067676544,0.3475402327659529,-0.30278487266390114,0.3137215288444828,-0.10917110741138457,0.016322704032063484,1.476294755935669,0.15692991256713867,-0.858167701587081,-9.806438460946085
43.81,4.5,328.0,22.183834075927734,21.01653861999512,-79.7813161758366,40.459574217963954,289.7358808441162,-0.0409712940454483,0.028854103758931163,0.9878484606742859,0.14712026715278625,0.3956931655359087,-0.28136496338425737,0.3000832105584711,-0.04165007546544075,0.03458133712410927,1.0730899572372437,0.2078368318453432,-0.9248754420876504,-9.75657165169716
43.9,4.5,339.0,22.12874412536621,28.18903923034668,-79.781317009752,40.4595744122656,289.7964124603272,-0.03040766343474388,0.02077451534569264,0.9736979603767396,0.2248467952013016,0.42432312861746996,-0.2320291110013201,0.28873444104051965,-0.017351428046822548,0.0691903606057167,0.3975592851638794,0.020555569140706213,-0.6146388441324234,-9.638163195848463
44.1,4.5,339.0,21.82574844360352,25.859169006347656,-79.78131836231223,40.459574767511924,289.8538465423584,-0.11692708730697632,-0.05341097339987755,0.9592034220695496,0.2518019676208496,0.5931234854832517,0.007803477282563588,0.2431146845555764,0.5828017592430115,-1.1541908979415894,-0.09778633713722228,0.17130140019580722,-0.7963093493878842,-9.645057647824288
44.3,4.5,324.0,21.779422760009766,27.32229423522949,-79.78131907056914,40.45957498434925,289.874470703125,-0.13701608777046204,-0.09810346364974976,0.9537543058395386,0.24890804290771484,0.6014302362022691,0.1187179809118345,0.4012883246960552,-0.3074929416179657,-0.710150420665741,-0.19541586935520167,-0.5327951473742724,-1.226236843764782,-10.29585450410843
44.4,4.5,319.0,21.925912857055664,24.730016708374023,-79.7813201904318,40.45957476167188,289.904629699707,-0.1145523637533188,-0.11873020976781845,0.9565914273262024,0.2402368634939193,0.6522477000762154,0.27299444299878195,0.6247457239108258,-0.7422311305999756,-0.14343249797821045,-0.03562512248754501,-1.0153546723723412,-1.3998399455845356,-11.058386389017103
44.6,4.599999904632568,341.0,22.114971160888672,20.65870857238769,-79.7813227933704,40.45957441154417,289.9798173828125,-0.04885347932577133,-0.11291370540857315,0.9682410955429076,0.2176534682512284,0.8040277796735339,0.6800469534869084,0.7606575746239015,-0.44146090745925903,0.19973936676979065,-0.15450435876846313,-0.26937634633854035,-0.5617478549480438,-10.423675807714464
44.7,4.699999809265137,325.0,22.08617401123047,21.859426498413086,-79.78132419648188,40.45957398370955,290.02668475341795,-0.034596022218465805,-0.10889864712953568,0.9712724685668944,0.2087441831827164,0.8234424032236058,0.9048485411599616,0.7335618325746681,-0.2398965060710907,0.03873860836029053,-0.06172940880060196,0.036341861402615916,-0.6168553774058819,-10.124532254934312
44.8,4.800000190734863,318.0,22.002286911010746,24.06206703186035,-79.7813274544277,40.45957262713645,290.101313583374,-0.032540153712034225,-0.11158257722854614,0.973048210144043,0.1991674453020096,0.7905033921877468,1.2708531149615838,0.6981408731891783,0.07432939112186432,-0.15925845503807068,-0.05756772309541702,-0.4059555912762881,-0.8727671027183533,-9.760042558908463
45.0,4.900000095367432,314.0,22.0035400390625,24.12568283081055,-79.78132899003377,40.45957166136522,290.1388845367432,-0.03508966043591498,-0.11654192954301835,0.9727810025215148,0.1971900761127472,0.7322222258194628,1.4700332774862792,0.7400428938776116,-0.04592549055814743,-0.07883800566196443,0.12310706079006195,-0.07658732397481799,-0.7946430391073227,-9.857575285434724
45.1,5.099999904632568,303.0,22.114971160888672,21.477741241455078,-79.78133232533555,40.459569295014475,290.2085447235107,-0.04310472682118417,-0.11822633445262908,0.9718420505523682,0.1992177665233612,0.6499003985900615,1.8138100790113865,0.8091418125558171,0.10913106799125673,-0.0872482880949974,-0.013162422925233841,-0.5325291721522808,-0.8533117351680994,-9.829308675527573
45.3,5.199999809265137,302.0,22.054872512817386,22.83749389648437,-79.78133397598614,40.459567813361396,290.23972796630864,-0.04929908365011215,-0.12045089155435562,0.9706605076789856,0.20218661427497864,0.5958932621851214,2.0171642470092426,0.8490843314263331,0.037662819027900696,-0.10489770025014876,-0.0034001341555267572,-0.7164393802732231,-0.7283160254359246,-9.71681584775448
45.5,5.400000095367432,297.0,21.91714859008789,26.09772109985352,-79.78133750521758,40.45956428271235,290.32201289367674,-0.058331403881311424,-0.129154771566391,0.9676036834716796,0.20894888043403625,0.5171190461962348,2.391971368973319,0.9967414334669455,0.07440396398305893,0.030027734115719795,-0.15637698769569394,-0.3932646847888828,-0.6050609587132931,-9.929710046052934
45.6,5.5,295.0,22.04610824584961,22.55918312072754,-79.78133933621551,40.45956206057628,290.3717088623047,-0.060352306813001626,-0.13264767825603485,0.9663172364234924,0.21211595833301544,0.4592181219072981,2.5725698504054137,1.1081355161141218,0.056951917707920074,-0.09886132180690764,0.22296655178070068,-0.7140818560123444,-0.9446996958553792,-10.016165807247162
45.7,5.599999904632568,302.0,22.20011138916016,18.718475341796875,-79.78134331752966,40.45955748188011,290.4432325286865,-0.058471374213695526,-0.13935355842113495,0.9647692441940308,0.2153649628162384,0.384170141521956,3.0111681346500485,1.2984431799443237,-0.140923872590065,-0.19502663612365725,0.08492553979158401,-0.6097935488820077,-0.7423356751352549,-9.98028261423111
45.9,5.699999809265138,303.0,22.099946975708008,23.03628921508789,-79.78134527913326,40.4595546523453,290.4843873901367,-0.06179256364703178,-0.14233237504959104,0.9637787342071532,0.2169189304113388,0.34602261113283506,3.2159730572258085,1.3186832545682945,0.11511067301034927,-0.10189910233020782,0.0041614207439124576,-0.2337670588307083,-0.6993375901132822,-9.548435332775117
46.1,6.0,298.0,22.10871124267578,22.360387802124023,-79.78134959757556,40.459548744318106,290.5604925079345,-0.0689205601811409,-0.14655359089374542,0.9619554877281188,0.22003145515918726,0.26217702993479725,3.625007119200664,1.4284600227242874,0.01945586316287517,-0.10689068585634233,-0.03052438609302044,-0.6047568669542671,-0.8101141870021821,-9.70475070297718
46.2,6.099999904632568,297.0,22.123735427856445,21.501596450805664,-79.78135196529801,40.45954561944893,290.58072184753416,-0.06758539378643036,-0.14756028354167938,0.9614537358283995,0.2219572216272354,0.2359649162591605,3.8516078081089584,1.478961581948543,-0.0066598262637853605,-0.13768243789672852,0.042564667761325836,-0.6460625850409271,-0.8056471335142851,-9.645634768009186
46.3,6.300000190734862,298.0,21.981002807617188,23.322553634643555,-79.7813568235231,40.45953833066399,290.63503550720213,-0.06992600858211517,-0.147415891289711,0.9601619839668274,0.2268655598163605,0.15458049576320348,4.276907144700032,1.6123016704552828,0.03585921972990036,-0.05133309960365296,-0.007530293427407741,-0.8145674264431,-0.7231494256854057,-9.853113859891893
46.51,6.4000000953674325,297.0,22.170061111450195,20.475818634033203,-79.7813621395876,40.459530408818466,290.6749105377197,-0.07213263213634491,-0.1403983235359192,0.960239827632904,0.23027101159095764,0.08052296345245058,4.714793792518837,1.6633814054164928,-0.08416681736707687,0.029976960271596912,0.01726466603577137,-0.7183946891874076,-0.5974789472669363,-9.639153714179994
46.6,6.699999809265138,294.0,22.133752822875977,22.479665756225586,-79.78136500121899,40.4595263696735,290.6839532775879,-0.06890394538640976,-0.14191554486751554,0.9599325656890868,0.2316071540117264,0.056830252074009935,4.938800242184192,1.6452674441352555,-0.06130794808268548,-0.041989367455244064,-0.09698780626058576,-0.8297678482532501,-0.7450447632372379,-9.506852858662604
46.8,6.800000190734862,292.0,22.10245132446289,21.49364471435547,-79.78136796997941,40.45952215938094,290.68942736816405,-0.06380725651979446,-0.1467067301273346,0.9593760371208192,0.2323865294456482,0.04245229649784205,5.133509809149301,1.6996991851369587,-0.09018495678901672,-0.01060651056468487,0.07707411050796509,-1.2584631881117818,-0.6423370315879584,-9.52347123026848
47.0,7.099999904632568,290.0,22.008546829223643,23.95869445800781,-79.78137401849705,40.45951280064457,290.71381854248045,-0.06755636632442474,-0.1455368548631668,0.9582676291465759,0.2365975379943848,-0.003070181866434245,5.5114495153426715,1.81321118242214,0.08936308324337006,-0.06283831596374513,0.044359546154737466,-0.8457788403332234,-0.6223826772719622,-9.545862557888034
