time,wind_speed,wind_angle,battery_voltage,battery_current,position_x,position_y,position_z,orientation_x,orientation_y,orientation_z,orientation_w,velocity_x,velocity_y,velocity_z,angular_x,angular_y,angular_z,linear_acceleration_x,linear_acceleration_y,linear_acceleration_z
0.0,1.5,151.0,25.14743804931641,-0.039758868515491486,-79.78277517934893,40.45895292767815,269.03552672111994,0.012940751388669014,0.0060126655735075465,0.9560695886611938,0.2927923798561096,-0.014561764670832863,-0.00833582215612702,0.019960304687786843,-0.007845403626561165,-0.0033757693599909553,-0.005577945616096258,0.1588109070248902,0.1876170687563717,-9.806695153713227
0.2,1.399999976158142,150.0,25.138673782348643,-0.04771064221858978,-79.78277513259492,40.45895292690612,269.0394466950893,0.012938355095684528,0.006023427937179804,0.9560787677764891,0.2927623689174652,-0.019582206628674454,-0.013408740085102205,0.02042599310321718,0.0006188502302393317,0.00038042644155211747,-0.001754758064635098,0.16231046559289095,0.16544917786493898,-9.809338095188142
0.3,1.399999976158142,149.0,25.132413864135746,-0.05566241592168808,-79.78277519457626,40.458952952838814,269.0457401856184,0.0129046393558383,0.0060159312561154366,0.956085741519928,0.29274123907089233,-0.013682479981501634,-0.012828009347384359,0.020899870376497813,-0.0050546862185001365,-0.0017106791492551565,-0.008249207399785519,0.1589984016492963,0.1811096476390958,-9.806262459754944
0.5,1.399999976158142,149.0,25.14743804931641,-0.04771064221858978,-79.78277523589448,40.45895296801835,269.0520136489868,0.01290607638657093,0.006006557960063219,0.9561052918434144,0.29267749190330505,-0.010655057384691177,-0.01081612805572221,0.017961966066063283,-0.002442019758746028,-0.0007978007197380066,-0.003826470347121358,0.16270800316706302,0.16545095030218362,-9.809633964300156
0.6,1.399999976158142,150.0,25.134918212890625,-0.04771064221858978,-79.782775217361,40.45895297105093,269.05376873755455,0.01289410050958395,0.006002393551170826,0.9561116695404052,0.2926574647426605,-0.0135476238030633,-0.013166697851406627,0.018115948189859496,-0.0027141235768795013,-0.0009813954820856454,0.0042893607169389725,0.16154051519930362,0.17065367488190533,-9.80777981221676
0.8,1.399999976158142,150.0,25.1436824798584,-0.03180709481239319,-79.78277529628679,40.45895298473172,269.05983212435245,0.012837192043662071,0.0059877908788621426,0.9561319351196288,0.29259392619133,-0.007484766723199852,-0.008142924330484632,0.015932592387315158,-0.006684601306915283,-0.002574099460616708,-0.007447897922247648,0.16313607417047024,0.1730608456581831,-9.808470368385317
0.91,1.399999976158142,150.0,25.13366508483887,-0.05566241592168808,-79.78277528144103,40.45895298773653,269.0613954051733,0.012857315130531788,0.005989843979477882,0.9561360478401184,0.2925795316696167,-0.009306184581522074,-0.010710631128457871,0.01612428592045103,0.0033805365674197674,0.0027746341656893487,0.004179853480309248,0.1642611150071025,0.1647988761216402,-9.810542621612552
1.1,1.399999976158142,148.0,25.13616943359375,-0.09542128443717957,-79.78277530015879,40.45895300015981,269.06659227454657,0.012817658483982086,0.006009033881127834,0.9561575055122375,0.2925106883049011,-0.014459582777325675,-0.013046750858567931,0.014681647523288691,-0.0032026206608861685,-0.002041461179032922,0.0009328227024525404,0.16099102310836316,0.1857652555592358,-9.807544169425963
1.21,1.399999976158142,148.0,25.14743804931641,-0.04771064221858978,-79.78277527496947,40.458953003128684,269.06801141643524,0.012820730917155744,0.006025546696037054,0.9561644792556764,0.2924875319004059,-0.01647185700107091,-0.01568546037716493,0.014861861541164388,0.006454512011259793,0.002087982604280114,0.002741673029959202,0.1634314133785665,0.17226863930001854,-9.808643445968633
1.4,1.399999976158142,149.0,25.15495109558105,-0.05566241592168808,-79.78277532035438,40.45895300402696,269.07342281782627,0.012794466689229013,0.006019686348736286,0.9561817646026612,0.2924322187900543,-0.016538620249925383,-0.012517987693903972,0.01432107138108117,0.0034937625750899315,0.003146185074001551,0.001382813323289156,0.16066092951223254,0.18418491762131453,-9.807495052814485
1.5,1.399999976158142,148.0,25.148691177368164,-0.039758868515491486,-79.78277539963344,40.45895301969535,269.0786784871817,0.012750931084156036,0.006018434651196003,0.9561879634857178,0.2924140393733978,-0.010229151918163636,-0.007993805006309293,0.016861535656332062,-0.006452175788581371,-0.0014007450081408026,-0.008189438842236996,0.1592960249260068,0.18775201153010126,-9.807167024016383
1.6,1.399999976158142,149.0,25.15495109558105,-0.039758868515491486,-79.78277538362187,40.45895302091917,269.0803337081671,0.01274029165506363,0.0060088359750807285,0.9561917781829834,0.2924019992351532,-0.012202412694830552,-0.010289131985665464,0.01700658986916513,0.00029362703207880264,0.00035565905272960663,0.002541174879297614,0.16301755841821433,0.1671064066886902,-9.809494800567627
1.8,1.399999976158142,147.0,25.132413864135746,-0.02385532110929489,-79.78277546659109,40.45895303776712,269.0853239133358,0.012685238383710384,0.005997743923217058,0.9562060236930848,0.29235801100730896,-0.005903493826649429,-0.006336327039266296,0.0150773406218479,-0.0021302637178450823,-0.0023803042713552713,-0.002591846045106649,0.16126083556562662,0.1731059788540006,-9.809128180146217
2.0,1.2999999523162842,147.0,25.15119552612305,-0.04771064221858978,-79.78277549231676,40.45895303770846,269.090151829958,0.012697378173470495,0.006021664012223482,0.9562206268310548,0.2923092544078827,-0.012878650487461138,-0.006187835797522636,0.01388599709474868,-0.005226424895226954,-0.00163954496383667,-0.006728281732648611,0.1620422063022852,0.17757813038304449,-9.80786576628685
2.1,1.2999999523162842,147.0,25.138673782348643,-0.05566241592168808,-79.7827754753358,40.45895303640298,269.0915041699409,0.012670820578932762,0.006017657928168775,0.9562286138534546,0.29228436946868896,-0.014147963621143875,-0.008707245625021148,0.013936127901694146,0.009380950592458248,0.0015951370587572455,0.003068085527047515,0.16277484415099025,0.1715354532748461,-9.808705426454543
2.3,1.2000000476837158,147.0,25.14743804931641,-0.02385532110929489,-79.78277552588379,40.45895305133922,269.09589294934267,0.01263497956097126,0.006009936798363924,0.956242561340332,0.2922403812408447,-0.011425831156331513,-0.008698351274643839,0.013339223456704607,0.00745011307299137,0.0030506369657814503,0.003292367560788989,0.16056445045396686,0.1858115581981838,-9.80619053900242
2.4,1.2000000476837158,146.0,25.13616943359375,-0.039758868515491486,-79.78277550607278,40.45895305204262,269.0972036554813,0.01264481246471405,0.006019968539476396,0.9562492966651917,0.2922179400920868,-0.015071772800754257,-0.01088823054160108,0.01375536879479815,-0.005451262462884189,-0.00522507866844535,-0.01031771581619978,0.15972022214904427,0.191644247174263,-9.806306313872335
2.6,1.2000000476837158,146.0,25.13742256164551,-0.05566241592168808,-79.78277556397268,40.45895308943872,269.1013715400696,0.0125795966014266,0.006028925534337759,0.9562602639198304,0.29218435287475586,-0.008707552534572862,-0.012583348939579565,0.01303501137112472,7.77930035837926e-05,-0.0015801832778379321,-0.0045782122761011115,0.16270740017294885,0.1658740511722863,-9.810159044265749
2.7,1.100000023841858,147.0,25.138673782348643,-0.04771064221858978,-79.7827755449935,40.45895309480301,269.1026369764805,0.012608816847205162,0.006021731998771429,0.9562737345695496,0.2921392619609833,-0.010881437573242515,-0.014839722064229543,0.013226457510641543,0.003446212969720364,-0.0010079625062644482,0.002713260008022189,0.16219704788178207,0.16713242679834367,-9.80910537600517
2.9,1.0,148.0,25.144933700561523,-0.07156596332788467,-79.78277558530543,40.45895313219421,269.1063321664333,0.012582896277308464,0.006012937054038048,0.9562904238700868,0.2920859754085541,-0.00953712850256196,-0.017026326346982194,0.012742229463057805,-0.0035705494228750467,-0.00014015614578966049,-0.0013213716447353365,0.15978667940944433,0.1826882679574192,-9.807444766759874
3.0,1.0,149.0,25.127405166625977,-0.07951773703098297,-79.78277565041478,40.45895312611484,269.1103264226913,0.012559482827782631,0.006008378230035305,0.9562986493110656,0.29206013679504395,-0.00919503137177797,-0.009000062785310674,0.015929388155724183,0.0022310246713459487,-0.0012500873999670148,-0.0012463335879147053,0.16011955043300988,0.18105821041390305,-9.808155788183214
3.21,0.8999999761581421,147.0,25.1436824798584,0.007951773703098297,-79.78277561323452,40.45895313071567,269.1134854986668,0.012559386901557446,0.006006995681673288,0.9563184380531312,0.2919955551624298,-0.013565636349290415,-0.013451665224809464,0.016457553859095184,0.003649095306172968,0.0018483124440535907,0.0022939362097531557,0.16035607030615212,0.17308275444433094,-9.808447564244268
3.3,0.8999999761581421,149.0,25.138673782348643,0.03180709481239319,-79.7827757011678,40.458953127903975,269.1148930027485,0.012511555105447773,0.005964885000139475,0.9563242793083192,0.29197898507118225,-0.010047718494242002,-0.005180102134241067,0.014406971724512652,-0.005924978759139775,-0.0006539963651448487,-0.0038549620658159256,0.16158484440296889,0.1754169812053442,-9.80787219822407
3.5,0.8000000119209291,156.0,25.12990951538086,0.07951773703098297,-79.78277575112234,40.45895314775701,269.1176395847797,0.012493858113884926,0.005966342519968747,0.956343114376068,0.2919182181358337,-0.008474741239503761,-0.0059073285385520926,0.013669124972886365,-0.004262927919626236,-0.003425337839871645,-0.002215616637840867,0.16074341179803014,0.1787054735608399,-9.807420793175698
3.6,0.8000000119209291,157.0,25.12364959716797,0.03180709481239319,-79.78277573840373,40.45895314841736,269.11898262643814,0.012478804215788841,0.005958396941423415,0.9563488364219666,0.29190030694007874,-0.009865854774226416,-0.008164077841975809,0.013876860290072115,0.003933571279048921,0.0031739666592329736,-0.00015784593415446582,0.16092098442837596,0.17956422854214907,-9.80868496119976
3.8,0.699999988079071,164.0,25.12615394592285,0.12722837924957275,-79.78277578082825,40.45895318527043,269.1211505367756,0.01245502382516861,0.005941486451774836,0.9563664197921752,0.29184409976005554,-0.006715077601512657,-0.011869302269291835,0.012838790174398354,0.002360247541218996,0.0015255248872563245,0.003541407641023397,0.16139691123738886,0.1741745392419398,-9.808441717028616
3.9,0.699999988079071,168.0,25.108625411987305,0.015903547406196594,-79.78277576388804,40.45895319065677,269.1224238409996,0.012457315810024738,0.005938111338764429,0.9563765525817872,0.2918107807636261,-0.009902840565739902,-0.013687206321765115,0.013389419301487772,-0.0058635459281504146,-0.001408986048772931,-0.004688127432018518,0.16102530241012575,0.17691348468884827,-9.809838032126429
4.1,0.6000000238418579,177.0,25.12615394592285,-0.007951773703098297,-79.78277583045147,40.45895319326839,269.1263964011669,0.012423365376889706,0.005918888375163078,0.9563965797424316,0.2917470932006836,-0.009173643181562493,-0.007528444304128569,0.016195253513598278,-0.0036160910967737436,-0.002955995965749025,-0.0032884613610804077,0.16034706193953754,0.17645036693662405,-9.807984464764596
4.2,0.6000000238418579,180.0,25.12490081787109,0.0,-79.78277581481937,40.45895319492335,269.1279799773693,0.012414141558110714,0.005914000328630209,0.9564074277877808,0.2917119264602661,-0.010177436256063193,-0.00980128008702157,0.016235962475424838,0.0053439303301274785,0.003941577859222889,0.004058648366481066,0.15974379373714329,0.17600166622549296,-9.80830489218235
4.4,0.5,183.0,25.131162643432607,0.007951773703098297,-79.78277591772559,40.45895321821895,269.13194180870056,0.01235849503427744,0.005896583199501039,0.9564201831817628,0.29167282581329346,-0.003446218164334607,-0.005837541554552897,0.018066346723937227,0.005388283636420965,0.002015626523643732,0.002203634707257152,0.15983122788369655,0.17783144272863866,-9.808444640636443
4.5,0.5,190.0,25.12114524841309,0.02385532110929489,-79.7827759703916,40.458953228837046,269.13240228438383,0.012368790805339813,0.005898068659007549,0.9564291834831238,0.2916427552700043,-0.006508541414112711,-0.003564585187610733,0.0161632708141112,-0.0007874576258473097,-0.0009307216969318688,-0.004315896425396204,0.16003575252369048,0.17725101521238684,-9.808361610174181
4.7,0.5,204.0,25.118640899658203,0.02385532110929489,-79.78277594757802,40.458953229297535,269.1356191470623,0.012359858490526676,0.005900573916733265,0.9564384818077089,0.29161256551742554,-0.010372310426782012,-0.007396021196384619,0.01667420249481315,-0.004310185555368662,-0.00323653407394886,-0.0016377135179936886,0.16053042696788908,0.17704285433515907,-9.808825879096986
4.81,0.5,211.0,25.131162643432607,0.039758868515491486,-79.78277602344588,40.45895324127271,269.1354579463005,0.012331273406744005,0.0058768843300640574,0.956443190574646,0.2915988564491272,-0.006795555471245872,-0.002306214596034237,0.014314568851691769,0.0010169601300731301,0.0007718022679910064,0.0023241511080414057,0.1612361858971417,0.17947226280346515,-9.808130060434342
5.0,0.5,222.0,25.12114524841309,-0.039758868515491486,-79.78277609190033,40.45895328860525,269.1385487451553,0.012317558750510216,0.005883579608052969,0.9564458727836608,0.2915904521942139,-0.00031637489506721334,-0.0053388238166236215,0.016905811821793664,0.00042924616718664765,-0.0009637381881475448,0.003396795131266117,0.16114761885255574,0.17191893925890328,-9.808891952633859
5.1,0.5,225.0,25.118640899658203,0.03180709481239319,-79.78277608684178,40.45895329235943,269.14024288797384,0.012336820363998413,0.0058772782795131215,0.9564523100852966,0.2915686070919037,-0.0022546573828482693,-0.007079668062130329,0.017190096757610174,-0.0001999651722144336,-0.0015195455634966493,0.002771712141111493,0.16172040844336152,0.16930861428380015,-9.809764357209207
5.3,0.5,232.0,25.12490081787109,0.007951773703098297,-79.7827761512563,40.45895331221644,269.14144195461273,0.012316331267356873,0.005869797430932522,0.9564600586891174,0.2915442585945129,-0.00279376809023144,-0.0026317182444006645,0.014707788153045222,0.0031903772614896297,0.001961455214768648,0.006278586108237505,0.1605249634757638,0.1869717371463776,-9.807348287701608
5.41,0.5,237.0,25.13366508483887,0.03180709481239319,-79.78277614451716,40.45895331287144,269.14290894413,0.012300818227231504,0.00586653221398592,0.9564641714096068,0.2915315628051758,-0.0054723804279250285,-0.004348164240122159,0.014990062613501132,-0.004318255931138992,-4.1654726373963065e-05,-0.00504449475556612,0.16087979810312392,0.18923185044899585,-9.80627649307251
5.6,0.5,244.0,25.138673782348643,0.039758868515491486,-79.78277617813266,40.458953365844884,269.1440151765346,0.012299972586333752,0.0058971685357391826,0.9564772844314576,0.2914878726005554,-0.005279039556777434,-0.009360633737977254,0.013683239454028457,-0.008484757505357265,-0.003183708293363452,-0.008155664429068565,0.164616077542305,0.16664747335016727,-9.809683665633203
5.7,0.5,247.0,25.12114524841309,0.02385532110929489,-79.78277616531321,40.45895337087696,269.1453625395298,0.012318361550569534,0.005906157195568086,0.9564869403839112,0.2914552986621857,-0.005948394550223276,-0.01152323536376918,0.013803517311974607,0.008588915690779686,0.0062146559357643145,0.004378331359475851,0.16388254433870314,0.16923817360773682,-9.808459258675576
5.9,0.5,257.0,25.12490081787109,0.007951773703098297,-79.78277624556995,40.45895339179857,269.14805291438097,0.012294738553464413,0.005893535446375608,0.9564980268478394,0.2914202809333801,-0.003277358285962902,-0.004501576309865865,0.0161759331898118,0.006257746834307909,0.005147834308445454,0.003821085672825575,0.15876412929967046,0.18394870838150384,-9.807153575420381
6.01,0.5,257.0,25.134918212890625,0.04771064221858978,-79.78277629018838,40.45895342099548,269.14853469872475,0.012312172912061214,0.0058901715092360965,0.9565057158470154,0.29139435291290283,-0.006128231790628964,-0.0013006581444698743,0.017797605573430627,-0.005399749614298344,-0.0005544522427953781,-0.0009418578702025118,0.16047641331329945,0.17593195645138626,-9.808211921453477
6.21,0.5,261.0,25.144933700561523,-0.039758868515491486,-79.78277627136521,40.458953418355534,269.15205918097496,0.012294032610952854,0.005898569244891405,0.9565181136131288,0.29135411977767944,-0.009449319463605943,-0.005007226086146068,0.018050999445377632,-0.001335636479780078,0.00035726738860830665,-0.00016409192176070064,0.16119684509932994,0.17954538954421878,-9.806809174418447
6.3,0.6000000238418579,263.0,25.11989402770996,-0.12722837924957275,-79.78277634406481,40.45895346352911,269.14986552143097,0.012259652838110924,0.0059023359790444365,0.9565256237983704,0.29133090376853943,-0.00375481029710374,-0.0031564811794584,0.014888515124091563,-0.003305105725303293,0.000165175020811148,-0.002651103539392352,0.15989909213036302,0.18569527169689531,-9.807471079230305
6.5,0.6000000238418579,264.0,25.14743804931641,-0.03180709481239319,-79.78277640561994,40.458953512256066,269.14943919920916,0.012247237376868723,0.0059171095490455645,0.9565404653549194,0.2912825644016266,-0.0007043734846295037,-0.002465985232151241,0.013602399162977213,-0.0078001366928219795,-0.0012679487699642775,-0.007794780191034078,0.16365442983806133,0.1669198439642787,-9.810346155166627
6.61,0.6000000238418579,268.0,25.132413864135746,-0.04771064221858978,-79.78277640249493,40.45895351410192,269.1507983937264,0.012227566912770271,0.0059141945093870146,0.9565523266792296,0.29124417901039124,-0.0014241241499311453,-0.004520889656024246,0.013750058229347082,0.008835378102958202,0.006971105001866818,0.002493082312867045,0.16274800177663565,0.16899896766990424,-9.809591279625893
6.8,0.6000000238418579,269.0,25.13366508483887,-0.03180709481239319,-79.7827764354186,40.458953548692456,269.15140597367287,0.012238681316375729,0.005911347456276417,0.9565626382827759,0.2912100851535797,-0.00527323096285763,-0.0034677879799944336,0.016130176839932654,0.006376887205988169,0.0016049175756052134,0.0024211967829614878,0.16006570123136046,0.1816819438710809,-9.808058724403383
6.9,0.6000000238418579,268.0,25.1436824798584,-0.015903547406196594,-79.78277642543605,40.45895354860825,269.15301908397674,0.012255625799298286,0.0059164445847272856,0.956570327281952,0.2911838889122009,-0.007931327283637178,-0.005192081566592122,0.016522981677190886,-0.0014903771225363016,-0.0014974480727687474,-0.002175919944420457,0.16044871212914588,0.17241332134231924,-9.80914630651474
7.1,0.6000000238418579,269.0,25.144933700561523,-0.04771064221858978,-79.78277643474891,40.4589536055969,269.1513173713684,0.012271953746676443,0.005924909375607967,0.9565904140472412,0.2911171913146973,-0.0106971867493905,-0.00944881000926805,0.013895299829023908,0.003365378594025969,0.001047165016643703,0.00261567160487175,0.1595486063696444,0.1851900174468756,-9.808141754865646
7.2,0.6000000238418579,268.0,25.148691177368164,-0.04771064221858978,-79.78277641584951,40.45895360753885,269.1526722445488,0.012269985862076284,0.005938727408647536,0.9565985798835754,0.2910901606082916,-0.013140113018900378,-0.011486918431300848,0.01416953639067046,-0.004408444743603468,-0.0006662556552328169,-0.004566869232803583,0.1584725907817483,0.18882232608273627,-9.806158964037897
7.4,0.6000000238418579,269.0,25.13366508483887,-0.04771064221858978,-79.78277650128808,40.45895364429799,269.15053655052185,0.012236032634973526,0.0059174862690269964,0.9566113352775574,0.29105010628700256,-0.006932610425746917,-0.003906461576433671,0.0124057581424554,-0.004177639726549387,-0.002103192266076803,-0.004799444228410721,0.1636533152125776,0.16700267342850567,-9.809106545448305
7.51,0.6000000238418579,268.0,25.14618682861328,-0.039758868515491486,-79.78277653521667,40.45895367991098,269.1486131086349,0.012249573133885859,0.005899609532207251,0.9566192626953124,0.2910236716270447,-0.008565215420177238,-0.0003130189196555713,0.014351394774503982,0.00694337347522378,0.0015768302837386727,0.006077298428863287,0.16357585787773132,0.16493091356009246,-9.81011694431305
7.7,0.6000000238418579,273.0,25.13742256164551,-0.039758868515491486,-79.78277651123761,40.45895367213321,269.15151096725464,0.012237434275448322,0.005907271523028612,0.956635594367981,0.2909703254699707,-0.012039157161891122,-0.004014169233125472,0.014910801498239987,0.004031688906252384,0.006269819103181362,0.003999402280896902,0.15903988033533098,0.188473685849458,-9.807807878851893
7.8,0.6000000238418579,276.0,25.14117813110352,-0.02385532110929489,-79.78277656657292,40.45895376280432,269.14792261862755,0.012198438867926598,0.005927895661443472,0.9566363096237184,0.29096928238868713,-0.002365408795050809,-0.009115359228889649,0.013007497773013221,-0.010010216385126114,-0.001238316181115806,-0.006229115650057793,0.1590585000626743,0.1882453520782292,-9.806633173227313
8.0,0.699999988079071,282.0,25.14743804931641,-0.039758868515491486,-79.7827766090649,40.45895382457864,269.1468016638756,0.012189759872853756,0.005929470993578434,0.9566550850868224,0.2909078299999237,-0.00035480793392878663,-0.006863809435500435,0.0155335184829421,-0.005271554458886385,-0.005147201474756002,-0.006616885308176279,0.16362747782841325,0.16636998642235995,-9.809517604708672
8.1,0.8999999761581421,285.0,25.13366508483887,-0.04771064221858978,-79.78277660374809,40.45895383001349,269.14834125185007,0.0122010949999094,0.005928672850131989,0.9566625356674194,0.29088294506073,-0.0007960287111544107,-0.008869351960745892,0.015571406455098816,0.005736522376537323,0.0027586643118411303,0.006394040770828724,0.1643802520260215,0.16616875084117055,-9.810072505474091
8.3,1.100000023841858,282.0,25.14618682861328,-0.04771064221858978,-79.78277663068455,40.458953879405385,269.1452344491482,0.012212717905640602,0.005918064154684544,0.9566674828529358,0.2908664643764496,-0.004377384414605739,-0.005857997909119664,0.01323560345555902,0.0059411218389868745,0.001616848632693291,0.004096813499927521,0.1602427805028856,0.18972871759906407,-9.807092764377595
8.41,1.100000023841858,283.0,25.148691177368164,-0.06361418962478638,-79.78277662031023,40.45895388155178,269.1465473308563,0.012206648476421831,0.005926915444433689,0.9566709399223328,0.2908550500869751,-0.007084356991978432,-0.007531354369416758,0.013561212093272242,-0.003443731227889657,-0.002061358653008938,-0.007781977765262127,0.16009835427626967,0.19059384969994428,-9.806299297213554
8.6,1.2000000476837158,288.0,25.148691177368164,-0.04771064221858978,-79.7827766521303,40.45895394230091,269.1436272099018,0.012179129756987095,0.005932201165705918,0.956678867340088,0.2908298969268799,-0.0056767862728915475,-0.00770729766003895,0.012628608084873693,-0.0074443044140934935,-0.002255418105050921,-0.008569703437387943,0.1643883833102882,0.16711934365332126,-9.810152027606962
8.71,1.2000000476837158,288.0,25.138673782348643,-0.04771064221858978,-79.78277664013198,40.458953945789496,269.14486704611784,0.012177815660834312,0.005936944391578436,0.9566879272460938,0.2908001244068146,-0.0063653940290935036,-0.0096840252398597,0.012690330033965002,0.0044366526417434216,0.0007161235553212464,0.0024891886860132213,0.16469872428104282,0.1669670785032213,-9.809358560442924
8.91,1.2000000476837158,295.0,25.132413864135746,-0.05566241592168808,-79.78277667406654,40.45895400926628,269.1410489215851,0.012151353992521765,0.0059288484044373035,0.9567014575004578,0.29075682163238525,-0.004007165119607875,-0.008666282290597977,0.011533557224689172,0.00717328442260623,0.0015396424569189544,0.004558361601084471,0.15973224548622966,0.1894136440381408,-9.805748489499091
9.01,1.2999999523162842,295.0,25.14618682861328,-0.04771064221858978,-79.78277671706095,40.4589540655515,269.13599444770813,0.0121357049793005,0.00592740997672081,0.9567096829414368,0.2907304465770721,-0.0009170801870906863,-0.005357780549664813,0.010669426625661813,-0.007225853856652975,-0.0006389761110767722,-0.0060690860264003285,0.15923428198322653,0.18940723037347199,-9.80697289645672
9.2,1.2999999523162842,294.0,25.138673782348643,-0.04771064221858978,-79.78277670414101,40.45895407433578,269.13811530017847,0.012131036259233952,0.005903123412281275,0.9567177295684814,0.2907048165798187,-0.003960705602747647,-0.008949376076164948,0.011092288696836502,-0.00664722453802824,-0.0012651695869863033,-0.008275593630969523,0.16370087865740066,0.1674306165240705,-9.809479597806929
9.3,1.399999976158142,298.0,25.127405166625977,-0.04771064221858978,-79.78277672885933,40.4589541334177,269.13271038079256,0.012102763168513777,0.005894418340176344,0.9567219018936156,0.2906922399997711,-0.002437323142127938,-0.008198646956145788,0.010230910667158208,0.006317087449133396,0.002874422818422317,0.005321357399225235,0.16342468908056618,0.16721505526453256,-9.810015202760695
9.5,1.2999999523162842,298.0,25.15495109558105,0.02385532110929489,-79.7827767514224,40.45895418360765,269.12872402215004,0.012088206596672537,0.005896275397390127,0.9567373991012572,0.29064202308654785,-0.0030000808917915733,-0.005269037882856316,0.009972895441226207,0.0055862870067358026,0.004688314627856014,0.003719224128872156,0.15878508791327478,0.18719011237844824,-9.806903314590457
9.6,1.2000000476837158,296.0,25.144933700561523,-0.05566241592168808,-79.78277674394438,40.45895418580645,269.12972201251984,0.012087900191545486,0.005896764807403089,0.956743061542511,0.290623277425766,-0.005725178872683302,-0.0067449916525626295,0.01037764150256309,-0.007252917159348726,-0.00491521041840315,-0.009446881711483002,0.15904702490195632,0.18510353347286584,-9.807561711072925
9.8,0.8999999761581421,298.0,25.144933700561523,-0.02385532110929489,-79.78277675275969,40.45895424111891,269.1256787612438,0.01207663770765066,0.005897257477045059,0.95676451921463,0.29055294394493103,-0.006286968163281793,-0.007779266156861731,0.010199693566964818,-0.005405287723988296,-0.00372582720592618,-0.005738775245845318,0.16270230213180184,0.17054754791781307,-9.808883181810383
9.91,0.8000000119209291,305.0,25.144933700561523,-0.07156596332788467,-79.78277674036995,40.45895424452364,269.12668068552017,0.012095188722014429,0.00589881232008338,0.9567722082138062,0.2905268967151642,-0.006569135299639334,-0.009766800051103895,0.010371630809166995,0.00689406506717205,0.0025220082607120275,0.005501748993992806,0.16230408847332,0.17371818233281375,-9.809648582339287
10.1,0.8000000119209291,313.0,25.13992691040039,-0.05566241592168808,-79.78277679793817,40.45895428056644,269.12230919146543,0.01206167321652174,0.005906189326196909,0.9567813277244568,0.29049819707870483,-0.0017377657411236742,-0.002323177511023892,0.00970660942530182,0.005390793550759554,0.001838147174566984,0.002129219938069582,0.15950630541890862,0.1795701671205461,-9.807501484751702
10.21,0.8000000119209291,312.0,25.132413864135746,-0.04771064221858978,-79.78277679257744,40.45895428143748,269.123284800291,0.012077934108674526,0.005912815686315298,0.9567912817001344,0.2904646694660187,-0.00431553073326154,-0.003899902047505096,0.010048134705352142,-0.004172309767454864,-0.0063891056925058365,-0.0017023305408656595,0.16089032309129836,0.17563440626487134,-9.808141754865646
10.4,0.699999988079071,312.0,25.12990951538086,-0.06361418962478638,-79.78277680418715,40.45895433997143,269.1215156450272,0.012060514651238918,0.005930410698056221,0.9568139910697936,0.2903901934623718,-0.0047840050787173035,-0.006414110998774687,0.014595424791531237,-0.004902381915599108,-0.003835173323750496,-0.0019599338993430138,0.16030651515349748,0.1775007461383939,-9.808959195613859
10.5,0.699999988079071,311.0,25.14117813110352,-0.04771064221858978,-79.78277682881553,40.458954400612186,269.11751936221117,0.012061216868460178,0.0059411427937448025,0.9568244814872742,0.2903552055358887,-0.00023486727394085,-0.007624732293206787,0.015673607468084622,-0.00015704434190411118,0.0033599596936255693,0.0009013104718178512,0.1619286972284317,0.1818989121168852,-9.80869373202324
10.7,0.6000000238418579,309.0,25.148691177368164,-0.03180709481239319,-79.7827768129568,40.45895441252322,269.12066535496706,0.012078200466930866,0.005957629065960646,0.9568491578102112,0.2902728617191315,-0.0031673230673783343,-0.01104396229133487,0.016134445179493327,-0.00017764253425411885,0.0027036063838750124,-0.004895728547126055,0.1613387131690979,0.17064806520938874,-9.808928790092473
10.8,0.6000000238418579,304.0,25.14242935180664,0.0,-79.78277682786297,40.45895443159568,269.1166480615139,0.012093472294509407,0.005936251953244209,0.9568600058555604,0.29023706912994385,-0.00722517351220279,-0.0035724348408737103,0.017291720361122705,-0.00317100016400218,0.0033118708524852987,-0.0008473321213386952,0.1620233673043549,0.16919209023937584,-9.809873700141909
11.0,0.5,290.0,25.131162643432607,-0.07156596332788467,-79.78277685343616,40.458954493865534,269.1126504375934,0.012093966826796532,0.005979282315820456,0.9568783044815063,0.2901759445667267,-0.0001478270623054115,-0.006460101163423583,0.014042746466560237,0.0042773792520165435,0.0009446971234865489,0.0009792782366275787,0.1606719661317766,0.18580419436097145,-9.806786954998973
11.11,0.5,287.0,25.132413864135746,-0.039758868515491486,-79.78277684806841,40.45895449881628,269.11405180239683,0.012057493440806866,0.005982073489576578,0.9568841457366944,0.2901579141616821,-0.0021573117469612466,-0.008195065273638915,0.014323289685137294,-0.003697238164022565,-0.00036490845377556985,-0.004138513468205929,0.16056920131668448,0.1883508577756584,-9.806264798641203
11.3,0.4000000059604645,288.0,25.131162643432607,-0.09542128443717957,-79.78277688218425,40.458954540168136,269.11026076817507,0.012048711068928242,0.005976633634418249,0.9569000601768494,0.290105938911438,-0.0005366335173059366,-0.006299414743105968,0.012523956077854424,-0.00784994289278984,-0.0005810740985907612,-0.004038570448756218,0.16407937623560429,0.1669877995736897,-9.80955970466137
11.41,0.4000000059604645,287.0,25.13366508483887,-0.10337305814027786,-79.78277687626486,40.45895454535452,269.1115041508674,0.01205524057149887,0.00599284702911973,0.9569087624549866,0.2900766730308533,-0.0008671638915005987,-0.008439293812627289,0.012629687053704696,0.0064863720908761024,0.006090603768825531,0.005958445835858584,0.16290960419923067,0.16897238111123444,-9.809314121603967
11.6,0.4000000059604645,271.0,25.13366508483887,-0.05566241592168808,-79.78277688281811,40.458954596912214,269.1097274258137,0.01203236635774374,0.006013310048729181,0.9569225311279296,0.2900318503379822,-0.0007972077546600945,-0.012267268515591937,0.014869145855568084,0.0069068684242665785,0.002735386369749904,0.0010728775523602962,0.15853296328335995,0.18434103827923531,-9.808235895037653
11.7,0.4000000059604645,263.0,25.138673782348643,-0.06361418962478638,-79.78277687166236,40.45895460571281,269.1112069919109,0.01203725300729275,0.006011722143739462,0.9569301009178162,0.29000669717788696,-0.0032403843897032074,-0.013955084059884151,0.015267518447201691,-0.0028563300147652626,-0.00011900704703293741,-0.004044727422297001,0.16188802253454926,0.17475856645032764,-9.808460428118707
11.9,0.4000000059604645,251.0,25.13366508483887,-0.07156596332788467,-79.782776920917,40.45895462855097,269.10816989684105,0.012042365036904812,0.005988422315567732,0.9569472074508668,0.2899504601955414,-0.0005437284732937559,-0.0071882520708412626,0.013346309420406316,0.004271623678505421,0.00010815428686328232,0.003933046944439411,0.16119309922680258,0.18185330383479595,-9.808156957626345
12.0,0.4000000059604645,248.0,25.13742256164551,-0.06361418962478638,-79.78277693491245,40.458954657206895,269.1054179503917,0.012031501159071922,0.006012162193655968,0.956953763961792,0.2899288535118103,-0.0016860771897330307,-0.006333981358423078,0.01571018338044263,-0.003597742645069957,0.00011859114601975308,-0.0027601246256381273,0.15989786786958576,0.18895310271531346,-9.806760057806967
12.2,0.4000000059604645,228.0,25.12615394592285,-0.05566241592168808,-79.78277691874699,40.45895466693369,269.10852949166303,0.012018682435154915,0.0060053179040551186,0.9569665789604188,0.2898870408535004,-0.00448931808875239,-0.0101880734288106,0.016034663290158613,-0.006169444881379604,-0.004991176538169384,-0.004208734259009361,0.16397933403030038,0.16901018701493742,-9.808989601135254
12.3,0.5,218.0,25.14117813110352,-0.06361418962478638,-79.78277694031677,40.45895469273977,269.1032705142498,0.012018688023090364,0.005989639554172754,0.95696759223938,0.2898841202259064,-0.002608503867322724,-0.00844290811472866,0.012977082957083476,0.0045137107372283936,0.0034477263689041138,0.0037373281084001056,0.1629484150931239,0.17036569951102135,-9.808838742971421
12.5,0.5,196.0,25.04977798461914,0.8905986547470093,-79.78277696129095,40.45895470025614,269.1016729011536,0.012025528587400913,0.005971726030111313,0.9569751024246216,0.28985944390296936,-0.004448347053530429,-0.0031574910269395354,0.014901698928403338,0.005912334658205509,0.005147966090589762,0.005722386762499809,0.16008426614105706,0.18195162842050194,-9.807481604218484
12.6,0.6000000238418579,183.0,25.07356834411621,0.2703603208065033,-79.78277695320085,40.45895470021602,269.1031592919826,0.012011686339974405,0.0059774513356387615,0.9570005536079408,0.2897759974002838,-0.007738864752340956,-0.005435938891904393,0.015260073531198,-0.0057931416667997854,-0.005594357848167418,-0.00962623581290245,0.16474535582587124,0.1959813828393817,-9.810350832939148
12.8,0.6000000238418579,165.0,25.08733940124512,0.2624085247516632,-79.78277695494924,40.45895468993261,269.0999183192253,0.012043614871799946,0.005943982396274805,0.9569934010505676,0.2897987961769104,-0.011343220696209308,-0.0013386082975329243,0.013395088178978436,-0.002051141345873475,-0.0016524221282452345,-0.0033297089394181967,0.15713352357968688,0.17158153664320708,-9.806838995218277
12.9,0.699999988079071,157.0,25.08358383178711,0.2465049922466278,-79.78277694203211,40.45895468544885,269.1012385919094,0.012047309428453444,0.005944918841123581,0.9570070505142212,0.28975367546081543,-0.011133069088833436,-0.0028060700206434448,0.013493837457071773,0.009392732754349709,0.007505107671022416,0.002622128464281559,0.16402276787906886,0.17210499035194518,-9.809326400756836
13.1,0.699999988079071,145.0,25.08107948303223,0.2544567584991455,-79.782776976233,40.45895470352238,269.09808023118967,0.012023278512060642,0.0059146620333194715,0.9570107460021972,0.2897428274154663,-0.0057538601270983826,-0.003033857311546993,0.011852984034782995,0.00988033227622509,0.0001645715383347124,0.0037313830107450494,0.1671572226472199,0.18349242456257345,-9.811611492633821
13.2,0.8000000119209291,145.0,25.092348098754893,0.2942156493663788,-79.78277696604174,40.45895470277453,269.0992630257606,0.012028285302221777,0.005919042509049177,0.9570216536521912,0.2897067070007324,-0.008624317780175758,-0.004643581476806745,0.01226449446356268,-0.00849343091249466,-0.0029475193005055193,-0.0058742123655974865,0.15828750813379885,0.1869183630309999,-9.805608741045
13.41,0.8000000119209291,136.0,25.06605529785156,0.3578298389911652,-79.78277698074342,40.458954722624505,269.0960357620716,0.012033163569867613,0.0059152133762836465,0.957034170627594,0.2896653115749359,-0.007692672167706377,-0.007123021684534162,0.011402336612652395,-0.00930915679782629,-0.0032030462753027678,0.0003730733587872237,0.1635963962227106,0.1743503577075899,-9.810604602098463
13.5,0.8999999761581421,135.0,25.059795379638672,0.40554046630859375,-79.78277701145599,40.45895473255754,269.09232310795784,0.012037749402225021,0.005920086521655321,0.9570450186729432,0.2896290719509125,-0.0036838097583054576,-0.005956415880322116,0.010745492663878805,0.006945425644516945,0.004795632790774107,0.004795381333678961,0.15510322412475944,0.16800523336976764,-9.810925029516223
13.7,1.0,124.0,24.26474189758301,3.315889835357666,-79.78277699298769,40.458954736257475,269.09458876991266,0.011885281652212143,0.005819049198180437,0.9570223093032836,0.2897123098373413,-0.007313290679242241,-0.008128976817736966,0.011438222284022224,0.005314038600772618,-0.0021960495505481963,0.008180336095392704,0.14994411611929534,0.1764841894246638,-9.810825626850127
13.8,1.100000023841858,123.0,24.907045364379893,0.5407206416130066,-79.78277702968359,40.45895474662141,269.0913095905781,0.011869415640830994,0.005803993903100491,0.9570214748382568,0.28971603512763977,-0.011007909105136257,-0.004452424790957142,0.011112008043891905,-0.051489051431417465,-0.017332568764686584,-0.02309118770062924,0.12295794594101607,0.2490725843422115,-9.802429609894752
14.0,1.100000023841858,124.0,24.56022644042969,23.25893783569336,-79.78277707018863,40.458954747864425,269.08922408366203,0.011872240342199802,0.0057938219979405394,0.9570529460906982,0.28961214423179626,-0.001471624807047027,-0.0026922884673644164,0.0103493342993397,-0.0058674882166087645,-0.0002730769920162857,-0.01081128790974617,0.12643740470521153,0.22925379406660795,-9.798743525147438
14.11,1.100000023841858,124.0,24.53894233703613,2.2901108264923096,-79.78277706724525,40.4589547502548,269.0903199448585,0.011831894516944884,0.005846463143825531,0.9570476412773132,0.2896302938461304,-0.0016261508136398988,-0.003954321675716407,0.011072158354878727,-0.0014826570404693484,0.0036168084479868408,-0.006144452374428511,0.14632310905493798,0.2055681121721864,-9.80588531434536
14.2,1.100000023841858,127.0,24.94836235046387,0.4771064221858978,-79.7827770610416,40.45895475327761,269.09137819552416,0.011784360744059086,0.0058301636017858965,0.957060933113098,0.2895887792110443,-9.275869535114904e-05,-0.0072653681122898375,0.010057014208348218,0.03157960996031761,0.009520409628748894,0.02337340265512466,0.1742574417963624,0.09361889272928238,-9.806565930247308
14.4,1.2000000476837158,128.0,25.062299728393555,0.198794350028038,-79.78277711079518,40.4589547524899,269.0926817193032,0.01183415111154318,0.0059083919040858746,0.9570770263671876,0.28953194618225103,-0.002024407129709193,-0.004516446828507816,0.0139722517305322,0.005956657230854034,-0.004714680835604668,-0.005098185036331415,0.1801477075740695,0.17033969767391682,-9.799261588454248
14.6,1.2000000476837158,127.0,24.61907386779785,3.4510698318481445,-79.78277714848966,40.458954754312636,269.09264831089973,0.011839530430734158,0.00582120381295681,0.9570943117141724,0.2894764840602875,0.00019340354741312381,-0.004114474991077807,0.016902144165371627,0.009739008732140064,0.018837423995137208,0.0134455980733037,0.1559196781553328,0.17827933944761756,-9.81259148597717
14.7,1.2000000476837158,127.0,24.44128227233887,4.500703811645508,-79.78277714214967,40.45895475709618,269.09430636310583,0.01186935044825077,0.005878409836441279,0.957111120223999,0.2894182503223419,-0.0036125673569529842,-0.006983535623813735,0.01654530743971125,0.003805231070145965,0.01935399509966373,0.003964824602007866,0.19015499789267776,0.16508160727098584,-9.814590064287186
14.9,1.2000000476837158,127.0,24.12075614929199,6.782863140106201,-79.78277716603806,40.45895475928445,269.0953811838627,0.01154564879834652,0.0059187407605350035,0.9571084976196288,0.2894392013549805,-0.004023224059376404,-0.007097144621819533,0.020697613783825484,-0.01101179700344801,-0.009709848091006279,-0.003516435855999589,0.17317287465557454,0.1893514808267355,-9.803037135601043
15.0,1.2000000476837158,127.0,24.001811981201172,7.848401069641112,-79.78277722753276,40.45895475454921,269.09433697009086,0.01104282308369875,0.006103570107370615,0.9571447372436525,0.28933531045913696,0.0028822122368969533,-0.0067987411513653105,0.020321235563971925,0.013978863134980202,0.019636329263448715,0.005972815211862326,0.14805533755570652,0.20778122847899802,-9.83428114771843
15.2,1.100000023841858,133.0,23.64873313903809,10.583810806274414,-79.78277722233894,40.45895476545662,269.0986406340599,0.009818218648433684,0.00645593274384737,0.9571332931518556,0.2894093990325928,0.002228101599394769,-0.009304573267974571,0.023180734044776708,0.0025707376189529896,-0.01602150872349739,-0.034494027495384216,0.10114091539755464,0.2564398933388293,-9.792314511537553
15.3,1.100000023841858,138.0,23.494731903076172,11.959467887878418,-79.7827772555827,40.45895477373896,269.0954719617367,0.00891039613634348,0.0068109226413071156,0.9571841955184937,0.28926241397857666,0.010704637804703414,-0.006495111545326636,0.021596514019270187,-0.009364156052470207,-0.004292255733162165,0.052723858505487435,0.2429392388463021,0.19105641927570105,-9.8741919028759
15.5,1.0,145.0,23.152921676635746,15.044755935668945,-79.7827772487431,40.45895478509001,269.09750823521614,0.008044971153140068,0.00760699063539505,0.9571797847747804,0.2892824709415436,-0.0020716165798326915,-0.016313158992875436,0.0230452134285205,-0.07828712463378906,0.1384444534778595,0.031490329653024667,0.15240893678739667,-0.014645580430515113,-9.874665527343753
15.6,1.100000023841858,148.0,22.97513008117676,16.66691780090332,-79.7827772782972,40.45895479093475,269.10072542572016,0.007030291482806207,0.009995506145060062,0.957240104675293,0.28903648257255554,-0.007863411103372206,-0.01481150611897343,0.026885387129823468,-0.06128410995006561,-0.06281390041112901,0.07446204125881195,0.19520134599879385,-0.05750161008909345,-9.876296900510786
15.8,1.100000023841858,154.0,22.65585708618164,19.680641174316406,-79.78277730878875,40.45895480062838,269.1027906074524,0.0062004709616303435,0.011963007971644402,0.9572418332099916,0.28897523880004883,-0.0028119120387503013,-0.022657170842816363,0.025255376115381662,-0.08051078021526338,0.0017486107535660267,-0.048925161361694336,0.1184986765589565,0.025259380044881256,-9.829450178146363
15.9,1.100000023841858,158.0,22.45427703857422,21.64472770690918,-79.78277729407056,40.45895482131826,269.1056301727295,0.0066171702928841105,0.010682437568902971,0.9563273191452026,0.2920278906822205,0.015067483308551947,-0.03577545323865814,0.03754790705837052,0.08140017837285995,0.016701243817806244,0.1512584686279297,0.17057239858433604,0.06349003599956632,-9.969700323343275
16.1,1.2000000476837158,163.0,22.107460021972656,24.88905143737793,-79.78277739585207,40.45895484982993,269.11902685308456,0.01224080566316843,0.0025210592430084944,0.9539420604705808,0.2997305691242218,-0.005731466929069081,-0.01918905428588544,0.1598157461976596,-0.013321124017238615,-0.18460753560066226,0.06500421464443208,0.1259131926856935,0.03267982561374083,-10.163829052448273
16.2,1.2999999523162842,164.0,22.446765899658203,21.088104248046875,-79.78277735034155,40.458954852848585,269.1408013238907,0.01336359791457653,-0.004135314375162125,0.9533257484436036,0.30161961913108826,-0.012076414510568498,-0.030407823178412174,0.27355246466187083,0.11826269328594208,-0.049248810857534416,0.12491492927074432,0.12124338699504733,0.015300153382122518,-10.807077738046651
16.3,1.2999999523162842,166.0,22.59575843811035,19.839675903320312,-79.78277709989277,40.45895499690882,269.1539141073227,0.007833766750991344,-0.0033899168483912945,0.9530663490295408,0.30264124274253845,-0.00275637720635527,-0.03567608015534211,0.28822170602617503,0.1684928685426712,0.025202639400959008,0.05575858429074288,-0.06400724963285029,0.15672726999968292,-10.487555469274524
16.5,1.399999976158142,167.0,22.59951591491699,19.935096740722656,-79.78277696004469,40.458954921454186,269.1987702980041,0.002002777997404337,0.0032406388781964783,0.953131377696991,0.302532821893692,-0.03614240893947702,-0.010806447563204,0.2438793623826032,0.01426943112164736,-0.045555129647254944,-0.04544542729854584,0.184873938895762,0.13915581137873234,-9.671703994274141
16.7,1.399999976158142,170.0,22.54442596435547,19.6965446472168,-79.78277689555182,40.458954900887896,269.2386591567993,0.0011224618647247553,0.003276822157204151,0.95358008146286,0.30111992359161377,-0.02149332321577657,-0.00047427973970701453,0.14151352551176904,-0.017062952741980553,0.01917232945561409,0.04042155295610428,0.186133447419852,0.15144893361255524,-9.431460614204408
16.8,1.399999976158142,169.0,22.56696128845215,19.79196548461914,-79.78277715402221,40.45895497912474,269.2438715531826,0.0019350918009877203,0.0032590103801339865,0.9538147449493408,0.3003717064857483,0.014218749710630871,-0.012252634443486732,0.07802398417025601,-0.06500591337680818,-0.006901440210640431,-0.025863697752356533,0.04725883229635657,0.02785384673159569,-9.2066334182024
17.0,1.399999976158142,166.0,22.350357055664066,21.565210342407227,-79.78277704247915,40.45895510864364,269.2676668896675,0.003463395871222019,0.004269476048648357,0.9539886116981506,0.2997925877571106,0.01878093768549195,-0.020198061645264644,0.029386294769109263,0.021468635648489,0.11494677513837814,-0.037365496158599854,0.0990890177898109,0.1911418434418738,-9.220335198640825
17.11,1.5,164.0,22.273983001708984,22.16159439086914,-79.78277705428701,40.45895512895336,269.2698949410916,0.004539303947240114,0.005576871335506439,0.9541667699813844,0.2991889715194702,0.035132490881811765,-0.017079190589738297,0.020803580204566,0.07811207324266434,0.08184292912483215,0.09832242131233217,0.17687966220080853,-0.014479779889807106,-9.71735086798668
17.3,1.5,160.0,22.11997985839844,23.688335418701172,-79.78277722720495,40.458955182342244,269.3000277414322,0.005107144825160503,0.004725395701825619,0.9541311264038086,0.2993083298206329,0.05730295245972796,0.020312273490010687,0.08421749798004728,0.03654416278004646,0.014021442271769049,0.08648903667926787,0.2574925931543112,-0.08122363608330489,-9.840761032104492
17.4,1.5,153.0,22.322813034057614,21.54930686950684,-79.78277730164207,40.458955194010656,269.309769494772,0.004737793933600186,0.0044811894185841075,0.9539510011672974,0.29989176988601685,0.06408776127105177,0.027999238031634337,0.1061681692538779,0.04405354708433151,0.03775394707918167,0.043160341680049896,0.2887314341403544,0.1161251272726804,-9.998263971805573
17.6,1.5,146.0,22.14877700805664,23.012434005737305,-79.78277761158171,40.458955149454155,269.3315402104854,0.005075691267848015,0.006238666363060474,0.9535821676254272,0.30102571845054626,0.07014536704981945,0.0475524787039277,0.14500000619401748,-0.13151007890701294,0.09518174827098846,-0.06302529573440553,0.21081569585949184,0.18257189009338612,-9.947071598768234
17.7,1.5,144.0,22.10871124267578,23.473636627197266,-79.78277772447117,40.45895516057762,269.34725691223144,0.008504266850650309,0.007554920855909586,0.953438401222229,0.30137336254119873,0.07426935262404318,0.053196354459601206,0.16938079928291774,-0.18210943043231964,0.02226429060101509,-0.062361359596252434,0.1479456748533994,0.2374438793957233,-10.043896812200547
17.9,1.399999976158142,140.0,22.24142837524414,21.74810218811035,-79.78277824595678,40.45895509391458,269.36673982286453,0.010373280383646488,0.006368645466864109,0.9537109732627868,0.3004786074161529,0.11973730933563435,0.0774098687157723,0.1817139019061106,0.09873902797698976,-0.08440258353948593,0.11067550629377364,0.23279512368142605,0.006984736640006304,-10.011471662521364
18.0,1.399999976158142,134.0,22.197607040405273,22.2331600189209,-79.78277817168973,40.45895489031812,269.3546534910202,0.01085987500846386,0.005390576086938381,0.9540687203407288,0.2993426322937012,0.07499342778494686,0.059130502924234815,0.16288678065583792,0.032515496015548706,-0.017124488949775696,0.08296184241771698,0.19750651940703395,-0.012354307863861323,-9.872636543512343
18.2,1.399999976158142,133.0,22.09243392944336,23.0203857421875,-79.78277836915768,40.45895487210127,269.3902394309044,0.013395338319242,0.0047210687771439535,0.9549302458763124,0.2964904010295868,0.06269264348192377,0.05307179729727718,0.19771399964970046,0.04144278913736344,0.08589009195566177,-0.06219149008393288,0.119233982199803,0.2183692021295429,-9.893690028190612
18.3,1.5,133.0,22.379154205322266,14.567649841308596,-79.78277868742812,40.45895478586322,269.39616001987457,0.01397957932204008,0.005019827280193567,0.9553369283676147,0.2951454222202301,0.06825026485487624,0.06739236189025792,0.20159367176179072,-0.041093334555625916,0.10074079781770706,-0.11438139528036118,0.10380275982432068,0.4002227983251214,-9.929788398742676
18.5,1.5,134.0,21.972238540649414,23.99845314025879,-79.78277897743287,40.45895468265336,269.4223957195282,0.011741247959434986,0.0008376120822504162,0.9562997221946716,0.2921513020992279,0.06378088308555561,0.06383079268469358,0.007226978665375702,0.10024584084749223,0.08140415698289871,-0.03682847693562508,0.08035311358049513,0.21188019974157216,-9.096516898870467
18.6,1.5,130.0,21.76815414428711,26.43964767456055,-79.78277907733917,40.45895465873052,269.42104996585846,0.009248136542737484,0.0018364558927714825,0.9565449953079224,0.2914322912693024,0.058070456073355,0.05748928532998807,-0.020927957513140943,0.07078726589679718,0.055185213685035706,0.05218341574072838,-0.10989847300574183,0.033793306779116385,-9.483276885151863
18.8,1.5,130.0,21.490198135375977,29.10349273681641,-79.78277936573646,40.458954689334384,269.4491866960525,0.0104440925642848,0.008895824663341045,0.9568805098533628,0.2901577055454254,0.05739701878984345,0.06885388084271496,0.21813766378079835,-0.049242038279771805,0.11167453974485396,-0.006911203730851412,0.05037848173175007,-0.07752966673113408,-10.340792695283891
18.9,1.5,130.0,21.15715217590332,32.578418731689446,-79.78277946740238,40.458954668147314,269.47894669914245,0.011744732968509196,0.006177228409796953,0.9571480751037598,0.289294958114624,0.07269411321854488,0.077605115023237,0.3815034109657319,0.012747730128467085,-0.12102459371089935,-0.016792004927992817,0.2536366467922926,0.15282152180559935,-11.427097774744036
19.1,1.7000000476837158,135.0,21.077022552490234,33.492870330810554,-79.78277964708472,40.45895471364718,269.574956966877,0.012070387601852415,0.004921386484056711,0.9571700096130372,0.28923317790031433,0.07984663941560012,0.06519831288236555,0.7654775559801786,-0.010575140826404095,0.038137037307024,0.025863977149128917,0.07930492708459498,0.2360607570782304,-11.656475858688355
19.2,1.7000000476837158,136.0,21.083282470703125,33.142993927001946,-79.78277974157442,40.458954709563976,269.6631854310036,0.010401295498013495,0.0050547835417091855,0.9570851325988772,0.2895762324333191,0.08433314018455279,0.06642089422223503,0.9939988457866824,-0.0104780038818717,-0.020593315362930298,-0.07053881883621216,0.1448745161946863,0.2661690571904183,-12.007720441818238
19.4,1.7999999523162842,140.0,20.63755226135254,38.34345245361328,-79.78277984990143,40.45895466919093,269.8939179315567,0.00930300634354353,0.003159954212605953,0.9567152261734008,0.2908599078655243,0.0787277967463845,0.05678268327736127,1.4367588216188596,-0.048091113567352295,-0.04455830156803131,0.02445195056498051,0.12393052976578475,0.2807506974041462,-12.028316674232485
19.51,1.8999999761581416,142.0,20.606250762939453,38.00947952270508,-79.78277992336844,40.458954665897046,270.03912068748474,0.010825798846781256,0.002401978941634297,0.9563923478126526,0.2918747365474701,0.08257975015705431,0.042213119665426214,1.6919385972690508,0.012785852886736393,0.02163909375667572,0.05761577934026716,0.07630962691269816,0.07148106018081307,-12.522138594388965
19.7,2.0999999046325684,149.0,20.588722229003906,38.24803161621094,-79.78278004705703,40.458954667603294,270.4316501750946,0.014448770321905613,-0.0042248419485986215,0.9558613300323486,0.29343241453170776,0.09448979463047774,0.04822061381577525,2.219089460539064,0.03948628529906273,-0.06935936957597733,-0.02816947549581528,0.055219930610619486,0.20270767254754896,-12.475874254703527
19.81,2.200000047683716,149.0,20.618770599365234,37.86634826660156,-79.78278011933713,40.45895468137182,270.62775422477716,0.0138844670727849,-0.008214947767555714,0.9559547305107116,0.29307061433792114,0.09598346797905892,0.029586858644566682,2.433440552173956,0.0110092768445611,0.006713471375405788,-0.08570800721645355,-0.13507524057291448,0.33123862713575364,-12.357604962587356
20.0,2.4000000953674316,151.0,20.894222259521484,34.073352813720696,-79.78278027130122,40.45895462172904,271.1126530303955,0.009214975871145724,-0.0041703651659190655,0.9560800194740297,0.292931467294693,0.09758478694996307,0.02735877877110119,2.8510320629209884,0.08642516285181047,0.03708402439951897,-0.011688463389873505,-0.13502835321240128,0.1935223362967372,-12.378733291625974
20.1,2.5999999046325684,152.0,21.14087677001953,31.194808959960927,-79.78278032474269,40.45895458988444,271.406771434784,0.00801581796258688,-0.0020329393446445465,0.9561008810997008,0.292921245098114,0.07193907522545542,0.0474525819583868,3.0234323641857386,-0.05444430187344551,0.05281363427639008,-0.05167834088206291,-0.008020742197986692,0.3052657702937722,-11.593149343729019
20.3,2.799999952316284,157.0,21.39754676818848,28.610483169555664,-79.78278069586607,40.45895441816439,272.0135193004608,0.013670760206878184,0.0014185677282512188,0.9562383890151978,0.29226592183113104,0.07997806599527185,0.09001018379196449,3.180207676792873,-0.12820902466773987,-0.008567043580114841,-0.0212200116366148,0.00874392171856016,0.2529599412158132,-11.057565439939498
20.4,2.9000000953674316,159.0,21.32993507385254,29.49312973022461,-79.78278075548167,40.4589543812865,272.33378101730347,0.01875854842364788,0.0006584366201423109,0.9562416672706604,0.2919754385948181,0.09734898374487796,0.097277350203143,3.2145758997238274,-0.048757314682006836,-0.09849176555871964,0.024893032386899,0.17475586211308838,0.2601512490212917,-10.255278335809706
20.6,3.2000000476837163,162.0,21.301137924194336,29.381805419921875,-79.78278101391268,40.458954299653726,272.62919689559936,0.020221492275595658,-0.0004102782404515892,0.95634526014328,0.2915385663509369,0.13272793072666295,0.10619333377390522,3.2175602761204236,0.04129082337021829,-0.1429133415222168,0.031772054731845856,0.14371114868670706,0.12083448389545084,-10.215376936197279
20.71,3.2000000476837163,162.0,21.515239715576172,26.3521785736084,-79.78278108597634,40.45895422275324,273.28059841537475,0.015740519389510155,0.0011078871320933104,0.9566413164138794,0.2908409237861633,0.1090354532983508,0.07330103291019015,3.2804617420534825,0.09633231908082962,0.05859704688191414,0.10611243546009064,0.04111476995050909,0.11595733959227802,-10.04316707968712
20.9,3.5,157.0,21.29362678527832,28.880842208862305,-79.78278096906554,40.45895394218403,273.96516872787475,0.016302835196256638,0.007890602573752403,0.9565318822860718,0.2910650372505188,0.028158826831222776,0.07659929307541008,3.2812859550351265,-0.09930256009101868,0.02750939317047596,-0.032845403999090195,0.0306354494439438,0.15726570719853045,-9.867788032293321
21.0,3.5999999046325684,158.0,21.455141067504886,27.24277687072754,-79.78278095629494,40.45895378667599,274.2687013282776,0.017021087929606438,0.006996085867285729,0.9565176367759703,0.2910935580730438,0.03262156051668982,0.08242864230355787,3.245789277174321,0.004445843398571014,0.03439488634467125,0.04138972237706184,0.05591515998356045,0.21455566635355355,-9.765188693404198
21.1,3.700000047683716,158.0,21.44512367248535,27.11554908752441,-79.7827809311634,40.45895374854892,274.5939057006836,0.016520867124199867,0.004606271628290415,0.9565756320953368,0.290979266166687,0.03894114427671025,0.06289351948117951,3.2442081622641976,0.04957392811775208,-0.1083707958459854,0.049158163368701935,0.05525930338539183,0.014397507738322018,-9.851864894628523
21.3,3.700000047683716,158.0,21.48644256591797,26.81338119506836,-79.78278086817332,40.458953614078546,275.1859610214233,0.015113496221601963,-0.00015524169430136683,0.9568064212799072,0.29033273458480835,0.024621860943626436,0.021924174300994675,3.1875338658133603,0.0679677277803421,-0.0848328098654747,0.08582320064306259,0.10910351662896574,0.13362952563911676,-9.77921148598194
21.5,3.799999952316284,156.0,21.461400985717773,26.9724178314209,-79.78278118806949,40.458953348046826,275.7832086219788,0.013335785828530787,-0.002082005375996232,0.9567822217941284,0.2904922664165497,0.046201472636956384,0.008455744778820898,3.10960731320512,0.15242531895637512,0.044260676950216286,0.03146575391292572,-0.0919412717409432,0.2560882198624313,-9.752251144051552
21.61,3.799999952316284,158.0,21.50897979736328,26.773622512817386,-79.78278112911096,40.45895332150757,276.0938885345459,0.013442232273519041,0.0012718468206003304,0.9568011164665222,0.29042962193489075,0.02180262839402591,0.008442507799743778,3.0994773329593914,-0.023679906502366063,0.047971110790967934,-0.0189488846808672,-0.1474701134953648,0.2101930587552488,-9.647631592154504
21.7,3.700000047683716,159.0,21.584102630615234,25.57290458679199,-79.78278106402887,40.45895330045879,276.4024036064148,0.013257780112326143,0.004103523213416338,0.9568752646446228,0.2901676595211029,0.027058009524686042,0.011504935583775213,3.0724782601704685,0.10339155048131944,0.04539671540260315,0.021388368681073192,0.0560836785659194,0.2099312679469585,-9.584317941069603
21.9,3.700000047683716,159.0,21.607891082763672,24.94471549987793,-79.78278172761267,40.458953052803906,277.14466215515137,0.010399202816188335,0.0056456238962709895,0.9573312997817992,0.28875046968460083,0.0693087362104521,0.04035527457175829,3.0528163891132603,0.1551288217306137,0.02511084824800492,0.03785642236471176,0.07989598922431469,0.16415385514497755,-9.517666699290276
22.1,3.5999999046325684,159.0,21.46515655517578,26.717960357666016,-79.78278159266574,40.458953126893924,277.8881180419922,0.00730243045836687,0.005917914211750031,0.9581658244132996,0.28605931997299194,0.0705014793116367,-0.008417130214750539,3.078196789936049,0.12018824368715285,-0.09279118478298187,0.019654735922813416,-0.04937371081206948,0.4018128024414182,-9.51697497367859
22.21,3.5999999046325684,157.0,21.477678298950195,25.87507247924805,-79.78278157416163,40.45895318089959,278.1952021255493,0.00854024663567543,0.0011345085222274065,0.9585121273994446,0.28492167592048645,0.0420857314260444,-0.011587107872169829,3.0665527991584156,-0.19341830909252167,-0.028403326869010925,-0.1292337328195572,-0.016497242879122496,0.5112197256088257,-9.579986323714257
22.3,3.5999999046325684,156.0,21.597875595092773,24.91290855407715,-79.78278156263201,40.458952823596356,278.61295057678217,0.011045709252357485,-0.004495731089264153,0.95866459608078,0.28428876399993896,0.08005711961545149,-0.024186968895744586,3.107101120676943,-0.03962071612477303,-0.17584438621997833,0.10799168050289154,0.03303382655605674,0.02547142155468464,-9.687539423704148
22.5,3.5,155.0,21.430099487304688,26.72591209411621,-79.78278135693624,40.458952909940145,279.29660154724115,0.014406321570277212,-0.005664700642228127,0.9584984779357908,0.2846774160861969,0.10431024327058787,-0.0803885327834984,3.0906254949863774,-0.061511978507041924,0.13971202075481415,-0.09017503261566162,-0.11574598101899028,0.4833913645148277,-9.524237215518953
22.7,3.4000000953674316,155.0,21.53151512145996,25.262784957885746,-79.78278133906876,40.45895296700997,279.6048948898316,0.013592527247965336,-0.0022107148543000217,0.9585574865341188,0.2845663130283356,0.11539917489764898,-0.06410406078773723,3.0692404901763366,-0.024333752691745758,-0.013442151248455048,-0.012737052515149115,-0.01571748926304281,0.17294965719804167,-9.561907902359962
22.8,3.4000000953674316,156.0,21.487693786621094,26.02615547180176,-79.78278162264397,40.45895303114731,280.2795345916748,0.013382362201809885,0.0015433331718668342,0.9581454992294312,0.2859649360179901,0.09454772025882492,-0.025073590731409773,3.0471545300191085,-0.08761023730039598,0.11671890318393707,-0.061625387519598014,0.014589579636231066,0.5355691030249,-9.43345919251442
23.0,3.299999952316284,154.0,21.376262664794922,27.32229423522949,-79.78278161861313,40.45895308237269,280.58264185333246,0.014817495830357075,0.0006836849497631192,0.95783793926239,0.2869260013103485,0.09376377690233564,-0.0117381599227405,3.0160456155113025,-0.10754740238189696,-0.08811825513839723,-0.03526480495929718,0.05197791905142367,0.28369237678125503,-9.473281069993973
23.1,3.2000000476837163,155.0,21.410066604614254,26.75771903991699,-79.78278178367107,40.45895289400804,281.2562925949097,0.01435986999422312,-0.0043152165599167356,0.9575005769729614,0.2880414128303528,0.08494708020728588,-0.02557412297714021,3.034165723336315,-0.16524888575077054,0.1218382939696312,-0.0970873013138771,-0.023571126717142763,0.4228416191786528,-9.613025431036947
23.2,3.2000000476837163,153.0,21.34621238708496,26.7418155670166,-79.78278176775298,40.45895292917285,281.55884481811523,0.013647221960127355,-0.001577729941345751,0.9573772549629213,0.2885136604309082,0.11101326102283557,-0.04692458969796196,3.016028794904192,0.14569593966007233,-0.009679082781076431,0.09091116487979888,-0.016040694108232858,-0.019124433416873216,-9.723776373267174
23.4,3.2000000476837163,155.0,21.21725082397461,28.880842208862305,-79.78278202474061,40.458952967154396,282.239297164917,0.010158924385905266,0.0011548951733857393,0.9574143886566162,0.28853631019592285,0.09490812297067854,-0.002584321347454149,3.0818997111066517,0.12138036638498305,-0.09953702986240387,0.033510975539684296,0.07066419501788915,0.05746138764079661,-9.829953038692476
23.5,3.299999952316284,157.0,21.38126945495605,26.42374420166016,-79.78278202061844,40.458953001406535,282.54855944061285,0.005987875163555145,-0.0023011947050690647,0.9577279686927797,0.2876040637493133,0.08200568030513743,-0.007806223200187924,3.1000926368532906,0.08273515850305557,-0.17011640965938568,0.04777733236551285,0.009744558474048972,0.06690375013276935,-9.980638124942779
23.7,3.299999952316284,158.0,21.461400985717773,25.747844696044922,-79.78278203011995,40.45895308421761,283.21155191802984,-0.0022646167781203985,-0.0075472709722816935,0.9575237035751344,0.2882470190525055,0.06753558981025941,-0.07447403222911958,3.167105066433709,-0.018869005143642426,-0.03225432708859444,0.05235838517546654,-0.03657063143095002,0.16350519793108104,-10.027169097661973
23.9,3.2000000476837163,170.0,21.362489700317386,26.717960357666016,-79.78278214430141,40.458953141162965,283.8550388946533,0.010674739256501198,-0.012649045325815678,0.9579346179962158,0.2865089774131775,0.0875720793461783,-0.07304314409525234,3.1615498068720878,-0.17571645975112915,0.10610082745552064,-0.05025837942957878,-0.056866849148646,0.06446765391156077,-9.925274348258972
24.0,3.0999999046325684,169.0,21.376262664794922,26.08976936340332,-79.78278245263495,40.45895314015585,284.16402174377436,0.015039489604532719,-0.015930751338601112,0.9584580063819884,0.28439101576805115,0.16786642489826906,-0.048835295766135815,3.1422420292702014,-0.056979302316904075,-0.14152410626411438,-0.04908115416765213,-0.10097612441517413,0.1143513287231326,-9.749157382249832
24.1,3.0999999046325684,174.0,21.3599853515625,26.702056884765625,-79.78278253710451,40.4589531677764,284.47796560668945,0.013181695714592934,-0.016589617356657982,0.9589900970458984,0.2826467454433441,0.20457473552196773,-0.05251861691252989,3.1243557538904363,0.239607721567154,-0.024266740307211883,0.08116502314805983,-0.03173103493172676,0.0006135008297860622,-9.68702603816986
24.3,3.0999999046325684,176.0,21.3061466217041,27.187114715576172,-79.7827827196596,40.458953187816746,285.1159432067871,0.009835423901677132,-0.00708819180727005,0.9601551294326782,0.2792046666145325,0.1262878602354248,-0.018972254354833528,3.10298596619088,-0.05367669463157654,0.09444505721330644,-0.08937661349773407,-0.10060004794970157,0.2472656667977572,-9.602763567566873
24.5,3.2000000476837163,175.0,21.296131134033203,26.98832130432129,-79.78278278898122,40.45895318654825,285.42525030517584,0.005990351550281048,-0.003522122278809548,0.9599475860595704,0.28009340167045593,0.136730320647187,0.004822744889909209,3.078286500900352,0.2546586692333221,-0.034754473716020584,0.16521914303302765,-0.007094538670498878,-0.14219942416995765,-9.678167506456377
24.6,3.299999952316284,178.0,21.26107215881348,27.58470344543457,-79.782782760159,40.45895316157917,286.0485184326172,0.004412144422531128,-0.0035369496326893572,0.9592381715774536,0.2825422585010529,0.051939149266767536,0.004143645462548333,3.0615690943327087,0.019099980592727658,-0.059488117694854736,0.11436302959918974,0.02996021023951471,-0.1113492311630398,-9.768788824081419
24.8,3.4000000953674316,179.0,21.108322143554688,29.055782318115234,-79.78278275578946,40.45895306039039,286.66698767089844,0.007292464841157199,-0.0059843305498361605,0.9584854245185852,0.2849855720996857,0.07675614147495706,-0.007586841037135064,3.0724654164333685,0.1303851306438446,-0.07580429315567018,0.08657021075487137,-0.12038477819412947,0.3632303519546986,-9.710196799635888
24.9,3.299999952316284,181.0,21.23102378845215,27.38591003417969,-79.78278277588316,40.458953053265844,286.9751541748047,0.0054456926882267,-0.007667085621505977,0.9583076238632202,0.2855837345123291,0.06555531729442453,-0.002865674186727293,3.0876792592756286,0.04636048525571823,-0.04826027899980545,0.018044961616396904,0.0011590003687888385,0.06338712500408293,-9.964826084375384
25.1,3.299999952316284,181.0,21.01191520690918,29.898670196533203,-79.78278273263469,40.45895305810721,287.2772667541504,0.003766969544813037,-0.008941283449530602,0.9581552147865297,0.28608474135398865,0.05119300542705023,-0.02557716969741284,3.0921096791711005,0.03759029880166054,0.07589457929134369,-0.046401191502809525,-0.16671394888311625,0.3902246808260679,-9.898729158639908
25.2,3.299999952316284,187.0,21.331188201904297,26.216999053955078,-79.78278277063521,40.458953049590185,287.8992531433105,0.002661742502823472,-0.0075441556982696065,0.9577390551567078,0.28752732276916504,0.040087326927786784,-0.022307803076997427,3.1302162280183645,-0.04948851838707924,-0.04276840016245842,0.0056517370976507655,-0.053619597936049104,0.10004168453626336,-10.00506077528
25.4,3.299999952316284,188.0,21.232275009155273,27.38591003417969,-79.78278279709558,40.45895302495669,288.5063202514648,0.0005437285290099678,-0.009570307098329069,0.9575165510177612,0.28821903467178345,0.053209307468679294,-0.02305821879217035,3.105017185052947,0.07476582378149033,-0.06982314586639404,-0.011284722946584223,-0.07815921999514103,0.2971199958957732,-9.835203838348392
25.5,3.299999952316284,189.0,21.14087677001953,27.47337913513184,-79.78278301876921,40.45895290634175,288.8087780609132,-0.00032609925256110733,-0.01126781851053238,0.9576464295387268,0.28772610425949097,0.060726830786515015,0.014272356716598546,3.0863138457140185,0.05251182243227959,-0.09020664542913437,0.011335700750350952,-0.004826666386798025,-0.008318363190628588,-9.844205042123797
25.6,3.4000000953674316,189.0,21.48268699645996,24.26086235046387,-79.78278309774696,40.45895286869857,289.11754919433594,0.0031823329627513885,-0.011410255916416643,0.958087921142578,0.2862294316291809,0.036292608803073716,0.012857498648729787,3.08317049180471,-0.2273806929588318,0.06177225336432458,-0.09525525569915773,-0.1949550137668848,0.1514895717613399,-9.648621525764463
25.8,3.4000000953674316,191.0,21.816984176635746,20.809791564941406,-79.7827833868013,40.45895266125599,289.7206013336182,0.015936143696308136,-0.005886449944227935,0.9594290852546692,0.2814378142356873,0.10083771347164053,0.056814059963093876,2.931943095899112,0.034678690135478966,0.1313214898109436,-0.027351081371307373,0.018029293322470042,0.245812725070864,-8.943940238356591
25.9,3.4000000953674316,192.0,22.0035400390625,19.22739028930664,-79.78278346252895,40.458952600442096,290.00758482360834,0.014794176444411278,-0.0038935481570661072,0.9598870873451232,0.2799694240093231,0.11741028714960593,0.08323005174476886,2.7972354144790663,0.1778424233198166,-0.03194946423172952,0.025355668738484386,-0.035436812918633216,0.19034711547195912,-8.5217402780056
26.11,3.4000000953674316,193.0,21.93592834472656,20.507625579833984,-79.78278380602052,40.45895242118312,290.5561287536621,0.0026565289590507746,-0.006813480984419584,0.9598900079727172,0.2802815139293671,0.04403258559958719,0.07891999536132985,2.538775443203777,-0.0009245941182598473,-0.09782351553440094,-0.023957062512636185,-0.1730388637818396,0.06762223589234054,-8.44764845430851
26.3,3.299999952316284,189.0,21.76189422607422,21.64472770690918,-79.78278386422504,40.45895235487529,290.8031494750976,0.002196159679442644,-0.009426964446902277,0.9595171809196472,0.28148406744003296,0.02082958826924474,0.05906329856922745,2.4053460852334694,-0.040521975606679916,-0.01077830232679844,0.0189176257699728,-0.2324372192658484,0.03829188498202712,-8.432824008464811
26.4,3.2000000476837163,194.0,21.82699966430664,21.056297302246094,-79.78278422519125,40.45895203775763,291.27762342834467,0.0025283340364694595,-0.0064183915965259075,0.9591590762138368,0.2827833890914917,0.03573026831061574,0.06832553886245858,2.1962459872183784,0.05387734621763229,0.05137712880969048,0.031652968376874924,-0.07134199694730342,-0.03359463392291218,-8.642279459238052
26.6,3.2000000476837163,194.0,21.855796813964844,20.65870857238769,-79.7827845408205,40.458951800010745,291.52027822875976,0.004119626246392728,-0.0049811508506536475,0.9593425393104552,0.28217071294784546,0.036318969444654695,0.09976430148999213,2.1230129967222524,0.03766556084156037,0.01746225357055664,0.028059270232915882,0.02198585062287748,-0.07563820210285485,-8.760378012657165
26.72,3.0999999046325684,196.0,21.96722984313965,20.388347625732425,-79.78278471468921,40.458951620987676,291.92426611328125,0.006783903110772371,-0.005046836100518704,0.9600091576576232,0.2798410058021545,0.027666012451268623,0.10602390727656896,1.919317763404786,-0.04539129137992859,0.023517608642578125,-0.0020426020491868253,-0.17499695012345912,-0.010483363308012486,-8.81203465461731
26.8,3.2000000476837163,195.0,21.74812126159668,21.58906555175781,-79.78278502396795,40.45895137767409,292.1447270050049,0.008093233220279217,-0.004548809956759214,0.9598963260650636,0.28020164370536804,0.027140535108288656,0.11945458301605147,1.8624126423715863,-0.0263049565255642,0.058429189026355736,-0.0151998158544302,-0.09337259704247118,0.2301441788300872,-8.773322578668592
27.0,3.2000000476837163,195.0,21.84077262878418,20.380395889282227,-79.78278538601846,40.45895110343057,292.54400564575195,0.002193208318203688,-0.004861365538090468,0.9591046571731568,0.283001571893692,0.02538354878975507,0.12314542537676255,1.76053822453644,0.0946495085954666,-0.04566964879631996,0.09564059972763064,-0.12688845343887806,-0.04619437409564853,-9.035963133573533
27.2,3.2000000476837163,199.0,21.753129959106445,21.34256172180176,-79.78278546918446,40.45895100481679,292.71611143493647,-0.0039195669814944285,-0.006061836145818234,0.959028661251068,0.2832174003124237,0.018473752651767823,0.10969052629636136,1.681957078303811,0.19151607155799866,-0.02493193745613098,0.0639585554599762,-0.09164056040346624,-0.050283971540629864,-9.04254826784134
27.31,3.0999999046325684,200.0,21.733097076416016,21.15966987609864,-79.78278576064208,40.45895074717283,293.08305860900884,-0.008984588086605072,-0.004831911530345678,0.95964515209198,0.28102898597717285,0.001126547837733657,0.09291380227043383,1.5868190703909668,0.11466490477323532,0.06217060983181,0.002158804563805461,-0.0638961616717279,-0.08783932205289602,-9.09384004354477
27.5,3.0999999046325684,211.0,21.975994110107425,19.23534202575684,-79.78278584794573,40.458950661966455,293.23803450012207,-0.005357924848794937,-0.004061448853462935,0.9601091146469116,0.2795450985431671,-0.0017058607969289215,0.09750760861782456,1.5102267683932442,-0.01908555813133717,-0.028655124828219414,-0.08868712931871414,-0.07261332781054079,0.0121949346922338,-9.112938219308854
27.6,3.0999999046325684,210.0,21.984758377075195,18.957029342651367,-79.7827861257129,40.45895041176679,293.5531590118408,-0.0001697097613941878,-0.007358630187809467,0.9608794450759888,0.27686944603919983,0.026957841265063526,0.10605063270567708,1.3779660968631466,0.04437081515789032,-0.022165924310684204,-0.09843647480010986,-0.09843688879162074,0.12004415960982442,-8.900850352048872
27.7,3.0999999046325684,214.0,23.22804450988769,10.05899429321289,-79.78278621704175,40.45895033271474,293.6839325561524,-0.0013853862183168528,-0.00803942047059536,0.9612163305282592,0.2756749093532562,0.012875977213698198,0.09176094348818986,1.2005052336902724,-0.002809253986924887,-0.03913641348481178,-0.1052510216832161,-0.1940278646349907,-0.1068803504202515,-8.022884489893912
27.9,3.0999999046325684,217.0,21.984758377075195,18.91727066040039,-79.7827863572296,40.45895014669839,293.8780968322754,-1.0717829354689457e-05,-0.00562270637601614,0.9758307337760924,0.21845579147338867,-0.05513477900306506,0.0725188853432119,0.7512571530238429,-0.09668869525194168,0.019846366718411446,-1.0489046573638916,-0.3000056881830097,-0.09929740707390013,-7.701475324630738
28.1,3.2000000476837163,217.0,21.8670654296875,20.110036849975586,-79.78278623282493,40.45895002688493,293.9324886932373,-0.005537457764148711,-0.0062998104840517035,0.9943171739578248,0.10612770915031433,-0.0638173001870629,0.05020953247226465,0.4567016124927962,0.09679415076971054,0.011374508030712605,-1.2705810070037842,-0.1993367892690003,-0.4541466981545091,-8.07815354168415
28.2,3.2000000476837163,208.0,21.76690101623535,21.39027214050293,-79.78278617634558,40.45894995909589,293.97378851318365,-0.007156357169151306,-0.0072246789932250985,0.9991676211357116,0.03950545936822891,-0.0860554796066638,0.053891311428360296,0.3748496792327668,-0.09388373792171477,0.010926182381808758,-1.4751075506210327,-0.2809409329108894,-0.037914095465093854,-8.888345496654509
28.3,3.0999999046325684,211.0,21.793193817138672,21.28689956665039,-79.7827859731037,40.458949971099905,293.89246107482916,0.01022198051214218,0.008408570662140845,-0.9994070529937744,0.031788166612386703,-0.06165937021208311,0.05137400197764283,0.2786113709332267,0.061997272074222565,-0.13634684681892395,-1.4088863134384155,-0.299025566931814,-0.34541805200278763,-9.111742463707923
28.5,3.0999999046325684,213.0,21.65797233581543,22.36833953857422,-79.78278574394959,40.45894986346439,293.8226597442627,0.01915920525789261,0.008936000056564808,-0.9829060435295104,0.1828904002904892,-0.05219934238792942,0.04355246778581312,0.1968418004466572,0.022905027493834496,0.07348676770925522,-1.5800389051437378,-0.16902644958347082,0.04710564438253642,-9.604292614459993
28.7,3.0,189.0,21.66172981262207,22.479665756225586,-79.78278569803359,40.458949832333424,293.84227682495117,0.022179849445819855,0.009150111116468906,-0.9653112292289734,0.2599972188472748,-0.031218644334189437,0.0390905944383471,0.1951135873067594,-0.04855839163064957,0.05250125005841255,-1.7650275230407717,-0.2455195420235396,0.04595740654505789,-9.714266461730004
28.8,3.0,180.0,21.676753997802734,22.241111755371094,-79.78278550354484,40.458949503405115,293.8092911376953,0.02817192859947681,0.007018309086561203,-0.9113928079605104,0.4105124473571777,0.04375730938674936,0.03146986746040206,0.173656239276197,-0.023679424077272408,-0.03286595642566681,-1.6792376041412354,-0.024224772336892787,0.03992280590347946,-9.65904360294342
28.9,2.9000000953674316,189.0,21.660476684570312,22.535327911376953,-79.78278556054701,40.458949435847416,293.8256561889648,0.032202161848545074,0.007669724524021149,-0.8761534094810486,0.4808943569660187,0.09825723365212256,0.0135690546132611,0.1616049347630619,0.05627213791012764,0.005721486173570156,-1.7459434270858765,0.01362691323738545,0.0905214398726821,-9.696446487307547
29.1,2.799999952316284,194.0,21.73434829711914,21.6685848236084,-79.78278548501682,40.45894877599135,293.81713415527344,0.038564037531614304,0.009108413010835648,-0.7913687825202942,0.6100535392761229,0.19379183356801985,-0.031048233939954237,0.1613721044724836,-0.1112840697169304,-0.11251993477344513,-1.561357498168945,0.04829644355457277,-0.2451112236455083,-9.67884110569954
29.21,2.799999952316284,178.0,21.650461196899414,22.288822174072266,-79.78278564212485,40.45894859762958,293.8304646148682,0.036388907581567764,0.0077985054813325405,-0.7431613206863403,0.6680765748023987,0.2282169302589509,-0.07776627152431803,0.14016634322193414,-0.14047642052173615,-0.09978679567575456,-1.5276302099227903,0.10986762894317507,-0.1455590698309243,-9.540369683504103
29.4,2.799999952316284,171.0,21.8570499420166,19.91124153137207,-79.7827855624275,40.458947941972106,293.8769009246826,0.03368484228849411,0.002191574312746525,-0.6376761198043823,0.7695645689964294,0.27844307374059923,-0.16917757778850456,0.15921082530236744,-0.04195907339453697,0.029501205310225487,-1.2913625240325928,0.19397513005882505,-0.10547787747345866,-9.659602596759797
29.6,2.700000047683716,187.0,21.62166404724121,22.344484329223643,-79.78278582528428,40.45894760342411,293.79034735107416,0.03309543430805206,-0.0013951817527413368,-0.5890340805053711,0.8074290156364441,0.29679966401182617,-0.22133601678583734,0.11344945160785296,-0.003184157656505704,0.026257002726197243,-1.1776996850967407,0.33378074068576097,0.1360143856331706,-9.436828942894936
29.7,2.5999999046325684,193.0,21.521499633789066,23.44978141784668,-79.78278622499236,40.458946893322725,293.8019116058349,0.03272303193807602,-0.0007958607748150828,-0.5207085013389587,0.8531067967414856,0.3054736082687062,-0.2971335302046311,0.04222240865899656,0.08841536939144135,-0.0249142237007618,-0.5866166353225708,0.5405140567570925,0.05440813151188195,-9.475711757540703
29.8,2.5999999046325684,189.0,21.1846981048584,27.03603172302246,-79.78278643013441,40.45894702152562,293.72307325744634,0.02896615490317345,0.0006370343035086987,-0.5020026564598083,0.8643805980682373,0.2472575066404616,-0.3014471103510593,0.033865881553617354,-0.03372637555003166,-0.09013107419013976,-0.3049416244029999,0.4662993318960071,-0.08295276738703251,-9.664866260290149
30.01,2.5,190.0,21.560312271118164,22.225208282470703,-79.78278638293101,40.4589462466336,293.638373626709,0.007536883465945721,0.007976300083100796,-0.4876484274864197,0.8729711174964905,0.2915879131434575,-0.2095414152199465,0.0617052495346925,-0.025955166667699814,-0.4398966729640961,-0.05650679394602776,0.7551766723394394,0.004691746453754604,-10.090288621187213
30.1,2.5,201.0,21.43260383605957,24.51531982421875,-79.78278637921923,40.458945937723264,293.6441662445068,-0.015698699280619618,0.02030768059194088,-0.4885411858558655,0.8721631765365601,0.3060491108555025,-0.1351003447088882,0.06898865902872299,0.09068694710731506,-0.6001678705215454,0.13362768292427066,0.6100396435707808,-0.1353403935302049,-10.000689396858217
30.3,2.5,205.0,21.189706802368164,26.41579246520996,-79.78278640025036,40.45894535478504,293.55345083618164,-0.05691644549369813,0.043893184512853615,-0.494987815618515,0.8659221529960632,0.29594534902785496,0.10135900575250452,0.0918484911056603,-0.003073379397392273,-0.3738013505935669,0.2294744551181793,0.3873306379839778,-0.4337122508883477,-10.243633021116258
30.5,2.5999999046325684,193.0,21.447628021240234,24.658451080322266,-79.78278569429929,40.45894511891336,293.50154425048834,-0.07437672466039658,0.055207252502441406,-0.4971781075000763,0.8626902103424072,0.2851376680498317,0.4662410880958987,0.20811893394851214,0.0261325053870678,-0.1922206729650497,0.1002802476286888,0.4287010408937931,-0.2532789981923997,-10.40654346585274
30.6,2.5999999046325684,192.0,21.35247230529785,25.14350891113281,-79.78278490102355,40.458945166469455,293.5142262115478,-0.07665541768074036,0.058334771543741226,-0.4958410561084747,0.8630542755126953,0.2781238038193465,0.6954855351104351,0.2713226141894568,-0.07651789486408234,-0.09239964187145233,-0.17916275560855865,0.4856350873410702,-0.07267237555235624,-10.181043255329133
30.7,2.5999999046325684,198.0,21.448881149291992,23.9825496673584,-79.7827838553665,40.45894532037335,293.5283939971924,-0.08069618791341783,0.06297767162322998,-0.4924347996711731,0.8643090128898621,0.2916722710404523,0.9288077861883683,0.343513035694736,-0.023970659822225567,-0.06208880618214607,-0.07147842645645143,0.4393301095068455,-0.2561499993503094,-10.293638409376145
30.9,2.5,201.0,21.441368103027344,23.847370147705078,-79.78278127407731,40.45894585383921,293.5103562011719,-0.0931098461151123,0.0645817294716835,-0.4831785559654236,0.8681579828262329,0.3149372687108383,1.3942960894265424,0.4882216729131974,-0.1882321685552597,-0.06091416627168656,-0.2393283247947693,0.362359372638166,-0.03832394873723388,-10.249433459043503
31.1,2.5,199.0,21.37375831604004,24.507368087768555,-79.7827775960248,40.45894671209891,293.4879810943604,-0.1001725122332573,0.05625665932893753,-0.4766878187656402,0.8715329170227051,0.3602742979161564,1.8250537325796168,0.5672131070674705,-0.20544983446598053,-0.06420353055000305,0.05855759605765343,0.3655864875018597,-0.3368096714839339,-10.188920624256133
31.22,2.5,196.0,21.31866836547852,26.63049125671387,-79.78277533019727,40.45894741560554,293.5008175506592,-0.1037234589457512,0.05172204226255417,-0.4744496047496796,0.8726190328598022,0.3636811050843724,2.0842790775648083,0.6285961706813143,-0.15332245826721191,-0.024509817361831658,-0.04191210865974426,0.252705148793757,-0.14601683372631669,-10.264616339206695
31.3,2.4000000953674316,193.0,21.20848655700684,25.898927688598643,-79.78277291563212,40.458947778868,293.45092512512207,-0.1046970635652542,0.04802892357110977,-0.4746003150939941,0.8726318478584291,0.3937842095528538,2.3020452280150896,0.6743176840172205,-0.03583946451544762,0.028517531231045726,0.022427944466471672,0.2657839814946056,-0.1016495317965746,-10.430387241840364
31.5,2.4000000953674316,190.0,21.274845123291016,25.27868843078613,-79.78276701788631,40.458949290005776,293.41790129089355,-0.09788194298744204,0.046756263822317116,-0.4799656271934509,0.8705551028251648,0.3792100310818021,2.7640887641203875,0.8109531555803633,0.07378915697336197,0.00869766902178526,0.1941371858119965,0.1504335828870535,-0.13692570160143078,-10.557474135160447
31.7,2.4000000953674316,185.0,21.077022552490234,27.831209182739247,-79.78276381597402,40.45895048219057,293.43765570068365,-0.09613341093063353,0.04863627627491951,-0.4848300218582153,0.8679475188255309,0.3251330768841534,3.003678936355892,0.8788103101598612,0.08488719165325165,0.02652844972908497,0.09377487748861313,0.19942868191748853,-0.06873964793980122,-10.478151977062224
31.8,2.299999952316284,182.0,21.0281925201416,27.57675170898437,-79.78275681976912,40.4589526074435,293.4181473388672,-0.1008901447057724,0.050202470272779465,-0.4996810853481293,0.858847975730896,0.2325738408841444,3.392508008732292,1.0433381154334884,-0.057632751762866974,0.006979393307119608,-0.0016354583203792572,-0.03810832123970613,0.09087928033433856,-10.738307465314868
32.0,2.4000000953674316,170.0,21.014419555664066,28.03000259399414,-79.78274841564938,40.45895546362187,293.4324600830078,-0.10485348105430604,0.044677671045064926,-0.5115031599998474,0.8516890406608582,0.06481482819515287,3.795915770562581,1.2915105623551668,-0.2368295639753341,0.08380439132452011,0.13288825750350952,-0.14406866024248302,-0.2899890423193574,-10.780817892551422
32.11,2.5,163.0,20.90924644470215,28.70590400695801,-79.78274415895973,40.4589572145197,293.4758484497071,-0.10988137125968933,0.0359620675444603,-0.5136760473251343,0.8501587510108948,-0.016452634133916042,3.991184563275508,1.3967269614089464,-0.1283542662858963,-0.08731196075677873,0.13567404448986053,-0.2093696428835392,-0.22297722833231093,-10.72247554421425
32.2,2.700000047683716,143.0,21.271089553833008,25.15146064758301,-79.78273970900689,40.45895909878735,293.5251572265625,-0.11279845982789992,0.03161570802330972,-0.5139814019203186,0.8497647643089294,-0.07668816491618616,4.1938808514048285,1.4995458719209112,-0.0815153494477272,-0.0648866668343544,-0.026670048013329502,-0.29033161606639624,0.04059404798783362,-10.524578869342806
32.41,2.799999952316284,133.0,21.12835502624512,26.76567077636719,-79.7827294562982,40.45896295385296,293.5749313964844,-0.12059146165847776,0.03829623386263848,-0.509854793548584,0.8509050607681274,-0.1332220219129885,4.587141891169617,1.6393256363697462,0.09683982282876967,-0.14194132387638092,0.005760745611041784,-0.31987105518579484,-0.3250861137360335,-10.286477909088138
32.61,3.2000000476837163,113.0,21.149641036987305,25.89097595214844,-79.7827182919708,40.458967143909405,293.62291075134283,-0.13098925352096558,0.03546276688575745,-0.498845785856247,0.8560007810592651,-0.14193819069344538,4.9689597406262696,1.8607791266925595,0.02518652379512787,-0.15341787040233612,0.09175732731819153,-0.4432398502528668,-0.09657098745927216,-10.225469230413438
32.71,3.4000000953674316,105.0,21.3599853515625,24.03026008605957,-79.78271286452869,40.45896968269711,293.6768314971924,-0.13653655350208282,0.0340321846306324,-0.4934881627559662,0.8582943081855774,-0.13781474109703234,5.173454954157421,1.9633092365496263,-0.10511773079633713,0.05371397361159325,-0.1982595473527909,-0.4846796523034573,0.22533685393631456,-10.140331431627274
32.8,3.799999952316284,89.0,21.16716957092285,26.1772403717041,-79.78270634206244,40.45897191865177,293.68394781494135,-0.14075809717178345,0.03792380914092064,-0.4927369654178619,0.8578806519508362,-0.0661746434015706,5.405517676779209,2.0213826595717332,-0.11154908686876296,-0.15979015827178955,-0.034448713064193726,-0.5528710872307421,0.1289733147248626,-9.87694009423256
33.0,4.0,83.0,20.953067779541016,28.610483169555664,-79.78269339845157,40.45897691626156,293.74651266479486,-0.1417454481124878,0.0514228604733944,-0.4952600300312042,0.855559229850769,-0.07783373100482169,5.836041049653724,2.1678510612642152,0.29315420985221863,-0.05653608590364456,0.10695824027061462,-0.4561889478564263,-0.20493778232485052,-9.728786852359773
33.2,4.5,73.0,21.129608154296875,26.686153411865234,-79.78268707047127,40.45897994588657,293.78529287719726,-0.1389329433441162,0.057159509509801865,-0.4958679378032684,0.8553043007850647,-0.2124979790739109,6.0501514532478735,2.278607762111311,-0.04729818180203438,0.09981653839349748,-0.07155974954366684,-0.6863155484944582,0.13184761407785114,-9.938203711509708
33.31,4.699999809265137,72.0,21.192211151123047,25.09579849243164,-79.78267251916246,40.45898549452581,293.84820867919916,-0.13311554491519928,0.05791297182440758,-0.4999030530452728,0.8538287281990051,-0.21474399950009665,6.486131383399964,2.3998317804816787,-0.0267497468739748,0.07861921936273575,-0.030517136678099632,-0.7411229626089335,-0.03973890183493496,-10.031249284744264
33.5,5.099999904632568,64.0,21.14087677001953,26.07386589050293,-79.78265684491737,40.458991352244986,293.92329718017584,-0.13303789496421814,0.05005047470331192,-0.5009695291519165,0.853712797164917,-0.2139106531583811,6.9517058213142695,2.436340045546303,-0.11485728621482848,0.029322514310479164,-0.06376037001609802,-0.7399051337689162,-0.01507776732556522,-9.985657374858855
33.61,5.199999809265137,65.0,21.07451820373535,27.33024787902832,-79.78264934921192,40.458994871497424,293.9628079071045,-0.13802434504032135,0.04840853810310364,-0.4995813369750977,0.8538292646408081,-0.2642787196683789,7.153912232417199,2.4794643149820814,-0.06197962164878845,-0.10866481065750122,-0.00969942845404148,-0.6157805860787631,0.0628264318406582,-9.918881002664566
33.7,5.599999904632568,62.0,21.056989669799805,26.94061088562012,-79.78264166100506,40.45899852054051,294.00042654418945,-0.14338549971580505,0.04982073977589607,-0.498234361410141,0.8536516427993774,-0.2715002276569647,7.346172700831826,2.584971502007373,0.107430562376976,-0.17748291790485382,0.031111057847738263,-0.7281828550994397,0.053885399568825966,-10.007831186056137
33.91,5.800000190734862,62.0,21.08077812194824,25.596759796142567,-79.78262438551586,40.45900562894556,294.07283331298834,-0.14270362257957458,0.05179642140865326,-0.495148628950119,0.8554418683052063,-0.2842023922520413,7.709795391093023,2.855773960895817,-0.036544457077980035,0.13811297714710236,-0.1673777401447296,-1.0226230537891388,0.0347460785927251,-10.166655596494676
34.1,6.199999809265138,61.0,21.60163116455078,21.239187240600586,-79.78261459303808,40.459008837250096,294.12936521911615,-0.1392306685447693,0.05084940418601036,-0.4954276382923126,0.8559092879295349,-0.16594903359164867,7.90600103522195,2.9311406014302923,0.08946440368890762,0.06789521872997284,-0.06570456922054291,-0.9953747364878656,0.17805875323712828,-10.055094230175019
34.21,6.4000000953674325,60.0,21.79444694519043,18.01872062683105,-79.78259740795855,40.459016992615844,294.21804167175287,-0.12753340601921082,0.054985854774713516,-0.4980482757091522,0.8559554219245911,-0.22633815300509866,8.235237173121746,2.872365505216326,0.3979946672916413,0.09472956508398056,0.1869958788156509,-1.124284572377801,-0.06265092400833965,-9.666555520892144
34.41,6.800000190734862,58.0,21.98600959777832,18.408355712890625,-79.78257838944364,40.459024934210255,294.3154862060547,-0.11879588663578032,0.05173611640930177,-0.5032203793525696,0.8543887734413147,-0.3676528751285319,8.587345783030996,2.620698888070413,-0.10830771178007126,0.012812692672014236,0.022617558017373085,-1.251881708353758,0.2651675387844443,-9.20418928205967
34.5,7.0,58.0,21.695533752441406,20.32473373413086,-79.7825681371594,40.45902923127046,294.3577568664552,-0.11639492213726045,0.04802751913666725,-0.5053274035453796,0.8536919355392456,-0.3669762815898102,8.755669401086196,2.510351014035116,-0.13228842616081238,0.0929153338074684,0.02189195714890957,-1.3204663319885732,0.1111850979924202,-8.711640300750734
34.61,7.300000190734862,59.0,21.8670654296875,17.915346145629886,-79.78255894707925,40.45903355373485,294.37108923339844,-0.1126490756869316,0.04275580495595932,-0.5056784749031067,0.8542667031288147,-0.42242868698957337,8.877711991009868,2.3753705091137887,-0.029145101085305214,-0.003796192817389965,0.0004446593520697206,-1.2930965387821198,-0.028243568222969768,-8.871172224283221
34.8,7.5,61.0,21.81447982788086,19.31485939025879,-79.78253941375425,40.459042483065076,294.39171911621094,-0.10437992215156557,0.03882195800542832,-0.5055732727050781,0.8555662035942078,-0.4297361868902564,9.140700354652258,2.0662033059869342,0.1849666386842728,-0.00384838879108429,-0.02757829427719116,-1.3922262860834598,0.16724748903885486,-8.682913514971734
35.0,7.800000190734862,60.0,21.706802368164066,20.49967384338379,-79.78252998364601,40.459046952440865,294.37979627990717,-0.09983731806278227,0.03794580325484277,-0.5036991238594055,0.8572513461112976,-0.4607024397237455,9.242980783612627,1.9216712618676013,0.05565027520060538,0.04877850413322449,0.037843428552150726,-1.2555584375560285,-0.08925359906628727,-8.936556374430658
35.11,7.900000095367432,60.0,21.8282527923584,19.37847328186035,-79.78250995794187,40.45905618115057,294.36757780456537,-0.09205787628889084,0.03492821007966995,-0.5021992325782776,0.8591282963752747,-0.4122704464511856,9.423525191223968,1.6854606207817742,0.10874353349208833,0.2741774916648865,0.09466371685266496,-1.2551785147190095,-0.04015158735215664,-9.123184295296667
35.2,8.300000190734862,61.0,21.77316093444824,19.664737701416016,-79.78250035648139,40.45906076761063,294.33784986877436,-0.08755791932344438,0.035855140537023544,-0.5020757913589478,0.8596324920654297,-0.4399565745178885,9.492645130783822,1.5504156928134822,-0.0004592474724631757,0.05481231212615967,-0.07783086597919464,-1.370615854114294,0.38624758746474985,-8.985534406900406
35.4,8.5,63.0,21.65797233581543,21.39027214050293,-79.78247995056415,40.45907021986512,294.3245289459228,-0.08316278457641603,0.03629079833626747,-0.5011891126632689,0.8605675101280212,-0.4199586774396844,9.612406042885782,1.4249921284259406,0.14247533679008484,-0.17949919402599335,0.13747431337833405,-1.4642055107653142,-0.19863495893776412,-9.47910723567009
35.6,8.600000381469728,63.0,21.61289978027344,21.469789505004886,-79.78245911734565,40.4590797555721,294.32808615112305,-0.08523533493280411,0.043874502182006836,-0.5011338591575623,0.8600434660911559,-0.4124668187369024,9.737902665009148,1.4953329878457602,-0.08718125522136687,-0.06605984270572662,-0.11870651692152025,-1.2355861030519009,0.2654601553827524,-9.582784801125527
35.7,8.600000381469728,62.0,21.546541213989254,22.54327964782715,-79.78244924334065,40.45908446408904,294.2958042755127,-0.0886370986700058,0.04860358312726022,-0.5011332631111145,0.8594456315040588,-0.4031576128841576,9.76312383111894,1.5605095699881726,0.1360262632369995,-0.08707037568092346,0.1325874626636505,-1.4003242412209511,0.0861079614982009,-9.559518730044363
35.81,8.699999809265138,61.0,21.468914031982425,22.64665222167969,-79.78243796564135,40.459089428717604,294.3438713684082,-0.09088118374347688,0.051917754113674164,-0.5016225576400757,0.8587316870689392,-0.3945721197029292,9.842169235874136,1.7519558118578638,0.011801943182945251,0.0473509281873703,-0.2121436148881912,-1.4435515370965004,0.3921176803484559,-9.615169605016707
35.9,8.800000190734863,60.0,21.43886375427246,23.69628715515137,-79.7824279071965,40.45909417424152,294.31726957702637,-0.09059964865446092,0.05498874932527542,-0.5015180706977844,0.8586312532424927,-0.3647685830277512,9.86939546962497,1.835625549931883,0.3074405789375305,0.07333485782146454,0.05462341383099556,-1.442690680772066,0.2274095274321735,-9.848831359148026
36.1,8.899999618530273,59.0,21.67800521850586,20.984731674194336,-79.78240658928951,40.459103944494906,294.2821495666504,-0.08828831464052199,0.05348708853125572,-0.5003111958503723,0.8596703410148621,-0.3332413119756881,9.999943010612943,1.9069093511833712,0.028141610324382785,0.1136133074760437,-0.0025043869391083717,-1.5464894297719003,0.2131019937247038,-9.62315280854702
36.3,9.0,57.0,21.58159828186035,21.891233444213867,-79.7823852789157,40.459113698293116,294.1787312164306,-0.08958901464939117,0.041321028023958206,-0.4962425231933594,0.8625600934028625,-0.22231218586541213,10.150251031659927,1.8316673383337831,-0.14443397521972656,0.10632462799549104,-0.057987898588180535,-1.455322859287262,0.0746225681528449,-9.786765503883363
36.4,9.199999809265137,57.0,21.72433280944824,20.56328773498535,-79.78237485345775,40.45911850921691,294.1570122375488,-0.09245390444993973,0.036012619733810425,-0.4939719438552856,0.8637980222702026,-0.17002312110471224,10.20439859221391,1.8189723769344668,-0.25055405497550964,-0.028745727613568306,-0.07429910451173782,-1.5055381625890734,0.3409990918636322,-9.742454134225843
36.51,9.199999809265137,56.0,21.53902816772461,23.09990310668945,-79.78236382260016,40.45912365427702,294.06833006286615,-0.0876166820526123,0.03475414216518402,-0.492483913898468,0.8652024269104004,-0.113494660906232,10.24510552925356,1.8148911013821056,0.10467512160539627,0.08585333824157715,0.08676617592573166,-1.5622486992180349,0.03888573825359345,-9.856249136924744
36.71,9.300000190734863,59.0,21.547792434692386,23.29074668884277,-79.78234281728732,40.459133416457405,294.0383865966797,-0.05293014273047447,0.03014030866324902,-0.4951712489128113,0.8666576147079468,-0.1258150925907398,10.346263368547273,1.5473165261832529,-0.05654881894588471,0.2582900822162628,0.029275035485625267,-1.5364048831164838,0.20355380119755864,-10.197956911325457
36.8,9.300000190734863,62.0,21.592866897583008,21.15966987609864,-79.78233166594345,40.45913839674243,293.93282247924805,-0.044405318796634674,0.027659893035888672,-0.4977403283119202,0.8657469153404236,-0.14726471082824394,10.390653302614712,1.2235914894922086,-0.12825030088424685,0.1632988452911377,0.0631835013628006,-1.3256760549545288,-0.034413139047101145,-10.40515065908432
37.0,9.199999809265137,63.0,21.76189422607422,20.062326431274414,-79.78232112175321,40.459143288035534,293.9306004180908,-0.043467018753290176,0.024709230288863186,-0.4993613660335541,0.8649499416351318,-0.1914641339128708,10.404981356735355,1.0938861401860258,-0.011267978698015213,-0.07322496920824051,0.05279742553830147,-1.0463751746714116,-0.11094055647030474,-10.265144927501677
37.1,9.199999809265137,63.0,21.905879974365234,19.259197235107425,-79.78229946332293,40.45915322254869,293.84682775878906,-0.04962030053138733,0.025836743414402008,-0.5017189383506775,0.8632198572158813,-0.2499112068003356,10.37334305323634,1.1167194404266807,0.052161946892738335,0.15555106103420258,-0.006701541133224964,-1.1680408950895071,0.1611992570757866,-9.991761868000033
37.21,9.199999809265137,67.0,21.7456169128418,19.37052154541016,-79.78228894670201,40.459158095394116,293.8481075897217,-0.048945505172014236,0.03012782894074917,-0.5022070407867432,0.8628353476524353,-0.29415890793205823,10.364313325003442,1.1810566170425258,-0.07298209518194199,-0.18510510027408605,-0.22225108742713928,-1.3020120808482172,0.2054336444847286,-9.773481214642523
37.4,9.199999809265137,66.0,21.823244094848643,19.768110275268555,-79.78226740830827,40.4591680927908,293.74709440612787,-0.043699618428945534,0.038304079324007034,-0.5030249357223511,0.8623160719871521,-0.29641576493513644,10.337115010504263,1.1312708196275711,0.1206647977232933,0.14856159687042236,0.016698520630598068,-1.3497100116312504,0.0004164313897490502,-9.495106971859933
37.5,9.199999809265137,68.0,21.629175186157227,21.207380294799805,-79.78225638927891,40.459173133966864,293.6827156677246,-0.03939323872327805,0.03886345773935318,-0.5034393072128296,0.8622568249702454,-0.31303666100112226,10.336789405278658,1.0567239281554421,-0.07527913898229599,0.03649449720978737,-0.0880284458398819,-1.6138768360018731,0.18479565929621453,-9.559653216004373
37.7,9.199999809265137,68.0,21.616655349731445,21.692440032958984,-79.78223548281969,40.45918270057453,293.66261412048334,-0.023025425150990486,0.03444921597838402,-0.5035387277603149,0.8629785180091858,-0.24375367460679426,10.240902924396954,0.8620112335421353,0.059596206992864616,0.27434366941452026,0.05780547484755516,-1.3595703175663951,0.06763187466189266,-9.929807109832764
37.9,9.199999809265137,69.0,21.69303131103516,20.937021255493164,-79.78222473368137,40.4591876767887,293.61107183837885,-0.013104852288961407,0.031480733305215836,-0.5040023922920227,0.863028883934021,-0.22392967156957164,10.187160126981526,0.687881717076845,0.054467283189296715,0.07860003411769867,-0.07378298044204712,-1.5127143041789533,-0.08579722766764462,-10.122196877002716
38.0,9.199999809265137,74.0,21.86330986022949,19.648834228515625,-79.78220382420888,40.459197262531106,293.56489111328125,-0.0018706320552155367,0.02970644272863865,-0.5037536025047302,0.8633344769477844,-0.1844190248771508,10.054813344125687,0.3498164245506215,0.06306193768978119,0.02277740463614464,0.01848416775465012,-1.2860139526426793,-0.2206857410632074,-9.997659369707108
38.1,9.199999809265137,75.0,21.99352264404297,17.68474578857422,-79.78219362164376,40.45920182216132,293.5625298156738,-0.0038423263467848297,0.02877628803253174,-0.5033276677131653,0.8636077642440796,-0.1472771590540654,9.969766906974598,0.30395162148463345,-0.036675989627838135,-0.00038673545350320637,-0.09947144240140916,-1.5217507374286652,0.03821276027709247,-9.712614623308182
38.3,9.199999809265137,75.0,22.05111694335937,17.25535011291504,-79.78217312508075,40.459211038486686,293.53747106933594,-0.005049312021583319,0.021669901907444,-0.5022971034049988,0.8644087910652161,-0.060309278145959086,9.807633544220518,0.3132125142794798,0.20309819281101227,-0.030662288889288906,0.12345010042190553,-1.3813235677778721,-0.2537428651191294,-9.658125590085984
38.4,9.100000381469727,80.0,21.940937042236328,18.479923248291016,-79.78216314909639,40.45921543827152,293.53223158264166,-0.0018421554705128074,0.0207259338349104,-0.5018581748008728,0.86469966173172,-0.05301152614023597,9.723190995212416,0.23085423961201665,-0.023751389235258102,0.25990548729896545,-0.1260475069284439,-1.0435498731583357,0.15711757164448498,-9.597380620837212
38.61,9.100000381469727,82.0,22.033588409423828,17.0963134765625,-79.78214330223274,40.459224349300094,293.50600553894037,0.006786811165511608,0.02085222490131855,-0.5031955242156982,0.8638943433761597,-0.028386904239065362,9.544311168730527,0.0713277131750327,-0.042826101183891296,0.10578212141990664,-0.05212131887674332,-1.1400014495104551,-0.08941310014575721,-9.67668465256691
38.8,9.0,81.0,21.51899528503418,23.163516998291016,-79.78212390614695,40.459232996496155,293.46992994689936,0.034745946526527405,0.013755888678133488,-0.5044353008270264,0.8626405000686646,0.0300463281266349,9.321788043565936,-0.26524556579954545,0.0929320752620697,0.22439181804656985,-0.20719194412231445,-1.1702569167315962,0.22238638546317813,-9.606661321520804
38.9,9.0,81.0,21.58785820007324,22.082077026367188,-79.78211435485535,40.459237067211774,293.4533951416016,0.036278367042541504,0.006586643867194653,-0.5042868852615356,0.8627487421035767,0.06954855056386136,9.211849781102833,-0.5803968964047133,-0.4235774576663971,-0.018139801919460297,0.171527162194252,-0.4113207770884037,-0.08884596590884031,-9.863794384002686
39.0,8.899999618530273,85.0,21.70805549621582,20.436058044433594,-79.78210485667844,40.459241388052966,293.46469236755365,0.01462388038635254,-0.0026745947543531656,-0.5031440258026123,0.8640746474266052,0.07233604489012238,9.118383448106151,-0.6182821151520029,-0.3059860169887543,-0.5388124585151672,0.09953100979328157,-0.7278938564658165,-0.3196286880970001,-10.02152185678482
39.2,8.800000190734863,83.0,22.13249969482422,16.881616592407227,-79.78208617501014,40.459249291622704,293.4455082550049,-0.05104496702551842,-0.002647493500262499,-0.4911307394504547,0.8695849776268005,0.19240668011813053,8.996022107327807,0.10957021374656004,-0.146405890583992,-0.471904456615448,-0.04529549926519394,-0.8880949938297272,0.30400087136775256,-9.653712696433068
39.4,8.399999618530272,82.0,22.14627265930176,17.0963134765625,-79.78207692194341,40.45925349875485,293.44746710205084,-0.07176999002695084,0.009100079536437988,-0.4861491620540619,0.8708761930465698,0.29679284145512874,8.964523590385411,0.5879316120938921,0.1280750036239624,-0.4341837465763092,-0.11705952882766725,-1.0822998829185964,0.5275141249224544,-9.116909063458444
39.5,8.300000190734862,81.0,22.078662872314453,16.014873504638672,-79.78205831646162,40.4592613460884,293.43147589111334,-0.07055699825286865,0.03206285089254378,-0.4816134870052338,0.8729503154754639,0.4378697162197873,8.946554648885584,1.101645157225746,0.04787517711520195,0.20537486672401428,0.048957649618387215,-1.0361441552639008,-0.01750639921054244,-9.013502808809283
39.6,8.0,63.0,22.07740974426269,17.501853942871097,-79.78204903128322,40.45926531814165,293.39851690673834,-0.058583300560712814,0.031811948865652084,-0.4814855754375458,0.8739151358604431,0.4766162269210948,8.983232091228421,1.0106113240934322,0.1636483520269394,0.2336751669645309,-0.08908670395612718,-0.8811107870936394,0.2464094334281981,-8.915789988040924
39.82,7.900000095367432,63.0,21.672998428344727,20.841598510742188,-79.78203053922675,40.459273327759696,293.33073927307134,-0.03615285083651544,0.021823499351739883,-0.4836409687995911,0.8742473125457764,0.5133344526306227,9.05276136301373,0.5211217128227555,0.08184894174337387,0.2258547991514206,0.16638733446598053,-0.7933298275619746,0.10535999212414028,-9.497123091816905
39.9,7.800000190734862,60.0,21.739356994628906,20.451963424682614,-79.78202117921103,40.45927728765192,293.28592420959467,-0.03009864315390587,0.018829001113772392,-0.4841449558734894,0.8742673397064209,0.5115145940117343,9.061559789101226,0.3333654341074651,0.14074164628982544,0.18578481674194336,-0.09940514713525772,-0.8494668985158206,0.4877039784193039,-9.772442749142646
40.11,7.699999809265138,59.0,21.288618087768555,25.57290458679199,-79.78200284964686,40.45928521719267,293.24344183349615,-0.04154030978679657,0.020246881991624832,-0.4832941591739655,0.8742375373840332,0.5268997104459207,9.019253520261243,0.4411232495711115,-0.2513684034347534,-0.0700163021683693,-0.019847143441438675,-1.174121268466115,0.2771188821271062,-10.581593899726867
40.3,7.699999809265138,63.0,21.977245330810547,18.79004096984864,-79.78198431652879,40.45929306555684,293.2064240112305,-0.07542379945516586,0.018166493624448776,-0.480691134929657,0.8734514117240906,0.571994854728781,9.003313798700624,0.9297627125705581,-0.04803755506873132,-0.3973342478275299,-0.09022798389196396,-0.9339865735173226,0.08636849150061608,-10.928599251508713
40.4,7.699999809265138,61.0,21.843276977539066,19.768110275268555,-79.78197491032444,40.45929699782911,293.19908834838867,-0.09341546148061752,0.029201369732618325,-0.4799871742725372,0.8717989325523376,0.5855113282300273,9.01000470367714,1.254192383916186,-0.04850764945149422,-0.6056685447692871,0.043437570333480835,-1.496748920381069,0.4080396851152182,-9.594816616773606
40.5,7.699999809265138,61.0,21.974742889404297,18.925222396850586,-79.7819657827811,40.459301124471715,293.16648222351074,-0.10526203364133836,0.040556713938713074,-0.4805232584476471,0.8696967959403992,0.5702179908658219,9.01302631438807,1.5760952177363543,0.07024374604225159,-0.4076968133449553,0.2082144170999527,-1.5140654495358468,0.17034506980329753,-9.344969769716265
40.7,7.599999904632567,61.0,21.751876831054688,20.51557731628418,-79.78194673416711,40.45930915690028,293.1264011993408,-0.1101606711745262,0.04723743349313736,-0.4816407263278961,0.8681333661079407,0.5246805421712798,9.13357974795949,1.9386141919150648,-0.028295453637838364,0.08985573053359985,-0.10775156319141388,-1.3099369584023952,0.5248032095655799,-9.328589379787443
40.9,7.699999809265138,49.0,21.71932411193848,20.674612045288086,-79.78193758287733,40.459313232184854,293.1187584533692,-0.10833117365837096,0.04304512962698937,-0.4826758801937103,0.8680066466331482,0.4960764518396831,9.195806703290602,1.934824354467361,-0.15471218526363373,0.07718795537948607,0.0915769636631012,-1.2084599925577642,0.1901082567125559,-9.326755692958832
41.01,7.699999809265138,50.0,21.758136749267575,20.284975051879886,-79.78191856646497,40.45932155407339,293.0887100830078,-0.10150200873613358,0.03047393634915352,-0.4826583862304688,0.869373083114624,0.4831581298378254,9.386620919226317,1.770337027483328,0.12474939972162248,0.11746147274971007,-0.02012745104730129,-1.0822680155932904,0.24125394338741896,-9.548301431536675
41.2,7.800000190734862,49.0,21.883342742919922,18.81389617919922,-79.78190868937921,40.459325785458866,293.05690122985834,-0.09932352602481842,0.030311429873108864,-0.4822660684585571,0.8698480725288391,0.4608031299790769,9.503569160430654,1.6454335008218588,0.03713982179760933,-0.023524785414338112,0.16294963657855988,-0.8858267857879398,0.1701420983299613,-9.656129935383797
41.3,7.900000095367432,49.0,21.65171241760254,21.37436866760254,-79.78188887260339,40.4593344517725,293.00671888732916,-0.09465055912733078,0.03233713656663895,-0.4825746715068817,0.8701248168945312,0.4595757723689957,9.660555594813404,1.6541939925063724,0.031893111765384674,-0.02629338949918747,-0.04902338236570358,-1.2290059389173986,0.4304803851619363,-9.67992225587368
41.4,7.900000095367432,50.0,21.65546989440918,21.45388603210449,-79.78187877280467,40.45933881452458,292.97618223571783,-0.08807937800884247,0.02960673533380032,-0.4828733503818512,0.8707461357116699,0.4536462856767892,9.740626845978976,1.6315210809318788,0.05304946377873421,0.048094503581523895,-0.04040929302573204,-1.2192958333343271,0.10973010974004864,-9.94146411895752
41.6,7.900000095367432,51.0,21.61415100097656,21.827619552612305,-79.78185866099716,40.45934780530408,292.9270680084228,-0.07432138919830322,0.016787271946668625,-0.4832896590232849,0.8721385598182678,0.39968105432249895,9.870759033987241,1.397963716936537,-0.17688488960266113,0.11098305881023407,-0.039821557700634,-1.3619111041724683,0.3887411691248417,-10.042763621807099
41.7,7.900000095367432,52.0,21.75563240051269,20.110036849975586,-79.78184843284166,40.459352274138816,292.9079773559571,-0.06962673366069794,0.0130007304251194,-0.482682466506958,0.8729265332221985,0.4271442332136149,9.925516184631073,1.274692571908027,0.20311856269836426,-0.0185415018349886,-0.010655271820724007,-1.0898433758318424,0.17315332302823666,-10.262112561464312
41.9,7.900000095367432,52.0,21.922155380249023,19.060401916503906,-79.78182792759856,40.459361199578545,292.8658898010254,-0.06803499907255173,0.01724283955991268,-0.4843865931034088,0.8720342516899109,0.3946955220949196,9.966874952493946,1.1302803169818136,0.01751481369137764,0.09033967554569244,-0.057198453694581985,-0.9979074579477312,0.3185162553191185,-9.728690958023073
42.1,7.900000095367432,57.0,21.66172981262207,21.899185180664066,-79.78180726791359,40.459370387888896,292.8270828857422,-0.06184396520256996,0.021226337179541588,-0.4873040616512298,0.8707811236381531,0.30149127006919363,10.005908816804322,1.1682386966174327,-0.06291751563549043,0.08892602473497391,-0.018856627866625786,-1.1031332199275494,0.3071770423650741,-9.581407781839367
42.2,7.900000095367432,57.0,21.723079681396484,21.01653861999512,-79.7817969745453,40.4593749278691,292.8096115722656,-0.05554655939340592,0.020668771117925644,-0.4883182644844055,0.8706507086753845,0.28377154221980005,10.026342924430985,1.1333994263394451,0.07590632140636444,0.031137354671955112,-0.1680288016796112,-1.183600043579936,0.1055006542056799,-9.974718403816224
42.3,7.900000095367432,59.0,21.664234161376953,21.49364471435547,-79.78178660517034,40.459379751331795,292.80050779724115,-0.04922601580619812,0.02010707929730416,-0.4896419048309326,0.8703007102012634,0.2546603120951939,10.047807767895133,1.058897371829418,0.1621566116809845,0.2989007532596588,0.037451401352882385,-1.0168582838773728,0.09122729016467927,-10.191879315376283
42.5,7.900000095367432,60.0,21.73810386657715,20.626901626586914,-79.78176597498853,40.45938915909033,292.7718308105469,-0.0447453148663044,0.01674915850162506,-0.4912336468696594,0.8697165250778198,0.20171250138638747,10.069291002690283,0.8472281145273255,0.16601483523845673,-0.10276879370212556,0.3091268241405487,-1.0884241104125978,-0.15120024422183634,-9.800154458284377
42.71,7.900000095367432,64.0,21.793193817138672,20.110036849975586,-79.78174539095039,40.4593982911645,292.74829794311523,-0.05124764144420624,0.01970899477601052,-0.490977793931961,0.8694401383399963,0.15400399571586326,10.041181369831866,0.8664914273456417,-0.1576964259147644,-0.043034285306930535,-0.10941042751073836,-1.1793238285928964,0.4564748036116362,-9.74245121061802
42.81,7.900000095367432,63.0,21.80070686340332,21.135814666748047,-79.78173526965394,40.459402754365314,292.70311094665533,-0.05220239982008934,0.021875159814953804,-0.4903919100761414,0.8696622252464294,0.21891565480441266,9.983460001348996,0.8638352833861516,0.16934920847415924,-0.0017717053415253758,-0.1449888050556183,-1.3375903415679933,0.26060320224612954,-9.275238214731216
42.9,7.900000095367432,63.0,21.617908477783203,22.034364700317386,-79.78172503942963,40.45940724374326,292.67843367004394,-0.046691082417964935,0.02243608050048352,-0.4891516864299774,0.8706591129302979,0.24499453617514244,9.956407945656881,0.8559623080776326,0.15636034309864044,0.061803746968507774,0.15649718046188354,-1.329077234119177,-0.017622192353010182,-9.317090830206867
43.11,7.900000095367432,63.0,21.516490936279297,22.479665756225586,-79.78170452024449,40.459416412644046,292.62460256958013,-0.028854722157120705,0.013629222288727759,-0.4865707159042358,0.8730582594871521,0.3065104675793002,9.938570993889405,0.5684588073631016,-0.2850369513034821,0.19626925885677332,-0.17836496233940125,-1.1431109257042409,0.26862192761152986,-9.823122321367263
43.2,8.0,66.0,21.48268699645996,23.71219062805176,-79.78169434893655,40.45942082448684,292.598334564209,-0.024421952664852142,0.006881768349558115,-0.4848411977291107,0.8742340803146362,0.3892233780069749,9.878128847708117,0.36850572225081535,-0.011886714957654476,0.1116427630186081,0.09087366610765456,-1.1251511297374963,-0.12335083315148952,-9.955564094781877
43.41,7.900000095367432,68.0,21.554052352905273,21.70039176940918,-79.78167394839375,40.45942978005432,292.54631163024897,-0.023002717643976208,-0.00013162869436200708,-0.4839357733726502,0.8748011589050293,0.4928759798001309,9.786014962562014,0.1452935093624156,0.3222696781158447,-0.027774641290307045,-0.009571989998221396,-0.9336396143585444,0.28529274143278605,-10.002700839042664
43.6,8.0,67.0,21.560312271118164,23.02833747863769,-79.78166382934602,40.459434484380175,292.5282967224121,-0.019064415246248245,0.004167650360614061,-0.4830222129821777,0.8753907084465027,0.4488603554794113,9.762598941395217,0.2084577871088832,-0.09737929701805116,0.13190698623657227,-0.08484707772731781,-0.967401876077056,0.6742504768073561,-10.306593500375747
43.7,8.0,66.0,21.584102630615234,22.272918701171875,-79.78164388421342,40.459443055501104,292.5118630065918,-0.014177398756146431,-0.006963999476283789,-0.4808264076709747,0.8766735792160034,0.5269775419981039,9.603745250002307,0.32902756786882703,-0.15036803483963013,0.13040438294410706,0.07831260561943054,-1.1582967294752595,0.3316532312706113,-10.750876640081406
43.9,8.0,67.0,21.332439422607425,24.55507850646973,-79.78162413462928,40.459451785196364,292.50795103454584,-0.008540288545191288,-0.012939723208546637,-0.4780759513378143,0.8781816363334656,0.5665727949661652,9.495756908470156,0.17133444327443506,0.07241190969944,0.011316541582345964,0.06646642833948135,-0.8840550063550473,0.4231370497494936,-10.775803320407867
44.0,8.0,70.0,21.776918411254886,19.99871063232422,-79.78161443672131,40.45945610074715,292.5322029724121,-0.0207236297428608,-0.005365137476474047,-0.4764483571052551,0.8789419531822205,0.5853749861654942,9.462139208010802,0.2459056606411415,0.08486823737621307,-0.4050760567188263,-0.2393683642148972,-0.5185002399981022,0.30423614870756865,-10.530030813217165
44.1,7.900000095367432,70.0,22.03984832763672,17.708600997924805,-79.7816047136277,40.459460290084344,292.55628706359863,-0.045350275933742516,0.005566161591559649,-0.4743664562702179,0.8791409730911255,0.6101935987216729,9.431645212714221,0.5012123573288358,-0.11971957236528395,-0.6385694146156311,-0.04342811182141304,-0.6870063239336014,0.43173954650759705,-9.792987526059152
44.31,7.900000095367432,70.0,21.665485382080078,21.41412734985352,-79.78158550607436,40.45946884742965,292.58223272705084,-0.08214186877012253,0.030167212709784508,-0.4742377698421478,0.8760371804237366,0.6589776799158257,9.329370296776228,1.3300909036584558,0.10865482687950134,-0.22147856652736664,0.15953592956066132,-1.2945288142561913,0.20116583487018946,-8.824518460035325
44.5,7.800000190734862,60.0,21.57032966613769,21.756053924560547,-79.78157579233543,40.45947303384681,292.57881666564936,-0.0787038505077362,0.03422242775559425,-0.477851539850235,0.8742381930351257,0.6478992611033392,9.330857181320782,1.5495588512083212,0.18109087646007532,0.15760721266269684,0.010170411318540571,-1.3274221797287464,0.2161583150736988,-9.10362068116665
44.6,7.800000190734862,55.0,21.67174530029297,20.984731674194336,-79.7815564145992,40.459481791780384,292.6030266418457,-0.05576055124402046,0.027744406834244728,-0.4825433790683746,0.8736549615859985,0.466818438719651,9.4350546159376,1.3650071016706158,-0.03372315317392348,0.33725371956825256,-0.1667129546403885,-1.1632514407485723,0.6244602660834789,-9.593491637706755
44.8,7.699999809265138,54.0,21.73810386657715,20.68256378173828,-79.78153701617472,40.459490319238405,292.6473286285401,-0.04952321574091911,0.014371298253536224,-0.4818492233753204,0.8747356534004211,0.5077800273691481,9.491741254100873,0.9636689410062628,0.12366151809692386,-0.007375136483460666,0.11958878487348555,-1.0355652078241109,0.4114403526484967,-9.736525057554246
44.9,7.699999809265138,54.0,21.87708282470703,20.133892059326172,-79.78152718631203,40.45949453647039,292.642653717041,-0.0519539974629879,0.011648030951619148,-0.4809770584106445,0.8751150369644165,0.5091130682936315,9.507937718806227,0.8977046362216803,0.02410297095775604,-0.05166690424084664,0.12033752351999286,-0.8746694943308829,0.3279423324018717,-9.615287718772887
45.1,7.699999809265138,62.0,21.619159698486328,22.241111755371094,-79.78151733693046,40.45949887943503,292.67559744262695,-0.05560709163546562,0.01158486306667328,-0.4800232648849487,0.8754150271415709,0.5161698509311352,9.529796402687065,0.9096886313995598,-0.1658044010400772,-0.032987501472234726,-0.07335540652275085,-0.8426349386572838,0.3979868596047163,-9.523755404949187
45.21,7.599999904632567,60.0,21.560312271118164,22.757976531982425,-79.78149769897264,40.459507292462575,292.66570974731445,-0.033458411693573,-0.0018675713799893856,-0.4800229966640472,0.8766156435012817,0.5612777973097536,9.425876859870948,0.9520947912854252,-0.053040377795696265,0.8258873224258423,-0.12596911191940308,-1.3390765576064587,0.4518341609090567,-9.8957950258255
45.4,7.5,59.0,21.74186134338379,20.396299362182614,-79.78147811363482,40.45951558047887,292.6977989807129,0.04414916783571243,-0.03988878428936005,-0.4765025973320007,0.8771575093269348,0.6066107088183584,9.22898908490418,-0.2113230706572083,-0.07820115983486177,0.7958105802536011,-0.06281744688749312,-1.3098059807717801,0.785508226454258,-10.035431213378908
45.51,7.400000095367432,59.0,21.90087127685547,19.386425018310547,-79.78146846816693,40.45951981626156,292.7111122741698,0.07491236180067062,-0.05399776995182037,-0.4737759828567505,0.8757904767990112,0.6301869599056179,8.988306033572082,-1.0001813971554974,0.19579651951789856,0.6233941316604614,-0.11816833913326265,-0.5575599694624543,0.4965802345052362,-9.9549361038208
45.6,7.199999809265138,80.0,21.6817626953125,21.485692977905273,-79.78145922854753,40.45952371064225,292.7152111663818,0.0907791256904602,-0.06406983733177185,-0.4713651835918426,0.8749110102653503,0.6434263574587138,8.65816471923707,-1.5995638181382332,-0.2196360528469085,0.3619008660316467,-0.16913406550884247,-0.5976291476190091,0.5764737752079964,-9.773784685134887
45.8,7.099999904632568,88.0,21.90337562561035,19.283052444458008,-79.78144123161363,40.45953133808104,292.7407257690429,0.09907716512680054,-0.07804711908102037,-0.4715714752674103,0.8727615475654602,0.6615913535736782,8.003836104340017,-2.0942586708706763,0.1397463083267212,0.004340990446507932,0.09087108075618744,-0.7506175982952118,0.305505359955132,-9.417115640044212
45.9,6.699999809265138,88.0,21.662981033325195,21.692440032958984,-79.78143278345277,40.45953484196903,292.7247326507568,0.10514940321445464,-0.08052272349596024,-0.4716924130916596,0.8717603087425232,0.6276185206300637,7.678237167284506,-2.1986876461656246,0.08095312118530272,0.225603461265564,-0.031622249633073814,-0.6440213951468468,0.5370613490045071,-9.299576080441476
46.1,6.599999904632568,88.0,21.72433280944824,21.008586883544922,-79.78141648268128,40.459541672207706,292.71139456176763,0.12807612121105194,-0.08775923401117325,-0.4723939895629883,0.8676051497459412,0.5875684035691904,7.013626245846945,-2.4454637957784824,0.1756701022386551,0.23901551961898804,0.16478820145130155,-0.395547949410975,0.09663654936477542,-9.449886360168456
46.3,6.099999904632568,93.0,21.145883560180664,27.57675170898437,-79.781408904774,40.459544758567006,292.6722786560058,0.14074356853961945,-0.09065611660480499,-0.4727060198783874,0.8651716113090515,0.5614293837283337,6.619235248860363,-2.593733252250492,0.04937586933374405,0.32576984167099,0.06454471498727797,-0.19455955926328894,0.3981666980311275,-9.47863361120224
46.4,5.9000000953674325,97.0,21.139623641967773,26.98832130432129,-79.78139484822235,40.45955067714072,292.6211598052978,0.1591707020998001,-0.09401464462280272,-0.4766119718551636,0.8594574332237244,0.5460816735506909,5.820079281101736,-2.688764347466776,0.14584438502788544,0.05959506705403327,0.10991355776786804,0.05306524534709752,0.3016290214285255,-10.311666544675829
46.5,5.300000190734863,97.0,20.928028106689453,29.501081466674805,-79.78138839350434,40.459553583558005,292.62051702880865,0.15695831179618835,-0.091638945043087,-0.4801697134971618,0.8581395745277405,0.4904918950148704,5.4750425660865165,-2.5837935066619764,0.05801887437701225,-0.13312335312366486,0.07047860324382782,-0.020517445751465857,0.247644146103412,-10.560030537843703
46.7,5.0,97.0,20.9167594909668,29.96228408813477,-79.78137647719183,40.45955816737288,292.54971434021,0.15507295727729795,-0.08359677344560623,-0.4822615087032318,0.8581305146217346,0.4795339521234169,4.810667135870474,-2.1011773496295527,0.12171876430511475,-0.034556739032268524,-0.011537871323525906,-0.057186979637481275,0.1881352416984737,-11.115473924875259
