time,wind_speed,wind_angle,battery_voltage,battery_current,position_x,position_y,position_z,orientation_x,orientation_y,orientation_z,orientation_w,velocity_x,velocity_y,velocity_z,angular_x,angular_y,angular_z,linear_acceleration_x,linear_acceleration_y,linear_acceleration_z
0.0,2.9000000953674316,152.0,24.2221736907959,-0.015903547406196594,-79.78275423751897,40.458938851259106,267.3967873134613,0.010710270144045351,-0.0097909988835454,0.4449403882026672,0.8954426050186157,-0.022273884411557563,-0.0073484336596086625,0.0019198388313590301,0.00024141353787854322,-0.0025030344258993864,0.006076889578253032,0.0722463556425646,0.2417745283059776,-9.80405864417553
0.11,2.9000000953674316,152.0,24.218416213989247,-0.007951773703098297,-79.78275424655038,40.45893883086189,267.3969172515869,0.010691592469811441,-0.009776042774319649,0.4449354410171509,0.8954454660415649,-0.025709959662263682,-0.00994720919717948,0.0020995923059272327,-0.0010967763373628259,-0.00022849389642942691,0.0019519084598869085,0.0720908973645419,0.2341436926089228,-9.805619850754738
0.3,2.9000000953674316,151.0,24.21716499328613,-0.039758868515491486,-79.78275422751359,40.458938868436476,267.3966812171936,0.010686960071325302,-0.009760620072484016,0.44495177268981934,0.8954375982284546,-0.02535646641034237,-0.014212716160624844,0.004792633564286783,0.011101308278739452,0.003687433199957013,0.005350670311599971,0.07409334488678725,0.2233111774362624,-9.805992318391802
0.4,2.9000000953674316,149.0,24.21591186523437,-0.015903547406196594,-79.78275423278261,40.45893884222372,267.3970940389633,0.010688150301575659,-0.009749882854521276,0.4449688792228699,0.8954291343688965,-0.02960757807585352,-0.016634359697366582,0.005273551818527685,-0.00981879886239767,-0.00218675984069705,-0.004503045696765184,0.06898789422120899,0.2335960277728737,-9.805347955226898
0.5,2.9000000953674316,148.0,24.21591186523437,-0.03180709481239319,-79.78275420717956,40.458938900844394,267.39771273517607,0.01065830234438181,-0.009715426713228226,0.4449995160102844,0.8954146504402161,-0.02442558774766905,-0.016014841828374426,0.007152781466073141,-0.006055478472262621,0.00012033391249133274,-0.005247563123703003,0.07663200492504985,0.218948917016387,-9.808138246536256
0.7,2.9000000953674316,152.0,24.223424911499023,-0.007951773703098297,-79.78275420911066,40.45893887294661,267.3983509221077,0.010670569725334644,-0.009720446541905405,0.4450314939022064,0.8953986167907715,-0.02690995510644931,-0.01876498586074344,0.007296683143084412,0.0024553581606596717,0.0007193508208729327,0.0043920218013227,0.07333540412597359,0.2187642911821604,-9.80583853662014
0.8,2.9000000953674316,151.0,24.223424911499023,0.007951773703098297,-79.7827541580184,40.458938971355856,267.4012935438156,0.010603452101349829,-0.009659647941589355,0.4450626969337464,0.8953845500946045,-0.01572435787476149,-0.017561706073436174,0.012789306043158944,-0.006111199967563152,-0.00578736886382103,-0.00428540026769042,0.07208880058955401,0.2360495011880994,-9.805073136091233
1.0,2.799999952316284,152.0,24.2221736907959,0.0,-79.7827541113252,40.4589390586554,267.4043208041191,0.01059023290872574,-0.009635575115680695,0.4450554847717285,0.8953886032104492,-0.007323007502628894,-0.015946424992897845,0.01990772855177377,0.007932111620903015,0.00010843935888260604,0.007185612805187701,0.07860786588862538,0.2245799501426518,-9.806890450716015
1.2,2.799999952316284,151.0,24.219669342041016,0.0,-79.78275409222938,40.45893902268299,267.4082704463005,0.010573827661573887,-0.009665912017226221,0.4450940489768982,0.895369291305542,-0.013392613734506457,-0.02167527683212777,0.020455294875841502,0.005084525793790817,0.0027498737908899784,0.003918612841516733,0.07235674467869102,0.24123057279735804,-9.803116657733918
1.3,2.700000047683716,154.0,24.2221736907959,-0.007951773703098297,-79.78275409372056,40.45893912392327,267.40813740873335,0.01053327228873968,-0.009657267481088638,0.44510772824287415,0.8953630924224854,-0.010166011627713594,-0.010600047754825715,0.02029750825544398,-0.00010244599252473564,0.003062014700844884,-0.0016163724940270185,0.07178742687217891,0.2417134614475072,-9.80532456636429
1.4,2.700000047683716,152.0,24.22092056274414,-0.015903547406196594,-79.78275399748111,40.45893918762571,267.4127468743324,0.010508889332413672,-0.009614019654691221,0.4451308250427246,0.8953523039817809,-0.0005473543100204262,-0.019582329504008858,0.026285416476386964,0.004134264774620533,0.004162654280662537,0.004591200035065413,0.07118825172074139,0.22396739948540928,-9.806187615394592
1.6,2.5999999046325684,151.0,24.223424911499023,0.007951773703098297,-79.7827539801182,40.45893917531676,267.4153703131676,0.010500514879822731,-0.009631387889385223,0.4451335072517395,0.8953509330749512,-0.004323281646795517,-0.02187357633800874,0.026744983240212482,-0.0037660107482224703,-0.003971964120864868,-0.0013626494910568,0.07340601839125156,0.2303724029660225,-9.805636222958565
1.7,2.4000000953674316,150.0,24.223424911499023,0.0,-79.78275388746124,40.458939228427305,267.4250497498512,0.010504039004445076,-0.009602157399058342,0.4451521337032318,0.8953419327735901,-0.0001487165375187736,-0.02735271595104952,0.04340480570733077,-0.006422898732125759,-0.004174360539764166,-0.00678429938852787,0.07323466756381095,0.22319655373692512,-9.806722050905227
1.9,2.4000000953674316,157.0,24.21591186523437,-0.015903547406196594,-79.7827538617837,40.45893921219285,267.4293623843193,0.010488777421414852,-0.00962008535861969,0.4451586008071899,0.8953386545181274,-0.001753677745263227,-0.030223795277445027,0.04351383861700267,0.00625071581453085,0.00048704241635277873,0.005833091214299202,0.07401517949067056,0.2213694632984698,-9.806807420253756
2.0,2.4000000953674316,157.0,24.219669342041016,-0.007951773703098297,-79.78275376519147,40.45893926545889,267.43958028936385,0.010486191138625143,-0.009608409367501736,0.4451833367347717,0.8953264951705933,0.0015217567162522005,-0.032486357698037774,0.05390918251658272,0.0016289345221593974,-0.0011305218795314431,0.004607942420989275,0.07060711614321917,0.23994626842439176,-9.805065534710883
2.2,2.5,155.0,24.223424911499023,0.0,-79.78275373416339,40.45893924547385,267.44495472097395,0.0104833971709013,-0.009630057960748672,0.4451941549777985,0.8953210115432739,-0.0020389305748910714,-0.03520784800909959,0.05429166501409288,-0.002752238418906927,-0.0008671305258758366,-0.005397115368396044,0.0697903240704909,0.2427989422157407,-9.804416493773461
2.3,2.5,149.0,24.223424911499023,0.0,-79.78275377180832,40.45893932296417,267.444796649456,0.01044679619371891,-0.009664647281169891,0.4451971650123596,0.8953195810317993,-0.006214887608565997,-0.0190654580466636,0.0525541262074863,0.002486973302438855,0.00024052103981375694,0.005013292655348778,0.07656929353717715,0.22009329020977025,-9.807452368140224
2.5,2.5,152.0,24.219669342041016,-0.007951773703098297,-79.7827537327172,40.458939348645494,267.4486006774902,0.010414647869765759,-0.009681657887995243,0.445229172706604,0.8953038454055786,-0.009393267147450195,-0.02175043440416142,0.049307436417758435,-7.852511043893172e-05,-0.0005191629752516748,0.0033223745413124557,0.07315021641086787,0.22217884585261347,-9.807333669662476
2.61,2.4000000953674316,155.0,24.21215629577637,0.0,-79.78275370571292,40.45893930401415,267.4584045090675,0.010410124436020851,-0.009655469097197056,0.44524404406547546,0.8952968120574951,-0.015265433619693009,-0.02662685289689995,0.049974432768324084,-0.0053137224167585356,0.0007154662162065506,-0.0018235961906611922,0.06919479429256171,0.2360417718999088,-9.806114525198938
2.8,2.5,161.0,24.2221736907959,0.0,-79.78275370626666,40.45893937962339,267.4555262007713,0.010375729762017729,-0.009648047387599943,0.4452488422393799,0.8952948451042175,-0.00859825197778589,-0.01689075711105989,0.04609433738912636,0.0036653159186244007,0.003186256624758244,-0.000863805296830833,0.07240165860392153,0.2320477033406496,-9.806642528772352
2.9,2.299999952316284,158.0,24.2221736907959,0.0,-79.78275367431661,40.458939450489424,267.4568456687927,0.010319830849766731,-0.009623577818274498,0.4452823102474213,0.8952791094779968,0.0006001796735979209,-0.011711123530271443,0.04318705978010316,0.0019359112484380605,0.00214064447209239,0.003001377917826176,0.07166487288661301,0.22420581970363854,-9.805314041376112
3.11,2.200000047683716,168.0,24.22092056274414,0.007951773703098297,-79.78275366352277,40.45893944279389,267.4611709990501,0.010320818051695824,-0.00962498877197504,0.4453175067901611,0.8952615857124329,-0.002569947311527295,-0.013716764391224628,0.043560933510808905,-0.0047627915628254405,0.0010184772545471787,-0.0011436917120590804,0.0724393822811544,0.22432404309511186,-9.80482989192009
3.2,2.200000047683716,174.0,24.21716499328613,0.007951773703098297,-79.78275368609987,40.45893946888784,267.458929625988,0.010304228402674198,-0.009653317742049694,0.44534507393836975,0.8952476978302002,-0.012517900009373185,-0.009871949923594234,0.03714554054058807,-0.004592284560203552,-0.0030580656602978698,-0.001900162431411445,0.07315263295546175,0.2323921774327755,-9.80409431219101
3.41,2.299999952316284,170.0,24.21716499328613,-0.015903547406196594,-79.78275368589328,40.45893945315958,267.46259954357146,0.010296116583049296,-0.009627866558730602,0.4453398287296295,0.8952507376670837,-0.014769440009550256,-0.012403665059345492,0.037297735948702254,0.003265854436904192,0.0023758693132549524,0.0013319349382072687,0.07234146882779896,0.23544312665238976,-9.80556196331978
3.6,2.299999952316284,164.0,24.219669342041016,0.0,-79.7827537029765,40.45893948615793,267.4590502061844,0.010249891318380831,-0.009606719948351385,0.4453721046447754,0.8952353596687317,-0.016816108314490968,-0.01006585798381616,0.031972681199868035,-0.002376342425122857,0.0008137592230923474,-0.0001094931794796139,0.07141866399440915,0.2209915869869292,-9.806372972130776
3.7,2.5,160.0,24.223424911499023,0.007951773703098297,-79.78275370580849,40.458939466195844,267.46220364952086,0.010257316753268242,-0.009618020616471771,0.4453757703304291,0.8952333331108093,-0.01934448154881184,-0.012389987292775972,0.03219554028066096,0.0014599302085116506,-0.0020112143829464912,0.005339061841368675,0.07529361837543548,0.2218490628898144,-9.80623322367668
3.8,2.200000047683716,164.0,24.223424911499023,0.0,-79.78275372464992,40.45893948012324,267.45555647993086,0.010211325250566006,-0.009624453261494637,0.4453645646572113,0.8952394127845764,-0.02205119354000772,-0.011023632287850244,0.022855542259218254,0.00962583627551794,-0.0012647247640416026,0.0042506824247539035,0.07058316539973021,0.2416864180751145,-9.802665837407114
4.0,2.0999999046325684,171.0,24.21215629577637,0.015903547406196594,-79.78275373806352,40.45893952347677,267.44608118915556,0.010204911231994629,-0.009621286764740944,0.4453839361667633,0.8952298164367676,-0.01944059410584947,-0.005989679512070582,0.014596954112474863,-0.006513891741633415,-0.005764237139374018,-0.008163196966052055,0.07136589287314564,0.2357830508798361,-9.805122252702713
4.2,2.200000047683716,172.0,24.223424911499023,0.015903547406196594,-79.78275375332528,40.458939483695886,267.44890823745726,0.010215737856924534,-0.009625633247196673,0.4454009234905243,0.8952212929725647,-0.02450246589495116,-0.010393536458543013,0.015075460826729475,-0.0030727805569767948,-0.0011207073694095016,-0.0015133200213313105,0.07495261149946601,0.2291360274888576,-9.806315084695816
4.3,2.299999952316284,174.0,24.2221736907959,-0.007951773703098297,-79.78275376921948,40.458939532655506,267.4382742323875,0.010191621258854866,-0.0096134589985013,0.4454040229320526,0.8952201008796692,-0.019488561192483614,-0.005167387146406505,0.008327194926961002,0.004397854208946228,0.0007661953568458557,-0.0007256261887960138,0.0738401969941333,0.2319936531409621,-9.805787081122398
4.4,2.0999999046325684,174.0,24.21716499328613,-0.015903547406196594,-79.78275379370521,40.458939549062244,267.4296303071976,0.010150955989956856,-0.00959299597889185,0.4453957974910736,0.8952248692512512,-0.019367782749288364,-0.004588544107374051,0.0055210056508707755,0.0009353869245387614,9.722992399474606e-05,-0.0017999054398387673,0.07197571635246278,0.2213256274536252,-9.806019215583802
4.61,2.4000000953674316,180.0,24.21215629577637,0.0,-79.78275380351664,40.4589395322424,267.43012508535384,0.010138620622456074,-0.009584181010723114,0.4453917145729065,0.8952271342277527,-0.021764499576909888,-0.006221590311123737,0.00553158042985984,0.0014739971375092866,-0.0011936848750337954,0.004385975655168295,0.07554593943525106,0.22010288329795005,-9.805461391210557
4.7,2.5,179.0,24.219669342041016,0.0,-79.78275381290362,40.458939511600754,267.43061777734755,0.010124334134161472,-0.009562807157635687,0.4453887045383453,0.8952289819717407,-0.024670096274563715,-0.008469091594302163,0.005704664814047081,-0.0004961270024068654,0.00042009790195152164,-0.0009312622714787725,0.07240390155930072,0.2366856965236365,-9.804131734371186
4.91,2.5999999046325684,183.0,24.21215629577637,-0.015903547406196594,-79.78275385919207,40.45893954148277,267.4211342015266,0.010098292492330073,-0.009574725292623043,0.4454103410243988,0.8952184319496155,-0.02340245033490784,-0.0029688355789384106,0.0037019899490383507,-0.0009552488336339592,-0.0005499101243913174,-0.0038098262157291174,0.06963534544687719,0.2419796742126345,-9.805247383117676
5.01,2.5,183.0,24.22092056274414,-0.015903547406196594,-79.7827538942889,40.45893958065651,267.4107730665207,0.010052505880594257,-0.00955447182059288,0.4454379379749298,0.8952054977416992,-0.018408368716595475,-0.0007137145961875714,0.0018169861256526593,0.0038825490046292548,0.0010665421141311526,-0.003672073129564524,0.07327152786310763,0.21797838885337115,-9.806633757948877
5.2,2.700000047683716,193.0,24.2221736907959,0.007951773703098297,-79.7827539071642,40.458939565494475,267.4109046139717,0.010054972022771835,-0.0095430463552475,0.44542813301086426,0.8952105045318604,-0.021155738963021285,-0.0024420798545997536,0.0018934945167878336,-0.00028917560121044517,-0.0024870436172932386,0.0019663530401885514,0.07145662064664066,0.2236501514911652,-9.805236858129502
5.3,2.5999999046325684,195.0,24.219669342041016,-0.007951773703098297,-79.78275393702295,40.458939603868224,267.40005442285536,0.01003128569573164,-0.0095409844070673,0.4454490840435028,0.8952003121376038,-0.01822853209753211,-0.0015199774762343172,0.0005734144106158812,-0.004607209470123054,-0.002697750460356474,0.0009547226363793015,0.0733348148362711,0.2364572896622121,-9.805007647275923
5.5,2.799999952316284,198.0,24.21090507507324,0.07156596332788467,-79.78275397276069,40.458939617295606,267.3880920090675,0.01004069484770298,-0.00955185666680336,0.4454512596130371,0.8951989412307739,-0.020966207997282747,-0.00035381735090030987,-0.002717281955794078,0.00041094812331721187,-1.1294136129436085e-05,-0.002470197156071663,0.07051794610451907,0.2405122971720993,-9.804334048032759
5.6,2.799999952316284,202.0,24.21591186523437,-0.015903547406196594,-79.78275400229055,40.458939582638656,267.38744964981083,0.0100415488705039,-0.009563316591084005,0.4454789757728577,0.8951851129531859,-0.026159235119780064,-0.0038848911029532853,-0.0024796104833610627,-0.004492192529141903,0.0012469120556488633,-0.0059266132302582255,0.07492956981528551,0.22112548822537065,-9.806524999737741
5.8,2.799999952316284,205.0,24.218416213989247,-0.007951773703098297,-79.78275402396677,40.4589396055646,267.3750299491882,0.010026037693023682,-0.009565893560647964,0.4454761147499085,0.8951866030693054,-0.02165287834056761,-0.0022007271666143018,-0.005521396986168052,0.005554324481636286,0.0008302457281388342,0.004930750932544471,0.07399224287364632,0.22055984320119024,-9.807604395747186
5.91,2.700000047683716,206.0,24.20589637756348,-0.05566241592168808,-79.78275406453079,40.45893961411733,267.3611141719818,0.010015789419412613,-0.009565351530909538,0.4455118179321289,0.8951689600944519,-0.019706638534285673,-0.0016525640757891866,-0.007822743315196784,0.0074734073132276535,0.0011806245893239975,0.005773574113845825,0.0708310782071203,0.2376215068437159,-9.804499524235727
6.1,2.5999999046325684,207.0,24.213409423828125,0.02385532110929489,-79.78275407749607,40.458939598683855,267.3602839388847,0.010002466849982737,-0.009552785195410252,0.4455256462097168,0.8951623439788818,-0.023224121572184862,-0.0030598540770270287,-0.007714023457312946,-0.008337308652698994,-0.002690784633159637,-0.00755989458411932,0.06944425569847226,0.2366643907316029,-9.803998417854313
6.2,2.5999999046325684,205.0,24.21716499328613,-0.015903547406196594,-79.78275412005304,40.45893957526928,267.34522658371924,0.01003877818584442,-0.009554320946335793,0.44556403160095215,0.8951427936553955,-0.027181079110627743,-0.006797366837631224,-0.00929665037698038,-0.008786454796791077,-0.0038116420619189744,-0.008628889918327332,0.0765348589187488,0.22190939884632827,-9.806146100163463
6.4,2.5,205.0,24.218416213989247,-0.015903547406196594,-79.78275413262054,40.45893955225014,267.3442150630951,0.010035336017608644,-0.009553334675729276,0.4455898702144623,0.8951299786567688,-0.02832896561456165,-0.008827846294844009,-0.009372287551476677,0.004777969792485237,0.0024824291467666626,0.007569689303636552,0.07398253558203577,0.22423671858385205,-9.805888237953187
6.5,2.5999999046325684,205.0,24.21716499328613,-0.04771064221858978,-79.78275417577343,40.458939556371654,267.3292499759197,0.01003214716911316,-0.009546490386128427,0.4456015527248383,0.8951243162155151,-0.0244358686910055,-0.006567654035242884,-0.010119153459967693,0.005329906474798918,0.003610152285546064,0.0063965548761188975,0.07162022848147899,0.2357861937582493,-9.804724642038344
6.7,2.5,208.0,24.2221736907959,0.007951773703098297,-79.78275418766914,40.458939533876865,267.3281718173027,0.010049778036773205,-0.009551571682095528,0.4456080794334412,0.8951208591461182,-0.02796392600086842,-0.007990120386868577,-0.009888211221463685,-0.008255349472165108,-3.3422743399569303e-06,-0.007302294950932264,0.07024602316785604,0.2363722857646645,-9.804931633472444
6.8,2.5999999046325684,209.0,24.21090507507324,0.07951773703098297,-79.78275425553822,40.45893953534075,267.3149776139259,0.010021506808698177,-0.009562237188220024,0.44563472270965576,0.8951077461242676,-0.02793296248773058,-0.003484972550460809,-0.006953224420083932,-0.0086355060338974,-0.003904512617737055,-0.007817479781806469,0.07764198808930815,0.2244817169196904,-9.806448985934258
7.01,2.700000047683716,206.0,24.21090507507324,0.15108370780944824,-79.78275428479401,40.458939519971814,267.3001096525192,0.010030576959252356,-0.00957651063799858,0.4456431269645691,0.8951033353805542,-0.02720015427974088,-0.006105643029570724,-0.009059300398727248,0.005993677768856287,0.0044953678734600535,0.006045088171958922,0.0723916954966262,0.2274468582496047,-9.805839706063267
7.2,2.799999952316284,205.0,24.21591186523437,0.10337305814027786,-79.78275431328808,40.45893946958621,267.2981332221031,0.01004179660230875,-0.00957611296325922,0.4456765651702881,0.8950865864753723,-0.03234842198043245,-0.009779055389700713,-0.009077364757654471,0.0048697669990360746,0.0027965144254267216,0.0011637280695140366,0.0713324038591236,0.2316335377469659,-9.80394169986248
7.3,2.799999952316284,197.0,24.20464515686035,0.22264966368675232,-79.78275434508072,40.45893951538824,267.282777217865,0.010014193132519722,-0.009556449949741364,0.4456756114959717,0.8950875401496887,-0.021884135609617338,-0.0016089299261902552,-0.010445545187604998,-0.005666851997375488,-0.0022891866974532604,-0.003891765838488936,0.06991304250899702,0.2307020762935281,-9.804869068264962
7.4,2.799999952316284,194.0,24.2071475982666,0.07156596332788467,-79.78275439002554,40.45893948949992,267.26694518113135,0.010021577589213848,-0.00956483744084835,0.44567540287971497,0.8950875401496887,-0.02360127636449875,-0.003605506711754624,-0.010901736758936605,-0.009259207174181938,0.001275031128898263,-0.000711774337105453,0.07594079094473273,0.2280776449106633,-9.80651272058487
7.6,2.799999952316284,193.0,24.21466064453125,0.07951773703098297,-79.78275440276313,40.45893947071175,267.26579129481314,0.009997352957725523,-0.009553689509630205,0.4456664025783539,0.8950923681259155,-0.025093766826235302,-0.005591828002837475,-0.010930318216171894,0.00670549925416708,0.0054216692224144936,0.006627182476222515,0.07621939706616104,0.2287590830773115,-9.806280001401902
7.8,2.9000000953674316,192.0,24.21090507507324,0.10337305814027786,-79.78275444876623,40.45893943953831,267.2479492702484,0.010004138574004172,-0.009569519199430944,0.44565311074256897,0.8950987458229065,-0.02542315311561465,-0.006372319118552768,-0.014936986213117724,0.0073261549696326264,0.005216459743678571,0.0006897116545587777,0.07004613061901183,0.2289870148524642,-9.805539743900301
7.9,3.0,190.0,24.20840072631836,0.06361418962478638,-79.78275446098802,40.4589394175164,267.2463794627189,0.010015727952122688,-0.009591052308678629,0.4456624388694763,0.8950937390327454,-0.028438325988063968,-0.00784745495355644,-0.014859025790666119,-0.002880527172237635,-0.0023275015410035853,-0.0015009207418188453,0.0731172847095877,0.2287118668109179,-9.805169030427932
8.0,3.0,189.0,24.21591186523437,0.09542128443717957,-79.78275453245786,40.4589394013597,267.2297183253765,0.009979365393519402,-0.009598591364920141,0.4456806182861328,0.8950850367546082,-0.027590127589938,-0.002243832981610717,-0.014044789157460621,-0.004645762499421835,-0.0008306392701342702,-0.0012541563482955098,0.07217239750083536,0.2303900359757245,-9.805380114912987
8.2,3.0,186.0,24.209651947021484,0.08746951073408127,-79.78275454911805,40.45893937954257,267.22823238158225,0.00997774302959442,-0.009611248970031738,0.44566377997398376,0.8950932025909424,-0.029152002615463017,-0.004401174499160754,-0.014147852845223016,0.006504911929368973,0.0016602131072431805,0.00519169308245182,0.07628128618933261,0.22556513288989666,-9.806498687267304
8.3,3.0,187.0,24.209651947021484,0.06361418962478638,-79.78275459294694,40.45893934716036,267.2087789752483,0.009962071664631368,-0.009606115520000458,0.4456898272037506,0.89508056640625,-0.028229423317190375,-0.005669335350063816,-0.01766978573976609,0.007411749567836523,0.005077838897705078,0.005275813862681389,0.0682744425488636,0.2323548283427954,-9.804895965456963
8.5,3.0,189.0,24.21466064453125,0.07951773703098297,-79.78275462752096,40.45893933424031,267.19305166387556,0.009936265647411343,-0.00961076095700264,0.44569286704063416,0.8950792551040649,-0.025808236969384626,-0.0034605448495778762,-0.01631144038510263,-0.006980850361287594,-0.0010819528251886368,-0.0057860491797328,0.07024524201638997,0.2359687365218997,-9.804478474259376
8.6,3.0,193.0,24.21466064453125,0.09542128443717957,-79.78275465664044,40.45893929055038,267.1896217443943,0.0099426181986928,-0.00961390882730484,0.4456937909126282,0.8950785994529724,-0.030657703208643743,-0.006659748902173118,-0.016457842182683497,-0.008441084064543247,-0.0017078437376767395,-0.008725806139409542,0.07213667466770858,0.22414420466870072,-9.806472959518434
8.8,2.9000000953674316,196.0,24.20840072631836,0.07156596332788467,-79.78275466810327,40.458939266256216,267.174484906435,0.009937260299921036,-0.009624075144529344,0.4456959664821625,0.8950775861740112,-0.02418740660626027,-0.008738920945057684,-0.015067523351026397,0.0015328798908740284,0.004839381203055382,0.005932501517236233,0.07868026172742247,0.22295553881675007,-9.804382579922676
8.9,3.0,198.0,24.209651947021484,0.09542128443717957,-79.78275474801423,40.45893924434086,267.15727025055884,0.009880288504064085,-0.009626347571611404,0.4457050859928131,0.8950736522674559,-0.02299665729125369,0.003184507187826807,-0.0143643742032324,0.006929266266524793,0.005319789983332157,0.0070830341428518295,0.06746873277705162,0.2408362877368927,-9.80452115893364
9.1,3.0999999046325684,202.0,24.21090507507324,0.08746951073408127,-79.78275476759211,40.45893922912344,267.155779538393,0.009871775284409523,-0.009604468941688538,0.4457001686096192,0.8950763940811157,-0.026422724584012628,0.0021457837300620976,-0.014233223840939816,-0.010545710101723673,-0.0005673341220244764,-0.006948671769350767,0.07252190568018706,0.2384496187604964,-9.804503032565117
9.3,3.0,206.0,24.21215629577637,0.09542128443717957,-79.78275481163605,40.45893918013737,267.1381699719429,0.00988773349672556,-0.009583982639014721,0.4457056820392609,0.8950736522674559,-0.02598922882207456,-0.0011221282260339173,-0.01345215112406567,-0.0019503511721268296,-0.0019884200301021338,-0.005271217320114374,0.07426269487012177,0.22483304321765896,-9.806991022825242
9.4,2.9000000953674316,207.0,24.21215629577637,0.07156596332788467,-79.78275482849861,40.45893916109317,267.13674738788603,0.009866940788924694,-0.009580515325069427,0.4457111656665802,0.895071268081665,-0.02728291998112128,-0.0028055209489894037,-0.01363813732953888,0.007702774368226528,0.006377356592565775,0.005111861974000932,0.07832868875004352,0.22356774229556325,-9.805844383835792
9.6,2.799999952316284,210.0,24.21215629577637,0.07156596332788467,-79.78275487656494,40.4589391147137,267.1194206752777,0.009853623807430269,-0.009564012289047241,0.4456978738307953,0.8950781226158142,-0.026596822223597227,-0.003623059378658318,-0.013591018349159658,0.007213694509118795,0.002037814119830728,0.004995347466319799,0.06924442710354925,0.23074192872270946,-9.804098405241966
9.7,2.9000000953674316,212.0,24.218416213989247,0.007951773703098297,-79.78275489236215,40.45893909279369,267.1179848291874,0.009862063452601431,-0.009579692967236042,0.4456984400749207,0.8950775861740112,-0.02937254692519772,-0.004822374777794578,-0.01355858390247225,-0.0010183157864958048,-0.0038768674712628135,0.0011397394118830562,0.07066331336740404,0.2239225586503744,-9.804667924046518
9.8,2.799999952316284,215.0,24.22092056274414,0.0,-79.78275493641172,40.45893905136949,267.1005519309044,0.009858211502432823,-0.00956856831908226,0.4457075893878937,0.8950732350349426,-0.026132446699081158,-0.004140723654351107,-0.013413504895804793,0.0010757639538496733,-0.0005021234974265099,0.0016966109396889804,0.07018754644319415,0.23293375751003625,-9.804117116332057
10.0,2.799999952316284,215.0,24.20464515686035,-0.08746951073408127,-79.78275496959293,40.45893902706239,267.08405785048006,0.009842555038630962,-0.00954954233020544,0.4457020163536072,0.8950763940811157,-0.021252867713922145,-0.0010426017850693103,-0.01329763668040288,-0.0004154257767368108,-0.0014322291826829314,-0.0010540384100750089,0.07196989654563367,0.2384548629820347,-9.803973274827003
10.1,2.799999952316284,215.0,24.218416213989247,0.0,-79.78275499739833,40.45893899185007,267.0812634655237,0.009808069095015526,-0.009545537643134594,0.4457202553749085,0.8950677514076233,-0.025854002673335208,-0.0041498274927629225,-0.013391548806121695,-0.004231414292007686,-0.00047628747415728867,-0.003306100144982338,0.07508938152808696,0.21957997776567936,-9.806449570655824
10.3,2.799999952316284,213.0,24.21591186523437,-0.007951773703098297,-79.78275503088031,40.458938952926395,267.0644413360357,0.009802408516407013,-0.009553426876664162,0.4457175731658936,0.8950690031051636,-0.02345826734182384,-0.0034973706617805853,-0.013276892753179032,0.0024158416781574488,0.0031951754353940487,0.005114924628287554,0.07882644211873413,0.2223978240787983,-9.80668989121914
10.4,2.799999952316284,215.0,24.21716499328613,-0.015903547406196594,-79.78275505790988,40.45893891130513,267.06163789117335,0.009828419424593449,-0.009552286937832829,0.4457286596298218,0.8950632214546204,-0.027568196385643083,-0.00710429905712623,-0.013474060346796893,0.009413529187440872,0.002329501789063216,0.0062178815715014935,0.07063902001362295,0.2397981328703463,-9.804183189868928
10.6,2.799999952316284,216.0,24.219669342041016,0.0,-79.7827550893399,40.45893888759149,267.0424621232748,0.009806950576603413,-0.009545865468680859,0.4457332193851471,0.895061194896698,-0.02353120639774758,-0.003500675297579277,-0.01719899284384338,-0.005327426362782718,-9.409163612872362e-05,-0.0069868313148617744,0.0676989714615047,0.240442934576422,-9.803349376916886
10.8,2.9000000953674316,216.0,24.22092056274414,0.0,-79.7827551100562,40.45893884056594,267.02639420115946,0.009804997593164444,-0.00952160730957985,0.4457553029060364,0.895050585269928,-0.01939787754888071,-0.005049566882227343,-0.011894002066432577,-0.005050924140959978,-0.0020995510276407003,-0.0068977209739387035,0.07028386104851961,0.2210410690493882,-9.807102119922638
10.9,2.9000000953674316,216.0,24.21591186523437,0.015903547406196594,-79.78275511842426,40.45893882401633,267.025145260334,0.009779035113751888,-0.009527891874313354,0.44576069712638855,0.8950480818748474,-0.020772699882766064,-0.006323562395017517,-0.012036861557790556,-0.0012958531733602285,0.0017092371126636865,0.004494191613048315,0.0797600962780416,0.21728253364562988,-9.806021554470062
11.0,3.0,217.0,24.218416213989247,0.015903547406196594,-79.78275515397506,40.458938758423606,267.00749864959715,0.009764086455106735,-0.009523247368633749,0.4457888305187225,0.8950342535972595,-0.022782225053007896,-0.0064647336910166105,-0.01215852006787434,0.0002577712875790894,0.0013359078438952565,0.0020152947399765253,0.07491701657418162,0.2428409690782428,-9.802416161298751
11.2,3.2000000476837163,215.0,24.219669342041016,0.007951773703098297,-79.78275516413784,40.45893873773417,267.0062088497877,0.009750937111675741,-0.009539266116917132,0.4457717835903168,0.8950427174568176,-0.02462208361410504,-0.008521507585633845,-0.012278046686523304,0.00632298132404685,0.0030063611920922995,0.0019157539354637265,0.06803238609340043,0.2271171301044524,-9.805280127525329
11.3,3.299999952316284,219.0,24.218416213989247,0.0,-79.78275519654187,40.45893870325134,266.98852576100825,0.009745065122842787,-0.009526198729872705,0.4457836151123047,0.8950370550155641,-0.020634421105148137,-0.0037511606201816533,-0.01285350984811975,-0.00257446663454175,-0.004215735010802746,0.005194798111915588,0.0633003258286044,0.2380122104845941,-9.805238027572633
11.5,3.5,223.0,24.21716499328613,-0.02385532110929489,-79.78275522288135,40.458938662320534,266.9716577731967,0.009734128601849079,-0.009523866698145866,0.4458239376544952,0.8950170278549194,-0.018790100320614324,-0.002202271791746295,-0.015853962832433545,0.006488470360636711,0.003911691717803478,0.0031940657645463943,0.07751334020867942,0.2248626082018018,-9.806663578748703
11.6,3.5999999046325684,225.0,24.22092056274414,0.0,-79.78275524560043,40.45893862926202,266.9683840551376,0.009762970730662346,-0.009522807784378529,0.4458030462265015,0.8950272202491759,-0.024120573849051096,-0.005465469844565207,-0.015747301417550257,-0.009076276794075966,-0.0004911188734695315,-0.010172152891755104,0.0709736589062959,0.2435757813602686,-9.804794808626177
11.8,3.700000047683716,225.0,24.218416213989247,0.007951773703098297,-79.7827552693539,40.45893858204443,266.95085054421423,0.009755822829902172,-0.009528724476695059,0.4458093047142029,0.8950240612030029,-0.0221588532557912,-0.004611545489335688,-0.01851316233976789,0.0007997501525096594,0.00018385957810096443,0.006392146926373243,0.07006508838851007,0.2251368974335492,-9.807060019969938
12.0,3.9000000953674316,227.0,24.219669342041016,0.0,-79.78275526513897,40.45893851259278,266.93351072603457,0.009751047007739544,-0.009511428885161877,0.4457863867282867,0.8950357437133789,-0.01821474647382812,-0.011264855693320593,-0.016722387186969615,0.005362019874155521,0.0013143798569217324,0.002076534554362297,0.07419347388669849,0.212901269774884,-9.806843088269234
12.11,4.0,228.0,24.21466064453125,-0.007951773703098297,-79.78275526804684,40.45893849314512,266.93178338342904,0.009740778245031834,-0.009494475089013577,0.4457762539386749,0.8950411081314087,-0.02095646358436571,-0.012518272971990155,-0.016780548245483726,-0.001119129010476172,-0.0018251737346872687,-0.0037122219800949092,0.06955038266256452,0.2369995458237827,-9.8036738973856
12.3,4.099999904632568,226.0,24.21466064453125,-0.007951773703098297,-79.78275528829654,40.45893844686782,266.9180388727188,0.009725537151098251,-0.009492246434092522,0.4457861185073853,0.8950363993644714,-0.017222875205964862,-0.010156276430521732,-0.007701196028404788,-0.0076265018433332435,-0.008667625486850739,-0.002217920497059822,0.06642280750907957,0.24229608166962865,-9.802441304326056
12.41,4.199999809265137,227.0,24.21716499328613,-0.015903547406196594,-79.78275528994232,40.458938429152106,266.917201919198,0.009734553284943106,-0.009474748745560646,0.445787250995636,0.8950358629226685,-0.018573730887706332,-0.011433941533519657,-0.007948421715226294,-0.004853899125009775,-0.006579981651157141,-0.004400427918881178,0.07853770843707025,0.22113742019981147,-9.803138292431832
12.5,4.199999809265137,227.0,24.21591186523437,-0.02385532110929489,-79.78275533471286,40.458938383525826,266.9035717749,0.009704366326332092,-0.00945141538977623,0.4457750916481018,0.8950424790382385,-0.0182884662192446,-0.006249396638579157,-0.004600276905096715,0.009209271520376205,0.004375321790575981,0.0016989768482744696,0.07606513107195496,0.21978671338409184,-9.805899932384492
12.7,4.099999904632568,225.0,24.21591186523437,-0.007951773703098297,-79.78275534207881,40.458938365640435,266.90306394332646,0.0097013833001256,-0.009451223537325859,0.4457740783691406,0.8950430154800415,-0.02048959976742939,-0.008084561737850327,-0.00462919266596705,0.0027844267897307877,0.004053138662129641,0.004240176174789667,0.07085415643639863,0.23714536076411605,-9.803475676774982
12.9,4.099999904632568,224.0,24.21215629577637,-0.04771064221858978,-79.78275537406962,40.45893829893117,266.8863478877544,0.009691989980638029,-0.009481044486165048,0.4457914531230927,0.8950342535972595,-0.02403783165170973,-0.007046740326451852,-0.007850902412175936,-0.003912486135959625,-0.003104089526459575,-0.0018065639305859804,0.06926050694659353,0.2411257614567876,-9.801550773382187
13.0,3.9000000953674316,223.0,24.21716499328613,-0.007951773703098297,-79.78275539298414,40.458938222076505,266.8690694400072,0.009702803567051888,-0.009486192837357521,0.445783793926239,0.8950378894805908,-0.02825051510712461,-0.010156289839619614,-0.013751498107268185,0.006015096791088581,0.002792261773720384,0.00782098714262247,0.07634446352720263,0.2133645519800484,-9.805834443569184
13.1,3.799999952316284,222.0,24.213409423828125,-0.015903547406196594,-79.7827554140532,40.45893816687757,266.8661359787881,0.009722006507217884,-0.009471068158745766,0.4458219110965729,0.8950188755989075,-0.03295365703584677,-0.013542749427430386,-0.013868152241319024,-0.003205266548320651,-0.005487378686666489,-0.0026701511815190315,0.07452851934358477,0.22720768885686995,-9.804578461647036
13.3,3.700000047683716,225.0,24.218416213989247,0.0,-79.78275543687488,40.45893815759336,266.8505267514344,0.009689287282526491,-0.009454200975596905,0.4458437561988831,0.8950084447860718,-0.023051005055105718,-0.00549132442132224,-0.013944184322380657,0.0011114302324131133,-0.0038665141910314564,-0.002535176230594516,0.07104492184706032,0.2196725647710264,-9.806462434530259
13.4,3.5999999046325684,222.0,24.218416213989247,-0.02385532110929489,-79.78275549731758,40.45893808908632,266.8328428656757,0.009651814587414265,-0.009440314024686813,0.44583410024642944,0.8950138092041016,-0.028026504030908148,-0.0014355011000477796,-0.0165685166503958,-0.0058474792167544365,-0.004373221192508936,-0.009668012149631977,0.07411204684060067,0.2266382796876133,-9.805249722003936
13.61,3.299999952316284,223.0,24.21716499328613,-0.02385532110929489,-79.78275551541272,40.458938068589354,266.831089907974,0.009651306085288523,-0.009447655640542507,0.4458259642124176,0.8950178027153015,-0.028808983794496836,-0.0026298147728527586,-0.016907704068368414,0.0065898331813514215,0.003953961189836264,0.008346812799572945,0.07595482883043587,0.22199866024777296,-9.80625193476677
13.8,3.2000000476837163,223.0,24.21466064453125,-0.007951773703098297,-79.78275555126852,40.45893801325353,266.814911784321,0.009646515361964704,-0.00944435503333807,0.4458433389663696,0.8950092196464539,-0.02473745344622341,-0.001508882228775734,-0.015645076498318002,0.001577370916493237,-0.0005875961505807936,0.0006002824520692227,0.07341750268824399,0.2381133855879307,-9.803147063255313
13.9,2.9000000953674316,226.0,24.2071475982666,-0.015903547406196594,-79.7827555673328,40.458937994868336,266.8132722170055,0.009641657583415508,-0.009419419802725315,0.4458191394805908,0.8950216174125671,-0.026615075813162914,-0.003036599293033522,-0.015867221528352547,0.0011747690150514245,0.0003533729468472302,-0.0007115509361028671,0.06979288222733886,0.240891452562064,-9.802743605375287
14.1,2.700000047683716,231.0,24.218416213989247,0.007951773703098297,-79.7827556020614,40.45893794534445,266.7971499801576,0.009616255760192871,-0.009402576833963394,0.4458329975605011,0.8950151205062866,-0.022682845578238943,-0.0017879498086490492,-0.01509884080832265,-0.00421264860779047,0.0015074721304699779,-0.0015502248425036669,0.07408284273929894,0.2233422407694161,-9.804507125616077
14.2,2.5,234.0,24.219669342041016,0.007951773703098297,-79.7827556164293,40.45893792739652,266.7955721446276,0.009622084908187393,-0.00940102431923151,0.445829838514328,0.8950166702270508,-0.024370662702883062,-0.003233776420293065,-0.015245358546133762,0.00027220614720135927,-0.0053266161121428,0.002600399311631918,0.07074911212082953,0.2230742738395929,-9.805236858129502
14.3,2.4000000953674316,235.0,24.218416213989247,0.0,-79.78275565252822,40.45893787869953,266.7791958578825,0.009605719707906244,-0.009384704753756523,0.4458101689815521,0.8950268626213074,-0.02129231182958834,-0.0021157500580544107,-0.014871990136487797,0.0018236894393339753,0.0003883063909597695,0.005299011711031199,0.07078431418631226,0.2398869374580681,-9.80367740571499
14.51,2.200000047683716,231.0,24.21716499328613,-0.02385532110929489,-79.78275565505943,40.4589378219757,266.7650452160239,0.00960716512054205,-0.009371891617774963,0.4458108246326447,0.8950266838073729,-0.020157441106788455,-0.0051011061573270865,-0.014429118309762515,-0.002906718058511615,0.0017845629481598735,-0.009826166555285456,0.07090382122434677,0.2416139856912196,-9.802642448544503
14.6,2.0999999046325684,232.0,24.21716499328613,0.0,-79.78275567347079,40.45893778556347,266.7619963713884,0.009568766690790651,-0.009354895912110806,0.4458224177360535,0.8950214982032776,-0.023815028591963328,-0.007606212532791477,-0.014725023114841827,-0.005798537749797107,-0.0007406782242469492,-0.007844654843211174,0.07454555392730981,0.22147813014686107,-9.80556313276291
14.8,1.8999999761581416,232.0,24.219669342041016,0.007951773703098297,-79.78275566875553,40.4589377603328,266.75131796085844,0.009552937000989914,-0.009349875152111052,0.4458312094211577,0.8950172662734985,-0.014639382085934313,-0.005064566189849978,-0.007901037234137218,0.005344565026462078,0.0016589261358603835,0.004674754571169615,0.0753744378592819,0.22370199071243407,-9.806030325293538
15.0,1.7999999523162842,231.0,24.195880889892567,-0.07156596332788467,-79.78275569298826,40.45893771928167,266.73784613394736,0.009515649639070034,-0.00933291856199503,0.4458645582199097,0.8950012922286987,-0.011838198551887176,-0.00039300741731308937,-0.006629276500902898,0.003969084471464157,-0.000527906755451113,-0.0005856644711457193,0.0692619139328599,0.22980352370068435,-9.803981460928915
15.1,1.600000023841858,232.0,24.20464515686035,-0.07156596332788467,-79.78275570128744,40.45893771019633,266.737145660162,0.00950646959245205,-0.009333520196378231,0.4458768665790558,0.8949952125549316,-0.013807256315696506,-0.001347773334813976,-0.006747548606739654,-0.004038534592837095,-0.000970631663221866,0.004211802501231432,0.07220093465410174,0.2212348494306207,-9.804774928092957
15.21,1.5,232.0,24.198383331298828,-0.07156596332788467,-79.78275570941092,40.458937698886345,266.73641522759203,0.009496614336967468,-0.009332839399576187,0.4458674192428589,0.8950001001358032,-0.015300726230489553,-0.0028203885170526464,-0.007018230442144187,-0.0018209200352430344,0.0007972050225362183,-0.0033034791704267268,0.07117153690662235,0.23958306496962906,-9.80220741569996
15.4,1.399999976158142,233.0,24.20088768005371,-0.08746951073408127,-79.78275577010238,40.45893764537481,266.7231003769636,0.009460467845201492,-0.009369762614369392,0.4458816349506378,0.8949928879737854,-0.01880350020756852,0.0021034814936924783,-0.005830214270145886,-0.0072744074277579784,-0.001755271339789033,-0.00811989326030016,0.06985183860640973,0.2381314388662577,-9.802347164154053
15.5,1.2999999523162842,232.0,24.218416213989247,-0.007951773703098297,-79.78275577426672,40.45893756703465,266.7098754175901,0.009475748054683208,-0.009363290853798393,0.4459032118320465,0.8949820995330809,-0.019054983046706137,-0.003143367020525481,-0.0051254522578044895,-0.008836579509079456,-0.0037749060429632655,-0.0008897341322153807,0.07496665852144363,0.2235549697838724,-9.805575996637343
15.7,1.2000000476837158,236.0,24.218416213989247,0.0,-79.78275578440703,40.45893755116508,266.709294495821,0.009472904726862907,-0.009357954375445844,0.4458990693092346,0.894984245300293,-0.01984506734407392,-0.004526573371925742,-0.0054227294220075,0.0006851750076748433,0.003691142192110419,0.002852096920832992,0.0734190604230389,0.2313255722075701,-9.80435158967972
15.8,1.2000000476837158,238.0,24.21716499328613,-0.007951773703098297,-79.78275580678878,40.45893748866817,266.6960578986406,0.009471728466451168,-0.009365957230329514,0.4459165036678314,0.8949755430221558,-0.018662021880114888,-0.0026595933369418434,-0.004706981223757468,0.0009463070309720931,-0.0004850106488447637,-0.001978826941922307,0.07187723188195377,0.22386341040953994,-9.804156877398489
16.01,1.2000000476837158,245.0,24.15581512451172,0.9701164364814758,-79.78275581717645,40.458937445839936,266.6830356248617,0.009444820694625378,-0.009374665096402168,0.4459925889968872,0.8949377536773682,-0.013637098600247241,0.0014825658181665128,-0.004416413434269733,0.003220719750970602,-0.0006597305182367562,-0.004231719300150871,0.07398886245209724,0.22012278210371733,-9.80698868393898
16.11,1.100000023841858,250.0,24.18836784362793,0.3021674156188965,-79.78275582832306,40.45893743672575,266.6825460323095,0.009448997676372528,-0.009358366020023823,0.4459561407566071,0.8949560523033142,-0.014930040328167566,2.2418152596559264e-05,-0.004780562602524611,-0.005460687913000585,0.0011869209120050073,0.005793063901364803,0.0676244423026219,0.2453021352365613,-9.803509590625763
16.3,1.2000000476837158,256.0,24.19087219238281,0.3101191818714142,-79.78275583991659,40.45893733251535,266.6695820071697,0.00944699253886938,-0.009355663321912287,0.4460025727748871,0.8949329853057861,-0.02196061041854621,-0.004560423863204179,-0.0037806343519927632,-0.0049327882006764395,-0.0016352875391021367,-0.007973922416567802,0.07375880192499608,0.2392303682304919,-9.802736588716508
16.5,1.2000000476837158,259.0,24.192123413085927,0.3021674156188965,-79.78275586438124,40.458937258924244,266.65709979617594,0.009427671320736408,-0.009343819692730905,0.44600656628608704,0.8949313163757324,-0.022574895164116485,0.0003313096337479397,-0.003748374758961297,-0.006074636708945036,-0.004177020397037268,-0.01227876916527748,0.07289015235844999,0.2306938536465168,-9.803116657733918
16.6,1.2000000476837158,269.0,24.18961906433105,0.2942156493663788,-79.78275587950806,40.4589372425426,266.65665890061854,0.00940927769988775,-0.009325754828751087,0.4459846913814545,0.894942581653595,-0.02228037963863281,-0.0015183883849009534,-0.004054975821928556,0.007264738902449608,0.0006139204488135874,0.008115025237202644,0.0814264613762498,0.22208459604531527,-9.806968218684196
16.7,1.100000023841858,274.0,24.18836784362793,0.3339745104312897,-79.78275588999834,40.45893716843028,266.6440992184877,0.009379040449857712,-0.009328815154731274,0.4460143446922302,0.8949280977249146,-0.019591175819020125,-0.0017149789914835852,-0.0037814870698626795,0.009446115233004091,0.003716796869412065,0.007107196375727654,0.06615251539740713,0.2366706582158804,-9.802792721986773
16.9,1.100000023841858,285.0,24.18210792541504,0.3896369338035584,-79.78275590322359,40.4589371535057,266.6436622121334,0.009366629645228386,-0.00932981912046671,0.4460132420063019,0.8949287533760071,-0.02279224822943849,-0.0014893712868082071,-0.003857106278275677,-0.005295990500599146,-0.0040255882777273655,-0.00647801673039794,0.06299707003869116,0.219710663035512,-9.802716708183288
17.0,1.100000023841858,287.0,24.18210792541504,0.44529932737350464,-79.78275589207136,40.458937084584754,266.6332357802391,0.009360445663332941,-0.009291330352425577,0.44601160287857056,0.8949301242828369,-0.01675029189471776,-0.003149999959989076,0.00024111698442829337,-0.007466587703675032,-0.003565141931176185,-0.0024478130508214235,0.06801403131801635,0.22994628712534906,-9.806528508067132
17.2,1.100000023841858,294.0,23.94421768188477,2.298062562942505,-79.78275590014567,40.45893707024806,266.63328440272807,0.009200623258948326,-0.009252396412193777,0.4459294974803925,0.8949730396270752,-0.016733057903815404,-0.005711808058828513,0.00021635747399634774,0.008462165482342243,0.02738667279481888,0.008791612461209297,0.049418802894651885,0.18720588158816104,-9.813708304166797
17.3,1.100000023841858,295.0,24.14579772949219,0.4373475611209869,-79.78275587696,40.45893700114299,266.6203157135248,0.009189487434923649,-0.009183377027511595,0.4459384381771088,0.8949693441390991,-0.011945350799836194,-0.006738788193233684,-0.0028591978799310433,0.02359285019338131,-0.012504043988883495,-0.024326594546437263,0.09114849893376233,0.2312313406728208,-9.819132181406024
17.5,1.0,296.0,22.91628456115723,19.752206802368164,-79.78275587317793,40.45893694100076,266.6087837048769,0.009133458137512207,-0.009192543104290962,0.4460359513759613,0.8949211835861206,-0.016119177150401547,-0.001525387017901992,-0.001728770042555546,-0.0111128194257617,-0.023611458018422127,0.0037937681190669532,0.0435889415955171,0.2365134594775737,-9.801665378808977
17.6,0.8999999761581421,299.0,24.013080596923828,1.486981749534607,-79.7827558876906,40.45893691526216,266.60821994924544,0.009080496616661549,-0.009127536788582802,0.4460614323616028,0.8949097394943237,-0.0187795466240868,-0.005525862006519914,-0.0033305791419917627,0.006214454304426909,0.028428837656974792,-0.009895991533994676,0.05551001646090298,0.2282853124290705,-9.79744310438633
17.81,0.8000000119209291,296.0,24.17209053039551,0.2385532110929489,-79.78275594162044,40.45893682637893,266.59934225463866,0.0091555742546916,-0.009187286719679829,0.4461093842983246,0.8948845267295837,-0.025313741242834985,0.001658349369061559,0.000276633844466149,0.010735712945461271,-0.001435598242096603,0.014827564358711244,0.09904333641752601,0.1939938046038151,-9.799823505878447
17.9,0.8000000119209291,299.0,24.173343658447266,0.2385532110929489,-79.78275595106507,40.458936756549356,266.59040635609625,0.009218433871865273,-0.00917445495724678,0.44618991017341614,0.8948438763618469,-0.02079908727695509,0.0014932361278123106,0.006708730169570019,0.0046697407960891715,0.002763307886198163,0.014974294230341913,0.05345808687619865,0.22567617516964675,-9.800018218159675
18.11,0.8000000119209291,298.0,23.91667175292969,3.816851377487183,-79.78275596754675,40.45893674217335,266.5910255589485,0.009238410741090776,-0.00916457176208496,0.4461939334869385,0.894841730594635,-0.02330753347950297,-0.0002498433156973516,0.006772688603785139,0.001531403511762619,0.016668463125824932,-0.019643096253275868,0.07700159920379519,0.2426214244030416,-9.805846138000488
18.3,0.8000000119209291,300.0,23.782703399658203,5.932023525238037,-79.78275595126605,40.45893667700079,266.5828967370987,0.009199774824082851,-0.009148698300123216,0.44623610377311707,0.894821286201477,-0.016824065869595322,-0.0013786084818010196,0.011141010119760613,-0.009521504864096642,-0.002154123969376087,-0.010931226424872877,0.05087055690586567,0.2184274915605784,-9.806337304115297
18.41,0.8000000119209291,300.0,23.628700256347656,6.679490089416504,-79.78275596063756,40.45893666318758,266.5839351990224,0.009093768894672394,-0.009117496199905872,0.44632840156555176,0.8947766423225403,-0.01313093236664354,-0.0030998575172124336,0.010190586338915364,0.009082457982003687,-0.04903944954276085,0.056893240660429,0.08920446418225765,0.1501996028982103,-9.830015019178393
18.51,0.8999999761581421,300.0,23.60115623474121,7.959725856781006,-79.78275593860998,40.45893659837599,266.5758507826328,0.008847160264849663,-0.008937506936490536,0.4462807774543762,0.8948046565055847,-0.013212689272008351,-0.004786398761310253,0.014280872464519296,0.0015186633681878448,0.0022326323669403787,-0.01611047424376011,0.1076213022787124,0.25262942735105753,-9.802188119888307
18.7,0.8000000119209291,296.0,23.37703895568848,10.870075225830078,-79.78275594094724,40.45893658457836,266.5773808338642,0.008991477079689503,-0.008452347479760647,0.4463760256767273,0.8947604298591614,-0.01658769288554475,-0.004306863583313356,0.021112305162333308,0.05192676186561585,0.02714031562209129,0.0029494182672351607,0.05139307871460915,0.2106096911430359,-9.818465598821641
18.8,0.8000000119209291,294.0,23.27937889099121,12.205972671508787,-79.78275597146794,40.45893653008481,266.5699522175789,0.00916182529181242,-0.006798262242227793,0.4463241994380951,0.8947986364364624,-0.01719092574683347,-0.005507844555001039,0.023615151958096648,-0.017220163717865944,-0.09339619427919388,0.10993054509162904,0.239456089027226,0.2639861636795104,-9.881714930534363
19.01,0.8000000119209291,297.0,23.01644897460937,15.092467308044435,-79.78275595711972,40.45893649022088,266.55847054505347,0.009739344008266926,-0.00552126904949546,0.44643864035606384,0.8947442770004272,-0.006431561127790965,-0.003852556817752451,0.019671572384141925,-0.008879685774445534,-0.035495955497026443,-0.015422645024955273,0.09625715643167496,0.2905139212869108,-9.792612134814263
19.1,0.8000000119209291,295.0,22.90501594543457,17.000892639160153,-79.7827559484214,40.4589364736519,266.5627355554104,0.012035654857754707,-0.003041900927200913,0.44642138481140137,0.8947367668151855,-0.009769315899745955,-0.015314014420636034,0.018305832133885886,0.02619241178035736,0.056098852306604385,0.02363477274775505,0.047873196504078806,-0.0017539819702506064,-9.830479288101195
19.3,0.8999999761581421,292.0,22.63832855224609,20.133892059326172,-79.78275592898687,40.458936383719006,266.5507207789421,0.01323147863149643,-0.0032059673685580488,0.4465369880199432,0.8946616053581238,-0.023609577822079408,-0.015884832762043506,0.016379592315001454,-0.04319850355386734,-0.022823968902230263,0.016843397170305252,0.1806092356145382,0.20648038744926453,-9.830330768823622
19.4,0.8999999761581421,291.0,22.505611419677734,22.090028762817386,-79.78275581932539,40.45893630328155,266.5442146935463,0.012060223147273064,-0.008588341064751148,0.4440256059169769,0.8958917856216431,-0.04477160023106448,-0.021802457044795696,0.12208794441426395,-0.021456371992826462,-0.05100730061531067,-0.04547612369060517,0.0724519537948072,-0.07031293267384171,-10.163182350397113
19.6,1.0,289.0,22.697175979614247,17.724504470825195,-79.78275583364409,40.45893624659557,266.562860874176,0.01043773628771305,-0.011495827697217464,0.4418264627456665,0.8969661593437195,-0.054011473069402384,-0.029381382252711637,0.2590777438591968,0.036607082933187485,-0.05599950253963471,0.024094028398394585,-0.06139766012784094,0.2365914467163384,-10.945059163570404
19.7,1.0,290.0,22.74475288391113,17.644987106323242,-79.78275592132577,40.458935942390816,266.5998174228668,-0.0007755854167044162,-0.004243571311235428,0.4389728307723999,0.8984900116920471,-0.08269063069658704,-0.025832003839808,0.27676547171063565,0.0733553096652031,-0.05208380147814752,-0.025016875937581062,0.0019489272264763715,0.11786795385181904,-10.472013570070269
19.9,1.0,291.0,22.69216728210449,17.708600997924805,-79.78275595420061,40.45893587380817,266.62587032997607,-0.0034782111179083586,-0.0002727388637140393,0.4389385879039765,0.8985103368759155,-0.06212458322963536,-0.03223343158187519,0.2481774257636224,0.1488681137561798,0.09850133210420607,0.08890692889690399,-0.11920287318527699,-0.1211913650482893,-9.610774837732317
20.0,0.8999999761581421,282.0,22.633319854736328,18.64690971374512,-79.78275593227843,40.45893577984226,266.6382384278774,-0.0014250674284994602,0.0020799918565899134,0.4396495819091797,0.8981658816337585,-0.014647669084878759,0.006776205175983634,0.12163356477172076,0.060197208076715476,0.14057011902332306,-0.016994019970297813,-0.024627992673777046,0.18941501447930933,-9.42806747496128
20.21,0.8999999761581421,275.0,22.56320571899414,19.87943458557129,-79.78275596097909,40.458935779129426,266.64949786448483,0.001957722473889589,0.003250865265727043,0.43955641984939575,0.8982070088386536,-0.013063427217188549,0.02128680538815533,0.10635176767553924,0.00019574812904465944,0.09599355608224867,0.02147448994219303,0.1750392145290971,-0.06656551611609758,-9.611005802750588
20.4,0.8999999761581421,271.0,22.478065490722656,21.461837768554688,-79.78275626800622,40.458935668702715,266.68542152428626,0.010426235385239124,-0.0006811476196162403,0.43857085704803467,0.8986358642578125,-0.04440803814237178,0.05224291200381828,0.12245090604837496,-0.12137603759765625,-0.08526312559843062,0.05520345643162728,0.2608017883077264,-0.2452009418606758,-9.778375918865203
20.5,0.8999999761581421,253.0,22.395431518554688,21.4379825592041,-79.78275632731894,40.458935585971105,266.69230888569354,0.010288869962096214,-0.00446550827473402,0.4382712244987488,0.8987728953361511,-0.04986507980084093,0.06393753954429744,0.144953158831996,-0.11023325473070143,-0.16620025038719174,0.04205004498362541,0.2033180304989219,-0.02127735994756222,-9.903663039207457
20.6,0.8999999761581421,242.0,22.471805572509766,19.96690368652344,-79.7827564145045,40.458935586362415,266.70906503283976,0.007514135912060738,-0.007226324640214444,0.438613086938858,0.8986155986785889,-0.05087603926470085,0.06317685369014163,0.1912807428210073,-0.017589444294571877,-0.11427746713161467,0.017817607149481773,0.08542628578841686,0.03668988036923111,-10.176387702226641
20.8,0.8999999761581421,224.0,22.49559593200684,19.704496383666992,-79.78275653444122,40.45893550275292,266.75118586206435,0.0053829317912459365,-0.00503574451431632,0.4428418874740601,0.8965694904327393,-0.06403919020224225,0.05495554510402745,0.24265811807735355,0.0580250658094883,0.08596761524677278,-0.05121096596121788,0.07924888517707587,0.044201565342955294,-10.036880153417588
20.91,0.8999999761581421,215.0,22.429235458374023,21.207380294799805,-79.78275664592697,40.45893548409779,266.77445958340166,0.0065306127071380615,-0.004235214553773403,0.446184366941452,0.8949072360992432,-0.08230535789830175,0.06663641774626446,0.2265852485596505,0.02196486666798592,0.07421082258224487,-0.05382213741540909,0.06883980891667307,0.13845018949359655,-9.740972449779509
21.1,1.0,194.0,22.4279842376709,20.51557731628418,-79.78275691809759,40.45893548174541,266.8125756883025,0.006059179082512856,0.002425008919090033,0.4509646594524384,0.8925179839134216,-0.07679979415899857,0.11594404194045127,0.19163184654517554,0.009970096871256828,0.04618680477142334,-0.0276319719851017,0.25777099370956424,0.06624421161599457,-9.604689055681225
21.21,1.0,183.0,22.273983001708984,22.630748748779297,-79.78275708288356,40.45893549780579,266.8304018561691,0.004775284789502621,0.00593294110149145,0.4522381126880646,0.8918647170066833,-0.06645653917309194,0.13116334911125055,0.17016627398809725,0.07426353543996811,-0.02620440907776356,0.01896205171942711,0.24112320329993964,0.07189432128332555,-9.628712341189383
21.41,1.0,175.0,22.4567813873291,20.348588943481445,-79.78275758332423,40.45893562871964,266.87693726243083,0.006060415413230658,0.009997690096497536,0.4509457051753998,0.892474889755249,-0.044844167041830564,0.17108956000096628,0.2417021086589257,-0.006155838258564472,0.0022903364151716232,0.08378689736127852,0.22461388226598505,0.0767777056619525,-10.00316744685173
21.5,1.0,172.0,22.273983001708984,21.811716079711914,-79.78275782590737,40.45893556977197,266.9008263216316,0.009130218997597694,0.01138173881918192,0.4486235976219177,0.8936017155647278,-0.03863960530733716,0.15509061361624096,0.23101328514046365,-0.001847779843956232,0.0583622008562088,0.02861485816538334,0.2857354304753244,0.09654906953684986,-9.87312654018402
21.71,1.2000000476837158,164.0,22.740997314453125,17.207639694213867,-79.78275813913676,40.458935694374745,266.94914393657444,0.014590196311473846,0.012205669656395912,0.4441573619842529,0.8957468867301941,-0.008920871857349327,0.15705401221823778,0.18693173247606212,-0.04475027695298195,-0.02292528934776783,0.019821038469672203,0.3084290408715606,0.108620235119015,-9.248958488702772
21.8,1.2999999523162842,167.0,22.08241844177246,26.05796241760254,-79.78275828586412,40.458935805616825,266.9482031741142,0.016704745590686798,0.009592737071216106,0.4433080554008484,0.8961622714996338,-0.0035508713292380658,0.16267453220479325,0.04934369766526316,-0.17721723020076752,-0.032909221947193146,0.017326543107628822,0.2785679683461785,0.143128217831254,-8.797971516251565
22.0,1.5,174.0,21.992271423339844,25.294591903686523,-79.78275864368976,40.458935953822646,266.9602081828713,0.01765068806707859,-0.0007879183394834397,0.4424615502357483,0.8966134786605835,0.055798265471281694,0.15005555031624765,0.16602467394627693,0.023826660588383675,-0.03484435752034186,0.07993105053901672,0.3162225387990475,0.059080550177022816,-10.41815135836601
22.11,1.600000023841858,178.0,21.789438247680664,28.80132484436035,-79.78275883735208,40.45893618033793,267.01861999714373,0.02040475606918335,-0.0014818154741078615,0.4403575360774994,0.8975894451141357,0.044711977477504335,0.15057323827933836,0.4375254067085182,-0.04941751807928085,0.07927602529525757,0.010164068080484869,0.3389751512557269,0.1477998873218894,-10.831326141357422
22.3,1.7000000476837158,192.0,21.666736602783203,29.532888412475586,-79.78275875744251,40.45893634628396,267.03714845860003,0.0206042155623436,-0.0036490231286734334,0.4399054050445557,0.8978003859519958,0.07209548198391648,0.16147696321361266,0.5858744090970558,0.0044964170083403605,-0.1498609483242035,0.05222993716597557,0.5036264217272401,0.04978355951607226,-11.8049074280262
22.4,1.7000000476837158,189.0,21.665485382080078,29.12734794616699,-79.78275885287384,40.458936464526296,267.10759550118445,0.017878029495477676,-0.004104889463633299,0.4390896260738373,0.8982560634613037,0.07118628603585897,0.17080847565158064,0.8086883392057759,0.0313728041946888,0.12608548998832705,-0.004485899116843939,0.355095522813499,0.3664905766770244,-11.863183118104935
22.61,2.0,191.0,21.753129959106445,28.45939826965332,-79.78275905577557,40.45893660682796,267.29683750653265,0.01670379377901554,-0.00659254239872098,0.4337182939052582,0.9008696675300598,0.03933799979045386,0.2034280636997461,1.2279388557534372,-0.10350020229816437,0.15836480259895325,-0.03155083209276198,0.32083262979984284,0.3666029163077474,-11.917616018056867
22.7,2.200000047683716,195.0,21.524003982543945,31.26637458801269,-79.7827592110593,40.458936712404146,267.43016585493086,0.02085934579372406,-0.004170619882643223,0.4335067868232727,0.9008992314338684,0.04990004701488698,0.2092343652595625,1.432302555361616,0.11402007937431335,0.11774345487356185,-0.06060963124036789,0.427803420200944,0.05755378735251725,-11.92567698955536
22.9,2.5999999046325684,206.0,21.49896240234375,33.65985870361328,-79.78275963357069,40.458936837943064,267.7452414908409,0.026838406920433044,0.005907390732318163,0.4407629072666168,0.8972029089927673,0.035524303580733364,0.2734413358684799,1.8355761723464328,-0.02150284871459008,-0.07043180614709854,-0.08289375901222229,0.5979633159935475,0.03338785719126463,-11.923002473115922
23.0,2.700000047683716,205.0,21.50271797180176,30.009994506835927,-79.782759925218,40.458936815875965,267.91204002285,0.02646311745047569,0.005225119180977345,0.4436567425727844,0.8957908749580383,0.03488945033462679,0.28668067056271723,2.0373631245208808,-0.014499998651444912,0.03078430145978928,0.0189273115247488,0.5467202914506197,0.24360682642087345,-12.139852312803269
23.2,3.0,208.0,21.42008399963379,29.69987487792969,-79.78276020681216,40.45893704895405,268.375555185318,0.031904537230730064,-0.002397647826001048,0.4412178695201874,0.8968294858932495,0.0894061155490591,0.29635053785102,2.5642987393080268,-0.16986259818077087,0.18415257334709167,0.12958694994449615,0.5617382801324129,0.2470343728736043,-12.361894479990006
23.3,3.2000000476837163,209.0,21.683013916015625,28.29241180419922,-79.78276048838664,40.45893705071961,268.5948545017242,0.03924880549311638,-0.00974944606423378,0.4381140172481537,0.8980093002319336,0.11449646081898705,0.32180411196585235,2.7229334011352377,-0.17594614624977112,-0.14123713970184326,0.042771045118570335,0.6963613573461771,0.3845226953923702,-11.942018787860867
23.5,3.4000000953674316,215.0,21.91714859008789,23.871225357055664,-79.78276113566713,40.45893696253578,269.07973351860045,0.044541314244270325,-0.015468142926692963,0.4331725239753723,0.9000769257545471,0.1363764809290825,0.33841962759157634,2.894280343895701,-0.13022765517234802,-0.03272349014878273,-0.0960695818066597,0.4653646179288626,0.5265374571830035,-10.83661202430725
23.61,3.4000000953674316,225.0,21.93968391418457,24.65049934387207,-79.78276127893567,40.45893703673089,269.3800827541351,0.04651477560400963,-0.013352621346712112,0.4316825568675995,0.9007266163825988,0.12808515886077326,0.3263791599821584,2.950456850363496,0.06805713474750519,0.0014086039736866947,0.009382587857544422,0.5352160408347846,0.477794519327581,-10.44825984120369
23.8,3.4000000953674316,224.0,21.991018295288086,23.457733154296875,-79.78276202642037,40.458936714186244,269.87178697967533,0.04533559828996658,-0.004031702876091003,0.4327235519886017,0.9003771543502808,0.01633712834928475,0.2877851850652554,2.9155252667857883,0.0688050389289856,-0.053293775767087936,-0.06691305339336395,0.5067768284305929,0.4631766263768077,-10.07072617650032
23.9,3.4000000953674316,225.0,22.012304306030273,22.14569091796875,-79.78276268258328,40.458936358629366,270.39444079780577,0.03706759959459305,0.00018295235349796712,0.4320879578590393,0.9010693430900574,-0.06757367701685713,0.2221133754982316,2.883159604574976,0.018135648220777508,-0.07057803869247438,-0.024836236611008644,0.4245685577765108,0.4066044860333205,-9.980563280582428
24.11,3.4000000953674316,227.0,22.103702545166016,22.097980499267575,-79.78276281061959,40.45893623262617,270.6826130428314,0.03636124357581138,-0.002069333102554083,0.4304882884025574,0.9018610715866088,-0.09527225009244553,0.17956608577429778,2.8707461832718653,-0.1626790314912796,-0.001123995054513216,-0.08884567767381668,0.4069420896470547,0.3974331282824278,-9.652936770915986
24.2,3.4000000953674316,226.0,22.05612564086914,22.55918312072754,-79.78276291918975,40.4589360904096,270.9681800880432,0.038213346153497696,-0.005783585365861654,0.4291747510433197,0.9023942351341248,-0.09110179943809953,0.14215285132159095,2.8393213882843966,-0.11158985644578934,0.026369377970695496,0.015436997637152672,0.41752189546823504,0.3234435577690601,-9.522155022025107
24.4,3.2000000476837163,224.0,22.01981544494629,22.94086837768555,-79.7827635096114,40.458935727414186,271.44316330337523,0.036571547389030463,-0.009277763776481152,0.4296288192272186,0.9022170305252076,-0.08444421128930965,0.10795192958059044,2.703478875127924,-0.004007065203040838,-0.050961311906576164,0.05612951144576074,0.38871244467794897,0.19672419849783185,-9.443752046227457
24.5,3.0999999046325684,225.0,22.032337188720703,23.09990310668945,-79.78276349169406,40.458936136668854,272.12705936813353,0.0349951907992363,-0.007109666243195535,0.4319252073764801,0.9012023210525512,-0.06358082916511294,0.10601881134980548,2.715587104813445,-0.02282587997615337,0.0174126997590065,-0.1190076544880867,0.2986467952653766,0.3298921595513821,-9.511655176877976
24.71,2.9000000953674316,222.0,22.012304306030273,22.996530532836914,-79.78276357721417,40.45893596078749,272.3976105728149,0.0366356372833252,-0.004066153429448605,0.4335118532180786,0.9003937244415283,-0.08298462695283018,0.0709974606380271,2.7062557499889803,0.11367371678352355,0.1072351261973381,-0.034726962447166436,0.2057519705593586,0.3092909204587341,-9.65704970240593
24.8,2.700000047683716,218.0,22.06363677978516,22.41604995727539,-79.78276343688863,40.45893602321153,272.8037375488281,0.03715081885457039,0.0009675627807155252,0.4338644742965698,0.9002113342285156,-0.09008995838593163,0.09076557745049814,2.7538490327946703,0.18030904233455652,0.026357829570770264,0.022002611309289932,0.3909642074257136,0.2099370055273176,-9.715280368924141
25.0,2.5,214.0,21.9209041595459,23.56110572814941,-79.78276357322973,40.45893563141287,273.3517078437805,0.02718191407620907,0.0073251104913651935,0.4320497810840607,0.9014103412628174,-0.16717200572805482,0.04502774769933267,2.752655658132668,0.03321481868624687,-0.08310466259717941,-0.0005365614197216928,0.30027581127360464,0.21967395348474386,-9.87710615515709
25.1,2.5,210.0,21.96722984313965,22.392194747924805,-79.78276367840783,40.458935350886044,273.7265275993347,0.02331268973648548,0.008151408284902573,0.4308191239833832,0.9021003246307372,-0.21246506732761888,0.009215034780120326,2.803556651833187,-0.06006669253110885,-0.06016697734594345,-0.03897487372159958,0.29580024277791384,0.15788258844986558,-9.954402837753298
25.3,2.4000000953674316,202.0,22.16880989074707,20.610998153686523,-79.78276393644245,40.45893478819851,274.43192472839354,0.015366274863481522,0.005969866644591093,0.4324421286582947,0.9015110731124878,-0.2358262735338986,-0.03691868988682087,2.893077405975544,0.07868944108486177,-0.08004070818424225,-0.026821719482541084,0.31220623254776003,-0.04816509590484202,-9.856391808986665
25.5,2.299999952316284,203.0,22.150028228759766,20.8177433013916,-79.78276400549423,40.4589342292764,275.1938275375366,0.013589756563305857,0.009627423249185084,0.4361180067062378,0.8997354507446289,-0.2404843902621992,-0.08762180166893539,2.9717097545145834,0.07422106713056564,0.04197926074266434,-0.034483399242162704,0.1595683772675693,0.17620350480079652,-9.667133225798606
25.6,2.299999952316284,203.0,22.058629989624023,22.511472702026367,-79.78276402703483,40.45893396084111,275.4900330581665,0.013123012147843838,0.010402807034552096,0.4359558522701264,0.8998122215270996,-0.24333554669189786,-0.07906355433867655,2.946720328418969,-0.06013907492160798,-0.04043326899409293,-0.007028565742075443,0.24590394163504245,0.2395115827582777,-9.528399848341943
25.7,2.4000000953674316,206.0,22.13625717163086,20.467866897583008,-79.78276401339565,40.45893370839401,275.7827405014038,0.011159549467265606,0.008656421676278114,0.4344627857208252,0.9005790948867798,-0.2233788119723613,-0.09135770099960044,2.9184017477639363,0.001316713052801788,-0.02644515037536621,0.002901259809732437,0.2270630068145693,0.22156278686597944,-9.570813211798669
25.9,2.200000047683716,212.0,22.052370071411133,22.0661735534668,-79.78276380385883,40.458933205077905,276.49919214630125,0.005411030258983375,0.0016999109648168087,0.4311060607433319,0.9022834897041321,-0.1871359392619074,-0.15342077773093699,2.9401683314703817,-0.08089517056941986,-0.09665334224700928,0.01143632922321558,0.053672076696529986,0.2030888379178941,-9.590999554395676
26.01,2.200000047683716,219.0,21.944692611694336,22.082077026367188,-79.7827637969138,40.458933011573365,276.8945387878418,0.004042940214276314,-0.002489391947165132,0.4299171268939972,0.9028558731079102,-0.14253738864488855,-0.18479043662152767,2.9909743898249976,-0.07224851101636888,0.01792348362505436,0.005229423753917217,-0.04581441471353173,0.18329869899898768,-9.613867430090904
26.21,2.299999952316284,243.0,22.04110145568848,22.91701316833496,-79.78276362606051,40.45893255459381,277.4882039108276,0.00208434765227139,-0.007110454607754945,0.4276123940944672,0.9039318561553956,-0.10946985103109903,-0.20844925049907465,2.9423055654014005,0.05573533102869988,-0.07624871283769608,0.03550894185900688,-0.007309590582735837,0.056867461279034616,-9.56671314418316
26.3,2.299999952316284,260.0,21.992271423339844,21.37436866760254,-79.78276372517833,40.45893230575648,278.16180220031737,-0.0038082229439169173,-0.005162755027413368,0.4242391288280487,0.9055275917053224,-0.11682111483530745,-0.19476079049786954,2.9651113821662376,-0.003810067428275943,-0.07375934720039368,0.011340743862092495,-0.003138556955382228,0.18829910991713408,-9.724634159803394
26.51,2.4000000953674316,291.0,21.94344139099121,23.282794952392567,-79.78276403373881,40.458932190039896,278.49879732513426,-0.006936741992831229,-0.0045186406932771215,0.4226274490356445,0.9062656760215759,-0.14110643178009472,-0.1668651186533048,2.9477092934963007,-0.03442871943116188,-0.06120269000530242,0.0025554383173584947,-0.04110680311918258,0.07182509573176503,-9.608339472413064
26.6,2.4000000953674316,298.0,21.94344139099121,23.1953239440918,-79.78276402421058,40.45893200544518,278.79273119354247,-0.00886704586446285,-0.004912938456982374,0.4218671321868897,0.9066010117530824,-0.14505686963659375,-0.16733035558686224,2.932505496497324,-0.057387925684452064,-0.061198383569717414,-0.02470388449728489,-0.04576507883146405,0.09128688608296216,-9.69054196894169
26.8,2.5999999046325684,310.0,21.994773864746094,22.320629119873047,-79.78276403114225,40.45893183943607,279.085921195984,-0.009053398855030537,-0.006048676557838917,0.42231836915016174,0.9063822627067566,-0.1299429945133672,-0.16383128308882464,2.9269794840913947,0.030164299532771117,-0.023855218663811684,0.022210046648979187,-0.009365960396826271,0.01068176664412022,-9.790866156220437
27.0,2.5999999046325684,313.0,21.815731048583984,25.39796638488769,-79.78276381454164,40.458930943074925,280.0774888076782,-0.006021090317517519,-0.00797946099191904,0.4267365038394928,0.9043208360671996,-0.11897990194129605,-0.1687161624644988,2.935807743243464,-0.08200504630804062,-0.014291868545114994,-0.01065116748213768,0.044370522466488184,0.07514974032528697,-9.555715116262435
27.1,2.799999952316284,319.0,21.805715560913086,24.17339324951172,-79.78276381207226,40.45893078522953,280.37018766784666,-0.0033435525838285685,-0.008373899385333061,0.4278124272823334,0.9038226008415222,-0.09662629030024206,-0.14591747078375816,2.9191816088637133,0.017636055126786232,-0.01794440858066082,-0.05118744447827338,0.0484826773731038,0.20546900186687708,-9.654890910387039
27.2,3.0,321.0,21.850788116455078,23.21122741699219,-79.78276382035315,40.458930655434585,280.6621636428833,-0.003683073678985238,-0.005037747789174318,0.4292400777339935,0.9031689167022704,-0.06544048832463313,-0.11532380133972606,2.915415176521239,0.17146353423595428,-0.06657535582780838,0.03057842701673508,0.06993998081423343,0.1283494533598423,-9.709196341037751
27.4,2.9000000953674316,325.0,21.829504013061523,23.75990104675293,-79.78276336746792,40.45893062593378,281.2852744140625,-0.007392519619315863,-0.0007293731323443352,0.43037471175193787,0.9026198387145996,-0.031894061791220875,-0.11770242889013945,2.911567996183003,0.060805384069681175,-0.0019816590938717127,-0.003022921504452825,0.08847115024924279,0.0861241418402642,-9.750301682353019
27.5,3.0,325.0,21.753129959106445,25.056039810180664,-79.78276334230759,40.45893071067989,281.58686819458006,-0.007207408081740141,-0.006761212833225727,0.43064576387405396,0.9024670124053956,-0.02507922606660627,-0.10010556275845288,2.911930552218169,-0.15512819588184354,0.0005948458565399051,-0.028808502480387688,-0.05965869362466038,0.10544576346874238,-9.770742963552475
27.7,3.0,321.0,21.845781326293945,23.720142364501953,-79.7827632768847,40.45893064927731,282.17082777404784,-0.00807810015976429,-0.017362818121910095,0.4302415251731873,0.9025106430053712,0.059900073383548864,-0.07724245375465552,2.915220895160213,0.08929673582315445,-0.06748665869235992,0.07377327233552933,0.04526221371721476,0.1644696778804064,-9.805246213674543
27.9,3.0999999046325684,323.0,21.736852645874023,24.777727127075195,-79.78276356377737,40.45893085403467,282.7706135787964,-0.006286070682108402,-0.0007708673365414143,0.4267593026161194,0.9043431282043456,0.06034710527830123,-0.017785469207379688,2.9317065675810725,0.2834239602088928,0.08592858910560608,0.09651310741901398,-0.0006829662085510791,0.2903880051523447,-9.810370713472368
28.0,3.2000000476837163,322.0,21.664234161376953,25.87507247924805,-79.78276356804152,40.4589309415226,283.07891645812987,-0.003340160474181175,0.006256697233766317,0.4243901073932648,0.905451774597168,0.03255670368130921,0.028482375238515507,2.933400954409022,-0.04617220163345337,0.16214218735694885,-0.044645700603723526,0.01949278973042965,0.30144033908844003,-9.82889469265938
28.1,3.299999952316284,323.0,21.778169631958008,24.165441513061523,-79.78276358593638,40.45893102348232,283.3725852050781,-0.0006685767439194024,0.00394599512219429,0.4244546294212341,0.9054404497146606,0.02601932648742376,0.07307623473027383,2.9448072972449237,-0.159581258893013,-0.13015829026699066,-0.004177241586148739,0.2108632775768637,-0.1561930537596345,-9.961810090541839
28.3,3.299999952316284,322.0,21.660476684570312,25.83531379699707,-79.7827632395033,40.45893131205018,283.94067945861815,0.004285419825464487,-0.0138758672401309,0.4288444221019745,0.9032616615295408,0.10468316172734088,0.04258630479936544,2.927144827304889,-0.14332495629787445,0.057299796491861336,-0.11389198154211044,-0.024396817521192136,0.2370881859585643,-9.82034021615982
28.5,3.299999952316284,326.0,21.751876831054688,25.07194328308105,-79.78276359148228,40.4589314492155,284.5223349609375,0.008231053128838539,-0.01309786271303892,0.4313316047191621,0.902060866355896,0.1025317657109929,0.08570938227261711,2.952102932642562,-0.00614553689956665,0.03440411388874054,-0.07864022254943848,0.00395273605361581,0.2526995573937893,-9.935807522535324
28.6,3.2000000476837163,329.0,21.711811065673828,25.37411117553711,-79.78276366887326,40.458931499971264,284.8183249511718,0.006980150006711483,-0.008191600441932678,0.4306940138339996,0.9024339318275452,0.08295582352589118,0.10100521731129486,2.966043501901736,0.04846834763884544,-0.047228071838617325,0.0030266721732914448,0.04689330822788178,0.13118173498660327,-9.932471101284028
28.7,3.0999999046325684,331.0,21.630428314208984,26.5748291015625,-79.78276375859146,40.458931543116186,285.1153868713379,0.005365070886909962,-0.00397222675383091,0.429257869720459,0.9031574130058287,0.05458212130957735,0.10530892796350713,2.972213664463477,0.17847399413585666,-0.049213651567697525,0.09411900490522383,0.12846575813367964,-0.0581655385857448,-9.896303733587263
28.9,3.0999999046325684,329.0,21.594118118286133,26.60663604736328,-79.7827641591617,40.45893184696586,285.71327963256834,0.002178460592404008,-0.005095192696899176,0.4271453320980072,0.9041659832000732,-0.0014752463020429787,0.14985743675245966,3.00934706356268,-0.14833328127861026,-0.08116692304611206,-0.10211791843175888,0.038192189955152576,0.26545520352199675,-10.01283991098404
29.0,3.2000000476837163,325.0,21.610395431518555,24.73796844482422,-79.78276441527018,40.45893209820094,286.01239385986327,0.0007124855183064938,-0.0061439601704478255,0.4267143905162811,0.904365301132202,0.02700458975503342,0.17129643403502184,3.01837937488087,-0.01799954101443291,-0.11411027610301973,0.07246275991201401,0.03761127821635455,-0.023395440727472308,-10.147107185125352
29.2,3.2000000476837163,319.0,21.63543701171875,25.270736694335927,-79.78276475751852,40.45893229816657,286.62185469055174,0.0029995699878782034,-0.003882452612742781,0.4257069230079651,0.9048479199409484,0.012879617610802724,0.1976952711580383,3.0734422167912943,-0.1088591292500496,0.08915545046329497,-0.061113692820072174,0.06987674865871668,0.2125658040493727,-10.02905891776085
29.4,3.2000000476837163,316.0,21.629175186157227,25.692180633544922,-79.78276536690039,40.458932349127906,287.2453860321045,0.011591195128858093,-0.008787530474364758,0.4251641035079956,0.9049994349479676,0.012165014249108208,0.2282101982251265,3.0791525377290565,0.19716060161590576,-0.039146889001131065,0.1023535057902336,0.0913989607617259,-0.06910614045336842,-9.962928078174592
29.5,3.0999999046325684,311.0,21.6279239654541,26.376033782958984,-79.78276527016621,40.45893267267432,287.5431708374024,0.011233819648623466,-0.004076367244124413,0.4233868420124054,0.9058701992034912,0.05937395134315832,0.22010734736134088,3.0523372720941637,0.1883628666400909,0.1153685227036476,0.0585484728217125,0.3367279201000929,0.1957194093056024,-9.877323671579363
29.6,3.0999999046325684,305.0,21.560312271118164,27.680124282836914,-79.78276545796359,40.458932763681815,287.8491820373535,0.012206400744616984,0.00029815625748597085,0.4216575026512146,0.906673014163971,0.008895617617529144,0.2498383948001404,3.067160888993224,-0.1380659192800522,0.06244480237364769,-0.10161350667476654,0.2118579985946417,0.22950948184356096,-9.832269705533985
29.8,3.0,294.0,21.477678298950195,27.91072654724121,-79.78276590597754,40.4589331405288,288.46994772338866,0.019621649757027626,-0.0018147546797990801,0.4240808784961701,0.9054099917411804,0.028951487549084613,0.29695836410756626,3.1309284833387565,-0.1872904747724533,0.1634932905435562,-0.15708644688129425,0.3003767853789032,0.461213716082275,-10.171819857358932
30.0,3.0,287.0,21.602882385253906,25.024232864379893,-79.78276625117033,40.45893357723085,289.09942427062987,0.023416107520461082,-0.0015555687714368105,0.4289262592792511,0.9030346870422364,0.11683069534148972,0.3123915094212901,3.1996937003828307,0.08695730566978455,0.12905772030353546,-0.013947062194347382,0.36625643223524096,0.11656732295639816,-10.394838509559632
30.1,3.2000000476837163,272.0,21.566574096679688,26.15338516235352,-79.78276639305733,40.45893371050512,289.42234030151366,0.02462506853044033,-0.0008276477456092834,0.4306201636791229,0.9021968841552734,0.09892940093404304,0.3188505921823445,3.235786440966056,-0.16616691648960116,0.02735689468681813,-0.14125530421733856,0.2954159710742533,0.382242829464376,-10.156530557870868
30.21,3.2000000476837163,262.0,21.630428314208984,25.37411117553711,-79.78276653131968,40.45893383676973,289.748416809082,0.02558039501309395,-0.0015694766771048307,0.4319162964820862,0.9015495181083679,0.11398082544347035,0.32010001294378143,3.2682731641497886,0.0038140614051371813,-0.0477028526365757,0.03651069104671478,0.3388004656881094,0.1236027567833662,-10.211456962823867
30.41,3.299999952316284,251.0,21.759389877319336,23.0203857421875,-79.78276678917581,40.458934178061156,290.39505949401854,0.029134055599570274,-0.005526568740606308,0.43255290389060974,0.9011207818984984,0.1298806271563334,0.317464923497435,3.2888449469817926,-0.07412202656269072,0.04336385801434517,-0.05772094056010246,0.5023630211502313,0.3537682779505849,-10.014304053783418
30.5,3.299999952316284,249.0,21.832008361816406,23.31460189819336,-79.78276671010529,40.458934380626886,290.71494284057616,0.028293645009398464,-0.010121402330696585,0.4329257905483246,0.9009286165237428,0.1831888356216365,0.3165634713485088,3.2348198593331747,-0.035506054759025574,-0.05696265771985054,-0.015991391614079475,0.4445701649039984,0.4051661806181073,-9.68958010196686
30.7,3.4000000953674316,247.0,21.769405364990234,21.604969024658203,-79.78276686364207,40.45893464570229,291.35872450256346,0.029754143208265305,-0.009987105615437027,0.4318084716796875,0.901419162750244,0.2167150904939689,0.2515758804425076,3.1669701267952455,-0.014349386096000671,0.05863534659147264,-0.033621691167354584,0.28368431858718396,0.5037526484951377,-9.478474566936491
30.9,3.4000000953674316,249.0,21.83451271057129,22.47171401977539,-79.78276691858385,40.458934953730704,292.00366773986815,0.03323930501937866,-0.011394225992262363,0.4307737946510315,0.9017756581306458,0.20829360673980526,0.25228659478987026,3.073335426568507,-0.14261364936828613,-0.04404409602284432,-0.011529795825481415,0.2735732036456466,0.4722551230341197,-9.410981910824775
31.0,3.5999999046325684,252.0,21.92716407775879,21.946895599365234,-79.78276692302998,40.45893516896578,292.34617987060545,0.03372500091791153,-0.014021079055964948,0.43078747391700745,0.901714026927948,0.2534638739656348,0.22468379971445127,3.0570519656503223,0.037260614335536964,0.018293045461177826,0.026667127385735512,0.3110103307664395,0.35296600341796874,-9.22509015440941
31.1,3.5999999046325684,254.0,21.63919258117676,25.44567680358887,-79.78276690842387,40.45893526445289,292.6509093322754,0.036648936569690704,-0.01597527228295803,0.43004360795021057,0.9019225239753724,0.26001812114627937,0.18895788697880905,3.004273735100692,-0.008307252079248428,-0.014927463605999947,0.07105901837348938,0.227716707251966,0.3945401087030769,-9.245963544845582
31.3,3.5999999046325684,260.0,21.87833404541016,20.603046417236328,-79.78276686751478,40.4589354524008,293.28653517150883,0.033045653253793716,-0.02133152075111866,0.4258028268814087,0.9039607048034668,0.28774890961142885,0.15683926225650885,3.0168099276964977,0.1574089378118515,-0.0352180153131485,-0.007392068859189749,0.3206394158676267,0.5404803987219929,-9.673588551878927
31.4,3.5999999046325684,261.0,21.7744140625,22.805686950683594,-79.78276681518011,40.45893549872903,293.5881384887695,0.026925204321742058,-0.0228890348225832,0.4246981143951416,0.9046451449394226,0.2608952206063672,0.11420942304479813,2.9832806737704733,0.01793193630874157,-0.011796475388109684,-0.038575995713472366,0.22627270080149176,0.4978668046742678,-9.512588977217675
31.6,3.5999999046325684,264.0,21.735599517822266,23.529298782348643,-79.7827669277435,40.45893548141128,294.20528211975096,0.02108002081513405,-0.026348365470767014,0.42457664012908936,0.9047630429267884,0.2046845949440967,0.036434641445326765,2.9539977534126,0.04362544789910317,0.04134925827383995,0.04729946330189705,0.15502006575465202,0.3520431300625205,-9.581949234008787
31.7,3.5999999046325684,265.0,21.67424964904785,23.799659729003906,-79.7827669120587,40.45893547296683,294.5008753814697,0.023218033835291862,-0.021598020568490032,0.4259183704853058,0.9042057394981384,0.1940995854390018,0.0287444423633536,2.9485483481634627,0.10605058819055556,0.05063857883214951,0.037090882658958435,0.11756788205355405,0.37174726009368897,-9.733436558246614
31.9,3.5999999046325684,269.0,21.87457847595215,21.15171813964844,-79.78276703057942,40.45893525445585,295.12148847961424,0.031704671680927284,-0.0178568996489048,0.4285771250724793,0.9027722477912904,0.13384287821807767,0.08384049742789451,2.9642892821124804,0.062195144593715675,-0.030271476134657863,-0.005670687183737755,0.282574297785759,0.4482896518707276,-9.657089463472367
32.0,3.5999999046325684,270.0,21.775665283203125,22.304725646972656,-79.78276726709596,40.45893484809276,295.4619406738281,0.03080137632787228,-0.015569265931844713,0.4294224083423615,0.902444064617157,0.07541717070664225,0.09620743918077214,2.978480256539513,-0.04397549107670784,-0.048297978937625885,-0.07766459882259369,0.3633172927424312,0.5931477684527636,-9.527003533244134
32.21,3.5999999046325684,270.0,21.765649795532227,22.38424301147461,-79.78276731424556,40.45893467369852,296.0537966766357,0.0277265664190054,-0.01656988263130188,0.4283601641654968,0.9030306339263916,0.06421561845136803,0.06391584836003948,2.9394188534200065,-0.08090952783823012,-0.00018497134442441165,-0.02001066133379936,0.3066430819407105,0.7252709417045117,-9.550732703804972
32.3,3.700000047683716,271.0,21.805715560913086,22.47171401977539,-79.78276745760091,40.45893473240061,296.4267424621582,0.028464412316679955,-0.018548088148236275,0.4266098737716675,0.903797447681427,0.10337656126719584,0.06775095169647828,3.00423021785233,0.0348379947245121,0.028808610513806343,0.06551150977611543,0.2811560556292534,0.6156920738518238,-9.677348896265027
32.5,3.5999999046325684,271.0,21.763145446777344,22.46376037597656,-79.78276760297447,40.45893481370978,297.0598639526367,0.030410695821046836,-0.02342592924833297,0.4255567491054535,0.904117226600647,0.14032279697268946,0.07815326195382785,2.9830203076027404,-0.06904422491788864,-0.0840190127491951,0.10330337285995483,0.22492022154852748,0.4654094953089953,-9.457784194350245
32.6,3.5,273.0,21.751876831054688,23.410022735595703,-79.78276760777408,40.458934771200134,297.35664358520506,0.029344316571950912,-0.025098823010921482,0.4272014498710632,0.9033315181732178,0.14783336560364935,0.06937425393873223,2.945371221953148,-0.02702665328979492,-0.06265295296907425,-0.06009478121995926,0.2320645323581993,0.6512180019915105,-9.414351076483726
32.9,3.4000000953674316,268.0,21.61289978027344,24.491464614868164,-79.78276766072152,40.458934666349634,298.26716413879393,0.027613211423158646,-0.01753450557589531,0.4303205907344818,0.9020833373069764,0.11164545102906992,0.04863145462300522,2.9381792397044015,0.13660240173339844,-0.059953927993774414,0.09881684184074402,0.2560443657450378,0.3165764049813152,-9.764206361174583
33.1,3.4000000953674316,262.0,21.560312271118164,25.61266326904297,-79.78276787721146,40.4589345301293,298.8686141052246,0.022677378728985783,-0.012957324273884295,0.4296567738056183,0.9026145935058594,0.05286714681654098,0.06287406010162136,2.9687792577766663,0.0016503222286701202,-0.04429657012224197,-0.0392460897564888,0.27121443685144186,0.4402428233250976,-9.920421159267425
33.3,3.4000000953674316,262.0,21.42634391784668,28.125423431396484,-79.78276787355202,40.45893430359792,299.45289984130864,0.02557104080915451,-0.00982050132006407,0.4258945286273956,0.9043581485748292,0.02757002194235263,0.02190229447968606,2.9876405146162885,0.0633835643529892,-0.012444376945495605,0.1774367392063141,0.2373989654704929,0.2751451727561653,-9.988255877494812
33.41,3.4000000953674316,267.0,21.403806686401367,26.42374420166016,-79.78276788206658,40.45893418638376,299.7524336853027,0.02575653046369553,-0.007989238016307354,0.4232480525970459,0.9056124687194824,0.008985696764423973,0.029654210402647787,3.0085949040620528,0.0850924625992775,-0.04049251601099968,0.11871328204870225,0.30844789814203977,0.1391551809757948,-9.990204169750212
33.5,3.5,267.0,21.456392288208008,27.02012825012207,-79.78276816459535,40.45893394867203,300.03230657958983,0.019190682098269463,-0.010631291195750237,0.4209302067756653,0.9068276882171632,-0.049511683687407465,0.06567922837883737,3.0109292103293344,-0.1361929476261139,-0.15125612914562225,-0.08144653588533401,0.22099589930847288,0.4425148686021567,-10.08464138031006
33.7,3.700000047683716,268.0,21.377513885498047,27.77554702758789,-79.78276825869008,40.45893369755021,300.6362570800781,0.008755641058087349,-0.012483607977628708,0.4188192188739777,0.9079415798187256,-0.011042244181563993,-0.035238964633319735,3.009323549697972,0.06046352535486221,0.1223071664571762,0.04644978418946266,0.02073725081048906,0.5710656854510308,-9.705162346959117
33.8,3.9000000953674316,267.0,21.526508331298828,25.159412384033203,-79.78276826313025,40.45893364814334,300.9047926940918,0.010974626056849957,-0.010706201195716858,0.41939058899879456,0.9076764583587646,0.04275081141313521,-0.020125944429512987,2.9339407173200365,0.045338083058595664,0.06896049529314041,-0.012889363802969456,-0.009284186172299088,1.0319704858213663,-9.553508377075195
34.0,4.199999809265137,266.0,21.799455642700195,21.620872497558594,-79.78276804609325,40.45893345068657,301.4794081726074,0.016967734321951866,-0.006753105204552412,0.4207224547863007,0.9070056080818176,0.11049693434460484,0.02287015401558376,2.831214406556272,-0.3195593655109405,0.02761875838041305,-0.05708256363868714,0.20495539706200366,1.0315139644593,-9.092422678470612
34.11,4.400000095367432,265.0,21.81072425842285,21.764005661010746,-79.78276784977922,40.458933571744,302.02004232788084,0.02987683564424515,-0.03761536255478859,0.4217866659164429,0.905421793460846,0.2838505584107387,0.0454001172421077,2.544309099238564,-0.3213391900062561,-0.08725129812955856,0.030673200264573094,0.3640200184285641,0.4175767862051726,-8.719380844831466
34.3,4.900000095367432,269.0,21.79820251464844,22.137739181518555,-79.782767915791,40.45893334341176,302.279910949707,0.035490769892930984,-0.0483291894197464,0.4225252866744995,0.9043655395507812,0.40441769464121935,0.003257941459991892,2.4566819495677112,-0.07823178917169571,0.0005706734373234212,0.07383793592453003,0.1091096653416753,1.1655333897471432,-8.580229391455651
34.4,5.0,283.0,21.696786880493164,22.41604995727539,-79.7827677313748,40.45893342219114,302.5240210571289,0.040406234562397,-0.051508501172065735,0.42180579900741577,0.9043197631835938,0.4375571873225672,-0.026064385300540668,2.353613235441736,-0.09972202777862547,0.007213577162474394,0.12142366915941236,0.042231135894544435,0.8423398004472256,-8.652005717754365
34.61,5.300000190734863,289.0,21.33995246887207,28.63433837890625,-79.78276738691144,40.45893344367638,302.9910391845703,0.036224190145730965,-0.058206766843795776,0.4180600047111511,0.9058287143707277,0.3830312225015125,-0.05291422432537303,2.156228600929802,-0.07144533097743988,-0.044861290603876114,0.046010632067918784,-0.035560280531644825,0.9903473004698754,-8.78088478267193
34.7,5.300000190734863,290.0,21.20347785949707,29.930477142333984,-79.78276723728534,40.458933432112225,303.20720663452147,0.02688316628336906,-0.06007538735866546,0.4151584208011627,0.9073652625083924,0.34740104460027943,-0.07063884253080266,2.135913341528062,0.17773176729679108,-0.2918655276298523,0.09935975819826126,0.20808515578508371,0.5966641743108629,-9.593324407339097
34.9,5.5,294.0,21.061996459960934,30.495052337646484,-79.7827670733943,40.45893340909828,303.6743582763672,0.010527673177421093,-0.05048482865095138,0.4175269603729248,0.9071999788284302,0.21134787138358352,-0.10084992064017162,2.3861906405842115,0.20880280435085294,0.250152051448822,-0.053969994187355035,-0.010314253151882441,0.5456742245703936,-10.887307384014132
35.0,5.599999904632568,288.0,21.36749649047852,26.88494682312012,-79.78276689154302,40.45893346945737,304.20375433349614,0.014958949759602547,-0.026119286194443703,0.4256584644317627,0.9043831825256348,0.13951974392490976,0.007987276455122459,2.623511723102905,0.09426786750555036,-0.0013676626840606332,-0.11503413319587708,0.2262075226195157,0.5885909967496992,-10.859032588005066
35.2,5.699999809265138,288.0,21.256065368652344,29.453371047973643,-79.78276695438201,40.45893343639243,304.4712409057617,0.0182959008961916,-0.022838955745100968,0.4291200339794159,0.9027733206748962,0.07988855661518139,0.05821303726541684,2.72198654125498,-0.08839407563209534,0.16705484688282013,-0.0772416815161705,0.2609626598283649,0.686755186021328,-10.718486573696136
35.3,5.699999809265138,288.0,21.376262664794922,25.50929069519043,-79.78276697714675,40.45893345114821,304.6950949707031,0.02229397743940353,-0.021153818815946586,0.4328567087650299,0.9009387493133544,0.13832742552400734,0.08281659681294795,2.7745885155069763,0.17269912362098694,0.07716646790504456,0.0011098559480160477,0.4175389985740185,0.6784459271281958,-10.870404253005981
35.5,5.599999904632568,277.0,21.637939453125,22.972675323486328,-79.78276721018514,40.45893353629955,305.22336569213866,0.032941076904535294,-0.019121643155813217,0.4355430901050568,0.8993617296218872,0.19628723411312285,0.175864739394398,2.8722435263486967,-0.07452327013015747,-0.09432099014520644,0.19845084846019745,0.3404725866392255,0.5399686942622066,-10.426246243715287
35.6,5.5,279.0,21.56532096862793,23.990501403808594,-79.7827672937833,40.45893368653518,305.8032607116699,0.043840579688549035,-0.029632836580276486,0.4307456314563751,0.9009208083152772,0.2893301004066106,0.21491238996189554,2.892092913710338,0.06603065133094788,0.016982134431600567,0.07631118595600128,0.5244833303242922,0.4917643580585718,-10.058026024103166
35.81,5.300000190734863,276.0,21.534019470214844,23.79170799255371,-79.78276743985924,40.45893390899946,306.05412283325194,0.04077941179275514,-0.03219953179359436,0.4273693263530731,0.9025827646255492,0.2914214278532842,0.2514197466901409,2.8912187029586636,-0.07424082607030869,-0.08368165045976639,0.0012864359887316825,0.4445664738491178,1.0633399207144976,-10.127045388221742
35.9,5.099999904632568,274.0,21.619159698486328,23.950742721557607,-79.78276750772797,40.45893397745464,306.3483008422852,0.03667265921831131,-0.03812167793512344,0.4251158237457275,0.9035920500755308,0.29031664551392783,0.232725311049736,2.936415098218456,-0.1597825437784195,-0.18039710819721225,0.008329657837748528,0.415475369989872,0.7294887576252223,-10.176501138210297
36.1,5.0,275.0,21.368749618530273,26.932659149169922,-79.78276761404342,40.45893415476111,306.87596502685545,0.04093047976493835,-0.04486093670129776,0.4242693185806273,0.9034975171089172,0.2831903482032561,0.1754599134074325,2.9370460798738396,-0.024373209103941917,0.09468124061822893,-0.14289262890815735,0.28123824555426835,0.9298338809609412,-10.152994161844253
36.2,5.0,278.0,21.38502693176269,26.376033782958984,-79.7827677404308,40.458934156628,307.174686340332,0.04319974035024643,-0.03804323077201843,0.4254142642021179,0.9031662940979004,0.25828499625351603,0.1947887600393562,3.008263624653471,0.04425989836454392,0.06310182064771652,-0.0831744372844696,0.3708580447733402,0.8555729265511036,-10.441698095798493
36.4,5.0,275.0,21.343708038330078,28.44349479675293,-79.78276790943205,40.45893419569294,307.40729513549803,0.04291783645749092,-0.03000147826969624,0.4259508550167084,0.9032297134399414,0.22765677828840786,0.1959733365415574,3.0081724289409415,0.20390088856220245,-0.05939263477921487,0.11431517452001573,0.30238031554967165,0.4742541398853064,-10.47944538116455
36.6,5.0,275.0,21.202226638793945,28.37988090515137,-79.78276828221237,40.458934083401495,308.27484503173827,0.03481408208608626,-0.017406808212399483,0.4232199192047119,0.9051905274391174,0.11092540541788568,0.1973996963539089,3.1465020260658885,0.059969644993543625,-0.08180224895477295,-0.04661621153354645,0.3940785075724125,0.8937358758598567,-10.259639189243318
36.71,5.0,269.0,21.364994049072266,27.44952392578125,-79.78276840071342,40.45893401914115,308.5934142150879,0.034094851464033134,-0.02016226202249527,0.4223390519618988,0.9055721163749696,0.06197629531753824,0.1867627906709313,3.1966216506006457,-0.19086335599422447,0.06451619416475296,-0.04685147479176521,0.3962227911874652,0.7660311511158944,-10.246236201524734
36.8,4.900000095367432,262.0,21.24354362487793,28.96831321716309,-79.78276833180537,40.45893409529413,308.8702544250488,0.03516518324613571,-0.025937696918845177,0.4209073483943939,0.9060505628585817,0.09213429012037007,0.17522874284042927,3.124789282493404,0.054881464689970016,-0.17534106969833374,0.08893188834190369,0.5005635405331851,0.3311652080342174,-9.848777564764024
37.0,4.800000190734863,259.0,21.38001823425293,25.843265533447266,-79.78276862430755,40.45893392058024,309.49104681396483,0.02338859625160694,-0.017138559371232986,0.4229402244091034,0.9056935906410216,0.09514768022917862,0.15899259603112118,3.2682060501022456,0.060743685811758034,-0.035276483744382865,-0.2358739227056504,0.3265455422177911,0.7554300029575826,-10.801242216825486
37.1,4.800000190734863,258.0,21.5991268157959,22.424001693725586,-79.78276876029518,40.45893384554268,309.82389822387694,0.02544059976935387,-0.010012375190854073,0.42536720633506775,0.9046078324317932,0.052536245928345264,0.13087104065031566,3.3739208793427684,0.12197794765233995,0.02587024122476577,0.0034081023186445236,0.3945867402479053,0.3243295571208,-10.837266912460327
37.21,4.800000190734863,250.0,21.832008361816406,20.571239471435547,-79.78276888472301,40.45893377453356,310.1637381591797,0.033990729600191116,-0.010773763991892338,0.4246693253517151,0.904646098613739,0.009271882336193945,0.15541685396218766,3.4018482988285976,-0.16160525381565094,0.16112005710601807,0.10121072083711624,0.5194997118785978,0.6323953031748534,-10.250163191556931
37.4,4.800000190734863,261.0,21.998531341552734,16.197763442993164,-79.7827691599006,40.458933917162106,310.7986601867676,0.04398063197731972,-0.0213406290858984,0.4221928715705872,0.9051870703697203,0.13031743245447702,0.21408108713624613,3.1723100339364705,-0.09649716317653656,-0.006011180579662323,-0.07282960414886475,0.4289058030769229,1.0222629383951427,-8.769247654080392
37.6,4.900000095367432,262.0,22.08241844177246,16.818002700805664,-79.7827694572217,40.45893379314601,311.464237121582,0.039527546614408486,-0.026383364573121067,0.4223157167434693,0.9052022099494934,0.15298176960436716,0.15942244387364066,2.8341560285821683,-0.010758276097476479,0.005703639704734087,-0.07080984115600586,0.2731343518383801,0.7940320781618357,-7.83647817850113
37.7,4.900000095367432,262.0,22.297771453857425,14.400662422180176,-79.78276949949547,40.458933746248,311.738220123291,0.038358796387910836,-0.026795577257871628,0.42170020937919617,0.9055272936820984,0.16830062286195266,0.11621374847778332,2.6302364392858983,0.14178873598575592,0.01379316672682762,-0.12954182922840118,0.1660921888612211,0.8836914557218553,-7.797805278897287
37.9,4.800000190734863,261.0,22.240177154541016,15.601380348205565,-79.78276958020369,40.45893371326947,312.26366033935545,0.043185707181692116,-0.029914151877164837,0.41907641291618347,0.906429886817932,0.1341065910640026,0.08314613529098944,2.155727919696212,-0.10678577423095703,0.13270525634288788,0.028704803436994563,0.4284624014049769,0.6869602771103382,-7.260169587135315
38.0,4.699999809265137,263.0,21.912139892578125,21.398223876953125,-79.78276969166133,40.4589336550741,312.7075804748535,0.04116430506110191,-0.031561773270368576,0.4161444902420044,0.9078177809715272,0.1051778376582172,0.07891446103628293,1.7548967564498392,0.21409454941749573,-0.05226591229438782,-0.07086921483278275,0.5272227874025702,0.5151101705431939,-7.251936122775077
38.21,4.5,264.0,21.783178329467773,21.175573348999023,-79.78276973602956,40.45893357972575,312.87836065673827,0.03713668510317802,-0.02468233928084373,0.416492760181427,0.9080448746681212,0.056959594947926975,0.04673720083285442,1.6678596000971633,0.18630284070968628,-0.05220186710357666,0.07695166021585463,0.21289871161803609,0.5411978155374527,-8.669183083176613
38.3,4.5,265.0,21.76439666748047,22.14569091796875,-79.78276986334768,40.45893353085619,313.1616820373535,0.03492448851466179,-0.01793075166642666,0.417243242263794,0.9079465866088868,0.01098254011929993,0.039013748776598536,1.6989611794936073,0.06160810217261314,0.04026031121611595,-0.09077773988246918,0.31648738112300634,0.7535372592508793,-9.193180729150773
38.51,4.400000095367432,268.0,21.862056732177734,19.720399856567386,-79.78277007218531,40.4589334083103,313.6969908752441,0.030805572867393494,-0.0065933987498283395,0.4203726351261139,0.906804621219635,0.006433437283916918,0.037012729860180886,1.7958388258195517,0.13157938420772552,0.013795099221169949,-0.006797000765800476,0.3711375051364303,0.5757397303730251,-9.537199323177338
38.61,4.400000095367432,262.0,21.90337562561035,19.80786895751953,-79.78277003134932,40.45893328080146,314.0480879821777,0.02692755125463009,0.0012956594582647085,0.4221395552158356,0.9061300158500672,0.036591681187272636,0.02690290701943701,1.7047917619755548,-0.04441756382584572,-0.07576384395360948,-8.162418089341372e-05,0.4865131564065814,0.7432397277653218,-9.467208736538886
38.8,4.300000190734863,261.0,21.79820251464844,20.730274200439453,-79.7827701310827,40.458933284313005,314.39880361938475,0.023916862905025482,-0.0005188168724998832,0.4220745265483856,0.9062454700469972,0.0732815558210622,0.04332462422580865,1.7931218816227867,0.003442371962592005,0.01995726488530636,-0.08867242932319641,0.5860657670348883,0.624509309604764,-9.324869965910912
38.9,4.300000190734863,260.0,21.9309196472168,17.859683990478516,-79.78277004820241,40.45893329674402,314.5766753234863,0.02248801477253437,-0.0018480186117812991,0.4225470423698425,0.9060601592063904,0.11253045052686787,0.032659002621578365,1.7633696040821902,-0.10720465332269667,-0.041694384068250656,0.0270261038094759,0.3538753916323185,0.6581852518022061,-9.412629071474077
39.1,4.199999809265137,254.0,22.281494140625,14.647167205810547,-79.7827699391031,40.45893334364364,315.10390463256834,0.02963870018720627,-0.011993336491286756,0.4250141382217407,0.904621958732605,0.19591287477069347,0.042907178698662105,1.7633128039297163,-0.11588669568300247,-0.011088666506111622,0.0912567302584648,0.2919470555707813,0.6106085776537657,-9.030069140195847
39.2,4.199999809265137,255.0,22.1062068939209,15.816078186035154,-79.7827695663523,40.45893340232158,315.54100408935545,0.034006286412477486,-0.01935802958905697,0.42814674973487854,0.9028616547584534,0.2525521104311165,0.04164920320799982,1.5855449520127634,-0.20016004145145416,0.06012696027755737,0.03619042038917542,0.2146864064410329,0.6450408571958542,-8.547014282941817
39.4,4.099999904632568,255.0,22.272729873657227,17.637035369873047,-79.78276940537648,40.458933513323714,315.6866072692871,0.032626010477542884,-0.01857998035848141,0.4305659234523773,0.9017779231071472,0.2763592253008561,0.03450582348391083,1.2682852397458757,0.054160244762897485,0.002942492952570319,0.0532856360077858,0.27770773328840737,0.7950214270502329,-6.9337388330698015
39.5,4.099999904632568,256.0,22.06363677978516,18.97293281555176,-79.78276900340431,40.458933586027406,315.79818334960936,0.0320865772664547,-0.012352176010608671,0.4155246019363403,0.9089319109916688,0.2986902215171113,-0.00872470429173254,0.9889293993835812,0.2613654136657715,0.08806934952735901,0.6068787574768066,0.11439933984540405,0.4954123628139496,-6.98879738509655
39.7,4.199999809265137,257.0,22.101198196411133,16.491979598999027,-79.78276865831413,40.45893384745733,315.96573248291014,0.023617053404450417,-0.010514956898987292,0.35178232192993164,0.9357248544692992,0.2595888358862597,0.017089973569652417,0.7291093355639455,-0.10342305898666382,-0.2268480062484741,0.9375081658363342,0.3663485258817673,0.5414368204772473,-8.72416562139988
39.8,4.300000190734863,264.0,22.233917236328125,14.830058097839355,-79.78276826807921,40.45893387542621,316.0029715576172,0.01869086921215057,-0.013567605055868627,0.2997782826423645,0.9537293314933776,0.2701543607068749,0.006513843592649768,0.6683352434817341,-0.07903802394866942,-0.15085376799106598,1.1845718622207642,0.17514000590890647,0.5193297406286002,-8.94463313341141
40.01,4.5,261.0,22.39668273925781,12.953439712524414,-79.78276770749764,40.45893398105045,316.0930899658203,0.01524206344038248,-0.023884166032075882,0.17208290100097656,0.9846749901771544,0.30257630897488474,0.06151628410332756,0.4839090612475636,-0.2129736840724945,-0.06917012482881546,1.3106406927108765,0.4101040811464191,0.5754444459825755,-8.953909741044045
40.2,4.599999904632568,257.0,22.296518325805664,16.35679817199707,-79.78276717572427,40.45893428961188,316.16794958496087,0.029570784419775013,-0.02588240243494511,0.02024088799953461,0.9990225434303284,0.2555349090470917,0.15250648919838838,0.2269043832106281,-0.22151026129722595,0.17461657524108887,1.6493539810180664,0.25296427180990577,0.5313984302803875,-8.691645162105559
40.3,4.800000190734863,273.0,22.161296844482425,16.181859970092773,-79.78276669925384,40.458934098006424,316.12990560913084,0.03407790884375572,-0.0290178656578064,-0.06296578049659729,0.9970116019248962,0.2242050343311872,0.1636832468321501,0.10369701268111056,-0.11858056485652925,-0.0121680935844779,1.739707589149475,0.6105441121011973,0.2118777694925666,-8.701692432761194
40.4,4.800000190734863,286.0,22.10245132446289,18.59124755859375,-79.78276647597734,40.45893425646535,316.13729467773436,0.03198070451617241,-0.030878223478794094,-0.14754341542720795,0.9880561232566832,0.15975322489880886,0.2020619515880437,0.005798463393004675,-0.0824861079454422,-0.06154141202569007,1.8990914821624758,0.6078364492580295,-0.1692582916840911,-8.837599850893023
40.6,5.0,278.0,21.823244094848643,21.49364471435547,-79.78276579819514,40.45893427117119,316.0718955078125,0.04126609861850738,-0.021929604932665825,-0.3012010157108307,0.9524149894714355,-0.01927095995572186,0.1796905627699093,-0.02683985703869489,0.1041646972298622,0.14577996730804446,1.333203673362732,0.4807317584753037,-0.3558816078677773,-9.747740017175676
40.7,5.099999904632568,273.0,22.054872512817386,18.04257583618164,-79.78276573802088,40.458934420560865,316.0729064025879,0.05579014495015144,-0.014582457952201366,-0.35269442200660706,0.9339601397514344,-0.08976092841096138,0.15187073244631116,0.0035658640705757702,0.013024195097386835,0.22535867989063266,1.002355456352234,0.7610679613798857,-0.5687801550328732,-10.043671109676364
40.9,5.099999904632568,289.0,21.88083839416504,21.827619552612305,-79.78276551675278,40.458934639400624,316.0732268371582,0.07577622681856155,-0.00618813605979085,-0.4101051390171051,0.9088639616966248,-0.11257941715168797,0.07096113197419426,-0.040587938992473135,0.2041139304637909,-0.042297381907701485,0.4111542403697968,1.0065462074428797,-0.6737070512026548,-9.044049248099329
41.0,5.199999809265137,296.0,21.78818702697754,22.352436065673828,-79.78276540382362,40.45893509698215,315.9889334716797,0.0674990564584732,0.0317409448325634,-0.4263674020767212,0.9014694690704346,-0.07527894858246406,0.06536040420078537,-0.08118986504105735,-0.16504338383674622,-0.6744929552078247,0.01642478071153164,1.2348486229777336,-0.4825620466098189,-9.269961102604867
41.21,5.300000190734863,284.0,21.756885528564453,21.30280303955078,-79.7827653694295,40.458935171350376,315.9842146911621,0.032024629414081573,0.037336055189371116,-0.4244568049907684,0.90411114692688,-0.03077531178789677,0.10039600210913374,-0.046412338131867216,-0.46501678228378296,-0.8541190028190613,0.044949222356081016,1.12736488558352,-0.8290287601947784,-9.921391797065736
41.3,5.300000190734863,278.0,21.666736602783203,24.952667236328125,-79.78276522274359,40.45893531394994,315.86212911987303,-0.008258667774498463,0.032412391155958176,-0.4184432923793793,0.9076268672943116,-0.015618658812616303,0.1881590241767796,-0.030199451616463664,-0.4951286613941193,-0.8286306858062744,-0.07239185273647307,0.8325665449351073,-0.4886637623235584,-9.965233050584793
41.5,5.099999904632568,255.0,21.602882385253906,24.165441513061523,-79.78276468714493,40.45893539914236,315.70561972045897,-0.053532257676124566,0.02869438752532005,-0.39914244413375854,0.914875030517578,0.022867498122062613,0.4518445674090896,0.08298952579492573,-0.02644080854952336,-0.26546573638916016,-0.16275157034397125,0.6701803030818702,-0.17081324905157091,-10.697024953365329
41.6,4.900000095367432,241.0,21.58159828186035,23.25893783569336,-79.78276347182243,40.45893615399735,315.727420715332,-0.0642659142613411,0.03899674862623215,-0.3854053616523743,0.91968035697937,0.0594711751804041,0.8513268842521594,0.2913688699241374,0.05322859063744545,-0.06191381812095643,-0.12026675790548325,0.6206855960190296,0.06271171677857637,-10.718294785022737
41.8,4.599999904632568,237.0,21.43886375427246,26.447599411010746,-79.78276235300362,40.4589364994117,315.6497954406738,-0.06857749074697495,0.043363697826862335,-0.3830630779266357,0.9201518297195436,0.10575382999800728,1.0537520498101025,0.3737686920860113,0.06473727524280548,-0.05743475630879402,-0.07646995782852173,0.6378103365004063,0.08791795796714724,-10.813839458227156
41.9,4.5,235.0,21.425090789794922,25.92278289794922,-79.78276123594793,40.45893719824442,315.6750334777832,-0.07391776144504547,0.043672334402799606,-0.3845834136009216,0.9190889596939088,0.10803491723378984,1.2671561660772483,0.5100702028125585,-0.13303442299365995,-0.06224779784679413,0.1395384520292282,0.5316738341376186,-0.3112993294000625,-10.922439794540406
42.11,4.300000190734863,223.0,21.31365966796875,27.529041290283203,-79.78275811833893,40.4589387137946,315.65583792114256,-0.08429071307182312,0.033128026872873306,-0.3917415738105774,0.9156070947647096,0.11839599966968115,1.6927657154374498,0.7847304095955687,-0.057576961815357215,0.09087218344211576,0.17514073848724365,0.4399756055697799,-0.2488570961728692,-11.195261521339416
42.2,4.199999809265137,223.0,21.3987979888916,25.42182159423828,-79.78275639470033,40.4589398585913,315.7082900085449,-0.08527005463838577,0.029557034373283383,-0.39576902985572815,0.9139050245285034,0.09164814059918082,1.913591362088445,0.9412337200294436,0.08472756296396255,0.08328907191753387,0.07407516986131668,0.4576424560323358,-0.2388769223168493,-11.165157716274262
42.41,3.9000000953674316,219.0,21.430099487304688,26.137481689453125,-79.78275193360743,40.45894206359416,315.7247466125488,-0.08789750188589096,0.03603662922978401,-0.40294498205184937,0.9102807044982908,0.04164517183905464,2.343637429643575,1.1348276188928292,0.10211138427257538,-0.05514175072312355,0.03550858795642853,0.398532697185874,-0.2459198935702443,-10.845793322324752
42.5,3.700000047683716,218.0,21.477678298950195,25.21507453918457,-79.782746571628,40.45894438529413,315.7240256347656,-0.08926235139369965,0.04121866822242737,-0.4051201939582825,0.9089614748954772,0.02646661349081235,2.74687438359847,1.2888608509865205,-0.10497481375932692,-0.07964316755533217,-0.03237210214138031,0.33223027836531405,-0.056123055908828975,-10.720229043960572
42.71,3.4000000953674316,212.0,21.589111328125,23.29869842529297,-79.78274387125083,40.45894621016082,315.79896917724614,-0.09329214692115784,0.03943948075175285,-0.40340656042099,0.9093978404998779,0.019408821228912715,2.967575873409162,1.3718584662777558,-0.0150651466101408,-0.17987552285194394,0.016444200649857518,0.3885106426477433,-0.328358288705349,-10.45193189263344
42.8,3.299999952316284,214.0,21.63543701171875,23.09990310668945,-79.78274003743888,40.458946849765695,315.708434967041,-0.10055866092443466,0.038418948650360114,-0.4014531672000885,0.9095314145088196,0.1291949306353103,3.1680120463110044,1.357574502746408,0.009708707220852377,-0.12823526561260226,-0.03995559737086296,0.3871331117302179,-0.14726844850927592,-10.257094480991363
43.0,3.0999999046325684,213.0,21.610395431518555,23.457733154296875,-79.78273253298191,40.458949952128755,315.7309721984863,-0.10923237353563307,0.03879157453775407,-0.3927775323390961,0.9122989177703856,0.2718171310292796,3.5973200900384628,1.4886665129208418,0.020975777879357338,0.02748924121260643,-0.06835392117500305,0.2227686106413603,-0.06365124099422248,-10.224788614511489
43.1,2.9000000953674316,216.0,21.540281295776367,23.40207099914551,-79.78272925646942,40.458951296891904,315.74778356933587,-0.10728491842746736,0.04101453348994255,-0.3865682780742645,0.9150807857513428,0.3149351387035313,3.7643561278656117,1.517683074245955,0.05996851995587349,0.010582092218101023,-0.09226023405790328,0.2410124716535211,-0.06975655183196068,-10.15812918663025
43.3,2.700000047683716,209.0,21.562816619873047,22.097980499267575,-79.78272001357165,40.45895494301821,315.7804907836914,-0.10488801449537276,0.04052881896495819,-0.3849309682846069,0.9160699248313904,0.5242222661984626,4.241624384523561,1.5702235008388776,0.03720031306147576,0.03327247500419617,-0.012138530611991879,0.22580481391400106,-0.130532602686435,-10.071636003255843
43.4,2.5999999046325684,204.0,21.63919258117676,22.686410903930664,-79.78270953617051,40.45895892632964,315.83052435302733,-0.10577704012393953,0.037814736366271966,-0.39162519574165344,0.9132420420646667,0.6454806110485951,4.719257493226837,1.6229779767547832,0.03977086395025253,0.06542567908763885,0.044983167201280594,0.2090323499031365,0.0640369790699333,-10.083015854358674
43.6,2.5,195.0,21.680509567260746,22.662555694580078,-79.7827047540494,40.45896173141149,315.8835867919922,-0.1010139212012291,0.0341891385614872,-0.3944060504436493,0.912727415561676,0.5449982929892684,4.941140739457304,1.6642048880042353,0.01322804391384125,0.2493225783109665,0.03233183175325394,0.019211529521271583,-0.08945392102003097,-10.052308616638184
43.7,2.4000000953674316,189.0,21.695533752441406,21.263044357299805,-79.78269981848713,40.45896467452658,315.93587866210936,-0.08573368191719055,0.02846544981002808,-0.39781880378723145,0.9130058884620668,0.4957915727651106,5.149395207983486,1.6303552403630417,0.05163036286830902,0.3897630274295807,0.05624506622552872,-0.07896483840420843,-0.10935371350497007,-9.888091903924943
43.91,2.299999952316284,181.0,21.700542449951172,21.6685848236084,-79.7826873794685,40.45896929001939,316.00185385131834,-0.04574721306562424,0.0173183660954237,-0.411598801612854,0.9100515246391296,0.4605784035860364,5.568619977543254,1.1856973003752551,-0.05272043496370316,0.2435564994812012,0.09589806199073793,0.1150566308386624,-0.18220391750335693,-9.463126210570335
44.0,2.299999952316284,180.0,21.74812126159668,21.620872497558594,-79.78267474669481,40.45897428134469,316.0831679382324,-0.02912317775189877,0.014022162184119223,-0.4239199757575989,0.9051227569580078,0.4323160499321647,5.822910058330938,0.7808910931410298,0.12303011864423752,0.0006771977059543133,0.05763508751988411,0.1760671915858984,-0.18010008931159974,-9.467787610888482
44.21,2.299999952316284,166.0,21.71807098388672,21.636775970458984,-79.782669076027,40.458977380034646,316.11497869873045,-0.028727497905492783,0.01944575645029545,-0.4273433387279511,0.9034236669540404,0.3928850269243884,5.906265626825848,0.6666943105132298,0.08766823261976242,-0.0558486357331276,0.06570906192064285,0.12309815120883287,0.015379063384607438,-9.22939428985119
44.31,2.299999952316284,156.0,21.58284950256348,23.410022735595703,-79.78266111905509,40.45897947199364,316.1816138305664,-0.02718754112720489,0.0257001593708992,-0.43742480874061584,0.8984764814376831,0.5157943655958174,6.0022623303963005,0.6757605260882572,0.10746380686759947,0.05722106620669365,0.0884004756808281,-0.019867826944682747,-0.15964691268280148,-9.316493829488754
44.51,2.299999952316284,135.0,21.592866897583008,23.36231231689453,-79.78264701229257,40.45898488232479,316.31720724487303,-0.015889495611190796,0.01971459574997425,-0.4450886845588684,0.8951284289360046,0.5155327198506608,6.152238519641111,0.7091255173704265,-0.13171790540218353,0.25244048237800604,-0.08068671822547913,-0.11469622308388353,-0.0013925052713602785,-9.779941803216934
44.6,2.200000047683716,127.0,21.54403686523437,23.50544357299805,-79.78264085544095,40.45898794086232,316.3478087463379,-0.010772778652608395,0.011360335163772106,-0.4433337152004242,0.8962199687957764,0.4304845828160517,6.215910408116115,0.6014187343255959,-0.25919002294540405,0.09616393595933914,-0.09116596728563307,-0.050559466760605576,0.03289528409019113,-9.734096124172213
44.8,2.299999952316284,115.0,21.70805549621582,22.12978744506836,-79.78262587617625,40.45899351294118,316.50476065063475,-0.0122748501598835,0.0024707168340682983,-0.4418632686138153,0.8969950675964355,0.6518664138492446,6.337161014486848,0.5157494919877581,-0.12389183789491652,-0.10344143211841583,-0.03009016439318657,-0.05303450178354978,-0.12575049391016366,-9.818643354177476
44.9,2.4000000953674316,109.0,21.5352725982666,24.316524505615234,-79.78261189526314,40.458999448485386,316.60443487548827,-0.009001420810818672,0.002847388619557023,-0.4387938678264618,0.8985381722450256,0.7459787540391842,6.371048224954699,0.5875427241778348,0.04640373215079308,0.16029880940914154,-0.11703826487064364,-0.20273261457681652,0.14643291793763638,-9.899220324754717
45.11,2.5,103.0,21.749372482299805,21.008586883544922,-79.78260542108384,40.45900245540725,316.6476782836914,-0.0012426330940797925,0.0036639710888266563,-0.4378514885902405,0.8990390300750732,0.7485416581531414,6.3729236845836486,0.5490772176051621,0.06308173388242723,0.16059041023254395,-0.10686507076025008,-0.15468302858993413,0.08146978558972479,-9.913331995010378
45.2,2.5999999046325684,99.0,21.928415298461914,19.092208862304688,-79.78259894132773,40.45900544795657,316.69069662475584,0.002047084271907807,0.0047742766328156,-0.43817469477653503,0.8988748788833618,0.7614094055114028,6.368163904099099,0.4585322215187188,0.008733618073165417,0.02211062982678413,-0.017628595232963562,-0.1512649199087173,0.10500788010656834,-9.7232021766901
45.41,2.700000047683716,94.0,21.837017059326172,20.05437469482422,-79.78258486621587,40.45901139890818,316.7723502197265,0.001463294611312449,0.006050298921763897,-0.4408867061138153,0.8975412249565125,0.7932263846642391,6.365044842213909,0.3726275584151287,-0.029957517981529236,0.008391857147216797,0.04915066435933113,-0.21067680621519685,-0.0388323184568435,-9.452777808308602
45.6,2.799999952316284,91.0,21.91965103149414,18.57534408569336,-79.7825711180112,40.45901755883024,316.86068334960936,0.0065983766689896575,0.0038206381723284717,-0.4424513280391693,0.8967601656913757,0.8118179457793945,6.361197124833642,0.2741166273908557,0.04535839334130287,0.09810230880975723,-0.008731928654015064,-0.3402981934323907,0.0458742664474994,-9.416465429663658
45.7,2.799999952316284,86.0,22.017311096191406,17.11221694946289,-79.78256459025623,40.45902045292335,316.8865241088867,0.008986447006464005,0.0044493949972093105,-0.4421352744102478,0.8968923687934875,0.8127113894939502,6.337826868403705,0.18250069487655954,-0.005458820145577192,0.04686693847179413,-0.02077143639326096,-0.08023949487134814,-0.03165494575398043,-9.227760577797891
45.8,2.799999952316284,86.0,21.96096992492676,18.209562301635746,-79.78255744534094,40.459023577938574,316.9366721191406,0.008037867024540901,0.0014033294282853606,-0.4409685432910919,0.8974855542182922,0.8314334791677211,6.343243204561802,0.12367919089368312,-0.050947021692991264,-0.027529463171958923,-0.08849642425775528,-0.1667519740574062,0.01866477374453097,-9.18540685594082
46.0,2.9000000953674316,83.0,21.872074127197266,19.99871063232422,-79.78254418029556,40.45902957969855,316.9987410583496,0.003213272895663977,-0.003247082931920886,-0.4363449811935425,0.8997678756713867,0.8773893095261263,6.302135547176306,0.05070957513136685,-0.01388587895780802,-0.006479672621935606,0.006244715303182602,-0.060115068806335326,-0.013605118654668331,-9.342296422719956
46.1,3.0,83.0,21.870820999145508,19.283052444458008,-79.7825376975599,40.45903243610621,317.00938024902337,0.004207709804177284,-0.0032315473072230816,-0.4336724579334259,0.9010550379753112,0.91973384947125,6.266569936606448,0.0398129164219189,0.08168234676122665,0.05051673948764801,-0.062258437275886536,-0.2717402842640877,-0.0961132052913308,-9.54096434533596
46.3,3.0999999046325684,83.0,22.002286911010746,17.724504470825195,-79.78252443420106,40.459038371547344,317.0535429992676,0.0071858083829283706,0.00019765397883020341,-0.4309952557086945,0.9023256301879884,0.9762966352906788,6.242600381627585,0.02224758422560197,0.03048519603908062,-0.0025751963257789607,0.06050197780132294,-0.029862461239099507,0.008558642640709876,-9.683252829909325
46.4,3.0999999046325684,82.0,21.962221145629886,17.454143524169922,-79.78251139386995,40.45904429929337,317.0772131958008,0.009115940891206264,0.00564503762871027,-0.4330998659133911,0.9012821316719056,0.9695771745552868,6.220898364918653,-0.00858408601321533,0.00983982440084219,0.06986521929502487,-0.02073144353926181,-0.09851118497550487,-0.02557677193544805,-9.54952116072178
46.6,3.0,83.0,22.04861259460449,17.501853942871097,-79.78250496679004,40.45904711379011,317.0775565185547,0.013095026835799215,0.006427125539630652,-0.43485453724861145,0.9003826379776001,0.9717633004472096,6.193193921328444,-0.08848750968952576,0.0226993840187788,0.11791040003299713,-0.03502672910690308,-0.1553574318252504,0.2237800693139434,-9.115148466825486
46.7,3.0,84.0,21.97974967956543,18.71052360534668,-79.78249855331485,40.45904989310921,317.07041159057616,0.021390540525317192,0.003639100585132837,-0.4375009536743164,0.8989562392234802,0.9672165312282826,6.157854715020707,-0.19933579296429024,-0.04598679766058922,0.16832345724105835,0.17638340592384338,-0.19644930627197027,-0.07405725203454495,-9.055788702964783
46.9,2.9000000953674316,88.0,21.890853881835934,18.75823402404785,-79.78249203250842,40.45905295068914,317.07894506835936,0.03049671277403832,0.00011196907871635632,-0.4404590129852295,0.8972546458244324,0.9398349468811243,6.142108127480308,-0.3291445508643578,0.04109080508351326,0.2101407945156097,0.10415130108594894,-0.013898331394884736,-0.09326936627738178,-9.133851370811463
