time,wind_speed,wind_angle,battery_voltage,battery_current,position_x,position_y,position_z,orientation_x,orientation_y,orientation_z,orientation_w,velocity_x,velocity_y,velocity_z,angular_x,angular_y,angular_z,linear_acceleration_x,linear_acceleration_y,linear_acceleration_z
0.0,0.699999988079071,125.0,24.61782073974609,-0.007951773703098297,-79.7828484206812,40.458908926440465,263.535191901207,0.020300436764955517,7.140696106944233e-05,0.902251124382019,0.4307330548763275,-0.0031683796192880013,0.0094616628093078,-0.004490747798630975,-0.003278821939602495,0.0007576007628813388,-0.006191184744238854,0.16777748432010414,0.34807981420308354,-9.807616674900055
0.2,0.699999988079071,128.0,24.61656951904297,0.007951773703098297,-79.78284842722356,40.458908919343294,263.5347539262772,0.02029064297676086,6.730285531375557e-05,0.9022576212882996,0.4307197630405426,-0.0024102344254661365,0.008915899730233627,-0.004375544316437621,0.0035135173238813877,0.003762467065826058,4.244348747306504e-05,0.1696876052208245,0.3523436769470573,-9.80654838860035
0.3,0.8000000119209291,127.0,24.61907386779785,0.007951773703098297,-79.7828484294772,40.45890897427775,263.5333858804703,0.02028433419764042,7.208535680547357e-05,0.9022580981254578,0.4307190775871277,0.00634953510319531,0.009992315530618346,-0.006314932799072262,0.00040963033097796137,0.0016718129627406595,-0.0012387286406010391,0.1676788491010666,0.3627394051104784,-9.805187156796457
0.5,0.8000000119209291,126.0,24.61531639099121,0.015903547406196594,-79.78284844376147,40.45890897333624,263.5328006820679,0.020281603559851646,7.239470141939819e-05,0.9022562503814696,0.4307231605052948,0.0066478559919257284,0.009664644414667968,-0.006267906912766419,0.005757281556725502,0.0001860363408923149,0.003277570474892855,0.16987162806093695,0.3472480112314225,-9.807161761522293
0.6,0.8000000119209291,124.0,24.61907386779785,0.0,-79.78284840318759,40.45890897954808,263.53307736682893,0.02028755284845829,6.65088155074045e-05,0.9022565484046936,0.4307222962379456,0.0007178435894146449,0.01150581559696559,-0.0036355569785694025,0.003518181852996349,0.002674272051081061,-0.00016365214833058417,0.16554903734475376,0.3612811095267535,-9.805523371696472
0.8,0.8000000119209291,125.0,24.620325088500977,0.007951773703098297,-79.78284841404258,40.458908973161506,263.5327479915619,0.020287442952394485,6.4898791606538e-05,0.9022551774978638,0.43072509765625,6.759159018500158e-05,0.011312787028276565,-0.0033752508269824467,-0.0006259154179133475,-0.002795095555484295,0.0014783708611503243,0.16765889547765256,0.3487906163558364,-9.807344779372217
0.9,0.8000000119209291,124.0,24.620325088500977,-0.007951773703098297,-79.78284837179905,40.458908997019506,263.53041435050966,0.020275549963116646,7.918111805338413e-05,0.9022554159164428,0.4307251274585724,-0.0005696500606477406,0.010303677628641357,-0.00539312668357305,0.005529079120606184,-0.00017617843695916235,0.0007470441632904112,0.16632340969517828,0.3654609185457229,-9.804888364076612
1.1,1.0,120.0,24.61782073974609,-0.007951773703098297,-79.78284834092206,40.45890904228194,263.53013599681856,0.02027025632560253,9.275140473619103e-05,0.9022619128227234,0.4307118058204651,0.0020637623835934324,0.010690675392185885,-0.003915260503666897,-0.002213283441960812,-0.0009688668651506305,0.00028307526372373104,0.16658101608976722,0.3575836227089167,-9.806873493790626
1.2,1.0,116.0,24.61782073974609,-0.015903547406196594,-79.78284836355328,40.45890903405972,263.5294359998703,0.02027299255132675,8.871622412698343e-05,0.902267336845398,0.4307002127170563,0.0025256635803053307,0.009775714521157657,-0.0035954798288916436,0.0010171518661081787,0.00031850411323830485,0.0008894250495359303,0.16701089607551695,0.3613992963731289,-9.806382912397382
1.4,1.100000023841858,117.0,24.6215763092041,0.0,-79.78284831275128,40.458909045123775,263.52933419513704,0.020272543653845787,0.00010903730435529724,0.9022722840309144,0.4306899607181549,-0.002157938817428553,0.011892201673950996,-0.002171810247907932,-0.003035372588783502,0.001613172353245318,-0.006148972082883121,0.1650196085125208,0.3666216273978353,-9.803865101337431
1.5,1.100000023841858,112.0,24.620325088500977,0.0,-79.78284827261311,40.45890909340563,263.52723813819887,0.02026953734457493,0.00011920139513676985,0.9022773504257202,0.4306795001029968,0.0033126092198214664,0.006479747072925864,-0.004647691476249302,-0.00200167833827436,-0.0008445661514997482,0.003770430106669664,0.1680981127358973,0.3529210529476404,-9.806833148002623
1.7,1.2000000476837158,104.0,24.60905647277832,-0.015903547406196594,-79.78284828102329,40.45890909239074,263.52680505084993,0.020264754071831703,0.00013445144577417525,0.9022778868675232,0.4306785762310028,0.0031073714636172373,0.005947515040371056,-0.00447195094300356,-0.0019078248878940944,0.0026652873493731018,-0.0024222151841968307,0.16749433290213347,0.3650789857283235,-9.80556313276291
1.8,1.399999976158142,102.0,24.6215763092041,-0.007951773703098297,-79.78284821382888,40.45890912812486,263.5241620616913,0.02028082311153412,0.0001461204665247351,0.9022817611694336,0.4306697845458984,0.0013250469738143491,0.0020143858998652665,-0.006048358316173342,-0.005394421983510257,-0.0008136701653711497,-0.00010034729348262772,0.16965615816414356,0.3513534144312144,-9.807482773661613
2.0,1.2999999523162842,93.0,24.604047775268555,-0.07951773703098297,-79.7828482169602,40.4589091285039,263.52356839942934,0.020281489938497543,0.00015633320435881617,0.9022745490074158,0.4306846857070923,0.0015427883914516654,0.0012401408685454765,-0.005898928492071894,-0.0007427322561852634,0.0007433480932377279,-0.002183981239795685,0.16617370270192625,0.3641878700628877,-9.805864264369012
2.1,1.2999999523162842,87.0,24.60905647277832,-0.07156596332788467,-79.78284816895435,40.45890914667921,263.52105272579195,0.020293591544032097,0.00016914302250370383,0.9022954106330872,0.4306405186653137,-0.00019836929213518984,0.0030811882508286967,-0.00640666813143288,-0.007411044556647539,0.000269072043010965,-0.0015095730777829885,0.17033885713666674,0.34913176484405994,-9.808931128978733
2.3,1.399999976158142,79.0,24.60279655456543,-0.07156596332788467,-79.78284817201752,40.45890914549511,263.52042508888246,0.020291147753596302,0.00016417371807619932,0.9022952914237976,0.4306409955024719,0.00028405312386006515,0.002179903574838198,-0.006185503499495077,0.0017303925706073642,0.00020678984583355492,-0.002747944090515375,0.16738360125571491,0.3603058305010201,-9.807860503792764
2.4,1.2999999523162842,72.0,24.60905647277832,-0.09542128443717957,-79.78284810147952,40.45890917204492,263.5174074249268,0.020306263118982315,0.00017079254030250013,0.9022966027259828,0.43063738942146296,-0.0010355646371814648,-0.0004615143318922416,-0.006795572597933436,-0.002844833536073565,-0.0029166750609874725,-0.005225587636232376,0.1686045729741454,0.3478156296908856,-9.80814117014408
2.61,1.2000000476837158,63.0,24.60029220581055,-0.08746951073408127,-79.78284805346242,40.45890916754549,263.51520932483675,0.02030420862138272,0.00016289562336169183,0.9022976160049438,0.4306353330612183,-0.003718331161837808,0.005501680262736368,-0.007935204972453223,0.004749517422169447,0.0016985797556117175,-4.1607618186390034e-05,0.16842391228303313,0.3560007083415985,-9.807313204407693
2.7,1.2000000476837158,64.0,24.58651924133301,-0.08746951073408127,-79.78284805708425,40.45890915619606,263.5136741476059,0.02030634880065918,0.00017538176325615495,0.9023066163063048,0.4306164085865021,-0.004811185007680887,0.00440772417217962,-0.00731708668340713,-0.007298298180103301,0.002144115511327982,-0.0032703974284231663,0.16772723481059074,0.3512989987805486,-9.80759387075901
2.9,1.2999999523162842,76.0,24.604047775268555,-0.07951773703098297,-79.78284802929362,40.45890918263385,263.5111657457352,0.020316231995821,0.000152098189573735,0.9023081660270692,0.4306127429008484,0.0017016884667941641,0.006823309816111514,-0.008390634496928635,0.005846496671438217,-0.0006350897019729017,0.0019400219898670914,0.17037216799333693,0.3515299272537232,-9.808051123023033
3.0,1.2000000476837158,73.0,24.59653663635254,-0.09542128443717957,-79.78284804342681,40.45890917706391,263.50958514976503,0.02032661810517311,0.00014271194231696427,0.9022952914237976,0.4306391179561615,0.0008010656848722864,0.005788730141546511,-0.007821646459917573,0.00024438754189759493,0.001469367416575551,-0.005395225714892149,0.1666126641444862,0.3550490374490619,-9.807556448578834
3.2,1.0,73.0,24.597787857055664,-0.10337305814027786,-79.78284801302206,40.45890919591285,263.5071976261139,0.020335813984274864,0.0001264726888621226,0.902299463748932,0.4306300282478333,0.005003343361823006,0.00775737250155792,-0.008675722201815516,0.004337987396866083,0.0012718839570879936,0.005141362547874451,0.16925997275859114,0.3488163806498051,-9.808350500464439
3.3,1.0,74.0,24.60029220581055,-0.039758868515491486,-79.78284793270778,40.458909191656325,263.50406790542604,0.0203275103121996,0.00013201432011555878,0.902297019958496,0.4306355118751526,-0.0005211105337277745,0.003611754810496794,-0.00842370162426707,0.003092526225373149,0.0018077288987115023,-0.0006382337305694817,0.16588411934673786,0.3623113523796201,-9.806405716538428
3.5,0.8999999761581421,79.0,24.599040985107425,-0.08746951073408127,-79.78284793572459,40.458909189197996,263.5032489376068,0.02035577595233917,0.0001219958794536069,0.9023038744926452,0.4306197762489319,-0.0009792890584484446,0.0031582829328716928,-0.008070405243830866,-0.000399235199438408,-0.002846464049071073,0.003659042995423079,0.16752192445099354,0.3488962316885591,-9.808373889327047
3.61,0.8999999761581421,79.0,24.60655212402344,-0.09542128443717957,-79.78284788162328,40.45890917601455,263.50194109249117,0.02036426402628421,0.00011747326789190991,0.9022998809814452,0.4306278824806213,-0.001490215091796375,0.004810504319187013,-0.005006289250497522,0.007472488563507795,0.001531565561890602,0.00030686811078339815,0.16609544137492774,0.3666621924564242,-9.805664874315262
3.8,0.8000000119209291,85.0,24.597787857055664,-0.07156596332788467,-79.78284788459088,40.45890917186145,263.5014580564499,0.020367532968521118,0.00010395966091891752,0.9022971987724304,0.43063315749168396,-0.0026697417505565217,0.00447100796782966,-0.004683334131395581,-0.004589980933815241,0.00026149145560339093,0.00035221356665715564,0.16664783880114556,0.3556490714102984,-9.807978032827377
3.91,0.8000000119209291,82.0,24.59653663635254,0.039758868515491486,-79.78284791604128,40.45890919625932,263.49799741077425,0.020338276401162148,0.00010267907055094838,0.9022958874702454,0.4306373596191406,0.009441058313186862,0.009810093998506351,-0.006671705761005224,0.0025488408282399178,-0.003808584529906511,0.006173077970743179,0.1684102444164455,0.3623017044737935,-9.806947168707847
4.1,0.699999988079071,86.0,24.612812042236328,0.015903547406196594,-79.78284783133847,40.45890917236849,263.4952569084168,0.02033342607319355,9.861958824330941e-05,0.9022977948188782,0.4306334853172302,0.0018030949204133667,0.007629254569662441,-0.007540956643836438,-0.0035810985136777163,0.0010224350262433286,-0.00563793582841754,0.16635370558127766,0.3621901322901249,-9.806415072083473
4.2,0.699999988079071,91.0,24.61406517028809,0.03180709481239319,-79.78284784778783,40.458909167391866,263.4938306884766,0.020343970507383347,8.815898763714358e-05,0.9022928476333618,0.4306434392929077,0.001592762825348402,0.006618261699536846,-0.006995610619589575,-0.0009610583074390887,-0.002248836448416114,0.0021914900280535217,0.1669567727856338,0.3555205423012376,-9.807079315781596
4.4,0.699999988079071,99.0,24.61531639099121,0.07156596332788467,-79.78284782355863,40.458909160706064,263.4912660198212,0.020346077159047127,8.489815081702545e-05,0.9022870063781738,0.43065565824508667,0.00483547735492758,0.009823634484452693,-0.007768816753040956,-0.0039196410216391095,-0.0024035144597291946,-0.0014776485040783882,0.16691779743880036,0.3652180763706565,-9.805827426910401
4.51,0.6000000238418579,100.0,24.61656951904297,0.09542128443717957,-79.78284776395219,40.45890913503656,263.4876054601669,0.02035392820835113,8.482371049467474e-05,0.9022939801216124,0.4306406080722809,-0.0004281784499605992,0.007453500455336661,-0.007913594013052102,-0.006246494594961405,-0.00011842239473480733,-0.0037869559600949287,0.17082812290638685,0.35018532346934084,-9.80905918300152
4.7,0.6000000238418579,105.0,24.60905647277832,0.07156596332788467,-79.78284777070606,40.45890913102428,263.4868358449936,0.02036563120782376,8.628161594970153e-05,0.9022928476333618,0.43064236640930176,-7.982439966044226e-05,0.006726763932244523,-0.0077274456995626815,0.0048902686685323715,1.281633012695238e-05,-0.000817987835034728,0.16730311067774892,0.35884095679968603,-9.806812098026276
4.8,0.6000000238418579,107.0,24.61531639099121,0.12722837924957275,-79.78284772658276,40.45890908107451,263.48520613479616,0.02038454264402389,9.089244849747048e-05,0.9023004174232484,0.43062570691108704,-0.00527259381331084,0.010466955516555777,-0.004368976066993553,-0.006503029726445675,0.0002818801731336862,-0.002910712501034141,0.16842235911637546,0.3484178198128939,-9.808058139681815
5.0,0.6000000238418579,114.0,24.610309600830078,0.07156596332788467,-79.7828477325489,40.458909071958104,263.4847767429352,0.020379152148962014,8.787642582319677e-05,0.9023011922836304,0.4306243062019348,-0.004662525332473143,0.009780726010694057,-0.004182782010380132,0.005555042065680027,0.0014645708724856374,0.0031498789321631193,0.16988823780789972,0.35267042666673665,-9.808239403367043
5.1,0.699999988079071,112.0,24.60655212402344,0.08746951073408127,-79.78284771337438,40.45890905403477,263.4810178356171,0.020373797044157985,0.00010528002167120576,0.902298629283905,0.4306299984455109,-0.00017970182301937912,0.010428322248488688,-0.0058805467423087045,0.0006889361538924277,0.0015283027896657586,-0.002538397442549467,0.16719325611367822,0.3562065668776632,-9.807990896701813
5.3,0.699999988079071,118.0,24.60905647277832,0.06361418962478638,-79.78284772279437,40.4589090480297,263.4804654197693,0.0203899834305048,0.00010767486674012616,0.9022971987724304,0.4306321442127228,-0.00022267042840396343,0.009867930889652158,-0.005602010747854801,0.0021153457928448915,-3.5465200198814277e-06,0.0036636255681514736,0.16853552101179958,0.3479326836392284,-9.809257403612136
5.41,0.699999988079071,119.0,24.611560821533203,0.07156596332788467,-79.78284764522843,40.45890902844911,263.476860411644,0.020393405109643936,0.00012577700545080006,0.9022930860519408,0.4306406080722809,-0.002911726196584231,0.0038260763079487423,-0.006182689032949917,0.0044368719682097435,0.006360186263918878,0.0008707225788384676,0.16526859026402235,0.3631236037239433,-9.806081196069716
5.6,0.699999988079071,122.0,24.611560821533203,0.08746951073408127,-79.78284759713614,40.458909002204095,263.47532535362245,0.0203874409198761,0.00014298988389782608,0.9022910594940186,0.4306451380252838,-0.003785392718240649,0.006216580950360757,-0.004049058753419784,-0.004343783017247915,-0.002792181447148323,0.004393327049911022,0.1675820776820183,0.3514195610582829,-9.807814310789107
5.7,0.699999988079071,121.0,24.604047775268555,0.05566241592168808,-79.78284760191184,40.45890899047914,263.4745525197983,0.020385844632983208,0.00014174010721035302,0.9022889137268066,0.4306497871875763,-0.003797632799391695,0.004916725171581377,-0.003571508662514544,0.009430215694010258,0.0024084520991891627,0.0040151840075850495,0.16664953814819455,0.365538211427629,-9.80661621630192
5.9,0.6000000238418579,122.0,24.60279655456543,0.04771064221858978,-79.78284758092711,40.458908994843135,263.4728926496506,0.02037736400961876,0.00014496559742838144,0.9022890329360962,0.4306499063968657,0.002031319244833932,0.005394556099060501,-0.0024657105329799226,-0.004818512126803397,0.0012462694430723784,-0.002027099020779133,0.16647054025903346,0.35877320218831305,-9.8079558134079
6.0,0.6000000238418579,122.0,24.607805252075195,0.07156596332788467,-79.7828475447502,40.45890895867761,263.4687842206955,0.020377352833747864,0.00013934580783825368,0.9022867679595948,0.4306545853614807,-0.00015315615308690816,0.0068568891837117035,-0.004910448292351311,0.001218281569890678,0.0008978888508863748,0.0024288112763315444,0.1682454991154373,0.3598084882646799,-9.8072962474823
6.2,0.6000000238418579,119.0,24.599040985107425,0.07156596332788467,-79.78284755063339,40.45890895474209,263.468316324234,0.020377352833747864,0.00013934580783825368,0.9022867679595948,0.4306545853614807,-0.0010795111600770655,0.006240752355101564,-0.004612923824329893,-0.005287159234285355,0.0032242785673588514,-0.004866220057010651,0.16573053857311607,0.3660109953582287,-9.804904151558878
6.3,0.5,118.0,24.60905647277832,0.07156596332788467,-79.78284753353401,40.45890893617092,263.4661547021866,0.020370852202177048,0.00013728694466408342,0.9022849798202516,0.4306586980819702,0.0014775925006293453,0.007409519632474942,-0.0031051024344302776,-0.0037347071338444953,0.00029229026404209435,-0.0020178279373794803,0.1681765202432871,0.352802646830678,-9.808002591133118
6.5,0.5,111.0,24.60530090332031,0.07951773703098297,-79.7828475413701,40.45890893333365,263.4658731298447,0.02036973461508751,0.00013599121302831918,0.9022831320762634,0.4306626319885254,0.0013330436920372323,0.00662334924201889,-0.002794134224481885,-0.0014681530883535745,0.001451987773180008,-0.003126425901427865,0.16811704309657216,0.3630706864222885,-9.808041182756424
6.6,0.5,113.0,24.601545333862305,0.09542128443717957,-79.78284753294655,40.45890893690309,263.4639756755829,0.020363925024867058,0.00013847513764631003,0.9022831916809082,0.4306627511978149,0.005265005105303158,0.00598094540196705,-0.0016667095310440876,-0.0061643230728805065,0.0011749888071790338,-0.003974140621721745,0.1690044311620295,0.3465355280041695,-9.808998956680297
6.8,0.5,105.0,24.60279655456543,0.08746951073408127,-79.78284754256262,40.4589089377444,263.4638499097824,0.020361095666885376,0.0001379722380079329,0.9022809267044068,0.4306676387786865,0.00603815936222004,0.005151539882200342,-0.0014837028818698846,0.0064362934790551645,0.0015318164369091392,0.0056864898651838285,0.16802602753043175,0.35252669479697946,-9.808584973812103
6.9,0.5,104.0,24.60530090332031,0.05566241592168808,-79.78284749406977,40.458908900924136,263.4621764497757,0.02036725915968418,0.00013343292812351135,0.9022786021232604,0.4306722581386566,-0.0005275628651984262,0.003934065874758075,-0.0002565249552863845,0.0024232587311416864,-0.0005523778963834047,-0.00031234888592734933,0.16681638479232788,0.354787593819201,-9.808696655631064
7.1,0.4000000059604645,97.0,24.61907386779785,0.007951773703098297,-79.78284747659653,40.458908888076095,263.46062565612795,0.02036468870937824,0.00013305379252415148,0.90227872133255,0.4306721091270447,0.0010982544609115627,0.00469817698523583,5.9564603539752146e-05,0.0031389605719596148,0.00022664235439151523,0.0015045147156342866,0.16833340834826233,0.3475213685631752,-9.809172618985176
7.2,0.4000000059604645,100.0,24.611560821533203,-0.015903547406196594,-79.78284748526744,40.45890888439792,263.4607276992798,0.020362360402941704,0.00013225308794062582,0.902276873588562,0.430676132440567,0.0009124474129162935,0.003415656160462,0.0006016980076491975,0.005232144612818956,0.00043216132326051593,0.0010495344176888466,0.16622662000358104,0.3662159402668476,-9.806884603500368
7.4,0.4000000059604645,85.0,24.61656951904297,0.007951773703098297,-79.78284746669094,40.45890885972051,263.4594373779297,0.020362375304102898,0.0001285078760702163,0.9022771120071412,0.4306756854057312,-0.0012336950078083045,0.005643644618056237,0.0007881222196078362,-0.003239705925807357,0.0014142325380817056,-0.0063246339559555045,0.1661233801022172,0.36166465032845735,-9.807175794839859
7.5,0.4000000059604645,82.0,24.607805252075195,0.02385532110929489,-79.78284741877923,40.45890879190815,263.4581474142075,0.0203738920390606,0.00011686710786307229,0.9022751450538636,0.43067923188209534,-0.013375993709634071,0.007704054439441595,0.0014722630294138155,-0.0011387516278773544,-0.0022694512736052275,0.004522976465523243,0.16837976580485706,0.3578210196644068,-9.80756580412388
7.7,0.4000000059604645,78.0,24.610309600830078,-0.015903547406196594,-79.78284741545184,40.4589087783784,263.45826638507845,0.0203738920390606,0.00011686710786307229,0.9022751450538636,0.43067923188209534,-0.013767596184377987,0.006921192842781296,0.0016439559948466527,0.0019095947500318289,-0.0005616621347144246,-0.004442085977643728,0.1662117461487651,0.3626785209774971,-9.806415656805036
7.8,0.30000001192092896,75.0,24.607805252075195,-0.007951773703098297,-79.78284747067399,40.458908671370786,263.45499444770815,0.02036299183964729,9.241404768545179e-05,0.9022745490074158,0.4306809902191162,-0.015837809704951553,0.02414340874037441,-0.0011105267795117313,-0.004639951046556234,-0.0007619125535711646,-0.005108362529426813,0.16960645683109762,0.3470370729267597,-9.808865640163422
8.0,0.4000000059604645,61.0,24.61531639099121,0.007951773703098297,-79.7828474812317,40.458908647112715,263.45487452316286,0.020360713824629784,9.240164945367725e-05,0.9022729396820068,0.4306843876838684,-0.015137161957910424,0.023410022179381082,-0.000929718562371937,0.006354370154440403,0.0004813820123672483,0.0024686043616384268,0.16817237237468366,0.35333964049816136,-9.807949381470682
8.1,0.4000000059604645,59.0,24.61531639099121,-0.007951773703098297,-79.78284744249336,40.458908665968586,263.45050526428224,0.020342137664556503,0.00012266264820937067,0.9022720456123352,0.4306871294975281,-0.007624272510486533,0.010209024384054102,-0.004184658586528425,0.0002448917366564274,-0.0014482445549219847,0.0004933880991302432,0.16759614754468202,0.35355792436748745,-9.807978617548944
8.3,0.4000000059604645,55.0,24.607805252075195,0.007951773703098297,-79.78284744628314,40.458908654887736,263.450098402977,0.02034818008542061,0.00011372954031685369,0.9022786617279052,0.43067309260368347,-0.007465789778923613,0.009706635866668558,-0.0037982711617225774,0.005473847966641189,-0.0009430955396965146,0.0035750821698457007,0.16946901071816686,0.34827258959412577,-9.809560289382937
8.4,0.4000000059604645,52.0,24.61656951904297,0.0,-79.7828474397977,40.45890859896463,263.44634128379823,0.020332891494035717,0.0001392472768202424,0.9022890329360962,0.4306519329547882,-0.008951311388804756,0.011222002211738441,-0.0048477713768154285,0.0032793139107525357,0.0014316941378638148,-0.002064197324216366,0.16462068222463133,0.3623509672656656,-9.807416115403175
8.6,0.4000000059604645,34.0,24.61656951904297,0.0,-79.78284744698306,40.458908592118476,263.4452636318207,0.020333925262093544,0.00015023574815131724,0.9023005366325378,0.43062785267829895,-0.0031800921305944426,0.012063970114438077,-0.003341576039689277,-0.003578913165256381,-0.0008817230700515211,0.003859873628243804,0.167381883636117,0.34992417220026256,-9.808716536164283
8.7,0.5,31.0,24.60655212402344,0.0,-79.78284746339939,40.458908574619706,263.44469238090517,0.02034787833690644,0.00015502960013691336,0.9022927284240724,0.4306434988975525,-0.0030191227892763573,0.010717345495971834,-0.0025859104937239123,0.0063078952953219405,-0.0013264532899484036,0.004978911019861697,0.16685864919796586,0.3661528999730945,-9.807554109692576
8.9,0.5,27.0,24.61656951904297,0.0,-79.78284747221154,40.45890858510359,263.4435672836304,0.02033455111086369,0.00017063396808225662,0.9023016691207886,0.4306255280971527,0.003485030016690232,0.00946767484533773,-0.0016420122910574208,-0.003723443252965808,-0.0010643914574757216,-0.001370284240692854,0.16579650247469546,0.3572324608638883,-9.809101867675784
9.0,0.5,24.0,24.61782073974609,0.007951773703098297,-79.78284742356269,40.45890856004335,263.440567858696,0.020366724580526352,0.00017834200116340068,0.902305781841278,0.4306153357028961,-0.0030489951370229504,0.004264016721213807,-0.0037990582674407437,0.002056491794064641,0.0012506976490840314,0.0019152844324707985,0.16761401809751988,0.3618652829155326,-9.808484986424444
9.2,0.4000000059604645,10.0,24.610309600830078,-0.007951773703098297,-79.78284742474959,40.458908555454784,263.44020677375795,0.020381951704621315,0.0001749826333252713,0.902309238910675,0.4306073784828186,-0.0041120733646075325,0.003710787292301885,-0.003310630709457443,-0.003583488054573536,-0.0018497267737984657,-0.0043677082285285,0.16596967142075306,0.36121408581733705,-9.808690223693848
9.3,0.4000000059604645,8.0,24.61531639099121,-0.007951773703098297,-79.78284744895069,40.45890854616868,263.4400318937302,0.02039056271314621,0.00017964512517210096,0.902302086353302,0.43062186241149897,0.0014505487562854686,0.007445508995336176,-0.002108877574660802,0.0007212351192720232,-0.0022781079169362783,0.00561448885127902,0.16788931231945753,0.3568960997834802,-9.80826805472374
9.5,0.4000000059604645,10.0,24.6215763092041,0.015903547406196594,-79.78284745656259,40.45890854297356,263.43985307979585,0.02038203366100788,0.0001910966238938272,0.9023029804229736,0.4306204617023468,0.0006202422220354472,0.006784575490271332,-0.0017196378587999205,-0.00400910060852766,-0.0008371933363378048,-0.007279252167791128,0.1664119401946664,0.3656540593877435,-9.806437291502952
9.6,0.4000000059604645,12.0,24.61406517028809,0.0,-79.78284747281097,40.458908499940016,263.44296205806734,0.02037891745567321,0.00020109096658416092,0.9023091793060304,0.4306075572967529,-0.001362578065098179,0.013055571491854216,0.0028766202348039327,-0.0025736999232321978,0.0008189200307242572,-0.0008073762874118984,0.16885390190407634,0.35083805546164515,-9.807672808170318
9.8,0.4000000059604645,357.0,24.61907386779785,0.0,-79.78284748356475,40.45890849200195,263.44328118133546,0.020375784486532208,0.00020079308887943623,0.9023070931434632,0.4306120276451111,-0.001444626879562422,0.012194604950886893,0.00317771955407274,-0.0036403380800038576,-0.0014026693534106016,-0.004156181123107672,0.16692229248583318,0.3629401473328471,-9.807182811498645
9.9,0.4000000059604645,357.0,24.599040985107425,-0.07951773703098297,-79.78284750533935,40.458908513194324,263.44423855113985,0.02036764845252037,0.00020418850181158632,0.9023046493530272,0.4306177198886871,0.004677445492189342,0.009667546144362328,0.0027028874108237485,-0.00504287239164114,0.0007266682223416865,-0.004137978423386811,0.16977215230464934,0.3484984748438001,-9.80991638481617
10.1,0.4000000059604645,353.0,24.61406517028809,0.0,-79.78284749143947,40.458908521879756,263.44554150867464,0.0203679408878088,0.00020572701760102063,0.902304470539093,0.4306179285049439,0.005553198320610575,0.007766953626646534,0.0020117920130619167,0.006148845888674259,0.0010563802206888797,-0.00024695001775398845,0.16672913337126374,0.3574955124780536,-9.806964710354805
10.2,0.4000000059604645,353.0,24.610309600830078,-0.007951773703098297,-79.78284751198078,40.45890852077308,263.4460827188492,0.020365318283438686,0.0002051903866231441,0.9023032784461976,0.43062055110931396,0.0044529024758062155,0.0064908084803225,0.002783119119372745,-0.004912098404020071,0.0012359137181192634,-0.006036305800080299,0.16824400076642634,0.3496276818215847,-9.808203735351565
10.4,0.4000000059604645,352.0,24.61656951904297,0.007951773703098297,-79.7828475170699,40.45890851981368,263.4476511554718,0.02036326378583908,0.00020080211106687784,0.9023036360740662,0.43061989545822144,0.005101983858584242,0.009581682778692693,0.0021453400807551217,0.006301292218267918,-0.0007447918760590255,0.0005959862610325217,0.17061164801940326,0.3520734624937177,-9.808619472384454
10.5,0.4000000059604645,353.0,24.61907386779785,0.007951773703098297,-79.78284747817273,40.458908506701896,263.44846285152437,0.02037287876009941,0.00019648010493256152,0.9023010730743408,0.4306247234344481,-0.004056338142701874,0.006405416523532603,-0.0004988434455301737,0.0016853874549269676,0.0008489040774293244,0.0006111054681241512,0.16630674513056876,0.35652827337384224,-9.8072962474823
10.7,0.5,0.0,24.601545333862305,-0.02385532110929489,-79.78284748067584,40.45890850027832,263.44842422771455,0.02037287876009941,0.00019648010493256152,0.9023010730743408,0.4306247234344481,-0.004027310906048007,0.005743441654377175,-0.00022378378908975293,0.0032652458176016808,0.002008360344916582,0.0043095052242279035,0.1690587554499507,0.3488201813399792,-9.809518774151805
10.8,0.5,2.0,24.604047775268555,-0.007951773703098297,-79.78284750052708,40.45890852412131,263.4511652069092,0.020361540839076042,0.0001955758343683556,0.9022998809814452,0.43062785267829895,0.0018079477240312528,0.00750316327739478,0.0003292614533525875,0.0012714212061837313,0.0016071826685220005,0.0009455295512452725,0.16540872244164348,0.3623789608106017,-9.807379277944566
11.0,0.6000000238418579,359.0,24.61782073974609,0.0,-79.78284750834138,40.45890852088721,263.4512394742966,0.02035931684076786,0.00019479563343338668,0.9022975564002992,0.4306328296661377,0.0012110753447744395,0.0070238105919338285,0.0007630535009196716,0.0005235103308223189,-0.0012048257049173115,0.0024753836914896965,0.16804037148132922,0.3482435727864504,-9.809275529980662
11.1,0.6000000238418579,4.0,24.61656951904297,0.0,-79.78284748047837,40.458908551402644,263.4546746091843,0.02036131732165813,0.00019894883735105395,0.9022972583770752,0.4306334257125855,0.0009928146247212657,0.002370239325492126,0.001474288584327242,0.005670820828527212,0.0028106574900448322,0.00031009706435725093,0.16727416696026925,0.35444534897804264,-9.807997328639033
11.3,0.699999988079071,4.0,24.61406517028809,0.0,-79.78284748272779,40.458908550381366,263.4548511581421,0.020366538316011432,0.0001962363603524864,0.9022983312606812,0.43063077330589294,0.00021254143444941303,0.001826824345345127,0.0019403169419441727,0.003207498695701361,-0.0040544262155890465,0.003346507204696536,0.16786208622157575,0.3490489536523819,-9.809554442167283
11.4,0.699999988079071,7.0,24.61656951904297,0.0,-79.78284748325343,40.458908581716976,263.4584174232483,0.02035349979996681,0.00020970964396838101,0.9022995829582214,0.4306288659572601,0.002065325804300465,0.001536338200573106,0.0022199749718430405,0.0060513787902891645,0.001998532796278596,0.0003896030248142779,0.16564184362068773,0.3656758768111468,-9.805957235097882
11.6,0.699999988079071,10.0,24.61406517028809,0.007951773703098297,-79.78284748086487,40.45890861610715,263.4620167093277,0.020355146378278732,0.000197987086721696,0.9023020267486572,0.4306237399578095,0.002887534876573386,0.0026222348872994104,0.002142471755399961,-0.0014832518063485622,-0.0005769322160631418,0.0027241562493145466,0.16683937165886165,0.3531646260246635,-9.80861245572567
11.7,0.699999988079071,12.0,24.610309600830078,-0.007951773703098297,-79.78284748837629,40.458908617898466,263.4625427799225,0.020371507853269574,0.00018348485173191875,0.9023092985153198,0.4306076467037201,0.003063073609994085,0.0010563259078490202,0.002795055727313331,0.006823673844337463,0.0002223953342763707,0.0013591743772849438,0.1670453946478665,0.3646678168326616,-9.807652342915537
11.9,0.8000000119209291,12.0,24.61406517028809,-0.007951773703098297,-79.78284748822801,40.45890860770953,263.4662208633423,0.02038508281111717,0.00019113047164864838,0.9023168683052064,0.4305912852287293,-0.004816834485449966,0.008983930633883953,0.0027198159213028,-0.0044898767955601215,-0.00264408509247005,-2.508545912860427e-05,0.16644419124349952,0.3582956673949957,-9.808404294848444
12.0,0.8000000119209291,15.0,24.61531639099121,-0.015903547406196594,-79.78284748936643,40.4589086662146,263.46881926822664,0.020394036546349525,0.00019355345284566283,0.902327597141266,0.4305683076381683,0.001964445658873513,0.004452094854584809,-0.0012103353863059275,7.710284990025684e-05,-0.0016127763083204627,0.005063321441411972,0.16696704195812345,0.3604560673981905,-9.807907281517982
12.2,0.8000000119209291,16.0,24.60279655456543,-0.007951773703098297,-79.78284749442534,40.45890866515407,263.4687308149338,0.020386913791298863,0.00017672574904281646,0.9023212194442748,0.4305818974971771,0.0011631986441392815,0.003716161586870045,-0.0007919905082156973,-0.00333655858412385,0.0005013030022382736,-0.004513857420533896,0.16609683008864526,0.3658038211986423,-9.806785200834275
12.3,0.8000000119209291,18.0,24.60905647277832,-0.02385532110929489,-79.78284749471204,40.4589087146796,263.4731551485062,0.02040507830679417,0.0001626049925107509,0.9023221135139464,0.43057918548583984,0.002007430779262053,0.0033749969593474646,0.0003342338804616571,-0.003843883285298944,0.002637087367475033,-0.003504809457808733,0.1710523270815611,0.3514057470113039,-9.809752662777901
12.5,0.699999988079071,20.0,24.61406517028809,-0.007951773703098297,-79.78284749921298,40.458908714600355,263.473211892128,0.02041352726519108,0.00017174993990920484,0.9023301005363464,0.4305620491504669,0.00220387591395457,0.002526556349917637,0.0005951195990920271,0.003149797674268484,0.002561392728239298,-0.0002917626989074052,0.1682325621508062,0.3591206364333629,-9.807596794366836
12.6,0.699999988079071,21.0,24.61656951904297,-0.007951773703098297,-79.7828474743675,40.45890875263843,263.4782223777771,0.02044590935111046,0.00017767079407349232,0.9023388028144836,0.43054237961769104,-0.0021335085575868323,0.001838258884652736,0.0017706053807067695,-0.006459636613726616,0.0005182793829590082,-0.002407050458714366,0.16815161475911738,0.3479706174507737,-9.810003508329393
12.8,0.699999988079071,22.0,24.612812042236328,-0.007951773703098297,-79.7828474744729,40.458908750478436,263.4784075098038,0.0204436257481575,0.00017668887448962778,0.9023365378379822,0.43054720759391785,-0.0016570804335517832,0.0009830248976796744,0.002032398920375964,0.006854662206023932,-0.0004907480906695127,0.002238295273855329,0.16902120536193252,0.3522652146220208,-9.809364407658578
12.9,0.6000000238418579,21.0,24.61406517028809,-0.007951773703098297,-79.7828474741068,40.458908785047946,263.48399818706514,0.02043878473341465,0.00017171796935144812,0.9023341536521912,0.4305523931980133,-0.002648616968920393,0.003363456848612322,0.002541005838982087,0.0008686738437972963,0.002699872246012092,-0.0041868994012475005,0.1664157226122916,0.3535692898929119,-9.809899427890779
13.1,0.6000000238418579,25.0,24.61406517028809,-0.015903547406196594,-79.78284745017201,40.45890886401043,263.4900109844208,0.020436203107237816,0.0001798273588065058,0.9023338556289672,0.4305531084537506,0.0014446739210307714,-0.0014881393117404966,0.002532306851758786,0.0034259306266903877,-0.0013053826987743378,0.003829757217317821,0.16907658945769072,0.3481405156105757,-9.80925097167492
13.2,0.699999988079071,27.0,24.60905647277832,-0.015903547406196594,-79.7828474471995,40.458908867416355,263.49059463310243,0.020433086901903152,0.00017913473129738122,0.902332365512848,0.4305564761161804,0.0007027750853399196,-0.003031329370088327,0.003232505763394764,0.005460196640342474,-0.0002636220306158066,0.0044772676192224034,0.16525547057390216,0.3624284428730607,-9.80743307232857
13.4,0.6000000238418579,31.0,24.59152793884277,0.3021674156188965,-79.78284746686592,40.458908892646896,263.49744046497347,0.02042108774185181,0.00016343654715456066,0.9023518562316896,0.4305161237716675,0.00027679611079360324,0.003296155678000207,0.0036006386498277235,0.005358594469726086,0.005363651551306248,0.004501793067902328,0.17181551663205027,0.3547902616113425,-9.809750323891642
13.6,0.699999988079071,36.0,24.594032287597656,0.2942156493663788,-79.78284751732708,40.45890894025825,263.50403035449983,0.020401079207658768,0.00014926354924682528,0.9023321866989136,0.4305584132671356,0.005332701240748561,0.012830398786326537,0.003080255972444007,0.00478737847879529,0.0019757375121116643,0.008971628732979298,0.1692318330332637,0.3457088048011065,-9.810601093769074
13.7,0.699999988079071,41.0,24.584014892578125,0.2862638533115387,-79.7828475458085,40.45890893223722,263.50479448604585,0.02039977721869945,0.00015973443805705756,0.9023452997207642,0.43053093552589417,0.0036788117515712078,0.01130225712040922,0.00363594664860015,0.00778289558365941,-0.0022991294972598553,-0.004483052529394628,0.15835727272555233,0.353066612072289,-9.808171575665476
13.9,0.699999988079071,37.0,24.599040985107425,0.3021674156188965,-79.78284752617299,40.45890899883891,263.5119873361588,0.020406149327754967,0.00016724473971407858,0.9023584127426147,0.4305031895637512,0.0029785756453198503,0.006416991102958692,0.0037881203794410414,0.0018117267172783613,0.0005103551084175706,0.00421374011784792,0.16350669628009198,0.3515673128888011,-9.805832104682922
14.0,0.8000000119209291,38.0,24.599040985107425,0.326022744178772,-79.78284756643906,40.45890904698727,263.5203729944229,0.020389270037412643,0.00018666715186554936,0.9023403525352478,0.4305417239665985,0.0047721165119964755,0.009951679114113994,0.0031196011920383818,0.009804579429328442,0.006153760012239218,0.006768720224499703,0.17490628173574807,0.371683963984251,-9.806084119677543
14.2,0.8000000119209291,41.0,24.585268020629893,0.3816851377487183,-79.7828475780382,40.458909043357615,263.520756729126,0.020385975018143654,0.00016649770259391516,0.902357578277588,0.4305058717727661,0.002755164432244199,0.009691451276399556,0.0037050714123559006,-0.0018019286217167974,0.001415751874446869,-0.0012458742130547762,0.15955253496766092,0.34878674257546666,-9.809113562107086
14.3,0.8000000119209291,41.0,24.577754974365234,0.41349223256111145,-79.78284760036586,40.4589091227306,263.52945614624025,0.02037943154573441,0.00023567258904222402,0.9023645520210266,0.4304914474487305,0.005828420725341365,0.00646994778273787,0.004216164156187129,0.007480255328118802,-0.009913530200719832,0.008090383373200893,0.17141275310888887,0.3586226729303599,-9.809504156112672
14.4,0.8000000119209291,40.0,24.18836784362793,23.473636627197266,-79.78284760978094,40.458909122826206,263.5299564676285,0.020465150475502014,5.069792678114027e-05,0.9024178385734558,0.4303757250308991,0.0008074633984087433,0.007054878955908626,0.0057383053128683215,-0.02750736102461815,-0.0156301949173212,-0.012076269835233688,0.17750158667564392,0.3353228707239032,-9.80936674654484
14.6,0.8000000119209291,42.0,24.57274627685547,0.5725277066230774,-79.78284760386823,40.4589091674103,263.54129935073854,0.0204951111227274,-0.00016652906197123232,0.902422308921814,0.4303650856018065,-9.939780011672202e-05,0.006186042439703191,0.0055429752047004045,0.010103555396199226,0.01476200856268406,0.016024187207221985,0.14182738593779504,0.438274138905108,-9.806976404786113
14.8,0.8000000119209291,45.0,24.411231994628906,20.968828201293945,-79.78284760837339,40.458909163199294,263.5420126991272,0.02047833055257797,-0.00014277985610533506,0.9024154543876648,0.4303802251815796,0.002427218253525257,0.0050771138834528225,0.007395855549798317,0.008640030398964882,-0.015662111341953278,-0.011103939265012741,0.14266899213194847,0.3982893433794379,-9.814519897699356
14.9,0.699999988079071,47.0,24.46381950378418,2.154930830001831,-79.7828476773647,40.45890926180292,263.5542244987488,0.020546913146972656,-0.0003964119532611221,0.9024772644042968,0.43024712800979614,0.012755796317238688,0.0028852168546919595,0.009343441457062396,0.007370090112090111,-0.0091037442907691,0.0068581937812268725,0.2149829881824553,0.32167685810476543,-9.76649613082409
15.1,0.699999988079071,50.0,24.58777236938477,0.2385532110929489,-79.78284773576806,40.45890934828003,263.5642161445618,0.020479919388890263,-6.666679109912366e-05,0.9024674892425536,0.4302709102630615,0.008027278236998937,0.009363920859452316,0.01054769452892196,-0.025990329682827006,-0.007830524817109108,0.003492986783385277,0.1911023747362197,0.38601271212100985,-9.79378976404667
15.2,0.699999988079071,53.0,24.58902359008789,0.22264966368675232,-79.78284777345583,40.45890935303017,263.56655395793916,0.02035277336835861,8.360574429389091e-05,0.9023908972740172,0.43043774366378784,0.01782682339477715,0.009900788278209827,0.010158437110914643,0.034398213028907776,-0.01195627637207508,0.005691473372280598,0.13310665665194393,0.3614182632789016,-9.792613304257394
15.4,0.6000000238418579,57.0,24.37367057800293,3.435166358947754,-79.78284777045872,40.458909422355646,263.57473839092256,0.020425308495759964,3.00615283777006e-07,0.9024162888526917,0.43038082122802734,0.01031433942533672,0.0071107620661195374,0.00936286516246683,0.03164322674274445,0.026035785675048828,0.003655546577647328,0.16842875450849534,0.2823308526165784,-9.810065488815306
15.5,0.6000000238418579,59.0,24.30731201171875,4.413234710693359,-79.78284778374021,40.45890949235051,263.5842058734894,0.020462002605199814,-6.993483111727983e-05,0.9024307131767272,0.4303489029407501,0.003877065240743614,0.009771492858700132,0.00704193074831626,0.015079258009791374,-0.00489087449386716,0.0185936950147152,0.1466089008562267,0.34765336945652964,-9.811862922906878
15.7,0.6000000238418579,64.0,24.17584800720215,6.599972248077393,-79.78284779161,40.45890948882472,263.58496046829225,0.020535856485366814,-0.00026380110648460686,0.9024381041526794,0.4303297996520996,0.0005640121633838394,0.0040174631091837824,0.00699365541890611,-0.003127711359411478,0.036156218498945236,0.00612739659845829,0.1453897929377854,0.40375488203018906,-9.820360096693037
15.8,0.6000000238418579,65.0,24.11950492858887,7.768883228302003,-79.78284785258955,40.458909599560414,263.59669388103487,0.020433351397514343,-0.0006633178563788532,0.9024541974067688,0.4303005635738373,0.008968607397648484,0.0126781563238264,0.009641063762154914,-0.013826625421643255,-0.05986138805747032,-0.007163636386394502,0.2157779719680548,0.3969059287011624,-9.814198300838473
16.0,0.6000000238418579,67.0,23.94296646118164,10.695136070251463,-79.78284786671006,40.45890959695464,263.5978379325867,0.02044564858078957,-0.0018007378093898296,0.902428150177002,0.4303513765335083,0.011174619428101657,0.007142154898869773,0.013350060896791176,0.009999680332839487,-0.006551012862473725,0.004952044226229191,0.05708842207677664,0.12469448676332832,-9.846818747520446
16.1,0.6000000238418579,64.0,23.86033058166504,11.983323097229006,-79.78284791920916,40.45890968267628,263.6083207206726,0.020250188186764717,-0.003304863814264536,0.9024491310119628,0.4303076267242432,-0.0011526894162979927,0.004537776879837312,0.009810119339920115,0.004747753497213125,-0.010135928168892859,-0.005204875487834215,0.20544692862778904,0.4527223164215684,-9.822702491283415
16.3,0.8000000119209291,60.0,23.65499496459961,15.426441192626953,-79.7828479307802,40.45890967879347,263.6092311220169,0.020112549886107445,-0.004411674104630947,0.9024784564971924,0.430242657661438,-0.001968451517211754,0.007410798396393064,0.008283245895907933,-0.08479634672403336,-0.08632048964500427,0.06812873482704163,0.07047434323467315,0.385173855945468,-9.797952981591225
16.4,0.8000000119209291,61.0,23.54982185363769,16.99294090270996,-79.78284799509629,40.458909771047246,263.62176883983614,0.019169526174664497,-0.007460993714630605,0.9024674296379088,0.4302667081356049,-0.00038766023552854915,0.014239161861582162,0.021137495765631658,-0.034591592848300934,-0.0013162516988813875,0.0022269419860094786,0.1274843395315111,0.4811229372024536,-9.797855917811397
16.6,0.8999999761581421,65.0,23.348241806030273,20.539432525634766,-79.78284802391147,40.458909874032,263.6331437902451,0.020407773554325104,-0.009679305367171764,0.9023786187171936,0.4303518831729889,-0.006114277285467603,0.008286405856956924,0.025742333750613897,-0.04214942827820778,0.029696153476834294,-0.005012542940676211,0.100877936873585,0.3476003790646792,-9.947544053792956
16.7,1.0,69.0,23.211767196655273,22.69436264038086,-79.78284803083892,40.458909824545024,263.642166264534,0.019741714000701904,-0.013678791001439095,0.9032022356987,0.4285428822040558,-0.033886664944191035,0.029571549151241643,0.07191985184322683,0.033214788883924484,-0.009449880570173264,0.03394268453121185,0.13625498942099512,0.5002010131627321,-9.920131137371065
16.9,1.100000023841858,72.0,22.98264312744141,26.43169593811035,-79.78284806669329,40.45890985577107,263.6551950054169,0.017899489030241966,-0.013800185173749924,0.9033728241920472,0.4282602071762085,-0.06668758744342318,0.03681905883158351,0.1367525321893325,-0.02752761729061604,0.09444604814052583,-0.0703507661819458,-0.04088611640967429,0.3906325606629253,-10.481536345481873
17.0,1.2000000476837158,73.0,23.27186584472656,22.376291275024414,-79.78284806396532,40.45890977475491,263.6960681753159,0.011193187907338142,-0.010576982982456684,0.9043330550193788,0.4265495836734772,-0.10224854232043984,0.09648443470803136,0.31269433072395275,0.03666574507951737,-0.1183980032801628,-0.08828935027122498,0.1300848612841219,0.3621741986274721,-10.807243798971177
17.2,1.2000000476837158,76.0,23.268110275268555,21.573162078857425,-79.7828480684297,40.4589096533705,263.72993219661714,0.00569507572799921,-0.004496965557336807,0.9046382308006288,0.4261187314987183,-0.0992624099900088,0.100722816706205,0.35068075823020634,0.07084429264068604,-0.045477062463760376,0.021733876317739487,0.13036888978444042,-0.08528808136470617,-10.247558841705322
17.3,1.2999999523162842,83.0,23.363265991210927,19.195581436157227,-79.78284819246537,40.45890943944283,263.791917093277,0.0031436930876225233,0.004655822645872831,0.904162347316742,0.4271520972251892,-0.11135370585761832,0.12542914026453034,0.2494008518289913,-0.03127310797572136,0.05680356174707413,-0.021405309438705444,0.06559690657071769,0.09008116280660032,-9.693604740500447
17.5,1.2999999523162842,82.0,23.17045021057129,22.225208282470703,-79.78284822786297,40.45890929962678,263.81465006637575,0.0033727879635989666,0.008003312163054943,0.9040128588676452,0.42741721868515015,-0.08791772962984655,0.11912935231129725,0.2023685599974539,0.06531543284654617,0.17411206662654874,0.0017874127952381968,0.14856810182332994,0.25636941611766817,-9.471873060464858
17.6,1.2999999523162842,88.0,23.18797874450684,21.581113815307614,-79.78284836315484,40.4589091227347,263.85545683670045,0.008157817646861076,0.01356645580381155,0.9038323760032654,0.4275938868522644,-0.04778360333475072,0.11422174890747065,0.16352513098218646,0.08108393102884293,0.031085083261132237,0.11030263453722,0.15121589465998114,-0.005823950129561126,-9.638844396471976
17.8,1.2999999523162842,99.0,23.14666175842285,22.33653259277344,-79.78284842474788,40.45890901418539,263.87078071403505,0.008327988907694817,0.011043434962630272,0.9039098620414734,0.4274994134902954,-0.046047404924105084,0.11739453764285745,0.14040651923520672,0.05198739096522331,-0.09904447197914124,0.05753128975629807,0.2226105530932546,-0.012629606653936207,-9.6569239872694
17.9,1.2000000476837158,102.0,23.1003360748291,23.93483924865723,-79.78284833421951,40.45890867221342,263.9203484134674,0.003351533552631736,0.0063901017419993895,0.9041503071784972,0.42715367674827576,-0.07950863062140258,0.12116795335266466,0.1657459672389922,0.050440430641174316,-0.095718152821064,-0.00035715842386707664,0.19303157217800612,-0.0035189457423985006,-9.780030096173288
18.1,1.2000000476837158,107.0,23.25058174133301,21.191476821899414,-79.78284850997912,40.45890850087547,263.9631371574402,0.0022417681757360697,0.00691420491784811,0.9041181206703186,0.4272208213806152,-0.0485512796833046,0.15248068335505166,0.21703640626018306,0.07266569137573242,-0.08300726115703583,0.05595191940665245,0.14910480313003066,-0.20561947630718352,-10.071745930910113
18.2,1.2999999523162842,110.0,23.11786460876465,23.05219268798828,-79.7828486893929,40.458908275106175,264.00390685367586,0.00587370665743947,0.012188252992928028,0.9036802649497986,0.4279941618442536,-0.027546190848726497,0.13917250986457413,0.18255949719463524,0.02760092169046402,-0.002061004284769297,-0.014862834475934504,0.1292481704056263,-0.1686697328835726,-9.739670859575273
18.4,1.2000000476837158,117.0,23.062774658203125,23.163516998291016,-79.78284855717403,40.45890824578921,264.0595443325043,0.006309750024229288,0.015454255975782871,0.9034156203269958,0.42844098806381226,-0.01713804787608283,0.11679378376565555,0.21929803857186086,0.09248467534780502,-0.04643590003252029,0.11493869870901108,0.1093683406803757,-0.2681731172651053,-9.933743455410003
18.5,1.2999999523162842,119.0,23.091571807861328,23.227130889892567,-79.78284881078069,40.45890816795435,264.13177836704256,0.008452184498310089,0.015717510133981705,0.9032242298126221,0.42879772186279297,-0.0032538661175935428,0.11088148382872524,0.2599217566962352,0.024927642196416855,0.06256972253322601,-0.031282562762498856,0.2782397933676839,-0.14873510378412902,-10.060611662864686
18.7,1.2000000476837158,120.0,23.686294555664066,8.341410636901855,-79.78284890497379,40.45890811911981,264.15884829330446,0.004919798579066992,0.014041996560990809,0.9032226800918579,0.428914338350296,0.008034170343481844,0.09275646977824016,0.2751384339295234,-0.05125664919614792,0.05842063948512077,-0.04994892701506615,0.1033212872967124,0.3497157920524478,-9.968585844039918
18.8,1.2000000476837158,121.0,23.06152153015137,24.133634567260746,-79.78284912774703,40.45890795184325,264.22528422641756,0.002851228695362807,0.013212800957262516,0.9026264548301696,0.4302126169204712,0.033379579514550214,0.11875621428521844,0.12946433020699316,-0.06737925857305528,-0.06608493626117706,0.07022856920957565,0.11024855677038432,0.1101030707359314,-9.414641683101657
19.0,1.2000000476837158,123.0,22.88498306274414,25.88302421569824,-79.7828492631169,40.45890790813043,264.2378635482788,0.007345108315348625,0.0057146279141306894,0.902396559715271,0.43080607056617737,0.053257523534187716,0.1178113709139921,0.1317205289113375,-0.028919089585542682,-0.11265980452299118,0.08938565850257874,0.20654143603518607,-0.14311095027253032,-9.656188407540322
19.1,1.2999999523162842,122.0,22.791078567504893,27.95048522949219,-79.78284957712266,40.458907602778346,264.3399289326668,0.014396386221051216,-0.0008777723414823412,0.9023237228393556,0.4308178126811981,0.015821532051379372,0.13501485893809806,0.3397426622182048,-0.1646963506937027,0.09350232034921646,-0.04656460136175156,0.228605867754668,0.1677820159122348,-10.226768481731416
19.3,1.2999999523162842,119.0,22.60702705383301,30.20878982543945,-79.7828497167398,40.45890754374575,264.37921220827104,0.014924292452633381,0.0012694578617811205,0.9025762677192688,0.43026936054229736,0.03044421249996115,0.14273059187569662,0.4409416458884705,0.007968755438923836,0.01242094673216343,-0.02686387859284877,0.1352221701387316,0.16373744202777746,-10.795302615165713
19.4,1.399999976158142,117.0,22.392927169799805,34.049495697021484,-79.78285000837856,40.4589075968131,264.50987244415285,0.009904372505843641,0.009626045823097227,0.9029164910316468,0.4295942187309265,0.05354691995519085,0.13677467618701214,0.736412116944999,0.04696934670209885,0.008721324615180492,-0.06805948168039322,0.2543377644941211,0.2448500906489789,-11.069724140167237
19.6,1.5,116.0,22.2426815032959,36.75309753417969,-79.78285006962514,40.45890762659303,264.609490521431,0.009627247229218485,0.008821616880595684,0.9029936790466307,0.4294555187225342,0.053709789820877256,0.13968472405617927,0.9565452656195328,-0.06423356384038925,-0.02352774702012539,-0.052388448268175125,0.18158842496573926,0.13386120328679682,-11.973066333532335
19.7,1.5,114.0,22.35787010192871,34.001785278320305,-79.78285034653831,40.458907573915354,264.852481164217,0.013473347760736942,0.005593397188931704,0.902510702610016,0.43042051792144775,0.08145016512559906,0.13802217937095154,1.4649778420937216,-0.003100087633356452,0.008319322019815445,0.056383077055215836,0.2225753967091441,0.18528963938355447,-12.315655868053437
19.9,1.600000023841858,113.0,22.39668273925781,33.087329864501946,-79.78285045324552,40.45890757552848,265.03093204665186,0.015223488211631775,0.005120000336319208,0.9020028114318848,0.4314313232898712,0.08009722807436175,0.1417649735669379,1.7024361809832775,-0.038486838340759284,0.03809280693531037,-0.04659552499651909,0.2016447401046753,0.4289813417941332,-12.311652864217761
20.0,1.7000000476837158,111.0,22.09619140625,38.48658752441406,-79.78285069202961,40.45890759764684,265.4406707661152,0.014063035137951374,0.007773813325911758,0.9016035795211792,0.4322648048400879,0.09512883911290998,0.14294810966928645,2.1947879665489496,0.021592704579234127,0.08125975728034973,-0.016334455460309982,0.23813545882701875,0.3096109824255109,-12.2889352619648
20.2,1.7999999523162842,106.0,22.160045623779297,36.66563034057617,-79.78285080245,40.458907579336035,265.6732792334557,0.015071050263941288,0.007650196552276611,0.9017053842544556,0.4320206940174103,0.08760169620736702,0.14408012498078032,2.4442285044652583,-0.01999517157673836,-0.012476523406803608,0.017874091863632202,0.2487302115932107,0.14805117141455412,-12.318593509197235
20.31,1.8999999761581416,110.0,22.297771453857425,32.17287826538086,-79.78285094203974,40.45890764569607,266.2443975286484,0.014552171342074871,0.010076534003019331,0.9020609259605408,0.4312456846237183,0.10651881690131093,0.13053774677644595,2.9490066553423087,-0.002928529633209109,0.024088192731142044,0.02069566398859024,0.20366656109690667,0.261030597165227,-12.319192264080048
20.5,2.0999999046325684,113.0,22.60076713562012,29.1193962097168,-79.7828510088554,40.45890766033563,266.54912675189973,0.01249674428254366,0.01230187714099884,0.9022690057754515,0.4308168888092041,0.1071624896139795,0.12299992609163232,3.125844750563453,0.06649354845285416,-0.00046449401997961104,0.037809573113918304,0.2599410416185856,0.1424584740959108,-11.713690863847733
20.6,2.200000047683716,118.0,22.573223114013672,29.04783058166504,-79.78285100946255,40.45890777951424,266.95308805274965,0.012744843028485777,0.013967933133244514,0.9023051857948304,0.4306830167770386,0.0978256094565638,0.10511571404282363,3.299367733204132,0.016516441479325294,0.01840092800557613,0.04594599828124046,0.2063973387144506,0.11666846151463688,-11.125422377586368
20.8,2.200000047683716,125.0,22.81987571716309,25.00832939147949,-79.78285102730892,40.45890788720008,267.62871051597597,0.02052726969122887,0.012676754035055636,0.9020793437957764,0.4308954775333405,0.10866415379897744,0.08397199681842027,3.429307754598608,-0.02034143730998039,-0.02809861674904824,0.04182466119527817,0.13753747567534447,0.10395683395676317,-10.372702120542527
20.9,2.200000047683716,123.0,22.708444595336914,26.88494682312012,-79.78285101077734,40.45890814006077,268.1227092819214,0.021311357617378242,0.01319825742393732,0.9019302725791932,0.4311537444591522,0.14405171780234255,0.05236960787507013,3.526144094592916,0.040878396481275565,0.15911418199539185,0.02765029296278954,0.20809255616739394,0.33151753932237626,-10.034610264301303
21.1,2.299999952316284,125.0,22.700931549072266,26.51916694641113,-79.7828507804168,40.45890843874444,268.9618940429688,0.017676491290330887,0.01694636419415474,0.9018599390983582,0.4313340485095978,0.11142196201829707,0.01624975306499908,3.5927940843964232,0.0332234650850296,0.09404467046260834,-0.014821142889559269,0.2296438764408231,0.2916748311370611,-9.837708785533906
21.2,2.5,126.0,22.814868927001953,24.78567886352539,-79.78285052857537,40.458908683142035,269.6809082107544,0.011761287227272987,0.016768435016274452,0.9021618962287904,0.4309112429618835,0.08905930714421029,-0.03901923961797052,3.597748623375209,0.043157175183296204,0.1022959202528,-0.062451258301734924,0.21954050906002529,0.0722293576039374,-9.832805310487748
21.4,2.5999999046325684,134.0,22.73724174499512,26.12952995300293,-79.78285059516618,40.458909023458396,270.1607394294739,0.010430916212499142,0.01574668288230896,0.9023244976997375,0.4306435883045197,0.08882352938315984,-0.059819578045512835,3.649536793917189,-0.01325950026512146,-0.1026075929403305,0.00789011362940073,0.19214542664587506,-0.027607336342334747,-9.785958003401756
21.5,2.700000047683716,135.0,22.754770278930664,25.54109764099121,-79.78285044538835,40.45890919248809,270.5251593666077,0.010795777663588524,0.014368614181876184,0.9020007848739624,0.43136024475097656,0.08455171865705519,-0.09143833491072187,3.6470430466483976,-0.048671942204236984,0.0725817158818245,-0.04680745303630829,0.14947465779259805,0.23978285701945426,-9.771455739140512
21.7,2.700000047683716,138.0,22.79859161376953,24.451704025268555,-79.78285042512462,40.45890960534357,271.28806496429445,0.014792424626648424,0.01099429652094841,0.9013658761978148,0.43266621232032776,0.12291847623202075,-0.12423876793754884,3.626861441974666,-0.08305590599775314,0.058574702590703964,-0.062156468629837036,0.09634949675761163,0.35445035565644506,-9.708060811758042
21.8,2.799999952316284,141.0,22.76478576660156,24.96857070922852,-79.78285024949571,40.458909807225524,271.64978123474117,0.01510034129023552,0.011057286523282528,0.9009424448013306,0.4335348606109619,0.15433621186808405,-0.14751856627949875,3.6123876480285095,0.09419722110033037,-0.02010568045079708,0.07343482971191406,0.2188661423698068,0.1121851089131087,-9.678338245153428
22.0,2.700000047683716,139.0,22.698427200317386,25.98639678955078,-79.78285063016322,40.45891041968708,272.43622971343996,0.01168163400143385,0.0051807225681841365,0.8997030258178711,0.4363154172897339,0.19693058229610988,-0.16133504276446411,3.5688927450932444,0.08691806346178055,-0.02808500826358795,0.08814655244350432,0.22011026540771128,0.15736094372346998,-9.569621549248696
22.1,2.799999952316284,144.0,22.605775833129893,27.9266300201416,-79.78285125118896,40.458910854026534,273.08688164520265,0.015347306616604328,-0.0019868114031851287,0.9003875255584717,0.4348137080669403,0.21307971323613367,-0.1701560704616152,3.4674571912719125,-0.031224545091390613,0.055806417018175125,-0.005387992598116398,0.05434172906912864,0.04161415871232748,-9.523485263586043
22.3,2.9000000953674316,143.0,22.5932559967041,28.125423431396484,-79.78285115702047,40.458911069260004,273.4330282287598,0.01831878162920475,-0.004961240570992231,0.9014708995819092,0.4324235916137695,0.2272445102802305,-0.17168205480736531,3.4496712793909317,-0.1286998987197876,-0.14105209708213806,-0.06615954637527466,0.014941876663360746,0.24504069160670044,-9.555490583181381
22.4,3.0,146.0,22.645841598510746,26.773622512817386,-79.78285114710293,40.45891140007117,273.6927309112549,0.018501818180084232,-0.00700773810967803,0.9025452136993408,0.43014034628868103,0.2553523002943633,-0.1934359166961369,3.345666067001195,0.1321967989206314,0.07874728739261627,0.009883922524750231,0.16696625623852016,0.17008315108716487,-9.54747171163559
22.6,3.0999999046325684,151.0,22.688411712646484,25.80350685119629,-79.78285091845282,40.4589116932904,274.2517204360962,0.009933286346495152,-0.0045786052942276,0.9030935168266296,0.4293048381805421,0.19986767934554486,-0.19025715851854572,3.240650043184542,0.1771746575832367,-0.03876408934593202,0.0442594476044178,0.21729596396908168,0.09393455101177096,-9.716421160697935
22.7,3.2000000476837163,155.0,22.66086578369141,26.81338119506836,-79.78285069787066,40.458912003975854,274.898029335022,0.0024050455540418625,-0.00465406384319067,0.9018216729164124,0.4320768713951111,0.11000697803021907,-0.17547053924660133,3.208189021105312,0.02324298769235611,0.005657222587615252,0.07275447994470596,0.0901378077082336,0.11260371473617853,-9.642777818441392
22.9,3.2000000476837163,155.0,22.678394317626953,26.01820373535156,-79.78285127085256,40.458912347609456,275.24038887786867,0.0009461055742576717,-0.006190865766257048,0.9008654952049256,0.4340531826019287,0.14384542918241372,-0.13948303484300342,3.1875831588898227,0.012534664943814278,-0.08275789022445679,0.02340405806899071,0.10520865887403487,0.04034704880788922,-9.72842432498932
23.0,3.2000000476837163,156.0,22.52188873291016,28.610483169555664,-79.78285125227818,40.45891249502651,275.55941487121584,0.0007869356195442379,-0.0064591742120683185,0.9000524878501892,0.4357330501079559,0.1411335137012377,-0.13629794342163412,3.1866803920034354,-0.015073738060891628,-0.03512225300073624,0.026446552947163585,-0.005524307736195624,0.12958338031545286,-9.75483561336994
23.2,3.2000000476837163,165.0,22.67338562011719,25.81941032409668,-79.78285151620996,40.45891279689068,276.23983097839357,0.002912964439019561,-0.005205271765589714,0.8991248607635498,0.43765166401863104,0.1628225180723724,-0.08565675708142892,3.1923402717062763,-0.057432703673839576,0.030277587473392487,0.00886669009923935,0.11344799785874785,0.11867740949615835,-9.793796195983887
23.3,3.299999952316284,166.0,22.667125701904297,25.66037368774414,-79.78285156314627,40.45891292658821,276.557977684021,0.0052595934830605975,-0.006150685716420412,0.8991453647613525,0.437575489282608,0.1844636557576232,-0.06316539204029313,3.1651671878686547,0.007121311966329812,-0.041322287172079086,-0.021836906671524048,0.12025484209880233,0.0396620383579284,-9.610010021924973
23.5,3.299999952316284,167.0,22.6859073638916,25.89097595214844,-79.78285181247543,40.45891348102373,277.22633744049074,0.008172695524990559,-0.00780410459265113,0.8996319770812988,0.4365027546882629,0.2335199989904753,-0.05056223520717371,3.1308510560002647,-0.0035087987780570984,0.0647757351398468,-0.0066888127475976935,0.11638202103786173,0.2740535889565945,-9.69982559323311
23.6,3.4000000953674316,168.0,22.62080001831055,26.455551147460927,-79.78285221289444,40.45891379146009,277.60506439971925,0.006766574922949076,-0.008683633990585804,0.9000356197357178,0.43567728996276855,0.2786151002612612,-0.014546451564950394,3.1370844730903302,0.1015179455280304,-0.09898582845926283,-0.01175780687481165,0.16410760732367635,0.12621962333098055,-9.63247210085392
23.8,3.4000000953674316,167.0,22.753517150878906,24.133634567260746,-79.78285255819176,40.45891404870913,278.2342300491333,0.004530630074441433,-0.012732041068375107,0.9006724357604979,0.4342887699604033,0.2564884472026002,-0.00592265014312135,3.1584419033049835,-0.07634256035089493,0.058913290500640876,-0.08275286853313446,0.028060445305891336,0.41743627030402425,-10.002992030382156
23.9,3.4000000953674316,166.0,22.54818153381348,27.89482307434082,-79.78285275081394,40.45891405194638,278.6073703842163,0.006174442823976278,-0.013900737278163431,0.9008191823959352,0.4339279532432556,0.26590249929058185,0.01423079443536736,3.1976363784388275,0.001746234018355608,0.06297066062688828,0.04394625127315521,0.05595509007107466,0.17959253272041678,-9.919429471492768
24.1,3.4000000953674316,164.0,22.61203575134277,26.479406356811523,-79.78285287350387,40.458914216303846,279.2904157714844,0.012388000264763832,-0.012740994803607464,0.9015166759490968,0.43237945437431335,0.2326893464484725,0.03616525797376476,3.198491315711273,-0.12810468673706055,0.16542091965675354,-0.032205451279878616,0.02015449582831934,0.3973336159810424,-9.82579099059105
24.2,3.5,162.0,22.45052146911621,29.071685791015625,-79.78285307882007,40.45891426493132,279.6105547027588,0.014688064344227312,-0.00894978642463684,0.9017924666404724,0.4318268895149231,0.2647483651441611,0.06292767496553897,3.1919056323484516,0.1015705093741417,0.11796965450048448,0.11425428837537766,0.12441705465316773,0.029108928730711338,-9.798390938043593
24.4,3.5,158.0,22.658361434936523,25.40591812133789,-79.78285342588826,40.458914186318886,280.25554753112795,0.01605258323252201,-0.0033314891625195733,0.9018153548240662,0.43181049823760986,0.20960823068192674,0.14582784590840306,3.1844167020399445,0.02435139194130897,0.01948385871946812,-0.02879692800343037,0.03036673105554656,0.2811475406214595,-9.823474323749544
24.5,3.5,157.0,22.63457298278809,26.002300262451172,-79.78285384197095,40.4589142295513,280.90871239471437,0.008658492006361485,-0.0013123551616445186,0.9017748236656188,0.4321175813674927,0.2002391341911494,0.15123241635410267,3.1685927532273896,0.11042145639657974,-0.03340733796358108,-0.031160723417997364,0.073800285179168,0.2338158648088575,-9.801147315502169
24.7,3.5,156.0,22.697175979614247,24.53122329711914,-79.78285405149083,40.458914242060146,281.22563458251955,0.006696120370179415,-0.0016196066280826926,0.90131413936615,0.4331114292144776,0.18224489104794533,0.14906700716047236,3.1648183637000544,0.0071804430335760125,-0.09433136880397797,-0.002615860430523753,0.04315695113036782,0.2415857180580497,-9.722219259738923
24.8,3.5,156.0,22.51813125610352,28.06976127624512,-79.78285427067176,40.458914260889465,281.542370803833,0.007996012456715107,-0.004164678510278463,0.9007148742675781,0.4343173205852509,0.18997934227521726,0.14544968181597384,3.1600748322571786,-0.033576950430870056,-0.043021328747272485,0.05740844085812569,0.008012537823524327,0.15253120754845442,-9.754477763772007
25.0,3.5,158.0,22.586994171142567,26.7497673034668,-79.7828548139376,40.45891436795064,282.1984682159424,0.016808366402983662,-0.00889547076076269,0.9001360535621643,0.43519359827041626,0.2440073506669116,0.13952484294613515,3.1659508707545148,-0.1573791652917862,0.06211903691291809,0.12108898907899855,0.03969575577881188,0.408630948252976,-9.790971406102178
25.1,3.5999999046325684,155.0,22.5106201171875,27.07579040527344,-79.78285486293291,40.45891431365972,282.5349187927246,0.021725613623857498,-0.010461795143783092,0.9000135660171509,0.43519461154937744,0.2530866915894968,0.1414892443071659,3.152449289830166,-0.0243647750467062,-0.04148338735103607,-0.02739403210580349,0.09465203178115188,0.2629799675010145,-9.765237810015677
25.3,3.700000047683716,156.0,22.509366989135746,27.62446212768555,-79.78285530099257,40.45891431405961,283.16806889343263,0.02202809229493141,-0.007380222436040641,0.9010489583015442,0.4330947697162628,0.26363797070068706,0.1553325175170761,3.168332736250856,0.053365886211395264,0.047072380781173706,-0.01079194527119398,0.007128477646037938,0.4498564133048058,-9.918949999809264
25.4,3.700000047683716,157.0,22.49559593200684,27.354103088378906,-79.78285559442047,40.458914175711264,283.81559849548336,0.016988908872008324,-0.004230850376188755,0.9022865891456604,0.4307811558246613,0.1920899990488896,0.17081908004010687,3.180667835338679,0.10827125608921052,-0.10520516335964204,0.005029040388762951,0.042025030679069465,0.2538702978752553,-9.864285550117494
25.6,3.799999952316284,160.0,22.55694580078125,26.41579246520996,-79.78285571537327,40.45891406795121,284.14465428161617,0.013479410670697687,-0.0047808135859668255,0.9025694727897644,0.4303067028522492,0.14237469932737645,0.16737648782192285,3.1747470779645326,-0.037214577198028564,-0.039078909903764725,-0.08368856459856032,-0.036415189141407615,0.4468719578906894,-9.726655542254447
25.7,3.799999952316284,162.0,22.605775833129893,25.779651641845703,-79.78285587833348,40.45891402091633,284.4625234680176,0.009213630110025406,-0.005142894573509693,0.9024479389190674,0.4306697845458984,0.1464448863990918,0.14374090774295373,3.1746975102788966,0.11721242219209672,0.008296831510961056,0.05755911022424697,-0.032105928249657155,0.19364635208621625,-9.806345490217213
25.9,3.799999952316284,163.0,22.551937103271484,26.54302215576172,-79.78285619634687,40.458913882710746,285.11047459411617,0.010299595072865486,-0.005526737309992313,0.9014678597450256,0.4326883256435394,0.1131585021569444,0.13475337513651153,3.186218408055627,-0.04781990125775337,-0.0573112927377224,0.06051112338900566,-0.09957327688112856,0.16629273008555176,-9.841909425258637
26.0,3.799999952316284,163.0,22.59450721740723,25.57290458679199,-79.78285636390149,40.45891384007308,285.4290838317871,0.0141576724126935,-0.0055954684503376475,0.9008761048316956,0.4338094592094421,0.1235176984315498,0.13469897696350114,3.1818581001204937,-0.10193035751581192,0.07019619643688202,-0.009026965126395227,-0.02585132155101746,0.2891518124006689,-9.790693078637123
26.2,3.700000047683716,163.0,22.52313995361328,26.050010681152344,-79.7828568225341,40.458913661465466,286.07968617248537,0.019649537280201912,-0.0051988051272928715,0.9002863764762878,0.43482354283332825,0.15001023159191926,0.17947321926247187,3.209275496130303,-0.02920300140976905,-0.04936875030398369,0.004997934680432081,-0.06226917391642928,0.4623500128090382,-9.939172010421752
26.3,3.700000047683716,165.0,22.5106201171875,27.33024787902832,-79.78285707590956,40.45891357078835,286.7304506378174,0.010455554351210594,-0.0040264339186251155,0.9008126258850098,0.4340634644031525,0.13392788632434482,0.1396174328349182,3.231502130540017,0.17433428764343262,-0.0412139818072319,0.07331855595111847,-0.03243289267178625,0.4121240383386613,-10.010083533525467
26.5,3.700000047683716,169.0,22.55319023132324,25.88302421569824,-79.7828572043281,40.45891351625185,287.0543832855225,0.008026405237615108,-0.002490996615961194,0.9006399512290955,0.4344849288463593,0.08738424800898036,0.12753788525555204,3.2404332655749863,-0.0204810593277216,-0.0291877631098032,-0.040523868054151535,-0.13598855738528073,0.21909981172531845,-9.870446176528931
26.6,3.700000047683716,170.0,22.63958168029785,24.17339324951172,-79.78285749147223,40.45891350229749,287.3873643951416,0.009418209083378315,-0.002101900288835168,0.9001836180686951,0.4354038536548615,0.07412914856575846,0.13383979117769368,3.2360188714745672,-0.10702244937419893,0.11226379126310347,0.04614243283867836,-0.12282445583492516,0.31425224639475346,-9.805841460227967
26.81,3.700000047683716,178.0,22.73348426818848,22.956771850585927,-79.78285776093162,40.45891341645235,288.0324220733643,0.013193882070481777,-0.0006519464077427982,0.8983315825462341,0.43911945819854736,0.1194327142853388,0.136758757506921,3.2088347867242226,0.04311392828822136,-0.06643315404653549,0.023141024634242058,-0.02439443295355886,0.4346482439339161,-9.649155376553537
26.9,3.700000047683716,178.0,22.494342803955078,27.28253555297852,-79.78285775767803,40.45891335949154,288.6825742797852,0.011266948655247688,-0.007216313388198614,0.897602915763855,0.4406018555164337,0.09436421369310412,0.08139988334278281,3.1320918440794583,-0.06911797821521759,-0.07341151684522629,-0.06425070017576218,-0.0192916409438476,0.19960287412628533,-9.498880764842033
27.1,3.700000047683716,181.0,22.45052146911621,27.664220809936523,-79.78285796767716,40.45891335007017,289.0236272888184,0.013168793171644207,-0.012336774729192257,0.8982822895050049,0.439048171043396,0.11097887472246076,0.046670932505854516,3.150490682411592,-0.07539678364992143,-0.030192116275429726,-0.03351449593901633,-0.22589193742722274,0.17198872212320568,-9.64296492934227
27.21,3.700000047683716,183.0,22.422975540161133,27.20301818847656,-79.78285803400162,40.458913334292674,289.3381280975342,0.013984888792037964,-0.01459556259214878,0.8993604183197021,0.4367406070232392,0.13495863268042782,0.008272919085359463,3.138729018034565,0.10183724015951157,0.005023471545428039,-0.012942527420818806,-0.19789777122437954,0.043072276138700544,-9.752192087173464
27.4,3.799999952316284,186.0,22.57948303222656,25.23097801208496,-79.78285839018695,40.458913285808784,289.9954938964844,0.010252632200717926,-0.011723974719643593,0.9013471603393556,0.43281736969947815,0.10455004504902238,0.007045389836921209,3.1741202823977543,0.08276870101690292,-0.00040330836782231927,-0.11758800595998765,-0.30459542356431485,0.2743170791119337,-9.923025509119032
27.5,3.799999952316284,192.0,22.46429443359375,27.19506645202637,-79.78285841264602,40.458913261780864,290.3137273864746,0.003999361768364906,-0.010197156108915806,0.901979684829712,0.4316396117210388,0.07328215695561431,-0.018774571202676414,3.1858558438694384,0.0918070450425148,0.023935046046972275,-0.08476955443620683,-0.35491396676748993,0.2446578634344041,-9.874840943813323
27.7,3.9000000953674316,196.0,22.46429443359375,27.139404296875,-79.78285855210996,40.45891321401651,290.9757528381348,-0.007756926584988832,-0.01580045558512211,0.9027705192565918,0.4297623932361603,-0.010674372466799054,-0.05787170104005902,3.245990273205219,0.07583477348089218,-0.18115827441215515,0.07967568933963776,-0.3025069443136454,0.02754994911840185,-10.195533825159071
27.8,4.0,198.0,22.375398635864254,28.76951789855957,-79.78285853615954,40.458913190731224,291.3033437805176,-0.010193701833486557,-0.01931540295481681,0.9029973745346068,0.429090678691864,-0.024661262415098976,-0.10706557707839537,3.2913704518636195,0.056815028190612786,-0.11754950881004332,0.0621149055659771,-0.4017736626416445,-0.07898521229624747,-10.160397906303409
28.0,4.099999904632568,211.0,22.60076713562012,25.18326759338379,-79.78285894999493,40.45891296709437,291.99950314331056,-0.008951262570917606,-0.0222215298563242,0.901922345161438,0.431233286857605,-0.010618861136897776,-0.09801211886107687,3.353075285797102,-0.04634613171219826,-0.0138915553689003,0.041499581187963486,-0.3995679467171431,0.19865440092980866,-9.983804976940156
28.1,4.199999809265137,211.0,22.42422866821289,27.497234344482425,-79.78285898883726,40.45891284099857,292.33969021606447,-0.00939184334129095,-0.021911807358264927,0.9008455276489258,0.4334847331047058,-0.015209748340696015,-0.09269245199897187,3.3075320182646477,0.055940765887498856,0.02856992930173874,0.04590514674782753,-0.2895498616062105,0.07743363535031676,-9.590592588186263
28.31,4.300000190734863,214.0,22.40795135498047,27.163259506225586,-79.7828590955571,40.45891273036412,292.9940939025879,-0.012035825289785862,-0.014283163473010063,0.8996611833572388,0.4361891150474548,-0.029373275235757768,-0.060337029521062874,3.247455506189357,-0.024207577109336853,0.11630801856517793,0.044998273253440864,-0.31903048139065504,0.0370424674730748,-9.574868255853652
28.4,4.300000190734863,214.0,22.5106201171875,25.79555511474609,-79.78285881302845,40.458912736537755,293.3417902069092,-0.012082291767001152,-0.0116043696179986,0.8989464640617371,0.4377380907535553,-0.04537464426034444,-0.06965410905146027,3.246985501775697,-0.11915019899606705,0.03324338421225548,-0.02546510100364685,-0.2568499841541052,0.162834357842803,-9.729152888059618
28.6,4.300000190734863,218.0,22.619548797607425,23.942790985107425,-79.78285870234244,40.458912809398186,293.9914064483643,-0.0067396098747849464,-0.01777951419353485,0.8980383872985841,0.4395062327384949,-0.008331981945334091,-0.0865488544850467,3.2156164317982685,-0.1365075558423996,0.07464297115802765,-0.040767069905996316,-0.3257569355517626,0.16671109836548567,-9.702833985686302
28.7,4.400000095367432,220.0,22.465545654296875,26.43169593811035,-79.78285878121333,40.45891281406913,294.6323766784668,-0.0025708272587507963,-0.019660899415612217,0.8978067636489868,0.4399431347846985,0.07248946455054298,-0.10512863864017588,3.1864877179171134,-0.01110510528087616,0.05949726328253746,0.0036460990086197853,-0.2708471038006246,0.13513783318921924,-9.71484124302864
28.9,4.599999904632568,220.0,22.40419578552246,28.65024185180664,-79.78285874667728,40.45891284998272,294.9561472015381,0.0006384397274814546,-0.015071254223585129,0.8968527913093567,0.4420719742774963,0.07886863278944928,-0.12211219305456004,3.1897413130369814,-0.007769640535116196,0.0909360572695732,0.044521290808916085,-0.3846393838897348,0.32370098143815995,-9.82016830801964
29.0,4.800000190734863,219.0,22.551937103271484,24.769775390625,-79.78285877935816,40.45891288544032,295.2755746917725,0.0017493818886578085,-0.014560985378921032,0.895487904548645,0.4448443651199341,0.1003676380214402,-0.09278027385574138,3.197205888361468,-0.05163348838686943,-0.023405319079756737,0.03996651992201805,-0.39120785359293225,0.3720576741546393,-9.903748408555987
29.2,4.699999809265137,215.0,22.57071876525879,24.809534072875977,-79.78285903474199,40.45891336203609,295.92696858215334,-0.001164059853181243,-0.032636579126119614,0.8942545056343079,0.4463658332824707,0.15999188928011188,-0.1641428923005785,3.2303460593488085,-0.1085001975297928,-0.21142159402370453,-0.032282453030347824,-0.5016654483228922,0.008520676852203906,-10.03695499777794
29.3,4.699999809265137,220.0,22.371641159057614,27.91867828369141,-79.78285907018173,40.45891344498912,296.25123501586916,0.0014827384147793055,-0.04225475341081618,0.8962746262550354,0.4414796829223633,0.16496603437225044,-0.22180014930434755,3.2321943832698947,-0.1016807109117508,-0.14467279613018036,-0.005048525054007769,-0.575630131624639,-0.1501197518594563,-9.876839522123335
29.5,4.699999809265137,218.0,22.34159278869629,28.24470138549805,-79.78285928306344,40.45891352642872,296.89013958740236,-0.0017721205949783325,-0.04017368331551552,0.902510702610016,0.4287859797477722,0.1651011663856728,-0.2199176950447196,3.161100519723937,0.0862448513507843,0.19356895983219147,-0.18339690566062927,-0.6111184914037585,0.25224104432389144,-9.57079567015171
29.6,4.800000190734863,219.0,22.352861404418945,27.81530570983887,-79.78285969417227,40.45891324632407,297.5006094055176,-0.011071902699768543,-0.012220967561006546,0.9046790599822998,0.4257745444774628,0.06406097077039734,-0.05687052817051096,3.169816557472509,0.052868686616420746,0.14699554443359375,0.06792934983968735,-0.3317531090229749,-0.0329188830871135,-9.744733378887178
29.8,4.800000190734863,216.0,22.253950119018555,29.48517799377441,-79.78285982911069,40.45891321745183,297.8170042114258,-0.007045061327517033,-0.006194241810590029,0.9046357870101928,0.4260824322700501,0.02904646670761768,0.0009701432079300304,3.1592710910196566,-0.0121852969750762,0.0760074332356453,0.02495738863945008,-0.5089964680373669,-0.04821247662417591,-9.691314386129381
29.9,4.900000095367432,215.0,22.273983001708984,29.56469535827637,-79.78285999588526,40.45891310295211,298.13401318359377,-0.0035531620960682635,-0.0051412521861493605,0.9038901329040528,0.4277192056179047,0.03965350475447273,0.01912955560437718,3.163219459473975,-0.005505057517439127,-0.048121519386768334,0.12379876524209975,-0.389041387103498,-0.13219001423567533,-9.934429918527604
30.1,5.0,216.0,22.258956909179688,29.1114444732666,-79.78285999473562,40.45891296564643,298.7702589111328,-0.003017583396285773,-0.026755889877676964,0.9003134965896606,0.4344085156917572,0.036965594862977284,-0.0630130767560387,3.161676443870132,-0.09703579545021056,-0.2788105607032776,0.08121974021196365,-0.5790041212365031,0.20331430289894345,-9.745890542864801
30.2,5.099999904632568,217.0,22.326568603515625,27.91072654724121,-79.78286001177948,40.45891297494783,299.0865049438477,-0.007132602855563164,-0.034753847867250436,0.8982715606689453,0.4380064010620117,0.0673589996245459,-0.15519409924720495,3.1584594510295774,0.06118142977356913,-0.17450116574764252,0.00048266828525811434,-0.7465469129383564,0.3103221500292421,-9.780801343917847
30.4,5.099999904632568,225.0,22.24768829345703,29.84300804138184,-79.78285986784762,40.45891297477955,299.70803356933595,-0.020635856315493584,-0.03343750163912773,0.8978785872459412,0.4384863078594208,-0.002458826307829731,-0.2197960189975111,3.1547591829236716,0.0004622151318471879,-0.044529564678668976,0.022192776203155518,-0.5344248029217125,-0.141528711989522,-9.945596930980683
30.61,5.199999809265137,231.0,22.422975540161133,26.69410514831543,-79.78285998057574,40.45891310011824,300.3333616333008,-0.01956610195338726,-0.031910959631204605,0.8996611237525941,0.4349813163280487,-0.007860520442151582,-0.22984006776636856,3.150615557003473,-0.016333075240254402,0.10922117531299592,-0.01662769354879856,-0.6769430465251207,-0.05451642377302051,-9.918028478622436
30.7,5.199999809265137,233.0,22.30778694152832,28.7218074798584,-79.78286001287012,40.4589131136585,300.64861584472663,-0.0178294088691473,-0.027515377849340442,0.9001821875572205,0.4342776834964752,0.022562627750192292,-0.22422170057713547,3.1295796539332037,0.15160886943340302,0.06562433391809464,-0.013593866489827631,-0.6190854323655367,0.13058564789593222,-9.614032906293867
30.8,5.300000190734863,232.0,22.33783721923828,28.093616485595703,-79.78286004987977,40.458913137251095,300.96065426635744,-0.017903532832860947,-0.02347545325756073,0.901388943195343,0.4320028722286224,0.00550037431322023,-0.1939116062346204,3.101523430060509,-0.05488840490579605,-0.01366700790822506,-0.08967626839876175,-0.7388682762533426,-0.04167437589727342,-9.489380208849909
31.0,5.5,231.0,22.1888427734375,30.407583236694336,-79.7828603164622,40.45891293759089,301.5730466918945,-0.019941750913858414,-0.023623833432793617,0.9008309245109558,0.4330680668354033,0.04283942876532144,-0.13726979062224418,3.04875838416456,0.11838783323764801,0.020854273810982704,0.0924593135714531,-0.6936715650558472,-0.013209618469700216,-9.500624989271165
31.1,5.599999904632568,235.0,22.237672805786133,29.326141357421875,-79.78286065389325,40.45891270592585,301.8844442443848,-0.02464066632091999,-0.02260738238692284,0.8991324901580809,0.4363972544670105,0.015832030144871216,-0.11287197235932545,3.0416384699405223,0.1103220358490944,-0.0026936638168990608,-0.004928643815219402,-0.6504532592743636,0.14587389671243728,-9.518591728806495
31.3,5.800000190734862,236.0,22.220144271850586,29.64421272277832,-79.78286088086878,40.45891273769745,302.49373532104494,-0.016500653699040413,-0.02387641742825508,0.8968243598937988,0.44143393635749817,0.01675153812696983,-0.12330694324244372,3.034415090438172,-0.1968471705913544,0.005819987040013075,-0.06033230572938919,-0.6793358002603055,0.1594109958037734,-9.689591796398163
31.4,5.9000000953674325,237.0,22.216388702392575,29.97023582458496,-79.78286082540983,40.45891268321571,302.8095464782715,-0.012761433608829977,-0.0283370241522789,0.8965851664543152,0.4417796730995178,0.05706544263777639,-0.13902884271285804,3.031940544061845,-0.08087316155433655,-0.04418542981147766,0.011951609514653684,-0.7626040249317885,-0.022633329257369043,-9.692989028692248
31.6,5.9000000953674325,235.0,22.193851470947266,29.89071846008301,-79.78286107624564,40.45891261609333,303.4171438293457,-0.008002749644219875,-0.03540152311325073,0.8972291946411133,0.4400711953639984,0.11136068130459777,-0.1716882745747227,3.036608499369068,0.05896556004881859,-0.016039451584219933,0.09185345470905304,-0.7093051193654537,-0.16923910550773144,-9.912597584724427
31.7,6.0,235.0,22.26146125793457,28.65024185180664,-79.78286116018177,40.45891264345485,303.7224340515137,-0.007839657366275787,-0.03602779284119606,0.8972805738449097,0.4399184882640839,0.1259519434848651,-0.17690545667003282,3.0547196396736043,0.14580659568309784,-0.021456358954310417,0.036367904394865036,-0.619809317663312,0.11368551358580588,-9.941310921907423
31.9,6.199999809265138,236.0,22.017311096191406,32.689743041992195,-79.78286127284946,40.45891265616525,304.32980633544923,-0.01784331351518631,-0.03437640145421028,0.8969290852546692,0.4404750466346741,0.07052616470329767,-0.20423320827786973,3.0227786351938377,0.02696368470788002,-0.12123724073171616,0.0032245039474219084,-0.7948751004785299,-0.06087813958525658,-9.579701564311982
32.0,6.199999809265138,236.0,22.24142837524414,29.222768783569336,-79.78286132257138,40.458912676805355,304.6313581542969,-0.017806714400649067,-0.03825486823916435,0.8970966339111328,0.439814954996109,0.02071590651028888,-0.2116037643416144,3.003267275225044,-0.1320774406194687,-0.08754938095808029,0.003818553639575839,-0.8158894819021225,-0.1934695651754737,-9.62187986969948
32.2,6.0,245.0,22.30152702331543,28.212894439697266,-79.78286163678725,40.45891282496582,305.2318906860352,-0.01964165456593037,-0.03967936336994171,0.8983095288276672,0.4371267855167389,0.08010939430212059,-0.2232010401209686,3.0061685690877664,0.050406750291585915,0.10629986226558684,-0.007765402086079121,-0.7694094530493022,-0.0187096739653498,-9.751090471744538
32.3,6.0,243.0,22.07615852355957,31.41745948791504,-79.78286151688151,40.458912776371626,305.82211209106447,-0.02234442345798016,-0.0305507630109787,0.8980808258056641,0.4381990134716034,0.02235825335830951,-0.20457106232747785,2.997562164274413,0.0633925050497055,-0.01326386909931898,-0.07651656866073607,-0.5724494655802846,-0.2231028886511922,-9.721193658113481
32.5,5.9000000953674325,242.0,22.18508720397949,29.683971405029297,-79.78286159208136,40.45891279148864,306.1242666320801,-0.02307208254933357,-0.029477452859282494,0.8971900939941406,0.4400555491447449,0.021508016640303496,-0.17371868177994554,3.0276798641082387,0.004506553988903761,-0.08698677271604538,0.1039750799536705,-0.5642180842906237,0.19790283272042872,-9.956083327531816
32.6,5.9000000953674325,243.0,22.203866958618164,29.33409309387207,-79.78286158436545,40.4589127540858,306.71168423461916,-0.01904427446424961,-0.0254945419728756,0.8968926668167114,0.4411019384860992,0.019929544877620067,-0.17417405911723935,3.0192064403574483,-0.10180669277906418,0.10100427269935608,-0.1555764228105545,-0.6807764080166817,-0.023561869387049232,-9.74285349905491
32.8,5.699999809265138,245.0,22.306535720825195,27.680124282836914,-79.78286166983773,40.45891277295832,307.01352978515627,-0.011846190318465231,-0.02218068391084671,0.8988111615180969,0.4376142621040344,0.02380021920935104,-0.14301087414214406,3.0053221841684006,-0.10384601354599,0.11847572028636932,-0.020247191190719604,-0.5424891731142998,-0.15655380869284272,-9.655680284500123
32.9,5.599999904632568,240.0,22.17882537841797,29.54084014892578,-79.7828618681295,40.4589127514288,307.3035841064453,-0.007809927687048913,-0.02197088487446308,0.9006328582763672,0.4339549243450165,0.029607146395703138,-0.11144643193525816,2.95044967232733,-0.0527801513671875,0.008884587325155735,-0.039710577577352524,-0.5122540249675512,-0.17310649048537016,-9.589260592460633
33.1,5.599999904632568,242.0,22.145021438598643,29.94638061523437,-79.78286213715742,40.458912679148604,307.8953733520508,-0.012079664506018162,-0.023523084819316864,0.9017807841300964,0.4313841164112091,0.0298490691419702,-0.10739970064067976,2.919726266772284,0.08375656604766846,0.05260243266820908,-0.1399824023246765,-0.6746162932366133,0.035973130501806734,-9.555649627447133
33.2,5.699999809265138,243.0,22.129995346069336,30.21674156188965,-79.78286214625909,40.45891265939928,308.4796438293457,-0.016090812161564827,-0.023505903780460358,0.9009907841682434,0.4329021573066712,-0.06287493335289962,-0.17254979112757765,2.9274678456399243,-0.13186995685100555,-0.05110487714409828,-0.12587378919124606,-0.8053989192098381,-0.18751534547656776,-9.810371882915495
33.4,5.800000190734862,245.0,22.18132972717285,29.143251419067386,-79.78286221962627,40.45891262366686,308.7689848022461,-0.018719065934419632,-0.031293272972106934,0.8998974561691284,0.4345745146274567,-0.05466918715981596,-0.1982334889300225,2.8747413152602626,-0.0934302881360054,-0.1546981781721115,-0.04933541268110275,-1.0364368814975025,-0.0015547655057162044,-9.368793665170669
33.5,5.9000000953674325,246.0,22.253950119018555,27.9345817565918,-79.78286215417599,40.458912635012815,309.0534963684082,-0.024742098525166508,-0.040642041712999344,0.8984614610671997,0.43646663427352905,-0.0406469392795023,-0.2795280055097202,2.8007870008911717,0.013173781335353851,-0.07006938010454178,-0.004103462211787701,-1.2241798663884402,-0.011956733744591476,-9.261068072319027
33.7,6.199999809265138,246.0,21.884593963623047,33.55648422241211,-79.78286218264333,40.45891253899887,309.6214056091309,-0.02604999765753746,-0.04944855347275734,0.8960797190666199,0.44036048650741577,-0.0609055793322303,-0.3683172298176992,2.7192848783505505,0.12602131068706512,-0.021532725542783737,0.05839884653687478,-1.3521002072095871,-0.06726075005717576,-9.297590950727463
33.8,6.300000190734862,246.0,22.0135555267334,32.45119094848633,-79.78286207910543,40.45891254445593,309.89450360107423,-0.033558089286088943,-0.04974956065416336,0.8952810764312744,0.4414418041706085,-0.050420221393533415,-0.3804309142428713,2.7069861353537585,0.2027098834514618,0.08397743850946426,-0.14052681624889374,-0.9739892761409285,0.08048953643068672,-9.694697000384329
34.0,6.4000000953674325,262.0,21.91714859008789,32.983959197998054,-79.78286189068834,40.458912513699076,310.4579877929688,-0.03810878098011017,-0.04261737689375877,0.8954917788505554,0.4413910508155823,-0.1212708820199122,-0.3588511233948522,2.7262362015418242,0.0758223757147789,0.15867958962917328,0.0927836000919342,-0.9606715846806764,-0.21199153438210488,-9.737681052088737
34.1,6.5,265.0,22.004791259765625,32.029747009277344,-79.78286178682295,40.45891251200264,310.74235821533205,-0.035173144191503525,-0.038640767335891724,0.8955751657485962,0.4418313801288605,-0.1368704386972178,-0.3318596766227928,2.7570694847414883,-0.047390833497047424,0.14866815507411954,-0.010864685289561749,-1.0786377717554572,-0.19322743562981487,-9.788355361819267
34.3,6.699999809265138,263.0,21.868318557739254,34.065399169921875,-79.78286172300862,40.45891247322565,311.3049535827637,-0.02534017339348793,-0.03036944009363652,0.8956868052482605,0.4429229199886322,-0.1064780914978602,-0.25348189285052863,2.8374417405478543,-0.14863014221191406,0.06815852224826813,-0.07495315372943878,-0.8449137447774411,-0.10283320924267174,-10.069088956117632
34.4,6.800000190734862,261.0,21.90337562561035,33.739376068115234,-79.78286163686455,40.45891239135959,311.58603955078127,-0.02202434651553631,-0.03131934255361557,0.8944174647331238,0.4455913007259369,-0.08386315079857715,-0.2275976923695364,2.8804240309183107,-0.11337296664714812,0.01639745756983757,0.023081451654434204,-0.8954754225164653,-0.18310239700600506,-10.272251633405686
34.6,6.800000190734862,250.0,22.021068572998047,31.36179542541504,-79.78286162361117,40.45891237124875,312.1552038269043,-0.01288960874080658,-0.03832243382930756,0.8926509022712708,0.44893160462379456,-0.018426494474867026,-0.2307295700500569,2.9621294126070503,0.02805418521165848,0.03337182104587555,-0.032078400254249566,-0.9486445198953152,0.12609883264638486,-10.36184617996216
34.7,6.699999809265138,248.0,21.96722984313965,32.66588592529297,-79.78286161113502,40.45891234563147,312.4554395751953,-0.012311985716223715,-0.03651011735200882,0.8943992257118225,0.4456070065498352,0.00450985688734714,-0.2295340509807381,3.025489572710897,-0.030817387625575062,0.04067857190966606,-0.26029795408248896,-0.6837087135761977,0.4356470945477486,-10.438953412771225
34.9,6.5,247.0,22.101198196411133,30.08951187133789,-79.78286180883367,40.45891223381183,313.0620069580078,-0.017526708543300632,-0.034680046141147614,0.8983255624771118,0.4376088082790375,-0.014800674172401045,-0.20686294486206452,3.0908959120738566,-0.07683517783880234,0.2179429531097412,-0.2603522539138794,-0.8805871689319611,0.11357374040409925,-10.153064328432084
35.0,6.5,247.0,22.160045623779297,29.02397537231445,-79.78286214389935,40.45891195429683,313.6489133911133,-0.01203020755201578,-0.02891351468861103,0.9010246396064758,0.43263620138168335,-0.02330665993901541,-0.15118866801845512,3.0724146473152523,0.010089577175676823,0.10293760150671004,-0.0027567946817725892,-0.7400968493521214,0.06805789913982152,-9.917650748491287
35.2,6.5,239.0,21.858301162719727,33.54058074951172,-79.78286216867319,40.45891191300215,313.95565701293947,-0.01267404668033123,-0.02773497998714447,0.9006181359291077,0.4335403442382813,-0.005180565351427656,-0.16862753044706544,3.0557839258352533,0.08746439218521118,0.06501647084951401,0.01185241900384426,-0.9051170425862074,0.037769596148282285,-9.730986574888233
35.3,6.4000000953674325,238.0,22.032337188720703,31.0914363861084,-79.78286217280942,40.458911894474774,314.26222515869136,-0.015952736139297485,-0.028515895828604695,0.8996127247810364,0.435464471578598,-0.004372379593084029,-0.18873949169670934,3.0790070543750714,0.001338423928245902,-0.050755109637975686,-0.05222175270318985,-0.9266184970736504,0.09246287992224098,-9.979116679430009
35.5,6.5,236.0,22.08867835998535,30.2962589263916,-79.78286239053006,40.458911655057996,314.85710430908205,-0.020612666383385655,-0.034345753490924835,0.8978801369667053,0.4384140074253082,-0.020843574705230614,-0.23063411060976016,3.137068512630228,-0.11882162094116212,-0.15153177082538605,-0.07737413793802261,-1.0059803431481122,0.14343538851477206,-10.209927331209183
35.6,6.5,236.0,22.19510269165039,28.22084617614746,-79.78286239687706,40.458911646314036,315.1580915527344,-0.02087961137294769,-0.04086939617991448,0.8972827792167664,0.4390643239021301,-0.005517816329401508,-0.24707387807007625,3.112094046147931,-0.03154744952917099,-0.14062456786632538,-0.08000726252794266,-0.8595974919945002,0.2389458646439016,-9.960137786865237
35.8,6.5,245.0,22.207622528076172,27.79940223693848,-79.78286242990649,40.4589116712829,315.78269863891603,-0.019623730331659317,-0.05034551024436952,0.8965505361557007,0.4396333694458008,0.033555174541153816,-0.3087440781255215,3.0989405085635418,-0.06072510778903961,-0.014288272708654404,-0.10740801692008972,-0.928868359476328,0.19256218694150448,-9.714987423419954
35.9,6.5,249.0,22.161296844482425,28.75361442565918,-79.78286243827733,40.45891168488086,316.39121914672853,-0.020793184638023376,-0.04551567882299423,0.8974918723106384,0.438183069229126,0.05189429733247032,-0.2991388273639413,3.0479029434329123,0.15100380778312686,0.10981816798448564,-0.004739808849990368,-0.9641813027858734,0.15583533206954595,-9.61623847603798
36.1,6.5,250.0,22.193851470947266,27.51313781738281,-79.78286243575455,40.45891162488006,316.7027883605957,-0.023772357031702995,-0.04181815683841705,0.8980286121368408,0.4372994899749756,0.018767356097253912,-0.2433170563704897,3.036351359453976,0.16750071942806244,-0.011413754895329477,0.07566435635089874,-0.7302855869382621,-0.25139822300523523,-9.6004463160038
36.2,6.599999904632568,250.0,22.312795639038086,26.32832336425781,-79.782862499545,40.45891158329579,317.0077772216797,-0.022625073790550232,-0.03970661759376527,0.8983429074287415,0.43691140413284296,-0.01386892442321161,-0.2223065669729456,3.0526942201151734,0.0774393305182457,0.18502584099769592,0.05938874930143356,-0.7940824373066425,-0.033711847756057976,-9.86266704082489
36.4,6.599999904632568,245.0,22.23516845703125,27.28253555297852,-79.78286256406628,40.458911462205094,317.6390028076172,-0.022187406197190285,-0.02865004539489746,0.8969172239303589,0.4407113790512085,0.012843996036604959,-0.13833706402537635,3.0999659182444916,0.10576322674751283,0.006678562145680189,0.023687118664383888,-0.5769616157189011,0.07140663608908654,-9.996568279266356
36.5,6.5,241.0,22.2426815032959,27.03603172302246,-79.78286267720901,40.45891142537041,317.94954586791994,-0.0202395711094141,-0.032174181193113334,0.8962762355804443,0.4418645203113556,0.006888971782694139,-0.11628472241207125,3.1111029703882767,-0.04691095650196075,-0.06145020201802254,0.08392689377069472,-0.7249594312906266,-0.09509982800111176,-9.910791964530944
36.7,6.300000190734862,240.0,22.273983001708984,26.50326156616211,-79.7828629002521,40.458911315497105,318.57809735107423,-0.00821779016405344,-0.03958550095558167,0.8963738083839417,0.4414516091346741,0.0858610370931488,-0.1219377467323393,3.0536558048058082,0.05920848250389098,0.10096164792776108,0.07195494323968887,-0.6485277711600066,0.009774662498384715,-9.512681947946547
36.8,6.099999904632568,239.0,22.425479888916016,23.680383682250977,-79.78286310825831,40.45891123565439,319.2091741638184,-0.008999844081699848,-0.028611278161406517,0.8949872851371765,0.4450823962688446,0.1118335924934368,-0.036428286845421286,2.9771201301991743,0.09166913479566574,-0.04451625421643257,0.1181480586528778,-0.5544290778413415,0.09197450950741767,-9.496828976869585
37.0,6.0,232.0,22.296518325805664,26.034107208251953,-79.78286329419056,40.458911209045965,319.50296688842775,-0.009572820737957954,-0.02120945230126381,0.8942124843597412,0.44703754782676697,0.1295244048007109,-0.0270616715934357,2.9146364723708738,0.15126268565654755,0.1927817016839981,0.10349120199680327,-0.5312023292854429,0.2882847251370549,-9.217816218137742
37.1,6.0,230.0,22.250192642211914,26.837236404418945,-79.78286342498711,40.45891130172121,319.82555294799806,-0.008699269033968449,-0.012940488755702972,0.8935375809669495,0.4487175643444061,0.14044254368309134,0.0015196436611659696,2.9363173625051373,0.006427704822272061,0.010089820250868796,0.07109886407852173,-0.24381478630006315,0.21925706528127195,-9.50679087817669
37.3,6.0,225.0,22.310291290283203,26.61458778381348,-79.78286387865428,40.458911420813116,320.40843106079103,0.0015763179399073124,-0.025641839951276783,0.894974946975708,0.44537609815597534,0.22123919622844834,-0.01462372794590948,2.902046624791069,-0.20122365653514865,-0.16762664914131165,-0.013124573975801468,-0.6509778276085854,0.1774893806129694,-9.619174363017082
37.4,6.0,223.0,22.22264862060547,27.48928260803223,-79.78286424547886,40.458911326670474,321.0462675170898,0.020803561434149742,-0.04512900114059448,0.8979673981666565,0.4372474253177643,0.3558367780695589,-0.11262163592985225,2.9158949453111433,-0.1131381019949913,-0.09803923219442368,0.020628072321414948,-0.7283135403692723,0.33375037170946603,-9.617740041017534
37.6,6.099999904632568,209.0,22.14251708984375,28.332170486450195,-79.78286454661843,40.45891129776375,321.36703396606447,0.02261003665626049,-0.05005072057247162,0.899031937122345,0.434425413608551,0.4212460289387444,-0.14750852448206547,2.9428410012712907,-0.03673076629638672,-0.12843886017799375,0.04138776287436485,-0.8080679538846016,0.6009934162348509,-9.755199894905092
37.7,6.099999904632568,202.0,22.17882537841797,28.228797912597656,-79.78286471690244,40.45891141399387,321.6651830749512,0.019745418801903725,-0.04968634247779846,0.8997802138328552,0.433055579662323,0.43744134501582055,-0.1729483132801611,2.9589036639245565,0.04358912259340286,0.0012083210749551654,-0.03715283051133157,-0.679851305410266,0.6216253897547722,-9.93695825457573
37.9,6.300000190734862,197.0,22.140012741088867,28.992168426513672,-79.78286512347869,40.45891164073889,322.2770910339356,0.017250271514058113,-0.049827732145786285,0.8979688882827759,0.4368885457515717,0.4032925017964756,-0.16979866604978736,2.9661394023113146,-0.05859212577342988,-0.017733171582221985,0.17241643369197845,-0.7791477714478969,0.7696751359105111,-9.653765321373939
38.0,6.4000000953674325,196.0,22.207622528076172,27.95048522949219,-79.78286530328882,40.45891174852739,322.57481289672853,0.01843302696943283,-0.052270952612161636,0.8970646858215332,0.4384096264839173,0.4092596852635936,-0.18245212325221868,2.940553862659735,-0.05147247761487962,0.03506631776690483,-0.1084078997373581,-0.866793221756816,0.9228018732368948,-9.540172047615053
38.2,6.699999809265138,191.0,22.15253257751465,28.196990966796875,-79.78286580305745,40.45891211044845,323.180819519043,0.01930797658860684,-0.05221100151538849,0.8969566226005554,0.43860021233558655,0.4816690418968041,-0.181249836883094,2.9224601298131816,0.05033273994922638,0.04844954609870911,0.01158733759075403,-0.7909875791519879,0.9610052414238454,-9.627394963502883
38.3,6.699999809265138,193.0,22.111215591430664,29.9066219329834,-79.78286625989533,40.45891235793098,323.7839803771973,0.0268905907869339,-0.05189503356814385,0.8978520631790161,0.4364005625247955,0.4550877619313275,-0.17429731835788922,2.9159218181394504,-0.14198453724384308,0.03379165008664131,-0.022132311016321186,-0.7695861120522023,0.7480236272513867,-9.687827106714247
38.5,7.0,193.0,22.14627265930176,28.79337310791016,-79.78286644735107,40.45891248401498,324.07921505737306,0.031912706792354584,-0.05068185180425644,0.8989236950874329,0.43399229645729065,0.4745012536298955,-0.17385245166151425,2.9228115510110517,0.054724257439374924,0.03772381320595741,-0.06367651373147963,-0.7199634240567685,0.8573697759211064,-9.77369580745697
38.6,7.0,193.0,22.087427139282227,29.30228614807129,-79.78286649989515,40.45891254224685,324.37835598754884,0.0289339441806078,-0.04677227512001991,0.900187075138092,0.43201667070388794,0.4639186845601472,-0.18048109076516308,2.951109762744992,0.07325031608343124,0.023392444476485245,0.1407727152109146,-0.8985700614005327,0.7372016736119986,-9.996438471078873
38.8,7.099999904632568,182.0,22.322813034057614,25.382062911987305,-79.78286669911729,40.45891275023529,324.9829740600586,0.024397170171141624,-0.05359172821044922,0.9000521302223206,0.4317857325077057,0.3955147446269121,-0.19952309596971232,3.0077883862556103,0.07527405023574829,-0.2212786227464676,-0.06083563342690468,-0.6763560591638088,0.602238032631576,-9.841576133966447
38.9,7.099999904632568,185.0,22.233917236328125,27.43362045288086,-79.78286702763221,40.45891281895106,325.58527661132814,0.007737773470580578,-0.06528272479772568,0.898097813129425,0.4348546862602234,0.3441742283556933,-0.2504784014581362,2.9643461226853227,0.008783310651779175,-0.0962645784020424,0.05689297989010812,-0.6384057292342187,0.7349536384642125,-9.773011683225633
39.1,7.099999904632568,183.0,22.05988121032715,29.827104568481445,-79.7828670560194,40.458912715798895,325.8809766845703,0.009934840723872185,-0.0644688606262207,0.8969730734825134,0.4372465014457703,0.2982710572096789,-0.23849229910010605,2.9534945933860643,-0.06491183489561081,0.06307364255189896,0.09743884950876236,-0.5773572164028883,0.7622520956397058,-9.618003750443457
39.2,7.099999904632568,182.0,22.163801193237305,28.57072448730469,-79.7828672192059,40.45891272199965,326.1781988220215,0.015527943149209024,-0.05923080071806908,0.8958048820495605,0.4402092397212982,0.3101225479839112,-0.19443008734520534,2.951220609462373,-0.08471127599477768,0.2837771475315094,-0.08159397542476654,-0.5537590234726668,0.9727881118655204,-9.667326183915137
39.4,7.199999809265138,194.0,22.028579711914066,30.28830718994141,-79.78286735340926,40.45891269516364,326.7815580444336,0.03291046619415283,-0.03699443861842156,0.8948270082473755,0.4436586797237396,0.3185062121352835,-0.0813127647636964,2.99720384198201,-0.07091838121414185,0.2519246935844421,0.024483766406774517,-0.5191605733707547,0.8688988772034646,-10.132846995592118
39.5,7.199999809265138,180.0,22.117475509643555,28.594579696655273,-79.78286748583052,40.458912681678136,327.08486462402345,0.035670116543769836,-0.03162908181548118,0.8940917253494263,0.445339560508728,0.3218714854936041,-0.03242376494515817,3.039215026300292,0.008558820933103561,0.06717144697904588,0.12892237305641174,-0.5610668005049229,0.6014313361421227,-10.217120575904847
39.7,7.099999904632568,179.0,22.218891143798828,26.876995086669922,-79.78286769887947,40.45891259073906,327.68861294555666,0.02944600395858288,-0.03990655392408371,0.8937662243843079,0.4457830488681793,0.2978056989297063,-0.045637830559780004,3.0721311789731454,0.0016328743658959866,-0.19297634065151206,0.06672878563404082,-0.5228808277845383,0.6030084398388863,-10.028441451787947
39.8,7.099999904632568,179.0,22.27898979187012,26.05796241760254,-79.78286774061283,40.458912584093596,327.99759579467775,0.023513197898864743,-0.04715193063020706,0.894047200679779,0.44486358761787415,0.27327285134504103,-0.11329062158507572,3.0797041088830026,-0.05637360736727715,-0.14969000220298767,-0.043186500668525696,-0.6281964176148177,0.908510474190116,-9.88301067352295
40.0,7.099999904632568,183.0,22.297771453857425,25.588808059692386,-79.78286774155167,40.45891247274632,328.60682583618166,0.02107894979417324,-0.05453910678625107,0.8950343728065491,0.44214782118797297,0.26119147088001365,-0.16958851003841666,3.0653202244092075,-0.014599523507058619,-0.06728772073984146,0.0339343398809433,-0.6119280749559403,0.6694885774701834,-9.83148500919342
40.1,6.9000000953674325,183.0,22.360374450683594,24.70616149902344,-79.78286760619584,40.45891232696507,328.903849609375,0.023993995040655136,-0.053774066269397736,0.8955456018447876,0.4410563111305237,0.24648251245392835,-0.16118064893070372,3.0551559821629817,0.03187451511621475,0.0793633833527565,0.07093184441328049,-0.4433188607543707,0.6820885962992906,-9.921816304922103
40.3,6.699999809265138,182.0,22.36788558959961,24.07001876831055,-79.78286775566517,40.458912179989774,329.52096844482423,0.024964174255728718,-0.034895483404397964,0.8982883095741272,0.4373069107532501,0.2246218578874581,-0.08628189713693749,3.0994312964578974,0.10070420801639557,0.1970379948616028,-0.05246637389063835,-0.524849073663354,0.7827652975916863,-10.006537781953813
40.4,6.599999904632568,183.0,22.39918708801269,24.348331451416016,-79.7828676850049,40.458911869986316,329.81291485595705,0.02633199840784073,-0.0296949315816164,0.9006343483924866,0.4327617883682251,0.13114732737022694,-0.03656107665273682,3.0916933931451362,-0.1301242560148239,0.14041444659233093,-0.04061444103717804,-0.6338305022567511,0.4866469480097294,-9.929708876609805
40.6,6.4000000953674325,180.0,22.34785270690918,25.000377655029297,-79.78286768707933,40.4589115322703,330.42779064941413,0.03466414287686348,-0.024847975000739098,0.9043130874633788,0.4247338175773621,0.07971744336031493,-0.013307655163088091,3.073730778595426,-0.00990242138504982,0.018909605219960213,-0.12087152898311615,-0.5050130889192224,0.7481834024190903,-9.719359971284868
40.7,6.300000190734862,171.0,22.322813034057614,24.769775390625,-79.78286757739822,40.45891138785499,330.7349500732422,0.026740577071905136,-0.024281324818730358,0.904888391494751,0.4241137802600861,0.0693074914188208,-0.03897982739940911,3.0838038428555863,0.32944798469543457,-0.07035113871097565,0.08191525936126709,-0.3990941029787064,0.19959035743027925,-9.987779914140704
40.9,6.099999904632568,176.0,22.14627265930176,27.61651039123535,-79.78286720481975,40.45891096107053,331.3598280029297,0.0023962748236954212,-0.033031538128852844,0.9038404226303101,0.4265861213207245,-0.13445162142479938,-0.13148500660858234,3.0684736339255565,0.04679425433278084,-0.1956358700990677,0.11922809481620787,-0.6816645269840956,0.0972223764192313,-9.562697861194607
41.0,6.0,178.0,22.167558670043945,27.59265518188477,-79.78286696307157,40.458910776038095,331.6658277587892,-0.005180052015930414,-0.03885289654135704,0.9026856422424316,0.4285117983818054,-0.17847943315208406,-0.20741034922554955,3.064883087391524,0.2557371258735657,-0.2304670810699463,0.2361055165529251,-0.7267192970216274,-0.2854562076553703,-9.866355464458467
41.2,5.800000190734862,208.0,22.290258407592773,25.636518478393555,-79.78286643376322,40.45891030923339,332.29884625244136,-0.016841530799865726,-0.03493256494402885,0.8998717665672302,0.4344272911548615,-0.2751142283468626,-0.2725877537375713,3.1547464598101307,-0.0328533872961998,0.09024607390165328,0.04910645261406898,-0.8458231329917908,0.20112210866063834,-10.197284481525422
41.3,5.699999809265138,218.0,22.27523422241211,26.224950790405273,-79.78286620870612,40.45891011076272,332.6173276977538,-0.015621744096279144,-0.0311893280595541,0.8982375264167786,0.4381238520145416,-0.2927065491644609,-0.2567384881042792,3.1871678086389874,-0.07334736734628677,0.06245050206780434,0.055312346667051315,-0.7389022631943226,0.2705072709359229,-10.095449373722078
41.5,5.599999904632568,223.0,22.286502838134766,25.79555511474609,-79.78286565026565,40.45890964899144,333.2467680053711,-0.01719318889081478,-0.02717055752873421,0.8951479196548462,0.4446082711219788,-0.27266091564944817,-0.2208571017654168,3.170252702575868,-0.019227355718612667,0.0076387296430766565,0.046567730605602264,-0.5832775953412056,0.3090370051190257,-9.889643754959105
41.6,5.599999904632568,225.0,22.349105834960934,24.65049934387207,-79.78286529212677,40.45890938500939,333.5652952270508,-0.018435964360833168,-0.026733288541436195,0.8945953249931335,0.4456958472728729,-0.2739219187631316,-0.2211838312802221,3.1771539426627236,0.003059374168515205,0.07555720955133438,-0.09189869463443756,-0.6728699491918088,0.3099832673370838,-9.897702387571336
41.8,5.5,230.0,22.292762756347656,25.318449020385746,-79.78286492510823,40.45890907000922,334.2026243286133,-0.016045544296503067,-0.02259477972984314,0.8955018520355225,0.4441944062709808,-0.2355605814529081,-0.21061601446345712,3.1753841649962062,0.03936178609728813,-0.03418007493019104,0.02875974960625172,-0.5437951487302779,-0.08821432957425714,-9.860183143615725
41.9,5.5,230.0,22.446765899658203,22.72616958618164,-79.7828644475597,40.45890866230887,334.8465986328125,-0.015390603803098203,-0.021679140627384186,0.8963584303855896,0.4425323307514191,-0.2213352562400928,-0.1726773594690315,3.1702887008819034,-0.06022077426314354,-0.10622195154428482,-0.03175114840269089,-0.5002559769898653,-0.025705100046470763,-9.835782712697982
42.1,5.599999904632568,231.0,22.39793586730957,23.950742721557607,-79.78286417865546,40.45890846759535,335.17128277587886,-0.01594376564025879,-0.02218583971261978,0.8965656161308289,0.44206756353378296,-0.20462460476581085,-0.18878351467275584,3.1437435549446637,0.011150198988616468,0.07638604938983917,0.0015698056668043134,-0.580801153331995,0.09702504202723504,-9.587995254993439
42.2,5.599999904632568,230.0,22.30152702331543,25.366159439086914,-79.78286389075237,40.458908291244654,335.7961759643555,-0.017475221306085587,-0.02437722496688366,0.8968881964683533,0.4412391781806946,-0.15619933184724705,-0.21798913742601872,3.0929248191594536,-0.06715459376573563,-0.10666000843048096,-0.012246578000485895,-0.4281994228810072,-0.015086417093407363,-9.570216795802118
42.4,5.699999809265138,228.0,22.401691436767575,23.632671356201172,-79.78286378073958,40.4589080707693,336.1331205444336,-0.016937119886279106,-0.0273339282721281,0.8969739675521851,0.4409124851226807,-0.1291353769415791,-0.22830194472281395,3.0994720939130787,-0.11171729862689972,0.008352573961019516,-0.1379878968000412,-0.6997198518365622,0.3602242618426681,-9.540413537621498
42.5,5.699999809265138,228.0,22.41546440124512,23.56905746459961,-79.78286367549968,40.45890803420463,336.44259930419923,-0.0145855275914073,-0.030906122177839283,0.8973563313484192,0.4399815499782562,-0.08475238599780716,-0.2587022999261382,3.068895509733712,-0.08922597765922546,-0.0006357670645229517,0.09441953152418137,-0.8103118959814308,0.2444155694358051,-9.481198199987412
42.7,5.800000190734862,228.0,22.479318618774414,22.51942443847656,-79.78286331608744,40.458907915694304,337.078524597168,-0.011379462666809559,-0.03989864513278008,0.8973224759101868,0.4394212663173676,-0.0051181830302915645,-0.28992433829453795,3.019427444695543,-0.0583483949303627,-0.060012891888618476,0.01818458735942841,-0.8376937490701676,0.23954465607181194,-9.41616488277912
42.8,5.9000000953674325,228.0,22.525644302368164,21.930992126464844,-79.78286311303964,40.45890785177979,337.7052412109375,-0.009268493391573427,-0.04598196595907211,0.8969719409942627,0.4395921528339386,0.05999918136502354,-0.3035781528928435,2.949539469307961,0.08456077426671982,-0.10749084502458572,0.018649663776159286,-0.7656259390711785,0.2653816930577159,-9.164912949800492
43.0,6.0,229.0,22.499351501464844,21.962799072265625,-79.78286307019599,40.458907869928346,337.9988355712892,-0.010408877395093441,-0.04736967012286186,0.8968734145164491,0.43962034583091736,0.056883969386726935,-0.2949110262334993,2.8867072282811863,-0.01577174849808216,0.012077913619577885,-0.09819835424423218,-0.631462891548872,0.444351734854281,-9.178331725001337
43.1,6.0,231.0,22.602020263671875,20.595094680786133,-79.78286295699561,40.45890787824262,338.5969801025392,-0.012090963311493395,-0.04707617312669754,0.8971412777900696,0.4390619099140167,0.07019067032946316,-0.2917123958010006,2.8076214278884826,0.226330041885376,0.0164759811013937,0.1501678079366684,-0.7260611198097467,0.16446101669222118,-9.108994857072833
43.3,6.099999904632568,230.0,22.644588470458984,19.58521842956543,-79.78286293988009,40.458907877526435,338.87754345703127,-0.013863223604857922,-0.042441252619028084,0.8971221446990967,0.4395207762718201,0.03914084117187015,-0.26485110014565383,2.7695582560282466,-0.016562409698963162,0.11466164886951448,-0.09946287423372267,-0.8893128226697445,0.5460277618467808,-9.305310444831848
43.4,6.099999904632568,229.0,22.58574295043945,20.444011688232425,-79.78286305400523,40.458907976764884,339.44960308837886,-0.013817117549479008,-0.036814793944358826,0.8968734741210938,0.4405359923839569,0.07314265371653489,-0.20761712557537207,2.6646312322537242,0.08042117953300476,0.13729076087474826,0.006233580410480499,-0.7057932816445828,-0.08200146194547417,-9.138967684507367
43.61,6.199999809265138,226.0,22.56946563720703,20.68256378173828,-79.78286310618668,40.458907999403095,339.71486187744136,-0.010007693432271479,-0.03777100145816803,0.8973188996315002,0.4396499991416931,0.06350495295063573,-0.1799764802191407,2.6267072706629384,-0.19354620575904846,-0.07934129983186723,-0.08649924397468567,-0.6993954044580459,0.4115210807695985,-9.262911114692688
43.8,6.099999904632568,228.0,22.39417839050293,24.435800552368164,-79.78286331519075,40.45890815129593,340.2789411621094,0.005855967290699482,-0.043178584426641464,0.8991473913192749,0.4354714453220368,0.09207739130885848,-0.16372007560428894,2.5684713182156016,-0.2706916928291321,0.0716203972697258,-0.26823556423187256,-0.7582074303925038,0.3979653710871935,-9.181643003225327
43.9,6.0,225.0,22.17882537841797,27.7596435546875,-79.78286334660812,40.45890816162047,340.5774488525392,0.00738522270694375,-0.04532726109027863,0.8999870419502258,0.4334909915924072,0.10239489526657122,-0.14876076309894365,2.534778996284792,-0.08906321972608566,-0.04791117087006569,-0.072678342461586,-0.6126074117794633,0.13323812764137985,-9.057500767707825
44.1,5.9000000953674325,230.0,21.86581420898437,32.53070831298828,-79.7828634242338,40.45890816388477,341.12785626220705,-0.012462643906474112,-0.03746643289923668,0.8995416164398193,0.4350469410419464,0.03188638927109327,-0.14924300589007974,2.5367065149968666,0.3401786983013153,-0.009148517623543741,-0.08302172273397446,-0.69391093544662,-0.048886254024691884,-9.590731751918792
44.2,5.800000190734862,232.0,21.992271423339844,30.789268493652344,-79.78286341143858,40.45890806996348,341.3832807617188,-0.021858870983123783,-0.027801526710391045,0.8986829519271851,0.4371708929538727,-0.08101556184550045,-0.1392490103359439,2.5778914737960883,0.12941771745681765,0.11015428602695464,0.06749004125595093,-0.6340914342552424,-0.21413748079910874,-10.013373177051543
44.4,5.599999904632568,244.0,21.908382415771484,31.878662109375,-79.78286332270709,40.45890797199583,341.9721555786133,-0.0259577576071024,-0.02045733481645584,0.8964825272560121,0.4418449401855469,-0.1633024435690838,-0.09242915781541153,2.702792754304288,-0.07098227739334106,0.035591676831245415,-0.10303627699613573,-0.5392939986661077,-0.003881052844226361,-9.977043256759645
44.5,5.599999904632568,243.0,21.778169631958008,33.93021774291992,-79.78286333271669,40.45890787523336,342.2442274169922,-0.02560562826693058,-0.02007588930428028,0.8958394527435303,0.4431852102279663,-0.1597332598784133,-0.09232109476495656,2.742086321508352,-0.10540131479501724,0.05138683691620827,0.007786652073264122,-0.6106773189827801,-0.21647357136011125,-10.215071711540222
44.7,5.5,247.0,21.796951293945312,33.548534393310554,-79.78286329997258,40.45890750123447,342.7644910888672,-0.02214187011122704,-0.017678208649158478,0.8959664702415466,0.4432170689105988,-0.14878738546785375,-0.07802107875365516,2.8282789078442048,-0.01897947676479816,-0.01873099431395531,-0.023365529254078858,-0.4708745954185725,-0.12409587806090712,-10.435041625499727
44.8,5.5,248.0,22.05988121032715,29.27047920227051,-79.78286327805321,40.458907221110906,343.2923231201172,-0.0199610497802496,-0.017818104475736618,0.8961123824119568,0.4430201351642609,-0.1276307663974582,-0.050757543592917856,2.8945434429171506,-0.04809839650988579,-0.193890780210495,0.04438633844256401,-0.4961258327588439,-0.09137323301285506,-10.403501744270326
45.0,5.400000095367432,251.0,21.932172775268555,31.353843688964844,-79.78286332086033,40.45890713585863,343.5828962402344,-0.02257348783314228,-0.02419821172952652,0.8954553604125977,0.44391974806785583,-0.1056724458867425,-0.05186199999227762,2.9183481298636056,-0.026835408061742786,-0.1523701548576355,0.11392387002706528,-0.5315059459581971,-0.3015737104229629,-10.133926391601562
45.11,5.300000190734863,255.0,21.959716796875,31.50492858886719,-79.78286326668876,40.45890699769601,343.8318662719727,-0.0238887183368206,-0.026088733226060867,0.8947103023529053,0.4452441036701201,-0.0925801098161359,-0.09361492823777977,2.9216550585474885,0.0749220922589302,-0.046935085207223885,0.009710684418678284,-0.5572838347032667,0.0041530260303989045,-10.203522291183473
45.3,5.300000190734863,255.0,21.79820251464844,34.343711853027344,-79.78286341002472,40.45890686682552,344.4216413574219,-0.02462142333388329,-0.015550931915640831,0.8947391510009766,0.4456387758255005,-0.06955480665889555,-0.08369951261926524,2.9746143791806667,0.04975771531462669,0.0652979165315628,-0.1012272834777832,-0.5304057923331857,-0.11462422010488807,-10.126935460567477
45.4,5.300000190734863,254.0,21.88960266113281,31.695770263671875,-79.78286346731358,40.45890661679977,344.66496563720705,-0.023735910654068,-0.01150647643953562,0.8964352607727051,0.4423889815807343,-0.09318630062051256,-0.0427415202132032,2.962844522184605,-0.00988668855279684,0.03923668712377548,-0.11496352404356006,-0.3886000319570303,-0.12055911658331753,-10.198356860876084
45.6,5.300000190734863,254.0,21.96096992492676,30.72565460205078,-79.78286360022392,40.45890638553034,345.2088804321289,-0.017264649271965027,-0.01935258693993092,0.8994375467300415,0.4362792670726776,-0.06882222432835823,-0.0236800129387566,3.0342440526441843,-0.20398549735546112,-0.04298398643732071,-0.05208384618163109,-0.5497293782606721,-0.07346547726541758,-10.398152711391448
45.7,5.300000190734863,249.0,21.944692611694336,30.852882385253906,-79.78286384166572,40.458906309026325,345.8249616699219,-0.012498294003307821,-0.017563384026288986,0.8986947536468506,0.4380446076393128,0.014091822089083291,-0.04722346534350218,3.123071377645241,-0.062316913157701485,0.04860334098339082,0.11490843445062635,-0.5529997625201941,0.1091862821392715,-10.31333417057991
45.9,5.300000190734863,248.0,21.775665283203125,33.55648422241211,-79.78286400250792,40.45890614197776,346.0860700683594,-0.010068115778267384,-0.0169126745313406,0.8972983360290527,0.4409857392311096,0.01087729983269314,-0.014843739560557297,3.121204018696671,-0.06134693697094917,-0.05564845353364945,0.10200969129800797,-0.5846042189374566,-0.06698190182447432,-10.2017400598526
46.0,5.199999809265137,248.0,22.068645477294922,28.41168785095215,-79.78286413145774,40.45890610537014,346.3999204711914,-0.009832932613790035,-0.019786207005381584,0.8960962891578674,0.44330960512161255,0.02551014242963856,-0.006579864082333069,3.1586900597950933,-0.012421064078807827,-0.09016644954681396,0.1259031593799591,-0.3798854879289866,-0.09993849945254624,-10.172050237655641
46.2,5.099999904632568,245.0,22.12123107910156,27.59265518188477,-79.78286436604657,40.45890594297939,346.96438122558595,-0.013719437643885612,-0.015872370451688766,0.8953337669372559,0.4449015259742737,0.03380504052819658,-0.028220407532765963,3.1295947507386224,0.17179082334041595,-0.04665987193584442,0.03178456425666809,-0.3721963628008962,-0.06650065770372747,-9.832583116292954
46.3,5.0,250.0,22.034839630126953,29.04783058166504,-79.782864499238,40.45890590268793,347.27617169189455,-0.014447224326431753,-0.01481198612600565,0.8954073190689087,0.4447669684886933,0.0024051594110420065,-0.0033385862894698692,3.109269795765909,0.034872036427259445,-0.07450294494628906,0.082618348300457,-0.36283080440014603,-0.18361486891284587,-9.623558020591735
46.51,4.800000190734863,251.0,22.058629989624023,30.04180145263672,-79.78286470333987,40.4589053943745,347.7926206665039,-0.010377297177910805,-0.013196857646107674,0.895721435546875,0.444298654794693,-0.030649221597653126,0.03440276483588242,2.9924039138634324,-0.05907303839921951,0.2063502073287964,0.02837008610367775,-0.37025563538074496,-0.02135057805106044,-9.66878740310669
46.6,4.699999809265137,251.0,21.93592834472656,30.44734191894531,-79.7828650385672,40.458905166033404,348.3858823852539,-0.006235130131244659,-0.0019379371078684926,0.8964023590087891,0.44319331645965576,-0.016470844584023356,0.08095624679525285,2.9967229153657104,0.0567171573638916,0.056833717972040176,-0.06775029748678207,-0.25321522699669,-0.13823881264775992,-9.782678884863854
46.8,4.599999904632568,247.0,22.22890853881836,25.827362060546875,-79.78286517393707,40.45890509375887,348.68600750732423,-0.004886041395366192,0.0004093496827408672,0.8968032598495483,0.4424025118350983,-0.020182848314885114,0.10128584011456544,3.0047448421316143,0.02901764214038849,0.02062329463660717,0.022083571180701256,-0.09790989020839334,-0.1283867659047246,-9.933632358312607
