time,wind_speed,wind_angle,battery_voltage,battery_current,position_x,position_y,position_z,orientation_x,orientation_y,orientation_z,orientation_w,velocity_x,velocity_y,velocity_z,angular_x,angular_y,angular_z,linear_acceleration_x,linear_acceleration_y,linear_acceleration_z
0.0,1.5,63.0,23.32695770263672,0.0,-79.78286430950662,40.4588919829796,265.48231711831687,0.0026043448597192764,-0.003902943572029472,0.9993903040885924,0.034600283950567245,-0.0023660782688808236,0.0019967371982385967,0.021505415181433472,-0.00482270447537303,-0.00522314989939332,0.0009581107296980916,-0.08178786498494446,0.0430845187464729,-9.805098279118539
0.2,1.600000023841858,63.0,23.336973190307607,-0.007951773703098297,-79.78286426510961,40.45889189476061,265.4727564774156,0.0025852438993752003,-0.003909902181476355,0.9993898272514344,0.03461388498544693,0.001202269728100502,0.005442847985368228,0.016452787943551067,0.008369622752070427,0.003984925337135792,0.0009788203751668334,-0.07971821559593081,0.04124461011495442,-9.808304307460784
0.31,1.600000023841858,65.0,23.341981887817386,0.015903547406196594,-79.7828642179217,40.458891830642,265.4639367036223,0.0025830839294940233,-0.003889300627633929,0.9993909001350404,0.03458469361066818,0.001912358046668136,0.0007201735228908472,0.010585849821388094,0.003898513969033957,0.0004123771213926375,0.002884680638089776,-0.08130236336030068,0.04514665354974568,-9.807374015450476
0.51,1.7000000476837158,70.0,23.33196449279785,-0.03180709481239319,-79.78286421899408,40.45889183012884,265.4650070465803,0.0025963999796658754,-0.0038924668915569774,0.9993911385536194,0.03457750752568245,0.00019216451475044286,0.00039041642369166843,0.010805710970537856,-0.005275949835777283,-0.002669938141480088,-0.0002864311099983752,-0.08264353190548718,0.0364920092211105,-9.806496348381042
0.61,1.7000000476837158,70.0,23.33196449279785,-0.015903547406196594,-79.7828641720648,40.45889173139697,265.45502237451075,0.0025910846889019012,-0.0038699884898960603,0.999390721321106,0.03459279239177704,0.0010929451316818428,0.0048167244449397115,0.005734060503077803,-0.0036683818325400352,3.009242163898307e-06,0.0011223723413422704,-0.08136578737758099,0.034616284109652035,-9.805631545186042
0.8,1.7000000476837158,69.0,23.338224411010746,0.007951773703098297,-79.78286417339083,40.45889172741549,265.4555925003886,0.0026008074637502428,-0.003860189812257886,0.9993906021118164,0.034596741199493415,0.0001852473947249772,0.003941123552392208,0.005774650885648643,0.0007852923008613287,0.0026548656169325113,-0.002504564356058836,-0.07831594364717602,0.04919403683859856,-9.808250513076784
0.9,1.7000000476837158,72.0,23.338224411010746,0.015903547406196594,-79.7828641346128,40.45889166569675,265.44836352986096,0.002616883954033256,-0.003871000604704023,0.9993906617164612,0.034591775387525565,0.0017490309875963276,0.0004038378374761075,0.006156416902616552,0.0028476347215473648,0.0003888012724928558,0.00040104487561620766,-0.08126435645855963,0.04962961785960943,-9.806425597071648
1.1,1.7000000476837158,72.0,23.341981887817386,0.02385532110929489,-79.78286413643355,40.45889166530196,265.44898790341614,0.00260430877096951,-0.0038859692867845297,0.9993904232978821,0.03459838032722473,0.0005932225592011685,0.00012714773485757833,0.0063783881949781174,-0.003029168350622058,-0.0013518012128770351,0.0006237674388103187,-0.08237815967760981,0.03182745460420846,-9.806513890028
1.21,1.600000023841858,73.0,23.3394775390625,0.007951773703098297,-79.78286408968802,40.458891591523646,265.4395918868184,0.002587705384939909,-0.003907848615199328,0.9993909597396852,0.03458133339881897,0.0011745466395710455,3.613484915135077e-05,0.003398530596342323,-0.0008661843021400273,-0.0013617918593809009,0.003088877303525805,-0.08164670954458415,0.03149670091224833,-9.806648375988008
1.4,1.5,71.0,23.32946014404297,0.015903547406196594,-79.78286402261799,40.458891501674756,265.4302434719801,0.0025901005137711768,-0.003924720920622349,0.9993908405303956,0.034583061933517456,-0.001365470964153512,0.0038887994567242813,0.0014301001297220295,0.00023115731892175967,0.0009046444320119916,-0.0009564834181219339,-0.08064223098568618,0.051518199993297466,-9.806602767705918
1.5,1.399999976158142,69.0,23.340728759765625,0.015903547406196594,-79.78286401771017,40.45889149509022,265.4305442817211,0.0025807784404605627,-0.003920879680663347,0.9993915557861328,0.03456268832087517,-0.003807399245107787,0.002896842465519821,0.0015960213156301947,-0.0035434411838650703,-0.00027076221886090934,-0.0037423470057547092,-0.08083363593555988,0.0511180266039446,-9.80669456899166
1.7,1.399999976158142,68.0,23.34323310852051,0.03180709481239319,-79.78286394889736,40.458891379949065,265.42123538476227,0.002615761244669557,-0.0039590150117874146,0.9993916153907776,0.034554559737443924,-0.004786288068710717,0.010049635477171078,0.0003792600556564882,0.003523650113493204,-0.001650437479838729,0.004444348160177468,-0.08187329828739166,0.030427343384362763,-9.806703924536707
1.8,1.2999999523162842,69.0,23.340728759765625,0.02385532110929489,-79.78286389815123,40.4588913020406,265.4131241164804,0.002632941817864776,-0.003937467001378536,0.999391794204712,0.034551050513982766,-0.0014752118646430455,0.005681594552834036,-0.00020081370190780658,0.002710245316848159,-0.0003960170724894851,0.0058843479491770285,-0.08093884927220643,0.03138475870946422,-9.806105169653893
2.0,1.2999999523162842,70.0,23.33572196960449,0.0,-79.78286389566219,40.45889129713882,265.4131026290059,0.002628884511068464,-0.003923681564629078,0.9993914365768432,0.034563921391963966,-0.0035607031776371976,0.0050327443614043505,-5.800288281895617e-05,-0.0023659849539399147,-0.003337122267112136,-0.0030604414641857147,-0.08146245829761029,0.051846512015908966,-9.80773420393467
2.1,1.2000000476837158,69.0,23.32946014404297,0.015903547406196594,-79.78286382738837,40.4588911956179,265.4048646188974,0.002652771072462201,-0.003917154856026173,0.999390721321106,0.0345807708799839,-0.005536484130640814,0.006770851701296458,-0.0005598785036903676,-0.002749070292338729,0.005941960494965315,-0.003989499062299728,-0.08160805396735668,0.05180575052741916,-9.806052544713019
2.3,1.100000023841858,67.0,23.33446884155273,0.03180709481239319,-79.78286382171319,40.4588911893624,265.40481173467634,0.0026660319417715073,-0.003922766540199518,0.9993904232978821,0.034590203315019614,-0.006011610629389155,0.006206577100710889,-0.00028719356618189617,0.003204533830285073,-0.0020454295445233588,0.0016450696857646108,-0.08018138816580178,0.031456768540665515,-9.807789752483366
2.4,1.0,67.0,23.33071327209473,0.015903547406196594,-79.78286381374501,40.45889109943003,265.39449873042105,0.002668471075594425,-0.003914779517799616,0.9993907809257508,0.03457844257354736,0.002567911789323933,0.005010112677219383,-0.004145387103997564,0.0055517456494271755,-0.0010257289977744222,0.00537765771150589,-0.08103392134420574,0.030279157580807806,-9.807138957381248
2.6,1.0,69.0,23.33321762084961,0.02385532110929489,-79.78286381638934,40.45889109524512,265.3940771765709,0.002666091313585639,-0.0039033482316881423,0.999390721321106,0.03458227217197418,0.0005593119838044751,0.004343972200171697,-0.004185225161277739,-0.00048752044676803047,-0.0016215521609410644,-0.0037816555704921493,-0.0821660336572677,0.052034851745702326,-9.806965295076367
2.7,0.8999999761581421,70.0,23.341981887817386,0.02385532110929489,-79.78286376721171,40.45889098388657,265.38379652273653,0.002646673237904907,-0.003909031860530376,0.9993919730186462,0.03454568609595299,0.0001471038110615475,0.0070164702075923785,-0.007044731242936225,-0.004049377981573343,0.0023005940020084377,-0.0016557073686271904,-0.08081916407682002,0.050480264397338034,-9.807143050432208
2.9,0.8999999761581421,69.0,23.336973190307607,0.007951773703098297,-79.78286373598795,40.458890883967634,265.37640667927263,0.00264455983415246,-0.003936682362109423,0.9993925094604492,0.03452708572149277,0.0023510381928451033,0.008153291239356885,-0.005412736544942013,-9.562590275891124e-05,-0.0022555997129529715,-0.0014932613121345641,-0.08185524500906467,0.030468082032166426,-9.807300340533255
3.01,0.8000000119209291,71.0,23.328208923339844,0.0,-79.78286373931886,40.45889087680151,265.3758667654991,0.002660912461578846,-0.003939698450267315,0.9993934631347656,0.03449971228837967,0.0012537076375628616,0.007993327106544615,-0.005241337606818331,-0.0025515637826174498,-0.00043187674600631,0.00023793705622665587,-0.08240522132255138,0.03298960241954774,-9.80614726960659
3.2,0.8000000119209291,71.0,23.3394775390625,0.007951773703098297,-79.78286370192659,40.45889081796147,265.3672088332176,0.002649582689628005,-0.0039190310053527355,0.9993934035301208,0.034504137933254235,0.00506909799570082,0.00029901400430489163,-0.007394068182387551,0.001822775462642312,0.00016441379557363692,-0.0015591419069096446,-0.0802804893348366,0.04951936586759985,-9.807978032827377
3.3,0.8000000119209291,72.0,23.33321762084961,0.015903547406196594,-79.78286365451805,40.45889071376743,265.358241761446,0.002668983768671751,-0.00392041215673089,0.9993929862976074,0.034513700753450394,0.0038737212276708116,0.004324305631421607,-0.008900246250938888,0.0007468212279491128,0.003120965091511607,-0.0004864069924224168,-0.08045594234950841,0.05067079683300108,-9.806808589696884
3.5,0.8000000119209291,72.0,23.33196449279785,0.007951773703098297,-79.78286365872596,40.45889071027844,265.35736298036574,0.0026883347891271114,-0.00393002200871706,0.9993928074836732,0.034516412764787674,0.002816837066917876,0.00388487534816705,-0.00867944928496347,0.004550309386104345,0.00030424719443544745,0.0059942491352558145,-0.08233510041609407,0.031795500484295185,-9.806898636817932
3.6,0.8999999761581421,73.0,23.33196449279785,0.015903547406196594,-79.78286358309462,40.458890635238994,265.34624275040625,0.002724229125306011,-0.003928364254534245,0.9993926286697388,0.0345190092921257,-0.001083250978637452,-0.0010276762224938748,-0.013660168706606338,0.008148395456373692,0.001178478472866118,0.006225159857422113,-0.07985823813825846,0.032411760468967266,-9.80669456899166
3.8,0.8999999761581421,72.0,23.340728759765625,0.015903547406196594,-79.78286358068462,40.458890636233626,265.3448764629364,0.002727296203374863,-0.003930221311748028,0.9993920922279358,0.034535340964794166,-0.0036423509777697093,-0.0013923818762531946,-0.013650408146731165,-0.008482675999403002,-0.00016034262080211192,-0.006389131303876638,-0.08209163697436453,0.049642463461495936,-9.805925660133363
3.9,1.0,76.0,23.33321762084961,0.007951773703098297,-79.78286354591317,40.458890535156065,265.33499907922743,0.0027352366596460342,-0.003930035512894392,0.9993929862976074,0.03450994193553925,-0.0006948573561415528,0.002098956182332148,-0.015754788487103513,-0.004917691927403212,-0.001771660870872438,-0.00444976007565856,-0.0818374018650502,0.041154640652239324,-9.806138498783113
4.1,1.100000023841858,74.0,23.336973190307607,0.007951773703098297,-79.78286354589173,40.458890533494774,265.33341268670557,0.002725169761106372,-0.0039144852198660365,0.9993929862976074,0.03451133891940117,-0.0012823860521731893,0.0013837964129817125,-0.015995409638469273,0.006120976991951466,-0.001767973299138248,0.0011054256465286016,-0.08087115861475468,0.04398755725007505,-9.806364786028864
4.2,1.2000000476837158,73.0,23.32946014404297,0.0,-79.78286344780314,40.45889044333536,265.32305579853056,0.002724587917327881,-0.003912318032234907,0.9993940591812134,0.03448037803173065,-0.008435727119359904,0.0006746462403120182,-0.017835256899275127,0.0008237621514126657,0.0007110192091204227,-0.001963718328624964,-0.08182100225239992,0.0506776627432555,-9.806257197260855
4.4,1.2000000476837158,70.0,23.344486236572266,0.07951773703098297,-79.782863449925,40.458890341955865,265.31886451911924,0.0027119109872728586,-0.003918914124369621,0.9993948936462402,0.034457758069038384,0.00375642746597786,0.005648132303822764,-0.011742401885689051,0.0013625446008518338,-0.00022043447825126347,0.003478769212961197,-0.08053889058530331,0.030871249835472563,-9.80679923415184
4.5,1.2999999523162842,73.0,23.33071327209473,0.007951773703098297,-79.78286345626464,40.45889033312898,265.31650101613997,0.002711941953748465,-0.003914164379239082,0.9993956685066224,0.03443597257137298,0.0012893244733183894,0.004584985290087682,-0.011738253443563851,0.008482435718178749,0.0012906084302812815,0.005971929989755154,-0.07943481749854983,0.032903979539405555,-9.80783360660076
4.7,1.2999999523162842,74.0,23.33071327209473,0.015903547406196594,-79.78286342712303,40.458890242567264,265.3079148031473,0.0027060892898589373,-0.003906867001205683,0.999395787715912,0.03443341702222824,0.00455711063389853,0.0041757378791989095,-0.015244440042893296,-0.004847683943808079,0.0005189591902308166,-0.0032380181364715104,-0.08311475353315473,0.0501977890636772,-9.805153242945673
4.81,1.399999976158142,76.0,23.33446884155273,0.015903547406196594,-79.78286343721344,40.45889023662525,265.304859364748,0.0027364951092749834,-0.003896340262144804,0.9993968009948728,0.03440290316939354,0.0016725891172384075,0.003189316430734416,-0.01521769703202574,-0.008044571615755558,-0.0008413589093834162,-0.005421117413789035,-0.08297430158592761,0.048994601103477184,-9.806051375269892
5.01,1.5,78.0,23.336973190307607,0.007951773703098297,-79.78286335471194,40.45889014468429,265.2967350281477,0.0027607898227870464,-0.003897693008184433,0.9993966221809388,0.03440377116203308,-0.0010549733246003287,0.002252788686580492,-0.017750448830467037,0.006535823456943035,0.0003627152764238417,0.005161664914339782,-0.07937826395966112,0.03344033138360828,-9.808199057579039
5.1,1.600000023841858,77.0,23.32946014404297,0.05566241592168808,-79.78286332671017,40.458890063611825,265.2881296969652,0.002769275801256299,-0.003907161299139261,0.999397039413452,0.03439047187566757,0.002931340796564777,-8.116359220441201e-05,-0.018565968209809783,0.004859453067183496,0.0012584025971591473,0.004298172425478697,-0.0781066681444645,0.03220954959047958,-9.807848224639892
5.3,1.7000000476837158,79.0,23.33446884155273,0.09542128443717957,-79.78286332921256,40.45889006404178,265.28627067279814,0.0027791953179985285,-0.003909178543835878,0.999397039413452,0.03438817337155342,0.0003089470147674947,-0.0005746978891262225,-0.01869123536927151,-0.0039465539157390594,-0.002810618141666055,-0.005710713099688292,-0.08157773980870843,0.050981580913066864,-9.805517524480821
5.4,1.7000000476837158,79.0,23.32946014404297,0.015903547406196594,-79.78286325583805,40.45888995511695,265.27973854017256,0.002782817464321852,-0.003911434207111597,0.999397039413452,0.03438882157206535,-0.0038703600587172665,0.003194729449881996,-0.016169703214680236,-0.004057430196553469,-0.002791874809190631,-0.005567229352891445,-0.08115187064744532,0.05263548413291574,-9.805810469985008
5.6,1.600000023841858,84.0,23.32946014404297,0.11132483184337616,-79.78286325153245,40.45888995221839,265.27811872434614,0.0027860417030751705,-0.0039134291000664225,0.9993972182273864,0.03438282385468483,-0.00485312181754695,0.002837450800331554,-0.01613789300934846,0.002605602843686939,0.002170778810977936,0.001555113005451858,-0.07936475140973925,0.03191543235909194,-9.806384666562082
5.71,1.600000023841858,86.0,23.328208923339844,0.06361418962478638,-79.78286319729027,40.45888985732629,265.27009668421744,0.002791416831314564,-0.003910765517503022,0.999398410320282,0.03434823825955391,-0.0038385232783743283,0.002160553562117476,-0.01759855335143174,-0.00013089098501950502,-0.0003248629800509661,0.002282803412526846,-0.08172392933629452,0.032929248190484935,-9.808184439539911
5.9,1.600000023841858,88.0,23.31944465637207,0.09542128443717957,-79.78286319196363,40.45888985547713,265.26832833361624,0.0027822470292449,-0.003916590940207243,0.9993992447853088,0.034325595945119865,-0.005746980112999945,0.0015132696688516705,-0.017687791109000074,0.0021649159025400877,0.0015690260333940387,5.3800962632521994e-05,-0.08232666763477027,0.04964098338503392,-9.807040139436722
6.01,1.7000000476837158,90.0,23.33196449279785,0.07156596332788467,-79.78286317416926,40.458889735630116,265.26310407590864,0.0027814088389277467,-0.00392674095928669,0.9993996024131776,0.03431321680545807,-0.00033932911546501535,0.005664110704314364,-0.014981134527075703,-0.002519439207389951,0.0010628289310261607,-0.0013599261874333026,-0.08024219920858741,0.04956694758497178,-9.807170532345774
6.2,1.7999999523162842,89.0,23.323200225830078,0.06361418962478638,-79.7828631304957,40.458889647981714,265.25794904899595,0.002787647768855095,-0.003917302004992962,0.9993996620178224,0.034310858696699136,0.0028103730157059983,0.0050658176155729505,-0.01645721105482924,0.002666867570951581,-0.001355435000732541,0.0023969283793121576,-0.08048129551112652,0.032597389009315525,-9.807080485224725
6.3,1.7999999523162842,88.0,23.32695770263672,0.10337305814027786,-79.78286307119569,40.45888958201875,265.25013973784445,0.00277567096054554,-0.0039144447073340425,0.9994001984596252,0.03429809957742691,0.0022743480827113823,-0.0026349130235325878,-0.021066315084103813,0.003295556176453829,-0.00016740830324124542,0.005181476008147,-0.0806920054089278,0.031042534424923364,-9.807243622541428
6.5,1.7999999523162842,88.0,23.33071327209473,0.07156596332788467,-79.78286307249641,40.45888958482122,265.24803485941885,0.00277567096054554,-0.0039144447073340425,0.9994001984596252,0.03429809957742691,-5.21678393961065e-05,-0.003220417549916875,-0.02105445736239716,-0.008944718167185783,-0.002908502472564578,-0.0047968230210244656,-0.08296677329577506,0.05078893799800426,-9.806648960709571
6.6,1.7999999523162842,88.0,23.33071327209473,0.10337305814027786,-79.78286305332611,40.458889495601156,265.23982312750815,0.002752766478806734,-0.003922999370843172,0.9994001984596252,0.03429809957742691,0.00596367865412196,-0.0009395433539087649,-0.02419874679162325,-0.007934795692563057,-0.0006581908091902733,-0.00675590056926012,-0.08164048774167895,0.04855000257957727,-9.806170073747637
6.8,1.7999999523162842,91.0,23.320695877075195,0.06361418962478638,-79.7828630606738,40.45888949723239,265.23740571212767,0.002746850484982133,-0.00392401497811079,0.9994001984596252,0.034298181533813484,0.005668202574638914,-0.0015914657735331588,-0.02431230940841352,0.00711363460868597,0.002986992476508021,0.005545611493289471,-0.07928244271315635,0.038121223943308,-9.807058850526811
6.9,1.7999999523162842,93.0,23.323200225830078,0.04771064221858978,-79.78286300288673,40.458889363821775,265.22906538319586,0.0027467180043458947,-0.003948747180402279,0.9993997812271118,0.034307096153497696,0.0027317344285876736,0.0075798074646967065,-0.026779208142512487,0.00564814917743206,0.0032896895427256823,-0.00015767558943480248,-0.07996215412393212,0.042173481434583666,-9.807703798413275
7.1,1.7999999523162842,94.0,23.33196449279785,0.08746951073408127,-79.78286300577071,40.45888935729037,265.22638782334326,0.002768293023109436,-0.003940667491406202,0.99940025806427,0.034294720739126205,0.00032641330433186316,0.007360274057578955,-0.02668187085196629,-0.007447610143572092,-0.005114669445902109,-0.001942786271683872,-0.08259186627343297,0.03774854617193341,-9.805515770316124
7.2,1.7999999523162842,95.0,23.320695877075195,0.06361418962478638,-79.78286296180762,40.45888926720987,265.2206050701141,0.0027705880347639322,-0.0039385734125971785,0.9994007349014282,0.034280214458703995,0.0016059529085037554,0.005723330368462883,-0.02488940384830289,-0.0034028696827590466,-0.004611788783222437,-0.002542911330237985,-0.08226770211942494,0.03535170852206648,-9.806944245100023
7.4,1.7000000476837158,98.0,23.33572196960449,0.11927660554647446,-79.7828628996742,40.45888919837842,265.2179067082405,0.002774392254650593,-0.003917295020073652,0.9994010925292968,0.034271273761987686,0.003119812994525684,0.0007285969619432017,-0.02346189842708024,0.003461919957771897,0.0018895032117143273,-0.0019467903766781085,-0.08069960678927601,0.045495631825178864,-9.80733542382717
7.5,1.7000000476837158,95.0,23.323200225830078,0.07156596332788467,-79.78286290334172,40.458889198097694,265.21321191859244,0.0027606412768363953,-0.003912440035492182,0.9994007349014282,0.034284207969903946,-0.000277082577016944,-7.288715509757364e-05,-0.023592746465904386,0.007063782308250666,0.0022073944564908747,0.002069604815915227,-0.07981419215910138,0.0458385892957449,-9.806888696551324
7.7,1.7000000476837158,96.0,23.32570457458496,0.08746951073408127,-79.7828628388352,40.45888908014064,265.2130377538204,0.0027601523324847213,-0.003942127339541912,0.9994001388549804,0.03429688513278961,6.803609558984286e-05,0.00838183897859842,-0.01842130669218191,0.00023443190730176866,-0.002210256410762668,0.002618830418214202,-0.08162238878197968,0.03262035531923175,-9.806370633244516
7.8,1.7000000476837158,96.0,23.32570457458496,0.09542128443717957,-79.78286283739814,40.458889066181435,265.2093097217083,0.0027491876389831305,-0.0039561651647090895,0.9994009137153624,0.03427435830235481,-0.002851751882874425,0.007368630645385023,-0.01861601629541944,-0.0007676300010643897,-0.0011031415779143572,0.002414184622466564,-0.0818812559824437,0.031966853595804416,-9.80618176817894
8.0,1.7000000476837158,94.0,23.328208923339844,0.09542128443717957,-79.78286279789877,40.45888898720077,265.2108673996925,0.002759243594482541,-0.00395365571603179,0.9994008541107178,0.034275420010089874,0.001729497665397325,0.005699202269550588,-0.012193686839497113,-0.0006843575974926353,-2.3448264983017e-05,-0.0015929376240819693,-0.08205478124320507,0.05131727961357683,-9.806103415489195
8.1,1.7000000476837158,94.0,23.32570457458496,0.08746951073408127,-79.78286271377854,40.458888889266795,265.2130277402401,0.0027664771769195795,-0.00395227735862136,0.9994008541107178,0.034273162484169006,-0.002477057656365321,0.007005904804208435,-0.002228152440700983,-0.00394066097214818,-0.0003800092090386897,-0.0018322594696655872,-0.08271717941388489,0.051818833672441535,-9.806292280554773
8.3,1.7000000476837158,96.0,23.328208923339844,0.11132483184337616,-79.78286271153334,40.45888888291307,265.21280538511274,0.002758952556177973,-0.003946177195757628,0.9994016885757446,0.034251868724823,-0.0032861004864272354,0.006759545378159591,-0.0020938422366635822,0.002523285336792469,0.0018182543572038406,0.00305554224178195,-0.07945834340527654,0.0324185487208888,-9.807818988561632
8.41,1.7999999523162842,96.0,23.336973190307607,0.02385532110929489,-79.78286262148494,40.45888875163772,265.22001847100256,0.002796851098537445,-0.003974827472120524,0.9994016289711,0.03424668312072754,-0.006655152164737315,0.01460562622595126,0.012476903535356723,0.0018875577952712774,-3.08531234622933e-05,0.0010525278048589826,-0.08051022095605731,0.029151645381934942,-9.806485823392867
8.6,1.7999999523162842,95.0,23.336973190307607,0.015903547406196594,-79.782862613866,40.45888873819275,265.2212488598824,0.002769561018794775,-0.003964159172028303,0.9994022250175476,0.03423399850726128,-0.008661492339258952,0.013961327610842908,0.012467819237777436,0.0012991516850888733,0.0002064502041321248,0.00010552963067311796,-0.08089310394600034,0.049452077206224215,-9.807150067090989
8.7,1.7999999523162842,90.0,23.33071327209473,0.007951773703098297,-79.78286255755044,40.458888684764396,265.2299243457317,0.002764098346233368,-0.003964068833738565,0.999402403831482,0.03422876074910164,-0.004976677882758114,0.004632648946927293,0.023389098301769468,0.002117432188242674,0.0007372448453679683,-0.0005781789077445866,-0.07888715266250074,0.046837252615950994,-9.807685672044757
8.9,1.7999999523162842,85.0,23.33572196960449,0.02385532110929489,-79.78286245869552,40.45888860725341,265.2345429308414,0.0027721875812858343,-0.00396559527143836,0.999403178691864,0.03420395031571388,-0.0096325811158302,0.003374921020692226,0.02972824893828565,-0.005148646887391807,-0.0050950469449162475,0.0010115576442331076,-0.08167402700521052,0.035858177896589044,-9.80530234694481
9.0,1.8999999761581416,84.0,23.32695770263672,0.0,-79.78286243329839,40.458888600251264,265.24047952365873,0.0027809857856482267,-0.003989641554653645,0.9994035363197328,0.03418957442045212,-0.012890130732619728,0.0025758179370351463,0.029959541327249182,-0.004187239333987236,0.0006568450480699539,-0.0003234958276152612,-0.08369798588566482,0.03886486186645925,-9.806235562562943
9.2,1.8999999761581416,80.0,23.33572196960449,0.007951773703098297,-79.78286235973168,40.45888849496518,265.24306541156767,0.002788217039778829,-0.0040021021850407115,0.9994032382965088,0.0341985709965229,-0.011124760566982571,0.007862832133304942,0.029971706368701563,0.0017215812113136053,0.00268520531244576,0.0007973281899467113,-0.07897192815318704,0.04449368401430547,-9.80878436386585
9.3,1.8999999761581416,80.0,23.3394775390625,0.02385532110929489,-79.7828623106647,40.458888405961964,265.24531897377966,0.002773958258330822,-0.004001521971076727,0.9994023442268372,0.03422514721751213,-0.0025403889817097987,0.005784130399748148,0.022817570680024,0.0061815944500267506,0.0022270341869443646,0.004174253437668085,-0.07854386628605425,0.04285242539830506,-9.808570940494539
9.5,1.7999999523162842,78.0,23.33071327209473,0.007951773703098297,-79.78286230653408,40.458888400470826,265.2476057357788,0.0027697903569787736,-0.004009030293673278,0.9994024634361268,0.03422185406088829,-0.004892738341523869,0.005651996421245448,0.02303636699418576,-0.005156331229954958,-0.002933918731287121,-0.0010743296006694436,-0.08287639726884663,0.041534417308866985,-9.805352632999421
9.6,1.7999999523162842,77.0,23.32946014404297,0.03180709481239319,-79.78286223949918,40.458888314985046,265.24996560287474,0.0027628142852336173,-0.003992509562522173,0.9994024634361268,0.034221529960632324,-0.003219551280500828,0.004259251890675276,0.018312589634323685,-0.006799600087106228,0.00025461026234552264,-0.004868054762482643,-0.08238371453247965,0.04316256537102163,-9.803920649886132
9.8,1.7999999523162842,75.0,23.33572196960449,0.03180709481239319,-79.78286223582815,40.4588883110849,265.2517872400284,0.002759955357760191,-0.003987510688602924,0.9994021654129028,0.03423380851745605,-0.0038306435516947007,0.003617842641873085,0.018274566371942653,0.00642090430483222,0.002968718763440848,-0.0005314310546964407,-0.07829128484241665,0.04012419680133463,-9.808501358628273
9.91,1.7999999523162842,73.0,23.33196449279785,0.015903547406196594,-79.78286214534057,40.458888205643674,265.25374143791197,0.0027549758087843657,-0.0039708814583718785,0.9994030594825744,0.03421005234122276,-0.0064494563568637826,0.006404746548244797,0.015147530623556369,0.007018126547336578,0.0037407379131764174,0.0053010699339211,-0.07881578922271729,0.037243792132940136,-9.808604854345322
10.1,1.7999999523162842,71.0,23.336973190307607,0.03180709481239319,-79.78286213694794,40.45888819929049,265.2552516109943,0.0027617993764579296,-0.003976966720074415,0.9994030594825744,0.034206800162792206,-0.009122979304954813,0.006205330040938274,0.015266936605814319,-0.0054862825199961645,-0.0010103416861966252,-0.005572120659053326,-0.08377610103227197,0.04502313111908734,-9.805282466411589
10.2,1.8999999761581416,71.0,23.33071327209473,0.007951773703098297,-79.78286204854179,40.45888811590832,265.2559169478416,0.0027710639405995607,-0.003965586889535189,0.9994032382965088,0.03420263156294824,-0.010347928997768622,0.004378018785334181,0.010941321468171516,-0.007301678415387869,-0.0011059712851420043,-0.0028611612506210804,-0.08298221359960735,0.044480600869283085,-9.804398952126505
10.4,2.0,71.0,23.32695770263672,0.02385532110929489,-79.78286199209481,40.458888017361886,265.25584777665136,0.002745720790699125,-0.003958301153033972,0.9994032382965088,0.034205641597509384,-0.00422272225318841,0.006894099881412235,0.007070133035254825,0.006271763704717159,0.0024222759529948235,0.004719016142189503,-0.07951664197258651,0.03610033941920847,-9.808672682046893
10.5,2.0999999046325684,71.0,23.32445335388184,0.0,-79.7828619784915,40.45888800457983,265.25724097561834,0.002775652101263404,-0.003940621390938761,0.999403178691864,0.03420696780085564,-0.007244369184612651,0.006145530833666754,0.006977375963731329,0.006148360203951597,0.0027985963970422745,0.00566228199750185,-0.0782356357946992,0.037890660921111714,-9.807572236061096
10.7,2.0999999046325684,68.0,23.338224411010746,0.007951773703098297,-79.78286191529979,40.458887931549775,265.25751655769346,0.0027763817925006147,-0.003931405954062939,0.9994037747383118,0.03419126570224762,-0.005321612922937103,0.0018627499095994085,0.004850762796519352,-0.005580383818596602,-0.0019153583562001586,-0.006061805877834559,-0.08293570996262134,0.04664145311806351,-9.805483610630036
10.8,2.200000047683716,65.0,23.340728759765625,0.02385532110929489,-79.78286187052927,40.45888782484877,265.25831111741064,0.002749179257079959,-0.00391518184915185,0.9994036555290222,0.03419914096593857,0.0005760622178138656,0.006036871412438682,0.0030745108959307913,-0.006240883376449346,-0.0055020474828779715,-0.008432398550212383,-0.08176378176547587,0.050711398436687885,-9.80445976316929
11.01,2.200000047683716,65.0,23.336973190307607,0.0,-79.7828618715138,40.45888781974517,265.2586164720058,0.0027366529684513807,-0.003923615906387568,0.9994035363197328,0.03420180082321167,0.00025623830934218424,0.005308279137828382,0.003080508001987451,0.006530762650072575,0.0042973351664841175,0.003433410543948412,-0.0792104397341609,0.033702674936503176,-9.808013116121293
11.11,2.200000047683716,65.0,23.338224411010746,0.007951773703098297,-79.78286183555402,40.45888771383804,265.25859760713575,0.0027300654910504822,-0.003927581012248993,0.9994041919708252,0.034181278198957436,0.004479489679336566,0.0072448444623054485,-0.00014142234331479203,0.007176016923040152,0.0009106052457354963,-0.0003180366184096784,-0.0775023492705077,0.038394832522608335,-9.807944703698158
11.3,2.200000047683716,66.0,23.338224411010746,0.02385532110929489,-79.78286184042881,40.4588877076126,265.258586997509,0.002730553271248937,-0.003926844336092472,0.9994048476219176,0.034164614975452416,0.0020576497692149486,0.006905320629432925,-3.951227951291464e-05,-0.007397416979074478,-0.0037478506565094,-0.002008632989600301,-0.08258585460484029,0.041146605298854416,-9.805121667981151
11.4,2.200000047683716,66.0,23.3394775390625,0.039758868515491486,-79.78286175860369,40.45888761456054,265.2581966764927,0.0027722669765353203,-0.003941582515835762,0.999404788017273,0.034161455929279334,-0.00193506822500556,0.004816885127922458,-0.0033503429152644103,-0.0017018078360706568,-0.003610006766393781,-0.00033449224429205065,-0.0824895856808871,0.035674579893238835,-9.80504039168358
11.6,2.200000047683716,66.0,23.33071327209473,0.007951773703098297,-79.78286175630015,40.45888761038287,265.25785144639013,0.002749029081314802,-0.003927621524780989,0.999405026435852,0.03415606915950775,-0.0036257871535456563,0.004294662321318397,-0.003431398280683166,-0.0003704352711793035,0.0013603344559669495,0.0012630785349756481,-0.07952177655883133,0.05108978637959808,-9.806365370750427
11.7,2.0999999046325684,69.0,23.336973190307607,0.015903547406196594,-79.78286166610278,40.4588874915525,265.2575328595638,0.0027713202871382236,-0.003923182375729084,0.9994046688079834,0.03416598960757256,-0.007321388921168194,0.006689476700771289,-0.005663844178001235,-0.005393211729824543,-0.003559485776349902,-0.0049625365063548105,-0.08243411022238434,0.05091928065754473,-9.80587420463562
11.9,1.8999999761581416,74.0,23.33196449279785,0.007951773703098297,-79.78286163781884,40.45888739396475,265.25718971562384,0.002757020760327577,-0.003919492941349746,0.9994047284126282,0.0341666117310524,0.003688058531278532,0.006023342729921926,-0.01021834475568464,0.004368465393781662,0.005157243460416794,0.003233292605727911,-0.07999054966494441,0.03762200420256704,-9.806931965947152
12.0,1.7999999523162842,70.0,23.32695770263672,0.0,-79.7828616430422,40.45888738389228,265.2551368124485,0.002753783948719501,-0.0039282944053411475,0.9994041919708252,0.034179788082838065,-4.584019119968185e-05,0.005198098697406608,-0.010309164863839487,0.0015336464857682586,-0.0007259478443302214,-0.0004047493857797234,-0.08147185038775208,0.04803507758304477,-9.806737253665924
12.2,1.7000000476837158,70.0,23.33446884155273,0.007951773703098297,-79.7828615902459,40.45888727377045,265.25679635477064,0.002747280290350318,-0.0039430675096809855,0.9994043707847596,0.0341733917593956,0.003272098621981711,0.007780363083957295,-0.010002275610277972,-0.0010307644261047244,-0.0018980302847921848,0.003611481050029397,-0.07848246138542891,0.033981431806460016,-9.806941321492195
12.3,1.7000000476837158,74.0,23.32946014404297,0.02385532110929489,-79.78286150749878,40.458887151819305,265.25746207904814,0.0027448304463177924,-0.003948363941162825,0.9994044899940492,0.03417019173502922,-0.0013167922024727378,0.009050435774857151,-0.009818815076802571,0.0065960814245045185,0.002499067224562168,-0.0005107669276185334,-0.07871391976252197,0.03846881807316095,-9.807003301978114
12.5,1.7000000476837158,78.0,23.32695770263672,0.007951773703098297,-79.78286150519595,40.45888714382253,265.2564776189327,0.0027448304463177924,-0.003948363941162825,0.9994044899940492,0.03417019173502922,-0.0036885057628363305,0.008827070083575122,-0.009689156500374779,-0.005207169335335493,-0.0049905232153832895,-0.00017445225967094302,-0.08120592998340727,0.03453147664200515,-9.806162472367287
12.6,1.7999999523162842,79.0,23.33572196960449,0.02385532110929489,-79.78286145486128,40.4588870141006,265.2574686653614,0.002726999577134848,-0.0039551034569740295,0.9994044899940492,0.03417026996612549,0.0013946592152050935,0.010276669868124123,-0.0094084184533945,0.005787843372672796,9.774429781828076e-05,0.0017416446935385466,-0.0798179654404521,0.03207048407290131,-9.807568727731708
12.8,2.0,82.0,23.33071327209473,0.02385532110929489,-79.782861456181,40.4588870050147,265.256517852068,0.0027240777853876352,-0.003956871572881937,0.9994044899940492,0.034170038998126984,-0.0012542231790753815,0.009970669578759458,-0.009430124943374448,-0.009062785655260086,4.478407845454058e-06,-0.006660472135990858,-0.08307291853241623,0.04819367417134345,-9.805794682502746
12.9,2.0,85.0,23.33572196960449,0.007951773703098297,-79.7828614099987,40.45888688377854,265.25774990987776,0.0027292955201119184,-0.003942073788493872,0.9994047284126282,0.0341649129986763,0.0020192535166549236,0.008396658290994717,-0.009243559902379985,-0.00760203693062067,0.0007582746911793947,-0.003076722379773855,-0.08303144898265599,0.044913130374625326,-9.804874915480614
13.1,2.0999999046325684,91.0,23.336973190307607,0.007951773703098297,-79.78286141337459,40.45888687674472,265.2568176932335,0.002728648250922561,-0.003935831133276224,0.9994043707847596,0.034176155924797065,0.0015632310193564034,0.007888654894367944,-0.009302316521418968,0.007744418922811747,0.0015173947904258964,0.0018696218030527234,-0.07708308563567698,0.040323833534494036,-9.808607193231584
13.21,2.200000047683716,92.0,23.31694030761719,0.0,-79.78286134470727,40.45888674410222,265.2600976772308,0.002732469467446208,-0.003940661903470755,0.9994051456451416,0.03415315970778465,7.973935257265994e-05,0.009029650029549377,-0.006407959535712096,0.005849422886967659,0.0018112482503056528,0.005378857254981996,-0.07599528425373138,0.03722249319311231,-9.80718924343586
13.4,2.4000000953674316,96.0,23.32570457458496,0.015903547406196594,-79.78286123481465,40.458886634133904,265.26227926683424,0.0027555578853935003,-0.003943929448723793,0.9994049072265624,0.034159280359745026,-0.007556546255373753,0.005781593011171363,-0.0075315792576905564,-0.004885855130851269,0.00023028966097626835,-0.006371139083057642,-0.08299113973975182,0.04626379607710989,-9.805274280309678
13.5,2.5,101.0,23.32695770263672,-0.007951773703098297,-79.78286121609058,40.45888662338404,265.26074936461447,0.0027564591728150845,-0.003948952537029982,0.9994046688079834,0.034164588898420334,-0.010722741313552268,0.005031331469453408,-0.007546889574085328,-0.0056833489798009396,0.0001638672110857442,-0.00794081576168537,-0.08482235977426172,0.05116288571152836,-9.805339184403419
13.7,2.799999952316284,111.0,23.33446884155273,0.015903547406196594,-79.78286119255706,40.458886503621294,265.26326596212385,0.0027362238615751266,-0.003951809369027615,0.9994051456451416,0.034153133630752563,0.0005006713260985268,0.005096074750317661,-0.008023571729304941,0.00669019902125001,-0.0028882510960102077,0.006069620605558157,-0.07862293160520495,0.028946446941699837,-9.807786244153977
13.81,2.799999952316284,111.0,23.336973190307607,0.007951773703098297,-79.78286114298133,40.458886373390506,265.26543312740324,0.002757032867521048,-0.003937540575861931,0.9994054436683656,0.03414268419146538,0.003109333039260107,0.005140792744074765,-0.008254979488945872,-0.00030969976796768606,-0.0037682631518691774,0.0034998992923647165,-0.08037522336468099,0.03518230828922242,-9.806320347189905
14.0,2.700000047683716,107.0,23.31819152832031,-0.039758868515491486,-79.78286114606698,40.45888636932931,265.26460208964346,0.002744602272287011,-0.003926659468561411,0.9994052648544312,0.03415016457438469,0.0016304328839482313,0.0043705592220733775,-0.008363546563003399,0.006168961059302093,0.002307738410308957,0.002572081284597516,-0.07952568688429892,0.04552687788382173,-9.807116737961769
14.11,2.799999952316284,109.0,23.33572196960449,0.007951773703098297,-79.78286108517108,40.45888621808457,265.26683541607855,0.0027380699757486573,-0.003936838824301958,0.9994058609008788,0.034132204949855804,0.0007732912767150393,0.009602612501886758,-0.008592295913573939,0.004694470204412936,0.002513079671189189,0.0031967039685696363,-0.07920109332539142,0.03956692517269403,-9.807023767232897
14.3,2.9000000953674316,106.0,23.338224411010746,0.02385532110929489,-79.78286108580845,40.45888620943722,265.2659744865894,0.002739842515438795,-0.003947515971958636,0.999406099319458,0.034123681485652924,-0.001984168659447815,0.009379498401856496,-0.008403468616918035,-0.005068596918135881,-0.00011179831926710904,-0.005028757266700268,-0.08402839011512697,0.048963843835517766,-9.806331456899644
14.41,2.799999952316284,108.0,23.338224411010746,0.015903547406196594,-79.78286100282311,40.458886084159715,265.26822199892996,0.002731467830017209,-0.003953079227358103,0.9994071125984192,0.03409278020262718,-0.004971515322666792,0.006704207233868228,-0.008610954087031365,-0.0033481789287179713,-0.0007964569376781582,-0.00467569287866354,-0.08209483467042447,0.05302404074929655,-9.806126219630242
14.6,2.9000000953674316,104.0,23.336973190307607,0.02385532110929489,-79.78286099757025,40.45888607790422,265.26735177111624,0.002744593191891909,-0.003961654845625162,0.9994072914123536,0.034088477492332465,-0.005935885560591451,0.0063136709654495115,-0.008558185553805744,0.0014490657486021519,-0.002559104235842824,0.004553407430648804,-0.0822872902918607,0.031637863204814494,-9.807056511640551
14.7,2.799999952316284,103.0,23.31318473815918,0.37373337149620056,-79.78286093373346,40.45888592896113,265.26982396316527,0.002734605222940445,-0.003996864892542361,0.9994080662727356,0.034061234444379807,-0.0051546629686024725,0.009057610508356555,-0.008772607575570841,-0.002698912285268307,-0.0021201071795076127,-0.003651445731520653,-0.0801008336339146,0.043773476066999134,-9.80587303519249
14.9,2.9000000953674316,101.0,23.321949005126953,0.3021674156188965,-79.78286088873243,40.458885810612784,265.2733908243179,0.002737002214416861,-0.003996859770268203,0.9994075298309326,0.034075282514095306,0.001953784710796751,0.0040816495853071184,-0.008879525403170909,0.004666556604206562,0.009465954266488552,0.00046926093637011945,-0.08730551694519817,0.05056672096252442,-9.807586269378662
15.0,3.0,102.0,23.31318473815918,0.2942156493663788,-79.78286088986873,40.458885802913365,265.27160947990416,0.002742730081081391,-0.004012512508779764,0.9994065761566162,0.034101683646440506,-0.0004405544875466174,0.004264676256088486,-0.008789173108220964,0.006992233917117119,0.00246214447543025,0.005463129840791225,-0.07369739245623351,0.02537694790866226,-9.81139514565468
15.2,3.0,102.0,23.31944465637207,0.3021674156188965,-79.78286083348853,40.458885673926794,265.2754113919735,0.002724894788116217,-0.0040129232220351705,0.9994074702262878,0.034078501164913184,0.0011397990923854436,0.004048168327831415,-0.008858731716264905,0.0012218159390613435,0.003758814884349704,-0.0033829037565737963,-0.08610660932958128,0.04897291158791632,-9.809328739643098
15.3,3.0,100.0,23.31944465637207,0.326022744178772,-79.78286074925165,40.458885509822686,265.2787980086803,0.0027119028382003307,-0.004024797584861517,0.9994078278541564,0.03406665474176407,-0.0025788328733531768,0.010960790215002892,-0.008902593568095576,0.005584571044892073,0.002854458056390285,0.007454338483512402,-0.0797780216485262,0.04477114353328943,-9.803805459737779
15.5,2.799999952316284,98.0,23.31819152832031,0.3498780429363251,-79.78286074647801,40.45888549999553,265.27789815735815,0.002719930140301585,-0.004020429216325283,0.9994065165519714,0.034105539321899414,-0.004624936166930687,0.010749736374745932,-0.008798083576486414,-0.005658144596964121,0.0008842117968015373,-0.0040431637316942215,-0.08177061569876969,0.045263826269656415,-9.80532456636429
15.6,2.799999952316284,99.0,23.310680389404297,0.3896369338035584,-79.78286069246526,40.45888534957042,265.2813503689766,0.0026983157731592647,-0.0040156440809369105,0.9994071125984192,0.0340891033411026,-6.0423566048734104e-05,0.00968923486346143,-0.008790749173205097,-0.0049923514015972606,-0.0016013366403058171,-0.002497772686183453,-0.07187765671871603,0.05601809381972998,-9.802003932595252
15.8,2.9000000953674316,99.0,23.29315185546875,0.3896369338035584,-79.78286069307174,40.458885341439455,265.2804790086746,0.002685017650946975,-0.004029901698231697,0.9994075298309326,0.034076206386089325,-0.0019483888766384226,0.008425782839415906,-0.00857910324199427,-0.0018908763304352762,0.0013877812307327984,-0.001335682114586234,-0.07635106448549778,0.02934164791367948,-9.801364831924436
15.9,2.799999952316284,99.0,22.59075164794922,10.289595603942873,-79.78286065229126,40.458885165727175,265.28705757331846,0.002652140334248543,-0.004068457987159491,0.9994035363197328,0.03419182077050209,1.900988424195352e-05,0.01325676786166448,-0.0030843276880999004,-0.033330921083688736,-0.04483237862586975,-0.0030635241419076924,-0.10791880678385496,0.07294177687726915,-9.791660792827603
16.1,2.799999952316284,98.0,23.29064750671387,0.21469789743423465,-79.7828606565097,40.458885155454496,265.28662700426577,0.002718368312343955,-0.004037751350551844,0.9994029998779296,0.03420562297105788,-0.003503561264951025,0.011539411657731272,-0.003800501546933362,-0.03320883587002753,0.0075257858261466035,-0.0012453569797798991,-0.09686391469091178,0.08404083372093737,-9.781428165435793
16.21,3.0,98.0,23.29941177368164,0.22264966368675232,-79.78286056971001,40.458885005874265,265.2906540430784,0.002788832411170006,-0.003960182424634695,0.9994062185287476,0.03411497548222542,0.003350968269504957,0.008869405329448243,-0.007313639972836402,0.03352351114153862,-0.0015613149153068662,-0.013049956411123276,-0.06301496343221516,0.054500499246642006,-9.790860309004783
16.4,3.299999952316284,97.0,23.268110275268555,0.6838525533676147,-79.78286050209887,40.45888486819419,265.29586214792727,0.0027986785862594843,-0.0039883526042103785,0.9994033575057985,0.034193255007267005,0.00046971825450637294,0.011348773297924905,-0.003681843658823989,-0.018342448398470882,-0.031295184046030045,-0.011657698079943657,-0.0726053427066654,0.0739647563919425,-9.7682894718647
16.51,3.4000000953674316,98.0,23.29064750671387,0.20674611628055573,-79.78286050345653,40.458884857892535,265.2945092566013,0.0027433834038674827,-0.003969360142946243,0.9994031190872192,0.034207094460725784,0.003214022845555005,0.005778925229137436,-0.007061899551235636,0.0094461590051651,-0.02917714230716228,0.008223109878599644,-0.06216895355377345,-0.007222060505300761,-9.821987961530686
16.7,3.5,97.0,23.29315185546875,0.2544567584991455,-79.78286041884792,40.45888468550713,265.298004294157,0.002763769589364529,-0.004034149926155807,0.999405026435852,0.034142713993787766,-0.002063384020300696,0.008358544801044532,-0.010778706517187228,-0.008344300091266632,0.011386801488697529,0.008683104068040848,-0.1039231667853892,0.04773828570730985,-9.807893832921984
16.8,3.5999999046325684,97.0,23.185474395751953,2.639988899230957,-79.78286041465617,40.45888466841536,265.2958365477324,0.0027773927431553602,-0.003988752141594887,0.9994043707847596,0.03416748344898224,-0.0029758342024970665,0.008251223480538559,-0.009956859406606271,-0.010820758529007437,-0.019727841019630432,0.031168945133686062,-0.07903167025186122,0.034858692311681816,-9.796726820468903
17.0,3.5999999046325684,99.0,23.052757263183594,4.516607761383057,-79.78286033910847,40.45888451706379,265.2989011503458,0.0027568184304982424,-0.003954501822590828,0.9994036555290222,0.03419279307126999,-0.00028759936073522417,0.007953434455330116,-0.012891707443296235,0.0027279159985482693,0.002119244541972876,-0.003364706877619028,-0.08851023523136974,0.061304305675439534,-9.79257295846939
17.1,3.799999952316284,101.0,23.02771759033203,5.939975261688232,-79.78286028567126,40.45888435976805,265.30408597958086,0.0026697691064327955,-0.00394694646820426,0.9994022250175476,0.034244269132614136,0.007847560087855556,0.007937084571590671,-0.011334563557050585,0.040854472666978836,0.044837769120931625,0.03229403868317604,-0.07579650176223368,-0.010887077003717422,-9.795532819032667
17.3,3.9000000953674316,104.0,22.91503143310547,7.856352806091309,-79.7828602870992,40.4588843534535,265.3029069997072,0.002736181719228625,-0.004009605385363102,0.9994015097618104,0.034249667078256614,-0.005255251239306921,0.010809554982115959,-0.009872644575305687,-0.0742143988609314,-0.05244836583733559,-0.02560396119952202,-0.08246419597417116,0.127820417387411,-9.812076930999757
17.4,3.9000000953674316,103.0,22.82238006591797,9.136588096618652,-79.78286017688616,40.458884181558716,265.30782800388334,0.0027277558110654354,-0.00384069699794054,0.999400556087494,0.03429986909031868,0.002164819776685309,0.010031505716848679,-0.006702294031845003,0.15584255754947662,0.16333366930484772,-0.11359938234090805,-0.16156739411875606,0.1137899320665747,-9.783752433657646
17.6,4.099999904632568,102.0,22.704687118530273,11.975371360778807,-79.78286017030305,40.458884174309134,265.30681269836424,0.0026910309679806232,-0.003642718773335217,0.999396562576294,0.034439794719219215,-0.0006726209318914947,0.004941201102132396,-0.009565057547540085,-0.002765423385426402,0.03096872940659523,0.036093637347221375,-0.004629371966002509,0.1776054843887687,-9.859423005580902
17.7,4.199999809265137,105.0,22.61579132080078,13.65319538116455,-79.78286011714832,40.45888397753298,265.3137627042532,0.0019088302506133914,-0.0026087076403200626,0.9993919730186462,0.03471885994076729,-0.00708211269142193,0.004041445525376536,-0.006616674812496118,-0.035656895488500595,0.02789963968098164,0.06224920600652695,-0.052634351234883074,-0.13987247901968658,-9.817580330371856
17.9,3.9000000953674316,108.0,22.445512771606445,16.53173828125,-79.7828601185833,40.45888397563067,265.3132271565199,0.0013429599348455667,-0.0014757970348000526,0.9993927478790284,0.034789249300956726,2.066839884344344e-05,0.006161243639570975,-0.003828674445788661,-0.023981666192412376,0.014165132306516169,-0.002624460030347109,-0.04371259193401784,0.04566702376585454,-9.840216071605683
18.0,3.799999952316284,110.0,22.330324172973643,18.360645294189453,-79.78286011710756,40.45888378346966,265.3174306399822,0.0002094233495881781,0.0024880105629563327,0.9993554949760436,0.03581152483820915,0.0005528945070532033,-0.00010119499555337625,0.000936847803632814,-0.029124483466148376,0.12549500167369845,0.09001042693853377,-0.0035582682676613326,0.028127112700603904,-9.760272939205173
18.2,3.5999999046325684,111.0,22.15629005432129,22.14569091796875,-79.7828601119088,40.45888358321096,265.3257727868557,-0.0009470056975260377,0.0036152498796582218,0.9993083477020264,0.03700006008148194,0.02379896872793336,0.012269108471895643,-0.0030358196739009714,0.056798625737428665,-0.021532945334911343,0.19050176441669464,0.05436502656899393,-0.013435933124274015,-9.873399020433428
18.3,3.4000000953674316,113.0,22.05988121032715,23.950742721557607,-79.78286020588263,40.458883570918964,265.3304689623117,0.001959329005330801,0.007516757119446994,0.9992141723632812,0.03886831179261208,0.061151897822041015,-0.008121174399244556,0.08182703496220332,-0.10534798353910446,0.12665486335754395,0.03832558169960976,-0.13476379411295056,0.16251283407211306,-10.412861967086792
18.5,3.2000000476837163,116.0,22.251445770263672,19.291004180908203,-79.78286025011697,40.45888334783041,265.348328138113,0.0091116139665246,0.008340295404195786,0.9991088509559632,0.04036033526062965,0.062323009487677036,-0.0015445643668191133,0.20481849582369147,-0.20941729843616488,-0.020475367084145542,-0.0014078227104619145,-0.04699042225722224,0.18059511093422773,-10.979779930114749
18.6,3.0999999046325684,117.0,22.17381858825684,21.25509262084961,-79.78286051096302,40.458883173434295,265.40784906071417,0.012384364381432532,0.00501120463013649,0.9989305734634399,0.044263754040002816,0.08067551837372612,-0.0013472480801503244,0.3291829794173222,0.1613045334815979,-0.10691282898187636,0.06300081312656403,0.11267752669751645,0.019529883004724986,-10.232427417039874
18.8,3.0,116.0,22.17632293701172,20.53148078918457,-79.78286057085475,40.45888318659585,265.4409909866452,0.009592446498572826,0.004024396184831858,0.9989112019538879,0.04547777026891709,0.05973918937662289,2.0229022509207252e-05,0.32678992772900545,0.08894897997379303,-0.13118712604045868,0.1669657826423645,0.15384090162813666,-0.10551694418303667,-9.903626786470412
18.9,2.9000000953674316,118.0,22.16254997253418,21.11195945739746,-79.7828607075218,40.45888304020403,265.4958180732727,0.006787502206861973,0.0016740038990974426,0.9987950921058656,0.048576343804597855,0.06851137879217241,0.013189780714243735,0.24760452058401514,0.031175939366221424,-0.0033942314330488443,-0.01723790355026722,0.17408003361895685,0.2002647241204977,-9.624128708839416
19.1,2.700000047683716,122.0,22.138761520385746,21.68448829650879,-79.78286078136472,40.45888303504353,265.5206326631531,0.007127832155674695,-0.00048330635763704777,0.99880188703537,0.04841307923197746,0.06050748258416162,0.008327190850913394,0.2446051596640043,-0.0544426366686821,0.07241164892911911,-0.0027074997778981924,0.006527685374021531,0.29907146757468583,-9.759484734535217
19.21,2.5999999046325684,124.0,22.034839630126953,23.20327568054199,-79.78286063664372,40.458882748242715,265.55910988931356,0.010743607766926287,-6.692259921692312e-05,0.998920202255249,0.04520056024193764,0.04826046636557018,0.02897051632923878,0.2320391641697169,-0.119328074157238,-0.01431679166853428,-0.10125680267810824,-0.08651700164191425,0.17897559665143492,-9.908476467132571
19.4,2.4000000953674316,125.0,22.09243392944336,22.304725646972656,-79.78286096201245,40.45888251834901,265.5747997596562,0.013182164169847964,-0.0004241060523781925,0.9989832639694214,0.043110337108373635,0.09190065091422836,0.013297323825182231,0.2436070425568257,0.08750057220458984,-0.07791107147932053,0.03559789806604385,-0.006125840046443045,-0.0909417450428009,-10.025005627870561
19.5,2.4000000953674316,125.0,22.08867835998535,21.70834350585937,-79.78286112391784,40.45888251318744,265.62767467868326,0.01039845123887062,0.0016399241285398602,0.999134600162506,0.04024087265133858,0.08039466713675565,0.0027351123338239017,0.2896588583820299,0.1613914519548416,0.07681108266115189,-0.027656540274620056,0.009660083338385448,0.3238653247430921,-10.091777322292328
19.71,2.299999952316284,125.0,22.124988555908203,21.756053924560547,-79.78286099161397,40.45888213749559,265.66159821522234,0.006395656149834394,0.0026750329416245213,0.9992148876190186,0.03900706768035889,0.043480661639663014,0.03015644629875596,0.3008837872590793,0.027413202449679368,0.09681767225265504,-0.09470731765031816,0.06308588376268745,0.3319952202960849,-10.033171849250794
19.8,2.299999952316284,125.0,22.126239776611328,22.12978744506836,-79.78286108559692,40.458882088001225,265.722936461091,0.009940179064869879,0.0010740336729213595,0.9993137121200562,0.03566987067461014,0.030842814138151656,0.03869142895242366,0.3055185532538265,-0.16663578152656555,-0.16720627248287198,-0.08860097825527191,-0.028383773490786555,0.13226162435486913,-9.76198383450508
20.0,2.200000047683716,126.0,22.084922790527344,21.962799072265625,-79.78286093868343,40.45888215744297,265.7939524300098,0.01259705051779747,-0.0006163995712995527,0.99933260679245,0.034283507615327835,0.005549543487472068,-0.011629956548815549,0.3206349093559729,-0.1330699324607849,-0.09601984173059464,-0.08446670323610306,-0.056890411600470536,0.05034486937802285,-9.818671420812608
20.1,2.299999952316284,123.0,22.129995346069336,21.87532997131348,-79.78286097331787,40.45888196847359,265.8755527682304,0.015047297812998297,-0.0037733546923846006,0.999360203742981,0.03222678601741792,0.015786214009268353,-0.0038320715941747774,0.31696670304752617,-0.019164545461535454,0.061812702566385276,-0.09193871915340424,-0.01660524734761566,0.21440146431326867,-9.802131401896476
20.31,2.299999952316284,124.0,22.80234718322754,10.321402549743652,-79.78286097326234,40.45888197094917,265.90748768520353,0.013969158753752708,-0.002893528901040554,0.9994022846221924,0.03149069845676422,0.0015705497834435755,-0.005742728924650534,0.3198748351452982,0.053862545639276505,0.08836264908313751,0.057614341378211975,0.00945319811347872,0.1664623724296689,-9.841806514263151
20.42,2.4000000953674316,125.0,22.0135555267334,23.4179744720459,-79.78286115701894,40.4588818858896,266.00235512328146,0.007162447553128005,-0.00396229000762105,0.9994469285011292,0.03223133087158203,0.03034611349254125,0.0042498265456442,0.14309827096250555,0.07199960947036743,-0.015435931272804737,-0.02596391923725605,0.042071703337132935,0.283224544711411,-8.649915338158609
20.6,2.4000000953674316,121.0,21.89335823059082,27.043983459472656,-79.78286119397377,40.4588818809159,266.0135222918987,0.003378409659489989,-0.005005490034818649,0.9994716644287108,0.03193766623735428,0.03846479484660017,0.00844392778449247,0.09462018067169208,0.13726568222045898,-0.006231321953237057,-0.013080207630991936,0.01850156219559721,0.14371692281216386,-9.235282436013224
20.71,2.4000000953674316,122.0,21.759389877319336,27.95048522949219,-79.7828612039918,40.458881598459676,266.0831724948883,0.0058705098927021035,-0.0015994696877896786,0.9995133280754088,0.03059553168714046,0.010925646515002534,0.023869505649365186,0.2650524340135716,-0.2254296392202377,0.09859820455312727,-0.1498708724975586,-0.12486847797408698,0.4326099776476622,-10.540601409673693
20.9,2.4000000953674316,122.0,21.610395431518555,30.41553497314453,-79.78286104452133,40.458881399094146,266.1541430301666,0.008235697634518147,0.002688900101929903,0.9995486736297609,0.028765022754669183,0.049181052912020656,0.03256731191109726,0.4474992652512392,0.06705881655216217,0.004742390010505915,0.08631669729948044,0.08697877636179327,-0.14697935851290822,-11.192539057731633
21.01,2.4000000953674316,120.0,21.59537124633789,30.26445198059082,-79.78286107461899,40.458881369841336,266.20801972818373,0.01186770386993885,0.0036415816284716134,0.9995723366737366,0.026481078937649727,0.02205463923741936,0.04236844649706986,0.6298705500556051,-0.1294449418783188,-0.08541753888130188,-0.05764033272862434,0.15298841413110495,0.16917314160615207,-11.527795014381411
21.1,2.4000000953674316,115.0,21.576589584350586,31.4810733795166,-79.78286104921341,40.458881230888046,266.38461714458464,0.01833691447973252,-0.00761323655024171,0.9995407462120056,0.02289572916924953,0.0272271293722042,0.04618938712601359,1.034180821025894,0.08295464515686035,-0.08772896975278854,0.05122070759534837,0.07828593098558485,0.21763848289847376,-11.940716028213501
21.3,2.4000000953674316,113.0,21.493953704833984,32.872634887695305,-79.78286082510013,40.458880953408745,266.6522210187912,0.0049647283740341655,-0.007117627188563347,0.9997270703315736,0.021694352850317955,-0.0005854232838542902,0.06307498443575052,1.468277905512645,0.09477747976779938,0.035716235637664795,-0.05883059650659561,-0.055418649148195984,0.3244888206571341,-11.983166813850405
21.4,2.5,112.0,21.45013236999512,33.31793212890625,-79.78286079262166,40.45888086727134,266.81075626087187,0.00045924403821118176,-0.004958629608154297,0.9997527003288268,0.021676771342754364,-0.01158501530537564,0.07942621096110193,1.7130475075391691,-0.0031133315060287714,0.07782890647649765,-0.028313826769590374,-0.0406139924749732,0.2789663464576006,-12.174051507711413
21.61,2.5999999046325684,109.0,21.557809829711914,31.01987075805664,-79.78286067785213,40.458880458361016,267.22349231910704,0.006577088963240385,0.0036518310662359,0.9997012615203856,0.023255899548530586,0.004208675674400443,0.1201454372460353,2.1575439316058698,-0.2003607153892517,0.09459631145000458,0.03809648379683495,0.02762461303733289,0.27297647701576355,-11.862230021953586
21.8,2.700000047683716,107.0,21.48644256591797,31.94227600097656,-79.78286069511032,40.4588803523986,267.4487857170105,0.015563387423753737,0.007106611970812081,0.9995442628860474,0.02487293444573879,0.038779870648706916,0.13128155418494394,2.3515700354086304,-0.2603216767311096,0.10992677509784696,-0.07621631771326065,0.009252241188660264,0.4297759418562055,-11.81486874461174
21.91,2.799999952316284,102.0,21.58785820007324,29.75553894042969,-79.78286064681423,40.45887985489999,268.012103969574,0.015860166400671002,0.012014778330922129,0.9994378089904784,0.02698574773967266,0.11739462163135968,0.15481415297432466,2.7562494844362493,0.014423346146941185,0.02869976311922073,-0.024248838424682617,0.2067203060165048,0.5892493201419712,-11.677207746505735
22.0,3.0,99.0,21.67550277709961,27.94253349304199,-79.7828606705712,40.45887978162893,268.29613416862486,0.011645657010376452,0.01192038506269455,0.9994651675224304,0.028138313442468643,0.09593190615543996,0.14872299354211718,2.9084014104162947,-0.061433963477611535,-0.05025794729590416,0.016080398112535477,0.13024946954101324,0.3649262272194028,-11.367231642007829
22.2,3.0,100.0,21.63919258117676,28.77746963500977,-79.78286048692426,40.45887936287857,268.964701587677,0.020176267251372337,0.010009665973484516,0.9992011785507202,0.0330103412270546,0.05276962500388205,0.1265082282632755,3.0882507357729527,-0.2389271259307861,-0.07412581145763397,0.12279344350099565,0.07348660946823657,0.15565982423722746,-10.386776368618012
22.4,3.2000000476837163,103.0,21.642948150634766,27.41771697998047,-79.78286032409689,40.458878965303725,269.38699000549315,0.03105394728481769,0.006854949984699489,0.9988848567008972,0.03489841893315315,0.06934831395149199,0.12544763377165555,3.1688022786364733,-0.06684359908103943,-0.1393183320760727,0.03346425667405128,0.13447956461459398,0.13310548720881346,-10.17470604300499
22.5,3.299999952316284,98.0,21.6917781829834,27.12350082397461,-79.78286024853445,40.45887891310728,269.70534938049315,0.028470413759350777,0.004539303947240114,0.9989655613899232,0.035166196525096886,0.10464067910242014,0.10192079201254868,3.1974601000881635,0.06783608347177505,0.03874287754297257,-0.12567007541656494,0.05167386383749545,0.6170065279304981,-10.113986216783523
22.6,3.5,100.0,21.756885528564453,26.185192108154297,-79.78285962851935,40.458878510189436,270.47035735321043,0.00682970741763711,0.00893404521048069,0.9993903636932372,0.03305467963218689,-0.013890443223489342,0.077414996000922,3.2976276300975584,0.15482448041439054,0.10307712107896803,-0.036405839025974274,0.09927546174265443,0.16813862297683954,-9.99716352581978
22.8,3.5,101.0,21.783178329467773,25.97049331665039,-79.78285930881599,40.45887846010678,271.1297449417114,0.013760439120233059,0.014854744076728819,0.999330461025238,0.030472833663225174,-0.10338747913261886,0.08657897723785035,3.2969703347294543,-0.1841925531625748,0.02557774074375629,-0.0660645067691803,0.05995834058616311,0.2719293137826025,-9.815146719217301
22.9,3.5999999046325684,107.0,21.809471130371094,25.652421951293945,-79.78285844362208,40.45887787513743,271.64592736434935,0.01861182600259781,0.013861704617738724,0.9993035197257996,0.029224315658211705,-0.10303599824855154,0.1054379554722651,3.366331702123384,-0.09341687709093094,-0.02563387900590897,0.03052991069853305,0.07188377802260221,0.12421176256611945,-9.71188430607319
23.1,3.5999999046325684,107.0,21.779422760009766,25.723989486694336,-79.78285764966816,40.45887728259858,272.3605093307495,0.015822075307369232,0.002800087677314877,0.9995551109313964,0.02512926235795021,-0.10503832538945902,0.07586675702477297,3.336737768676,0.12909449636936188,-0.05789976567029952,-0.003685188479721546,0.13232421697117389,0.13264368508011104,-9.608753455281258
23.3,3.700000047683716,102.0,21.706802368164066,25.978445053100586,-79.78285735397895,40.45887725849552,272.6922449417114,0.013797913677990437,-0.001456123893149197,0.9996414184570312,0.022902991622686386,-0.1774545841196475,0.0419989699715968,3.3042711393643347,-0.15270879864692688,-0.05117562040686608,-0.16626188158988953,0.020506491358391943,0.29591457411646843,-9.41753547012806
23.41,3.799999952316284,99.0,21.870820999145508,23.338457107543945,-79.78285716906007,40.458876810080106,273.0884432144165,0.0132428128272295,-0.0043890303932130345,0.9996683597564696,0.02164812013506889,-0.17393515749151248,0.06774607468959909,3.2432481619386384,-0.06892786920070648,-0.2223397195339203,0.050612807273864746,0.21245255079120398,-0.2499418643116951,-9.1838912576437
23.5,3.9000000953674316,86.0,21.731843948364254,26.3521785736084,-79.78285657383918,40.45887656187186,273.7263778991699,-0.0012047177879139779,-0.011267423629760742,0.9997236728668212,0.02060089074075222,-0.18560193530642635,0.1011149410618821,3.166353545917377,0.14131730794906616,0.12862993776798248,-0.06093808636069298,0.2357506901957095,0.17849133756011726,-9.501376356482506
23.8,4.0,78.0,21.600378036499023,28.39578437805176,-79.78285625367272,40.45887601355844,274.37126582336424,-0.0037092971615493298,0.01835942640900612,0.9996101260185242,0.02070837840437889,-0.2648626162314914,0.2617572676271338,3.071688011840912,-0.2459568232297897,0.3096979558467865,-0.10833606123924257,0.5241231783851982,0.1278498727362603,-9.47138715684414
23.9,4.099999904632568,53.0,21.65797233581543,27.46542739868164,-79.7828562284295,40.45887600284454,274.736644203186,0.0012286124983802438,0.031136922538280487,0.999254047870636,0.022810805588960648,-0.19667396886471555,0.32207676912778416,3.0423859971447325,-0.08299467712640762,0.13509008288383484,0.09572664648294447,0.5034491414576769,0.10690237797796727,-9.621223227381707
24.0,4.099999904632568,39.0,21.554052352905273,28.95240974426269,-79.78285588894093,40.45887561961323,275.3447164840698,-0.0017502282280474901,0.03763170912861824,0.998917520046234,0.02728930860757828,-0.1574662335781134,0.4268372376464234,3.0077527779824216,-0.08089496940374374,0.003739446401596069,-0.09198196232318878,0.5161768854036928,0.3874561703950167,-9.658193417787553
24.2,4.099999904632568,23.0,21.589111328125,28.419639587402344,-79.78285616123787,40.45887551145436,275.647119934082,-0.003517675912007689,0.033718042075634,0.9990312457084656,0.028057973831892014,-0.07930406716270574,0.3862238469495175,3.0014016862157207,0.15718334913253784,-0.16720516979694364,0.07730090618133545,0.5846935717016459,-0.12444492029026152,-9.957851525545117
24.31,4.099999904632568,17.0,21.632932662963867,27.41771697998047,-79.78285593450553,40.45887543490471,276.25045722198485,-0.0017593264346942306,0.027912890538573258,0.9992659687995912,0.02617898210883141,-0.07160765664025551,0.2791214022031324,3.036756574481743,0.03918277472257613,8.072793571045622e-05,0.07285111397504808,0.5658683878183365,-0.05169972863048315,-10.089078247547151
24.4,4.199999809265137,5.0,21.644201278686523,27.32229423522949,-79.7828558884912,40.45887534305717,276.5561355895996,0.004113396164029837,0.02833213284611702,0.9992935657501221,0.02434621378779412,-0.06587927127386647,0.2758722959364908,3.0523818983113165,-0.26079699397087097,0.07083876430988313,-0.12649942934513092,0.5206601283699275,0.34826787527650604,-9.923593858480453
24.61,4.300000190734863,1.0,21.59537124633789,28.181087493896484,-79.7828561410402,40.45887508955853,277.15984671783445,0.007211215328425169,0.028170375153422363,0.9993445873260498,0.021562768146395683,0.06012669745623425,0.25517333035799944,3.047563951974688,0.2215743511915207,0.053836625069379807,0.07718607783317566,0.6009783596545458,0.010346081648021936,-9.973771154880524
24.71,4.300000190734863,351.0,21.656721115112305,27.218921661376953,-79.78285614717497,40.458875015727074,277.4670366592407,0.004869533237069845,0.028227042406797413,0.9993700981140136,0.020952235907316208,0.027396704511235832,0.2505070424853619,3.0718954116667128,-0.073757104575634,0.11756250262260436,-0.03371905907988548,0.4725515768676997,0.28635518051683906,-9.915255728960037
24.9,4.300000190734863,352.0,21.72808837890625,24.197248458862305,-79.78285633683302,40.458874627319176,277.8115171737671,0.0024414078798145056,0.02918089739978313,0.9993503093719482,0.021015791222453117,0.04528327749645398,0.2808352832870115,3.0753166945484804,-0.13630440831184387,0.03995544463396072,-0.10642175376415253,0.5070071356371045,0.35102198693901304,-9.957096065282824
25.1,4.300000190734863,350.0,21.709306716918945,25.10375022888184,-79.78285642518927,40.458874458653604,278.4310955352783,0.002921543316915632,0.03255031630396843,0.9991815686225892,0.02383849211037159,0.05324545430938027,0.2770270302297527,3.0819991061367222,0.12448739260435104,0.05081843584775925,0.11214406043291092,0.7000104584544897,-0.006553422259166837,-9.815154905319217
25.2,4.199999809265137,349.0,21.705551147460934,25.47748374938965,-79.78285678031904,40.45887386796122,278.79639571380613,0.0038962613325566045,0.03244974836707115,0.9991189241409302,0.026328595355153084,0.08011362299351363,0.3255696100729085,3.0756382742869484,0.001559494761750102,0.09288492798805237,0.0950976461172104,0.5720689945667983,0.06623278213664889,-9.728759370446202
25.3,4.099999904632568,348.0,21.604135513305664,27.664220809936523,-79.78285706863525,40.458873329608075,279.4695982284546,0.003337826114147901,0.03276205062866211,0.9990254044532776,0.029389709234237667,0.09508857126388454,0.31761530030677976,3.0369775679660864,-0.03764615580439568,-0.08321668207645416,-0.042909950017929084,0.37110567435622216,0.19505324698984625,-9.495930259823801
25.5,4.099999904632568,347.0,21.669240951538086,26.495309829711914,-79.7828572396782,40.45887314781529,280.0774292297363,0.0024090108927339315,0.023434771224856377,0.9993175268173218,0.028452686965465542,0.036766753898776025,0.26800249615455524,3.023329046536148,-0.11460503935813905,-0.013533554971218107,-0.14340096712112427,0.3928073959797621,0.14595704594627024,-9.701489126086237
25.7,4.099999904632568,343.0,21.602882385253906,26.82928466796875,-79.78285793039848,40.45887241036179,280.4715637512207,0.0020456616766750813,0.01917587406933308,0.9994997382164,0.02507073804736137,0.10424271870040384,0.29789851804176204,3.0456097693779567,-0.11354117840528488,-0.06308316439390182,-0.21691036224365234,0.4549081518128514,0.2698151250556112,-9.6973726862669
25.8,4.099999904632568,339.0,21.64169692993164,26.805429458618164,-79.78285807495222,40.45887227344286,280.77703326416014,-0.003942644223570825,0.017726844176650047,0.9995895624160768,0.02215832658112049,0.11710230132425205,0.27635739823502115,3.0480749204572124,0.028524547815322883,0.10739155113697052,-0.14086318016052246,0.4393713323771954,0.18467962861061096,-9.76340236902237
25.9,3.9000000953674316,334.0,21.610395431518555,27.529041290283203,-79.78285897129014,40.4588717456383,281.477686340332,-0.007978224195539951,0.029909662902355194,0.9993605017662048,0.0178977157920599,0.11311417263073015,0.3130875302205683,3.0640052478405684,-0.0940038338303566,-0.0005670867394655943,-0.01566559076309204,0.42967895116657023,-0.1275303315371275,-9.6552364808321
26.11,3.9000000953674316,331.0,21.620410919189453,26.28061294555664,-79.78285898473817,40.45887178116164,282.15857165527336,-0.00955679174512625,0.02760297991335392,0.9994295239448548,0.016954541206359863,0.1325146821603352,0.2855365405305381,3.142717599539241,0.14925575256347656,-0.06855732947587967,0.10319619625806807,0.5672414236888289,-0.3596059553325177,-10.181011680364607
26.2,3.9000000953674316,326.0,21.652965545654297,26.08976936340332,-79.78285918302075,40.4588717162792,282.4753727264404,-0.0057335225865244865,0.02464392781257629,0.9994874596595764,0.0196144599467516,0.08979859543275973,0.2381914675097944,3.1681126632817804,-0.1422206610441208,-0.0012473156675696373,0.06829814612865448,0.2938337510637939,-0.23886895548552275,-10.036170301437377
26.41,3.9000000953674316,325.0,21.600378036499023,27.266632080078125,-79.78285993428351,40.458871037013566,283.1645550079345,0.002838121959939599,0.023240622133016583,0.9994083046913148,0.025198597460985184,0.16557550504009402,0.281876161879292,3.145422504818188,-0.010166947729885578,-0.11743200570344925,0.04838835448026657,0.5237223517522216,0.1232769937813282,-9.61981931090355
26.6,3.9000000953674316,322.0,21.710559844970703,25.453628540039066,-79.78286014218496,40.45887092725083,283.47928851318363,-0.0022401008754968643,0.015512173995375632,0.9994550347328186,0.029052237048745155,0.17137056485928595,0.2926118328774356,3.1276666947776093,-0.04923008382320404,-0.20627157390117645,0.06077980622649193,0.5282440401613713,0.2156393198668957,-9.610259698033332
26.7,4.0,324.0,21.62541961669922,26.527118682861328,-79.7828607552726,40.45887053925516,284.15784877014164,-0.013888570480048656,0.00620802491903305,0.9989885091781616,0.042316678911447525,0.1415664533943641,0.21577884781025908,3.1508076749653795,0.12842918932437894,0.036158706992864616,0.2399580180644989,0.4063981158658863,-0.4604413719847799,-9.786350936293603
26.8,4.099999904632568,319.0,21.650461196899414,25.97049331665039,-79.78286070481494,40.45887060558044,284.511040145874,-0.006366216111928225,0.014654939994215962,0.9986091256141664,0.050246018916368484,0.053697815774821286,0.18330953336132733,3.1833536207737763,-0.2921487689018249,0.3772945702075958,0.042533114552497864,0.36610140793025503,-0.02687541112303734,-9.941971657276154
27.0,4.099999904632568,318.0,21.576589584350586,27.05988693237305,-79.78286106164951,40.458870331927216,285.1496815032959,0.0027684103697538376,0.03539962321519852,0.9980230927467346,0.05185670033097267,0.116783086340194,0.3535968931570593,3.1906998778863334,0.06109822541475296,0.2047407180070877,-0.11688798666000365,0.6279083691537379,0.015020400658249855,-9.957676109075548
27.1,4.099999904632568,318.0,21.664234161376953,25.906879425048828,-79.78286098187422,40.45887046766311,285.4998287506104,-0.0038980774115771055,0.03910466283559799,0.998258411884308,0.04399838671088219,0.08333723524948056,0.34333723871262023,3.2030492530757333,0.06472513824701309,-0.05570662766695023,-0.1935538500547409,0.4955238619074226,-0.08504539450630548,-9.884616318941118
27.3,4.099999904632568,322.0,21.572834014892575,27.15530776977539,-79.78286122118745,40.458870296485465,286.13932650756834,-0.0153568796813488,0.03445177897810936,0.9989009499549866,0.027823973447084427,0.006029453814245096,0.3212671269205403,3.16904991779892,0.09281107038259506,-0.0023097998928278685,-0.09502490609884262,0.5971189415082335,-0.2555580418556929,-9.738992582559586
27.5,4.300000190734863,325.0,21.815731048583984,21.54135513305664,-79.78286113772705,40.45887033727987,286.4518169708252,-0.012945976108312609,0.03231088072061539,0.9991567134857178,0.02178172767162323,-0.002846109928075085,0.28242054428274543,3.1566456878603666,0.025467216968536373,0.06310825794935226,-0.07034597545862198,0.5683468032628298,-0.058060201909393074,-9.801792263388633
27.61,4.300000190734863,325.0,21.85329246520996,21.01653861999512,-79.78286105724976,40.458870226512296,287.09321444702147,-0.010581915266811848,0.028427341952919963,0.9993946552276612,0.01703851856291294,0.005281820163989603,0.2335065194097005,3.1313672380869706,0.01907144300639629,-0.002617224585264921,0.0008825600962154568,0.4135466293618083,-0.18990727694705128,-9.577285494804382
27.7,4.400000095367432,323.0,21.96347427368164,19.56931495666504,-79.78286115836113,40.4588701830276,287.4036468811035,-0.012330235913395882,0.03171652927994728,0.9992694854736328,0.01739318110048771,0.018696753254243227,0.21966142677402373,3.0546508996439456,0.03062459453940392,0.094939723610878,0.043346524238586426,0.5117427590489387,-0.2401842683739961,-9.139633682370187
27.91,4.400000095367432,323.0,22.027328491210934,18.670764923095703,-79.78286117939997,40.45887021768997,288.0204204864502,-0.017136737704277042,0.034129392355680466,0.9990605115890504,0.020484838634729385,0.006658178415266946,0.22316733214030865,2.827161241960221,0.11069571226835252,-0.050039343535900116,0.060359176248312,0.6323360270261765,-0.24854874690994624,-8.583572244644165
28.01,4.300000190734863,320.0,21.937179565429688,20.300878524780273,-79.7828612958279,40.458870198110795,288.29702418518065,-0.02054339461028576,0.031211027875542637,0.999053418636322,0.022274402901530262,0.00013334467786730426,0.20958810098629072,2.68922752407444,-0.016739318147301674,-0.059571567922830575,-0.04658422991633415,0.6657477481663228,-0.08642142707481981,-8.450669125914574
28.21,4.300000190734863,318.0,22.002286911010746,18.638957977294922,-79.78286122222045,40.45887010202278,288.605148727417,-0.020919913426041603,0.03009355440735817,0.9990474581718444,0.0236858818680048,-0.013144229862692577,0.1798060335881032,2.602691304140829,-0.060605064034461975,-0.05993494391441345,0.033973656594753265,0.4678344087302685,-0.2797682007215917,-8.459524734020231
28.3,4.099999904632568,320.0,21.948448181152344,20.125940322875977,-79.78286148368771,40.458870079265935,289.10348933410637,-0.014271383173763754,0.031137673184275624,0.9991207122802734,0.024181727319955826,0.03988265819484688,0.16446311353430282,2.3685556705254545,-0.06440097838640213,0.02457672730088234,-0.07919061183929442,0.5735242934525013,-0.0627749763429165,-8.588576291799546
28.51,4.0,321.0,21.89335823059082,21.000635147094727,-79.78286151506852,40.45887005378231,289.3626789398193,-0.012518240138888359,0.03071207366883755,0.9991782307624816,0.023305438458919525,0.07254167981373448,0.16608384593828907,2.2745912709674987,-0.029755296185612682,-0.06730151176452638,0.0051239789463579655,0.4854811228439212,-0.16924129821360112,-8.567621625065804
28.6,3.9000000953674316,321.0,21.86581420898437,21.50954818725586,-79.78286165920835,40.458869976395306,289.82690852355955,-0.007918918505311012,0.025171974673867226,0.999398410320282,0.02250534668564796,0.09903039040626432,0.14950910334260753,2.0958714888339296,-0.1035214141011238,-0.009517708793282507,0.0909935012459755,0.430522923655808,-0.3685874247550964,-8.810733064413071
28.8,3.9000000953674316,321.0,22.043603897094727,17.8835391998291,-79.78286182766735,40.458869950347,290.0329422302246,-0.002811484970152378,0.02473276667296886,0.9994342923164368,0.022619521245360368,0.10786730092243954,0.14331430767183473,2.015066625426172,-0.10081229358911514,0.034759819507598884,-0.10447274893522264,0.5187113975733519,0.050282555418089035,-8.889723100662232
29.0,3.700000047683716,318.0,21.96096992492676,19.418231964111328,-79.78286186570085,40.458869884285825,290.4618210144043,-0.002588254865258932,0.03059567883610725,0.9992624521255492,0.023062508553266525,0.11730887112183055,0.15412825275229514,1.8415815230399195,0.002117836382240057,0.052346546202898026,0.056747205555439,0.4931245300546289,-0.03998702477663756,-8.638192840218544
29.1,3.5999999046325684,319.0,21.98350715637207,19.33076286315918,-79.78286195355534,40.45886986440176,290.8560394592285,-0.001526314881630242,0.03300153836607933,0.9991697669029236,0.023841807618737217,0.100495943865765,0.16552147956238314,1.6815325915153825,-0.010778715834021568,0.013080596923828123,0.06392727047204971,0.6579572834819556,-0.24154400182887914,-8.843484488725663
29.21,3.5999999046325684,320.0,21.998531341552734,19.012691497802734,-79.78286208145738,40.458869816788244,291.02084391784666,0.0013367739738896491,0.032441481947898865,0.9991660714149476,0.02475770004093647,0.0910385854638099,0.16136676927708926,1.5987680780901161,-0.05875824391841888,-0.012139954604208471,0.105968177318573,0.5670043921843171,-0.17989870755001902,-8.915383021831511
29.4,3.5,320.0,22.084922790527344,16.85776138305664,-79.78286201127284,40.458869835094205,291.36559336853026,0.0018188640242442489,0.03148343041539192,0.9991939663887024,0.024838680401444442,0.06773666188728336,0.1450414617442536,1.4662210015879948,-0.04346053302288056,0.06666137278079988,-0.03891942650079727,0.5368659423664213,-0.08573143735527992,-8.746584430933
29.5,3.5,319.0,22.01605987548828,19.291004180908203,-79.78286210874694,40.45886979530032,291.50581782531737,0.003432538826018572,0.03443816676735878,0.9990993738174438,0.024550430476665497,0.04796222389960963,0.13110224633919648,1.3324971356369977,-0.1028628870844841,0.09775972366333008,0.03056226670742035,0.5605051023513079,-0.18683728773146868,-8.556848130226136
29.7,3.4000000953674316,319.0,22.192598342895508,17.86763572692871,-79.78286204512585,40.45886989491385,291.65860217285154,0.003705579787492753,0.03578413277864456,0.9990631937980652,0.0240547638386488,0.05050833983944476,0.13551396435575416,1.239003314234565,0.010658808052539824,-0.05461274459958077,0.001318223774433136,0.7049477011710406,-0.2486964987404645,-8.423380755186079
29.9,3.299999952316284,321.0,22.018564224243164,18.432212829589844,-79.78286200302499,40.4588698644447,291.8330196685792,0.007409259211272001,-0.02048711664974689,-0.999674916267395,0.013245741836726664,-0.01749922201841856,0.0932419133676412,0.7373890591041898,0.007915922440588474,-0.2174067199230194,-0.7947759032249451,0.3908857816457749,-0.2566496987454593,-7.551787188649177
30.01,3.2000000476837163,321.0,21.984758377075195,19.728351593017575,-79.7828619344722,40.45886978270343,291.953293258667,0.0015663198428228498,-0.017512960359454155,-0.9927398562431335,0.11898970603942872,-0.03259482541659179,0.0680572379000098,0.4708309147508616,-0.011038887314498423,0.06329309940338135,-1.3137143850326538,0.4137065141648054,0.08999707253649833,-8.447031573057176
30.1,3.2000000476837163,318.0,21.849536895751953,21.33460998535156,-79.78286178278509,40.45886966414842,291.9356922454834,0.0027283234521746635,-0.018228804692626,-0.9829272627830504,0.1830691397190094,-0.02129271184745273,0.08343707792278951,0.3664825179648323,0.011525013484060764,0.07402962446212769,-1.3676552772521973,0.2832293503917754,0.05357204362750054,-8.728427656888963
30.3,3.2000000476837163,308.0,21.912139892578125,20.905214309692386,-79.78286147758455,40.45886949175338,291.94550364685057,0.007649020757526159,-0.01867440901696682,-0.9465962648391724,0.32178938388824463,0.005624298162992104,0.1002885122984976,0.2547328001439088,0.0676770806312561,0.0766681656241417,-1.4434820413589478,0.3481317813321948,0.09280901681631804,-9.265430679917335
30.5,3.0999999046325684,314.0,21.72683525085449,24.47555923461914,-79.78286144769982,40.45886940849413,291.9700531311035,0.012512947432696821,-0.019930148497223854,-0.9187816977500916,0.3940642476081848,0.04365640377924794,0.09921194588224036,0.23147277189071824,0.0847315788269043,0.06342494487762451,-1.5946499109268188,0.43535429522395136,0.2186268450692296,-9.493609499931335
30.6,3.0999999046325684,318.0,21.679258346557614,24.88905143737793,-79.78286100542951,40.458869198104466,291.9356178588867,0.013662884011864662,-0.01615866832435131,-0.8440682291984558,0.5358182191848755,0.11699901999062302,0.0729844651370459,0.2522466618798149,-0.08160210400819777,-0.00448060454800725,-1.629014015197754,0.2781655702739954,0.4676866203546524,-10.050366171598435
30.8,2.9000000953674316,306.0,21.70805549621582,24.97652244567871,-79.78286105257806,40.45886905201322,291.963676864624,0.010665527544915676,-0.014689049683511255,-0.7980494499206543,0.6023185849189758,0.17051833325137195,0.035908994882475016,0.3073213189735666,-0.15046535432338715,-0.021032674238085747,-1.7689610719680786,0.14868965081870555,0.6241785033792258,-10.257599680423738
30.9,2.9000000953674316,299.0,21.696786880493164,23.871225357055664,-79.78286036493778,40.458868557067476,291.9871258087158,0.008351330645382404,-0.0137790497392416,-0.6944747567176819,0.7193366289138794,0.2859568975814168,-0.045131528528712495,0.4191336975721121,0.17053765058517456,-0.0799383744597435,-1.3339753150939941,0.15937278790399434,0.1652482346445322,-10.385109912157061
31.01,2.799999952316284,317.0,21.709306716918945,23.871225357055664,-79.78286048270441,40.45886830575242,292.03205149841307,0.007123198360204697,-0.012296794913709164,-0.6465273499488831,0.7627584338188171,0.30618597764828426,-0.10553180464687788,0.4765533624774113,0.10530898720026016,-0.052185382694005966,-1.0666841268539429,0.1289571709278971,0.4579740662500262,-10.3292456138134
31.2,2.700000047683716,327.0,21.67424964904785,25.40591812133789,-79.78285908703573,40.45886812666924,292.13109629821776,0.0020770931150764227,-0.007631701417267322,-0.5787056684494019,0.8154981732368469,0.32994074065063644,-0.11853812248183695,0.5764841683215762,-0.0007932321750558912,-0.11299652606248856,-0.5280154943466187,0.05194472696632147,0.5326716980338096,-10.174619504213334
31.3,2.5999999046325684,324.0,21.228519439697266,32.17287826538086,-79.78285912559348,40.458867801490534,292.1916794128418,-0.0021671827416867018,-0.0057867132127285,-0.5614190697669983,0.8275086283683777,0.3467591982558442,-0.11526446391920675,0.6361479662716814,-0.03543439134955406,-0.2637248635292053,-0.3873755037784576,0.3263892753794789,0.6287210590392351,-10.364526543617249
31.5,2.5999999046325684,327.0,21.602882385253906,25.708086013793945,-79.78285874191415,40.45886777579649,292.0679058380127,-0.02030710317194461,0.005051219835877418,-0.5519658327102661,0.833604097366333,0.3396431123705632,-0.03895098800284594,0.6807993263737266,-0.12302078306674954,-0.6900699734687805,-0.17073887586593628,0.5077611706405878,0.5283890511095524,-10.760759603977203
31.71,2.5999999046325684,344.0,21.660476684570312,25.286640167236328,-79.78285830864013,40.45886712111915,292.05537265014647,-0.07597537338733673,0.04162478819489479,-0.550831139087677,0.8301085233688354,0.4024789154048137,0.0748787797650382,0.7987768037931902,0.0496399849653244,-0.5393167734146118,0.14619557559490204,-0.08399696133099496,0.2335331519320608,-10.630401778221133
31.8,2.5,351.0,21.696786880493164,24.332427978515625,-79.7828578487118,40.458866886632855,292.1368011779785,-0.09418434649705887,0.050857581198215485,-0.5555852055549622,0.8245411515235901,0.41340030740981,0.20295898467036905,0.8789772156039488,-0.02638527378439904,-0.3299510478973389,0.18216028809547424,-0.15958164313808085,0.11420070810243488,-10.515387046337127
31.9,2.5,344.0,21.62166404724121,25.62856674194336,-79.7828561797462,40.45886659395012,292.16379397583006,-0.11114966869354248,0.053524862974882126,-0.5690035820007324,0.8130287528038025,0.4073595121359213,0.5913020854542078,0.9922631275564978,0.022915836423635483,0.019875358790159225,0.24126021564006805,-0.030784466648474337,0.23133350249379875,-10.309459805488586
32.11,2.5,350.0,21.607891082763672,25.723989486694336,-79.78285358184195,40.45886682265864,292.1902450866699,-0.11927226930856705,0.049975521862506866,-0.5774279236793518,0.8061349391937256,0.3502579281029798,1.0643874972817216,1.0827606935084668,0.1101524829864502,-0.04943797364830972,0.1824021190404892,0.09550747943110764,-0.04290833026170731,-10.225035367012024
32.3,2.5999999046325684,357.0,21.64169692993164,26.622539520263672,-79.78285188468872,40.45886701751422,292.27121585083006,-0.1197940856218338,0.048461571335792535,-0.5793742537498474,0.8047523498535156,0.2945700789180383,1.314379253883586,1.1705976718375548,-0.0862579196691513,0.05089309439063072,-0.13798850774765015,-0.016197381215170028,0.5130887515470386,-10.295135296583176
32.4,2.700000047683716,2.0,21.607891082763672,26.01820373535156,-79.78284785499933,40.45886781355065,292.30516284179686,-0.11986102163791655,0.05355583131313324,-0.5798848271369934,0.8040515184402466,0.21930320476789367,1.7752956039039691,1.259267572203118,0.01890713721513748,-0.1481947898864746,-0.017285317182540894,0.033741252855397766,0.2858691672608257,-10.237783466577527
32.5,2.799999952316284,9.0,21.69803810119629,23.871225357055664,-79.7828455339541,40.458868265617156,292.3754429168701,-0.1252017766237259,0.053785592317581184,-0.5779493451118469,0.8046155571937561,0.18862592178575985,1.9912548298878567,1.3272202903085388,-0.10195185989141464,-0.13102276623249054,-0.05097850784659386,-0.10261315293610096,0.3097714519500733,-10.089757694005968
32.7,2.9000000953674316,11.0,21.630428314208984,25.01628112792969,-79.7828402128767,40.4588697981044,292.3927234954834,-0.13969771564006805,0.05212858319282532,-0.5696938633918762,0.8082179427146912,0.12278492508829847,2.438339947038888,1.421703852265749,-0.12239856272935867,-0.16669364273548126,-0.15531615912914276,-0.24677543258294465,0.2516196132078767,-9.985126447677613
32.8,3.0999999046325684,14.0,21.59537124633789,26.86904335021973,-79.78283742651044,40.45887091506403,292.3430237121582,-0.14441268146038055,0.05537332221865654,-0.5657950043678284,0.8099103569984436,0.0991550373415632,2.6549605309757345,1.4585651774734851,0.08140739053487778,-0.06039762124419212,-0.12112211436033248,-0.07275747538078578,0.4550100395455957,-10.065812176465988
33.02,3.2000000476837163,16.0,21.763145446777344,22.614845275878906,-79.78283398163038,40.45887185830173,292.4070648498535,-0.14804881811141968,0.06327719241380693,-0.5628640651702881,0.8107168078422546,0.0819646597411082,2.9097891690923845,1.5710914361036457,0.053158175200223916,-0.23013390600681305,0.04112014919519424,-0.3183839986100793,0.07547187622636557,-10.171676015853881
33.2,3.5999999046325684,15.0,21.620410919189453,24.57098197937012,-79.78282656539258,40.45887460299927,292.43606799316404,-0.15491682291030884,0.07318249344825745,-0.5586932897567749,0.8114843964576721,0.0016280639513487488,3.3895447301629282,1.7333433659008703,-0.013244461268186573,-0.2304676473140717,-0.0008118595578707755,-0.3712522932887077,0.04679110072553158,-9.84585161805153
33.3,3.799999952316284,16.0,21.574085235595703,26.39193725585937,-79.78281770688224,40.45887732834629,292.53833430480955,-0.16179080307483673,0.07552019506692886,-0.5555431842803955,0.8120913505554199,0.0008902010812973232,3.897045538140848,1.9451094798211708,0.0957271158695221,-0.00476883677765727,0.013556276448071005,-0.6288920170068741,0.1968846314772964,-9.904461768865586
33.4,4.300000190734863,20.0,21.706802368164066,23.75194931030273,-79.78281284638528,40.45887942598001,292.5411705322265,-0.1613079458475113,0.07477223128080368,-0.5543907284736633,0.8130435347557068,-0.05640829114394304,4.16059756296644,2.034728220862977,0.005019142758101225,-0.0287002120167017,-0.0869213119149208,-0.7379936789721251,0.2474076993204653,-9.96845018863678
33.6,4.5,22.0,21.700542449951172,22.56713485717773,-79.7828027350313,40.458883514578645,292.58838885498045,-0.15582147240638733,0.0741581916809082,-0.5518429279327393,0.8158981204032898,-0.1163412999150294,4.657028276427637,2.132400423933331,0.07162842899560927,0.0360456220805645,-0.08429009467363358,-0.6933815431594849,0.2267554980888963,-9.85903241157532
33.8,5.0,24.0,21.706802368164066,23.545202255249023,-79.7827970895753,40.458885417512434,292.6261505432129,-0.15366773307323456,0.07540949434041977,-0.5503734350204468,0.8171834349632263,-0.12425228108424995,4.924038315598674,2.1372844604431007,-0.028508033603429794,0.033287957310676575,-0.23193126916885376,-0.7835298210382462,0.37625444009900094,-9.645501451492311
33.91,5.199999809265137,25.0,21.56782531738281,26.479406356811523,-79.7827911908184,40.45888741543227,292.65844004821776,-0.15393266081809998,0.07476388663053513,-0.5490185618400574,0.8181038498878479,-0.11966407840620172,5.161802680129572,2.155993226851123,-0.012515722773969172,0.06614290177822113,-0.01960720308125019,-0.7331328155100346,0.4138203155994416,-9.541929720640184
34.0,5.599999904632568,28.0,21.666736602783203,24.61074066162109,-79.78277910997771,40.45889262627731,292.6837677307129,-0.15581277012825012,0.06847182661294937,-0.5478283166885376,0.8190959095954895,-0.17201852862222206,5.6182611818430805,2.212439868454989,0.13889944553375244,0.033401384949684136,0.04093347489833832,-0.8693447273969651,0.2981786891072989,-9.645997880101202
34.2,5.800000190734862,29.0,21.765649795532227,20.952924728393555,-79.78276619872018,40.458898433999636,292.70623820495604,-0.14742493629455564,0.07083620876073837,-0.5498774647712708,0.8190744519233704,-0.2874173999774673,6.051042640987928,2.2582363875380165,0.16393887996673584,0.07860884815454483,0.03519738093018532,-0.963046942949295,0.3840944599360228,-9.618834639787677
34.4,6.300000190734862,32.0,21.73434829711914,22.59099006652832,-79.78275920672222,40.458900985634386,292.71738093566887,-0.14223787188529968,0.07115447521209718,-0.5515486598014832,0.8188404440879822,-0.3316001254458719,6.2914712880336365,2.22358484050861,-0.05880368500947952,0.1478547900915146,-0.16574019193649292,-0.8626340241730214,0.6782463178038598,-9.455980328321457
34.5,6.5,34.0,21.70179557800293,23.24303436279297,-79.78274482777319,40.458907345556476,292.7212910003662,-0.14765329658985138,0.07574181258678436,-0.5519973039627075,0.8171662688255309,-0.4673712303197375,6.700558477569173,2.1822655832566413,-0.1444178968667984,-0.015837401151657104,0.13844789564609528,-1.1203752701729537,0.3535398710891605,-9.198136244416238
34.7,6.800000190734862,36.0,21.723079681396484,23.91893577575684,-79.78273771155621,40.45891131181805,292.7340740509033,-0.14946971833705902,0.07127507030963898,-0.551905632019043,0.8172997236251831,-0.5492228524521447,6.861755549959531,2.2964350256359976,-0.17263363301753998,-0.06360021233558655,0.08992206305265428,-1.3005302502214908,0.2393141661398113,-9.343898559808732
34.81,7.0,36.0,21.69428253173828,24.24495887756348,-79.7827299542867,40.45891426144095,292.7241062469482,-0.14680849015712738,0.06866195052862167,-0.5537511110305786,0.8167573809623718,-0.5225736736097092,7.05827397744892,2.3059676307177908,0.09793540090322496,0.06510470807552338,0.06342656910419464,-1.2454724290966988,0.4633616542071105,-9.297550020217896
34.9,7.300000190734862,37.0,21.610395431518555,24.83338928222656,-79.78271437863883,40.45892166015843,292.71538966369627,-0.1437329202890396,0.06392905116081238,-0.5552294254302979,0.8166849613189697,-0.6666322630935456,7.436335269910816,2.2903553904204914,0.033657796680927284,0.19217725098133087,0.009289842098951341,-1.1491535114496951,0.6892047308385373,-9.551872326135637
35.11,7.5,39.0,21.725584030151367,22.320629119873047,-79.78269808203035,40.45892969229293,292.71940463256834,-0.1393296718597412,0.0621350035071373,-0.5550485849380493,0.8177087306976318,-0.7664537244193246,7.799465607185531,2.3283365298948064,0.0420025996863842,-0.03939555212855339,-0.10133356600999832,-1.0726137509196998,0.7217788383364678,-9.918703247308732
35.2,7.699999809265138,39.0,21.789438247680664,22.105932235717773,-79.78268943146993,40.458933111846,292.70296138000487,-0.14066463708877566,0.06278494745492935,-0.5543946623802185,0.8178741931915283,-0.7582359875554008,7.9727793645115534,2.3361941765338203,0.07761064916849136,0.010737183503806593,0.037339020520448685,-1.2690900640189648,0.4214811548218131,-9.700019720792769
35.41,7.900000095367432,39.0,21.56907844543457,25.906879425048828,-79.78268062339825,40.45893659513069,292.68301623535154,-0.13958722352981567,0.05708901211619378,-0.5538378357887268,0.8188529014587402,-0.7905241237214934,8.108667215150692,2.372926464527286,-0.20881043374538424,0.19659878313541407,0.17410607635974884,-1.6051986908912659,0.3966420730948448,-9.409779723286633
35.6,8.199999809265138,38.0,21.895862579345703,19.489797592163086,-79.78266339932965,40.45894540212071,292.68918269348137,-0.11465580761432648,0.037119362503290176,-0.5544648766517639,0.8234348297119141,-0.8366879484661875,8.406424616808229,2.2338196509237926,0.052983202040195465,0.5079137086868286,-0.13021689653396604,-1.287901726216078,0.7210610195249321,-10.146746996641161
35.71,8.300000190734862,43.0,21.859554290771484,19.61702537536621,-79.7826551167715,40.458951269233395,292.73678439331053,-0.09662722051143646,0.030273282900452614,-0.5555195212364197,0.8253149390220642,-0.9743219539594108,8.537312971524635,2.0284641556073466,0.050100285559892654,0.4108115136623383,-0.01458850596100092,-1.3943368385732176,0.618876613676548,-10.078298320770264
35.8,8.600000381469728,43.0,21.815731048583984,20.63485336303711,-79.78263677867807,40.45895896601849,292.73126834106444,-0.0770307183265686,0.01877149380743504,-0.5550110936164856,0.8280560374259949,-0.997543871378486,8.702055665433349,1.5329092220551517,-0.06333276629447937,0.2260815501213073,-0.17201489210128784,-1.477418902516365,1.0454106764495372,-9.888063837289813
36.0,8.800000190734863,43.0,21.790691375732425,21.86737823486328,-79.78261910919518,40.45896850019256,292.7154869384765,-0.0683387964963913,0.002302496926859021,-0.5496841073036194,0.8325695395469666,-0.9772485486374932,8.727994516653473,1.3006115855284506,-0.02396051958203316,0.17731517553329468,-0.10701646655797956,-1.1749428022652866,0.7255483189970255,-10.320056129693986
36.2,9.0,49.0,21.80821990966797,20.793888092041016,-79.78260964947953,40.45897348702192,292.63385050964354,-0.06579837948083878,-0.003917832858860493,-0.5473704934120178,0.834290623664856,-1.001201259652857,8.738883915434272,1.1716814570033942,-0.16940076649188995,0.09292770177125932,-0.10677732527256012,-1.7197845295071603,0.5999605055898428,-9.900955778360366
36.31,9.199999809265137,50.0,21.895862579345703,19.34666633605957,-79.78260059037251,40.45897745532212,292.6421493835449,-0.06185778975486755,-0.008725334890186787,-0.5455712080001831,0.8357329368591309,-0.9541493787736598,8.715561080600038,1.1011302872754034,-0.14351984858512878,-0.07022020220756531,-0.13564391434192655,-1.7675418095290665,0.6692150008678437,-9.827007211446762
36.4,9.399999618530273,50.0,21.905879974365234,18.209562301635746,-79.78258174483399,40.45898518078783,292.52008097839354,-0.04913542047142983,-0.01836155727505684,-0.5440437197685242,0.8374157547950745,-0.9212251357378262,8.618582008513679,0.8719768717737995,-0.15819498896598816,0.08300244063138963,0.19062477350234985,-1.6282532389461994,0.42814069490879775,-9.769633746743203
36.6,9.399999618530273,50.0,21.937179565429688,18.766185760498047,-79.78256338834609,40.45899349358144,292.4153141326904,-0.020570171996951103,-0.03334721177816391,-0.5452899336814879,0.8373314142227173,-0.9694097533840368,8.443014043952548,0.30567572370272184,-0.010526577942073343,0.2385962009429932,0.18819205462932587,-1.4471224316954614,0.4127249859273434,-9.286173677444458
36.71,9.5,56.0,21.952205657958984,18.5037784576416,-79.7825548427557,40.45899736778826,292.40887492370604,-0.0056874584406614295,-0.04111282154917717,-0.5466766357421875,0.8363146185874939,-1.0045801477209126,8.295989539988183,-0.01091506556367719,0.1338612288236618,0.2890838980674744,-0.13091465830802915,-1.3464846874773504,0.4511993725597858,-9.620148509144784
36.9,9.600000381469727,61.0,21.885847091674805,20.11798858642578,-79.78253693668546,40.45900560865488,292.30884020996086,0.00863505806773901,-0.05537784844636917,-0.5501164197921753,0.8332051038742065,-1.1376664252099424,7.960859678580206,-0.5333588549074354,-0.06654343008995056,0.12352193892002104,0.043520070612430566,-1.03643439643085,0.5486326964199544,-9.925311770439148
37.1,9.600000381469727,61.0,21.869569778442386,20.77003288269043,-79.78252894176049,40.45900935717197,292.29562228393553,0.008666633628308773,-0.05751553177833558,-0.5517142415046692,0.8320025801658629,-1.2089236655501543,7.7468807706942,-0.6271987249116127,-0.04629155993461609,-0.0812915787100792,0.06295809894800186,-1.3659814971685411,0.4522791340202094,-9.68468539774418
37.2,9.5,61.0,21.88960266113281,19.77606201171875,-79.7825121759688,40.459016827728405,292.16383975219725,0.008094711229205132,-0.05151640996336937,-0.5564271807670593,0.8292583227157593,-1.2826720758311108,7.3888698878295385,-0.6496876321058542,0.06092226132750511,-0.060603830963373184,-0.049517206847667694,-1.1023855803161862,0.7052163076400757,-9.747778024077416
37.3,9.399999618530273,63.0,22.034839630126953,15.633187294006348,-79.7825047567824,40.45902040607696,292.1434234924316,0.006139674223959446,-0.04646798223257065,-0.5595795512199402,0.827450156211853,-1.3298963321372568,7.213047244207758,-0.6343256823347581,0.016054710373282433,-0.1907640248537064,-0.04363992065191269,-1.296404893398285,0.5046730367839337,-9.486040279269217
37.5,9.199999809265137,62.0,21.845781326293945,19.17967796325684,-79.78249585094783,40.45902433632242,292.06557887268065,0.0042144167236983785,-0.04235219955444336,-0.5631304383277893,0.8252713084220886,-1.3591742459927307,7.115513158944491,-0.637995398328937,-0.02737285383045673,-0.15505453944206238,0.0371270589530468,-1.2123528494685891,0.6912486250698566,-9.263413390517234
37.6,8.899999618530273,60.0,21.89210700988769,19.577266693115234,-79.78248067355871,40.45903149516661,291.9699997253418,0.002689053071662784,-0.04255998134613037,-0.5697171688079834,0.8207336664199829,-1.445303421342921,6.831956374670911,-0.6297472262147116,-0.21861353516578674,0.10108593851327896,0.07492592185735703,-0.8820578167587521,0.6950737273693085,-9.437180945277213
37.8,8.800000190734863,59.0,21.637939453125,24.268814086914066,-79.78246706568291,40.45903817849393,291.8912128753662,-0.0018002811120823024,-0.051685724407434464,-0.5732957124710083,0.8177148103713989,-1.5344124271380033,6.534714015784521,-0.6564803728969986,-0.01857726089656353,-0.061445616185665124,0.08131763339042664,-0.6357388872653246,0.5386214957758785,-9.877163457870484
38.0,8.399999618530272,58.0,21.537776947021484,26.23290252685547,-79.7824592906148,40.45904203705287,291.8322052307129,-0.008005984127521515,-0.04996047168970108,-0.5741812586784363,0.8171632885932922,-1.5581269296897622,6.453440916086162,-0.5663590533314767,0.0654543936252594,-0.14777827262878418,-0.03157655894756317,-0.6003284781798721,0.8148438535630703,-10.142055190801619
38.11,8.300000190734862,56.0,21.44637680053711,27.12350082397461,-79.78244559584864,40.45904862805599,291.719686920166,-0.02521238662302494,-0.035118550062179565,-0.5750276446342468,0.8169909715652466,-1.5451523990007927,6.2673300826944995,-0.20289933832823945,0.04837417602539063,-0.3218977749347687,0.19237834215164185,-0.8472676145285368,0.5490293934568763,-10.712597258090973
38.3,8.0,53.0,21.679258346557614,23.068096160888672,-79.78243928307516,40.45905182817591,291.70710032653807,-0.03614242374897003,-0.0284943338483572,-0.5756804943084717,0.8163785338401794,-1.5345750232939834,6.2014694686244045,0.0671531315738289,0.09210233390331267,-0.225641131401062,0.09490303695201874,-0.6972906991839409,0.8232052257657051,-10.874540573358539
38.4,7.900000095367432,52.0,21.736852645874023,21.883281707763672,-79.7824261800809,40.459058398464066,291.61276667785637,-0.054816629737615585,-0.012198419310152529,-0.5766388773918152,0.8150669932365417,-1.4937141715380948,6.1418435469149815,0.509262014852385,0.13645358383655548,-0.16552108526229858,-0.05776064470410348,-0.6393499814718963,0.7464063604921103,-10.395107481479645
38.6,7.599999904632567,42.0,21.66798973083496,23.55315399169922,-79.7824199452029,40.459061551709055,291.61941760253904,-0.06061310321092605,-0.008142076432704927,-0.576410710811615,0.8148683905601501,-1.5125326485599708,6.129805698668992,0.6731504394618211,-0.04027383401989937,-0.15519843995571134,0.05268125981092453,-0.8265585308521987,0.8816936814039946,-10.118455828428267
38.7,7.5,36.0,21.793193817138672,20.292926788330078,-79.78241322244362,40.45906503242584,291.52787249755863,-0.06719786673784256,-0.0068288068287074575,-0.5759803056716919,0.8146683573722839,-1.4786071143467825,6.1345448069355095,0.7701824250752565,-0.03874131292104721,-0.14071519672870636,0.29307863116264343,-0.7849684553593398,0.7327084538340569,-10.229165840148926
38.9,7.400000095367432,33.0,21.80070686340332,20.897262573242188,-79.78240058835149,40.45907131768557,291.55448191833494,-0.07463736832141876,-0.001104848925024271,-0.573819637298584,0.81557297706604,-1.4483162106598306,6.1909132351453975,0.9821779499498636,-0.07811649888753891,-0.1548980325460434,-0.06504509598016739,-0.8021116145700217,1.030877933576703,-9.864648077487946
39.0,7.400000095367432,32.0,21.78818702697754,21.81966781616211,-79.78238746331985,40.4590781020628,291.48662799072264,-0.08621582388877869,-0.00022127288684714586,-0.5673612356185913,0.8189432621002197,-1.3559224141909392,6.271452319642828,1.079092573543237,0.02541570924222469,-0.1149103417992592,-0.18103796243667605,-0.7768930850923061,0.9681710042059422,-9.662753076553344
39.1,7.400000095367432,28.0,21.74186134338379,21.764005661010746,-79.78238072257086,40.45908171696315,291.395712310791,-0.0936172381043434,-0.00046964705688878894,-0.5636657476425171,0.8206806182861328,-1.313312110770788,6.30856763348766,1.1396118910846167,-0.19095127284526825,-0.09901532530784607,-0.344688355922699,-0.7779263611882925,1.1270316673815248,-9.791018768548966
39.3,7.5,27.0,21.690526962280273,23.04424095153809,-79.78236759488573,40.45908813274782,291.41281169128416,-0.10909321904182434,-0.0006011610385030508,-0.5567721128463745,0.8234702348709106,-1.2223690507354643,6.455392565358286,1.2830934197806347,-0.08527467399835588,-0.17430728673934934,-0.1024363413453102,-0.9074364868551492,0.7742510206997395,-9.502220694422725
39.4,7.599999904632567,26.0,21.584102630615234,24.563030242919922,-79.78236069407319,40.4590917490223,291.3366836853027,-0.11336395889520645,0.001959494082257152,-0.5543498396873474,0.8245248198509216,-1.1679943800260475,6.509641032376318,1.3510911710203497,-0.04258467629551888,0.04239348694682121,-0.2034570574760437,-0.7167907979339362,1.2491588062047958,-9.576810700893402
39.61,7.699999809265138,26.0,21.644201278686523,23.56110572814941,-79.78234666910565,40.45909874465447,291.30007022094725,-0.11344315111637115,0.00954738911241293,-0.5522758364677429,0.8258516192436218,-1.111096361892553,6.673342369134174,1.4632595961727688,0.15806575119495392,-0.09712184965610504,0.04699941724538803,-0.7523121213912964,0.8154893130809069,-9.741629676818848
39.8,7.900000095367432,23.0,21.642948150634766,24.21315193176269,-79.78233971414404,40.459102106698154,291.29886859130863,-0.11544348299503325,0.013221585191786293,-0.5518653988838196,0.8257982134819031,-1.1169873725745114,6.786226426685822,1.4731655972517872,0.08074581623077393,-0.16365180909633634,-0.052377618849277496,-0.8209384795278312,0.8262304289638996,-9.571792035698893
39.9,8.0,22.0,21.642948150634766,24.24495887756348,-79.78232539194134,40.45910930142425,291.2482456512451,-0.1231539398431778,0.016755882650613785,-0.5512264966964722,0.8250465989112854,-1.1200355882844104,6.968227536933662,1.5343395161134228,-0.05026284232735634,-0.14171461760997772,0.15624549984931946,-0.9510552538186312,0.9562301127612592,-9.187563893795014
40.0,8.100000381469728,22.0,21.597875595092773,24.04616355895996,-79.78231810749794,40.45911276927578,291.23419230651854,-0.1252949982881546,0.01968452706933021,-0.5512163639068604,0.8246662020683289,-1.1104158822259969,7.082780778551129,1.5691794761339386,0.09828973561525343,-0.06124367937445641,-0.1219010129570961,-0.7388516847789288,0.9309243135899306,-9.286429785490038
40.2,8.199999809265138,23.0,21.561565399169922,25.33435249328613,-79.78230298533727,40.459120168660995,291.19140284729,-0.11967584490776062,0.0235590897500515,-0.5527050495147705,0.8244026899337769,-1.1237071467330988,7.296831904821904,1.6395106289662325,0.040647979825735085,0.1028948575258255,0.14897054433822632,-1.0489814979583023,0.6967539247870446,-9.745624494552613
40.4,8.300000190734862,22.0,21.521499633789066,25.58085632324219,-79.7822953280119,40.4591237487959,291.17403453063963,-0.1126718968153,0.02024227380752564,-0.5536889433860779,0.8248174786567688,-1.1345725286825978,7.398271585684771,1.6492485214749428,0.0718587264418602,0.1278899908065796,0.2073291838169098,-1.301607161164284,0.7058208366483449,-9.874479585886002
40.5,8.399999618530272,23.0,21.616655349731445,23.44978141784668,-79.782279271555,40.45913143231637,291.1622318572998,-0.09765012562274933,0.013620531186461449,-0.5553337335586548,0.8257623314857483,-1.1331213198863743,7.604807447025513,1.5718839492625392,0.07308397442102432,0.17334793508052826,0.1776255965232849,-1.300648071616888,0.9999466013163328,-10.003602479696275
40.6,8.600000381469728,24.0,21.622915267944336,24.435800552368164,-79.78227100865061,40.45913550725745,291.1539100952148,-0.08628176897764206,0.011523154564201832,-0.5563101172447205,0.8264029622077942,-1.1389351858538288,7.676687890373051,1.4608647476015426,0.06722874194383621,0.1855175495147705,0.22531843185424805,-1.1560111990571025,0.7033422750234605,-9.953409980535508
40.8,8.600000381469728,25.0,21.500215530395508,26.40784072875977,-79.7822549507545,40.45914281593309,291.1567673034668,-0.07825575768947601,0.001798644196242094,-0.5545318126678467,0.8284728527069092,-1.1321787050701644,7.765848223757048,1.2493683615559084,-0.059850480407476425,0.05132506787776947,-0.1055331975221634,-1.3606010355055334,0.9891402158886194,-10.045515321493149
40.9,8.699999809265138,31.0,21.60538673400879,24.07001876831055,-79.78224636066206,40.45914684135406,291.1468014068604,-0.07344572246074678,-0.002597274258732796,-0.5519412159919739,0.8306382298469543,-1.0771486510909287,7.771844800711326,1.2463967766250612,0.07563705742359161,0.03241480514407158,0.16440969705581665,-1.3959502315521242,0.6721824628114701,-10.196157138347626
41.12,8.800000190734863,33.0,21.888351440429688,17.61318016052246,-79.78222982545364,40.45915455726959,291.1382355041504,-0.07016532123088838,-0.0025521935895085326,-0.5422181487083435,0.8372991681098938,-1.0093176793811025,7.788546193628093,1.2073451348671318,-0.12535245716571808,0.06928607821464539,-0.18978895246982566,-1.2685458344221117,0.8427151916921141,-10.32255873799324
41.3,8.800000190734863,36.0,21.73810386657715,21.45388603210449,-79.7822218246595,40.459158254617584,291.161768371582,-0.07362601161003113,-0.002432123525068164,-0.5374313592910767,0.8400838971138,-0.9195141422774978,7.7798695622100364,1.1983329698968512,0.025961564853787426,-0.11836058646440505,-0.0839751586318016,-1.2391230838000775,0.2785401940718293,-9.781969032883644
41.4,8.800000190734863,38.0,21.72433280944824,21.994606018066406,-79.78221385948504,40.45916196424686,291.18281214904783,-0.07487042248249054,-0.000516877043992281,-0.5344502329826355,0.8418772220611572,-0.8488297926504142,7.7615504508774915,1.2330131574423988,0.24580951035022736,0.0916312262415886,-0.03236963599920273,-1.2799784566462042,0.4642437797784806,-9.722392337322237
41.5,8.899999618530273,38.0,21.849536895751953,19.34666633605957,-79.78219797937236,40.459169674579975,291.1730045623779,-0.0692579448223114,0.01163016352802515,-0.5353477001190186,0.8417071700096129,-0.8581846796271725,7.7338062563773775,1.2067479405268693,0.03173176944255829,-0.03412763401865958,0.06783556193113327,-1.4443341869115829,0.5432011081650854,-9.60107372224331
41.71,8.899999618530273,38.0,21.818235397338867,19.784013748168945,-79.78218172259989,40.45917739319223,291.18026583862303,-0.06749174743890762,0.018422188237309456,-0.5405592918395996,0.8383920192718506,-0.896827788166459,7.735031884186354,1.1810149015395979,0.16657595336437225,-0.002801623195409775,0.05452518910169602,-1.193299916535616,0.4527239244058728,-9.567825869321824
41.8,8.899999618530273,41.0,21.82449531555176,18.718475341796875,-79.78217381751108,40.45918111920797,291.1910747833252,-0.06981585174798965,0.01685248129069805,-0.54304039478302,0.8366294503211975,-0.9587941832646536,7.73075318530338,1.185814564830678,0.06318370252847673,0.0720236748456955,0.060890663415193565,-1.2225684468448164,0.31505112223327164,-9.667693389058114
42.0,8.899999618530273,42.0,21.932172775268555,18.448116302490234,-79.78216523780767,40.45918514705085,291.2019504852295,-0.0713290274143219,0.01318147499114275,-0.545049250125885,0.8352603912353516,-1.0122967879150486,7.7381714050609025,1.1945550501527158,0.04293420538306236,-0.13373401761054993,0.1400674432516098,-1.4690069518983364,0.1437572594638914,-9.482198073863984
42.2,8.800000190734863,44.0,21.83325958251953,20.01461410522461,-79.78214893399208,40.45919287146878,291.22625201416014,-0.06658874452114105,0.010956153273582458,-0.5480109453201294,0.8337445259094238,-1.0814977987584122,7.757855955143522,1.1303487492515771,0.022440649569034576,0.0013190039899200199,0.13953129947185516,-1.1493971210718157,0.3500621299445629,-9.525341169834137
42.3,8.800000190734863,45.0,21.884593963623047,18.925222396850586,-79.7821327123895,40.45920059825709,291.2402653045654,-0.06460336595773697,0.012219728901982307,-0.5501994490623474,0.8324408531188965,-1.126434470203295,7.754600022875452,1.0661906532865926,0.028588948771357536,0.08833415061235428,0.08318120241165161,-1.0885076525062325,0.4645761208981276,-9.674698353409767
42.4,8.800000190734863,46.0,21.90337562561035,18.24932098388672,-79.78212478027113,40.459204333548186,291.2429718322754,-0.06432433426380157,0.010199306532740593,-0.5507340431213379,0.8321360945701599,-1.1515033096239824,7.742552504701567,1.014543999425406,0.02352698519825936,0.07787145674228667,0.1917535960674286,-1.1661059783399106,0.411945698261261,-9.569950162768363
42.6,8.800000190734863,46.0,21.90462684631348,19.195581436157227,-79.78211685809208,40.45920807179367,291.24251597595213,-0.06532461941242218,0.008533254265785217,-0.55085688829422,0.8319955468177795,-1.1681918678903922,7.753260377353669,0.9646968450806632,0.03109385259449482,-0.04661208763718605,0.05841789022088052,-1.2906620505452158,0.3912465183064342,-9.391201949715617
42.8,8.600000381469728,48.0,21.925912857055664,18.034624099731445,-79.78210049153729,40.45921565395504,291.24177783203123,-0.0640566423535347,0.009587444365024568,-0.5509852766990662,0.8319977521896362,-1.1890285733182548,7.754914191179775,0.8623310979782162,-0.0723382756114006,-0.15780065953731534,0.10756106674671173,-1.4255236941576004,0.3251410044729709,-9.068078380823136
42.9,8.600000381469728,48.0,21.849536895751953,19.97485542297364,-79.78208404713205,40.45922329784909,291.2337707824707,-0.06202955916523933,0.009198968298733234,-0.5508413910865784,0.8322508335113525,-1.1702028626554308,7.785680655376175,0.7772537152744656,0.07772073894739151,0.12077628076076508,0.07691258937120438,-0.9319415829330684,0.34373131301254034,-9.400214847922326
43.1,8.5,48.0,21.884593963623047,19.00473976135254,-79.78207611600311,40.45922704104143,291.2128929443358,-0.0588495098054409,0.00919319037348032,-0.5514454841613771,0.8320817947387695,-1.1768644808205295,7.7876910739597465,0.7371413039873762,0.09590203315019608,0.03798835352063179,0.17763350903987885,-1.0055496957153085,0.3259082322567701,-9.561646531820298
43.2,8.399999618530272,48.0,21.975994110107425,17.19968605041504,-79.78206750432298,40.45923077001153,291.226803237915,-0.05217227339744568,0.009731613099575044,-0.5514862537384033,0.8324940204620361,-1.1523120307962142,7.804042778899197,0.7338128206415966,0.1279604583978653,0.19908331334590912,-0.12981155514717102,-0.902329236343503,0.4211824351921678,-9.758649752140046
43.3,8.199999809265138,48.0,21.945945739746094,18.074382781982425,-79.7820512577147,40.45923848632213,291.215349609375,-0.044039666652679436,0.009013017639517784,-0.5523901581764221,0.8323728442192078,-1.1770082553936236,7.8266417929406025,0.5391062811048534,-0.16884182393550873,-0.08696378767490387,0.11429594457149506,-0.7132875117659571,0.3716626216471196,-9.509965331554412
43.51,8.100000381469728,50.0,22.02482414245605,16.51583480834961,-79.78203536361502,40.45924591626451,291.169357711792,-0.045773405581712716,0.001736569101922214,-0.5523210763931274,0.8323721289634705,-1.185743926457289,7.794806214777233,0.3935619597207216,-0.11759127676486968,0.03893093764781952,0.12044484913349153,-0.6953438687324525,0.3897089929506183,-9.211711724996569
43.7,7.900000095367432,50.0,21.95721244812012,18.074382781982425,-79.78202704579701,40.45924978199468,291.16983836364744,-0.04408421739935875,-0.0039399354718625546,-0.5522285103797913,0.8325172066688538,-1.1824503763302658,7.787587352302327,0.3579464059520968,-0.19668148458004,0.1094152331352234,-0.04572025686502457,-0.8934119401127101,0.4498537455126643,-9.303234098553656
43.8,7.800000190734862,50.0,21.882089614868164,19.18762969970703,-79.78201094778383,40.45925742808734,291.1537975616455,-0.03505139797925949,-0.010748808272182941,-0.5533468723297119,0.8321438431739807,-1.2161736236721985,7.751089052332437,0.19499073039217896,-0.0007762718014419079,0.15249893069267273,0.1509048491716385,-0.5564109184965491,0.35935211308300496,-9.70715449333191
44.0,7.599999904632567,53.0,21.937179565429688,17.167879104614258,-79.78200309580967,40.45926114534302,291.1219906158447,-0.032282743602991104,-0.007404901552945374,-0.5543491840362549,0.8316249847412109,-1.2403897800936194,7.7247524129441825,0.10249625751885688,0.2116332799196244,-0.12409008294343947,0.18448351323604584,-0.7429348685592413,0.2329440266825259,-9.568259148001669
44.11,7.5,53.0,21.978498458862305,17.493902206420902,-79.78198717256664,40.459268385621435,291.0660690612793,-0.036268308758735664,0.011795351281762123,-0.5575656294822693,0.8292562961578369,-1.2338446749502094,7.692188297008022,0.07112706388301693,0.2197205275297165,-0.1751444935798645,0.015095911920070646,-0.6155583187937737,0.4716823882609606,-9.215940431356431
44.3,7.199999809265138,51.0,21.875829696655273,19.513652801513672,-79.78197936025985,40.45927205571019,291.0226253814697,-0.041720643639564514,0.01563757099211216,-0.5592760443687439,0.8277832269668579,-1.282441055054218,7.677389068228103,0.11674026231675738,-0.11874135583639145,-0.16891072690486908,0.07013572007417679,-0.9185442962497472,0.0075252203643322,-9.00651480138302
44.41,7.099999904632568,51.0,21.730592727661133,22.535327911376953,-79.78196350465818,40.4592795457363,290.9404091186523,-0.04003283008933066,0.0027612459380179644,-0.5610026121139526,0.8268409371376038,-1.2873179145105689,7.659367025430335,0.10594040164486672,-0.09542052447795868,0.21392270922660828,0.011147777549922466,-0.7764393411576749,0.34159130517393355,-9.324139063954354
44.6,6.9000000953674325,46.0,21.57158088684082,25.01628112792969,-79.78195570260549,40.459283162680656,290.8837322540283,-0.03849860653281212,-0.0051754717715084535,-0.5615116357803345,0.8265565633773804,-1.2987339153944042,7.641116785910263,0.020228963650066826,-0.14058205485343933,0.22335724532604212,-0.030289461836218837,-0.7565338110923767,0.7499499924480916,-9.797392233610154
44.7,6.800000190734862,47.0,21.632932662963867,23.068096160888672,-79.78194768746454,40.45928700876082,290.86220401000975,-0.04033814743161202,-0.010538209229707718,-0.561697781085968,0.8262914419174194,-1.301452434698032,7.6379485273561585,0.04930510558168946,-0.11901529133319855,-0.06903163343667984,0.1447368562221527,-0.7081752180308104,0.5511905609071255,-10.253922951221467
44.8,6.699999809265138,47.0,21.753129959106445,21.350513458251953,-79.78193211969845,40.45929424258083,290.7838501281738,-0.051875848323106766,-0.006476716604083777,-0.5595574378967285,0.8271411657333374,-1.315785252011352,7.602440980926278,0.22046473619960366,0.1988053023815155,-0.20379963517189026,0.02232432179152965,-0.8015625610202551,0.2337145983427763,-10.211806626319886
44.91,6.5,47.0,21.730592727661133,22.169546127319336,-79.7819239788993,40.459298021500494,290.74392932128904,-0.05766559764742851,-0.0037790278438478713,-0.5560006499290466,0.8291704654693604,-1.340063191601046,7.618948364214121,0.3742300169782048,-0.11740623414516448,0.04493529722094537,-0.2024826258420944,-0.8964869908243418,0.5171277523040771,-10.15682759642601
45.11,6.5,45.0,21.82699966430664,19.67268943786621,-79.7819082777394,40.45930536727753,290.66088145446776,-0.06127503141760826,0.0009326675208285453,-0.5513939261436462,0.8319911360740662,-1.2424204146930415,7.665300815050332,0.4986369202402719,0.108047753572464,-0.10922129452228546,-0.06389860063791275,-0.8016143819689749,0.5824882212281227,-9.767408881187439
45.2,6.4000000953674325,45.0,21.70304679870605,21.64472770690918,-79.78190050608936,40.45930908827773,290.6286110229492,-0.0605599619448185,0.013920117169618608,-0.5535339117050171,0.8305053114891052,-1.2512298144196572,7.688641855153347,0.5538773909359044,0.06792726367712021,-0.1112867146730423,-0.06856101006269455,-0.9270347457379104,0.5192791256681085,-9.678413674235344
45.41,6.300000190734862,45.0,21.421335220336914,27.33024787902832,-79.78188500758368,40.45931662069568,290.5441440887451,-0.06049660965800285,0.024720285087823868,-0.5582466125488281,0.8270972371101379,-1.3117247432033674,7.70719175390401,0.6865019423395554,0.1864612102508545,0.04160791635513306,0.1290082186460495,-0.7809077102690936,0.0425813795439899,-9.989742239713667
45.6,6.300000190734862,41.0,21.576589584350586,24.483510971069336,-79.78187715399045,40.45932038151121,290.51423876953123,-0.05399731174111366,0.02149314805865288,-0.5622278451919556,0.8249378204345703,-1.3780564950873149,7.72522728632785,0.7736159700867962,-0.09111306816339493,0.21598361432552332,0.025680754333734512,-0.9675779503583908,0.37807288762182,-10.405927169322966
45.7,6.300000190734862,44.0,21.636688232421875,23.473636627197266,-79.78186131053185,40.459327831034905,290.4568638153076,-0.04382150247693062,0.01625065878033638,-0.5658149719238281,0.8232065439224243,-1.4470013658492098,7.724674392998371,0.6903331189013098,0.00024602829944342375,-0.0122921671718359,0.01940350048244,-0.9568304025381804,0.272716239374131,-10.542389488220218
45.8,6.5,45.0,21.66798973083496,22.64665222167969,-79.78185333784666,40.45933152620149,290.41040270996086,-0.04668610915541649,0.01740659959614277,-0.564987301826477,0.82359379529953,-1.4421678681275512,7.721715176629647,0.6695871586468558,-0.07125061005353928,-0.005891046021133661,-0.013557213358581066,-1.0040191139280796,0.6586623845994473,-10.258276787996293
46.0,6.5,46.0,21.67424964904785,23.42592620849609,-79.78184541274426,40.45933523260156,290.40533106994627,-0.04956796392798424,0.02124151214957237,-0.5628760457038879,0.8247802853584291,-1.3918580572726815,7.714774044500557,0.7490565840659063,0.17247048020362854,-0.08092182874679565,-0.006191421765834093,-0.7627089093625546,0.244937360342592,-10.314600677490237
46.2,6.5,50.0,21.540281295776367,24.483510971069336,-79.78182955723256,40.459342594455926,290.3519977874756,-0.05467821657657623,0.020961886271834373,-0.5581451058387756,0.8276743888854979,-1.27328167310062,7.737212218022679,0.8440490448847562,0.13483473658561707,0.0296282060444355,0.08706951886415483,-0.8042569579929114,0.2784376485273242,-9.756118492484092
46.31,6.5,48.0,21.534019470214844,26.10567283630371,-79.78182158103937,40.45934627399179,290.34689753723137,-0.05645241588354113,0.016644291579723358,-0.5566502213478088,0.8286596536636353,-1.2525205994823392,7.772581308744803,0.8778666750701953,-0.2782002389431,-0.03570924699306488,-0.0894932672381401,-0.8884108896553516,0.3422892799973488,-9.814252095222473
46.4,6.599999904632568,49.0,21.515239715576172,26.12157821655273,-79.78180568190254,40.459353525675475,290.2814316101074,-0.060541346669197076,0.006183747202157974,-0.5549448728561401,0.8296582698822021,-1.185865485729031,7.7806231541676,0.8527763934916819,-0.12117748707532885,-0.06373082846403122,0.005262908525764942,-1.173869911283255,0.2616173287108541,-9.885625548362732
