time,wind_speed,wind_angle,battery_voltage,battery_current,position_x,position_y,position_z,orientation_x,orientation_y,orientation_z,orientation_w,velocity_x,velocity_y,velocity_z,angular_x,angular_y,angular_z,linear_acceleration_x,linear_acceleration_y,linear_acceleration_z
0.0,3.4000000953674316,158.0,25.804765701293945,-0.05566241592168808,-79.782842874586,40.45890596951315,263.8950457620621,0.006678204517811537,-0.022548068314790733,0.9417937994003296,0.33536770939826965,-0.00731436130100691,0.0003770787971510248,0.00621684859663045,-0.002985445549711585,0.001263729529455304,-0.002369354479014873,-0.3809645915776491,0.2536681303940714,-9.803756927847864
0.11,3.5,159.0,25.814781188964844,-0.03180709481239319,-79.78284286785495,40.45890596512669,263.89565885543817,0.006688965018838644,-0.02254752814769745,0.9417961239814758,0.3353608846664429,-0.0079473108045402,-0.0005232180117307698,0.006464552145365943,-0.0017637426499277351,0.0008874022751115261,0.0018452014774084087,-0.3826958424970508,0.2571895612031221,-9.802820203900335
0.3,3.5,154.0,25.80601692199707,-0.039758868515491486,-79.78284296501212,40.45890596194338,263.9002311277389,0.006673168390989304,-0.022561077028512955,0.9417968392372132,0.33535850048065186,0.002127520585438348,0.0017740655195708176,0.005007734647663831,-0.007529546041041613,-0.0011566819157451393,-0.0051377853378653535,-0.3813893917948008,0.2591084711998701,-9.803616594672203
0.4,3.5999999046325684,153.0,25.81102561950684,-0.02385532110929489,-79.78284298547193,40.4589059499415,263.90527379989624,0.006684780586510897,-0.02258311584591865,0.9417951107025146,0.33536139130592346,0.0035308975307850594,-0.002148923010254839,0.0038448273510727307,0.0022731029894202948,0.0004049062554258853,0.0017890222370624542,-0.3840070075169206,0.25284206500276923,-9.805163767933848
0.6,3.5999999046325684,148.0,25.814781188964844,0.0,-79.78284298611527,40.458905956203715,263.906113152504,0.006682689301669598,-0.0226072259247303,0.9417945146560668,0.3353615403175354,0.00047948076160851433,-0.003431582541431345,0.004272399310528344,-0.009427093900740148,-0.0031284578144550323,-0.006215082015842199,-0.3837991390004754,0.2647419345751405,-9.801990483999253
0.7,3.5999999046325684,149.0,25.81853675842285,-0.007951773703098297,-79.78284300807854,40.458905926677424,263.91227245807653,0.006683926563709974,-0.02260701172053814,0.9417967200279236,0.33535540103912354,0.0002917149310657528,-0.003125409696330999,0.0035714559817401743,0.007625879719853401,0.003006063401699066,0.001352854771539569,-0.3838303850591183,0.2504974411614239,-9.804289609193804
0.9,3.299999952316284,154.0,25.81102561950684,-0.039758868515491486,-79.78284304506535,40.45890588810415,263.9194142866134,0.00666590454056859,-0.02260282076895237,0.9417937994003296,0.3353642821311951,-0.0017721684187015703,0.0004376173260247063,0.003953911141710418,-0.005065653473138809,-0.004417412914335728,-0.003205141518265009,-0.3855485893785954,0.2719317074865103,-9.801219236254694
1.0,3.299999952316284,153.0,25.80601692199707,-0.015903547406196594,-79.78284304372525,40.458905887013174,263.9197999286652,0.006672008894383907,-0.022619640454649925,0.941794216632843,0.3353616893291473,-0.0016115416977686716,-0.0004402075275020671,0.003985681724122085,0.006674411240965128,0.00189628906082362,0.008841623552143574,-0.3798743416741491,0.2547278468683362,-9.803631212711334
1.2,3.299999952316284,148.0,25.807270050048828,-0.015903547406196594,-79.78284310541525,40.45890588797103,263.9297885942459,0.0066575156524777395,-0.02261138521134853,0.9418049454689026,0.33533257246017456,0.005106889524514575,-0.0019527772468613586,0.006667313282620822,-0.004494196735322475,-0.0017021322855725884,-0.002578885294497013,-0.3855913471430541,0.274465251211077,-9.802816110849381
1.3,3.4000000953674316,151.0,25.809772491455078,-0.039758868515491486,-79.78284310842045,40.458905892546454,263.93049324035644,0.0066433162428438655,-0.02261990308761597,0.9418016672134399,0.33534157276153564,0.005174995667993806,-0.003164564992276035,0.006829855659458299,0.006740824319422245,0.004686825908720493,0.006356544326990843,-0.3789137537777424,0.24957043820992114,-9.80414225935936
1.5,3.5999999046325684,151.0,25.80601692199707,-0.03180709481239319,-79.78284310411803,40.45890584568521,263.9392932701111,0.006671257317066193,-0.0226344894617796,0.941794753074646,0.3353593945503235,-0.0047272963929430286,-0.0024843129510862226,0.005943365014948489,-0.00375335942953825,0.0012397709069773555,-0.003783633699640632,-0.3787952380254865,0.26511412812396884,-9.801125680804251
1.61,3.799999952316284,153.0,25.8160343170166,-0.03180709481239319,-79.78284309763048,40.45890584528666,263.9398953962326,0.006674736738204956,-0.02261299639940262,0.9417994022369384,0.33534765243530273,-0.00623870639152874,-0.003620802541325594,0.006186504206947057,-0.008030845783650875,-0.00415935879573226,-0.007318665739148854,-0.3860735231637955,0.27348580604419115,-9.801298173666002
1.8,4.0,154.0,25.801008224487305,-0.02385532110929489,-79.78284318052131,40.45890579820453,263.95250308990484,0.006685189437121153,-0.02262568101286888,0.941792368888855,0.3353663682937622,-0.002485292713273187,0.003460663204134916,0.008835667198185345,-0.007770633790642023,-0.004968563560396433,-0.0009441417059861124,-0.3879200373217464,0.28152165278792385,-9.801805127263073
1.9,4.199999809265137,157.0,25.804765701293945,-0.02385532110929489,-79.78284322508559,40.45890576127243,263.9640456485748,0.006669673603028059,-0.022647228091955185,0.9418080449104308,0.3353211581707001,-0.0019042164292656198,0.005069261585250881,0.010274675459291107,-0.0011383350938558578,0.004380451049655676,0.0012952541001141071,-0.3853919205442071,0.2443924181163311,-9.804809426665306
2.1,4.199999809265137,157.0,25.797252655029297,-0.06361418962478638,-79.78284322694113,40.45890575049064,263.96607840538024,0.006679360754787922,-0.022629467770457268,0.941804587841034,0.3353320062160492,-0.0033476810513667424,0.0036893482553107078,0.010399145704661024,0.008807213045656681,-6.378222315106541e-05,0.007919613271951675,-0.3827292447164655,0.2516212211921811,-9.805859586596489
2.2,4.300000190734863,157.0,25.796001434326172,-0.09542128443717957,-79.78284325850713,40.458905725869066,263.97848177433013,0.006670681294053793,-0.022628046572208405,0.9418103694915771,0.3353160619735718,-0.004468021401358879,0.002078000045550937,0.011358781002806876,0.002671181922778487,-0.0041535180062055605,-0.0016647472511976955,-0.3860570413246751,0.2668715636059642,-9.800110604166985
2.41,5.199999809265137,155.0,25.80351257324219,-0.07156596332788467,-79.78284331301951,40.45890570018119,263.99221826076507,0.006653465796262026,-0.0226424727588892,0.9418106079101562,0.3353146016597748,-0.001970876754006834,0.002779750655798596,0.012433215090672816,-0.009514309465885162,-0.0025909938849508762,-0.0044274525716900826,-0.38658745687454943,0.27573402391746643,-9.799351635575297
2.51,5.300000190734863,156.0,25.80351257324219,-0.11132483184337616,-79.7828433136502,40.45890569715355,263.993450050354,0.006636271718889475,-0.022645669057965282,0.941805064678192,0.3353303074836731,-0.002119641871362588,0.001500752536331606,0.012778480671809143,-0.0006928819348104298,0.0033127544447779647,0.006127082277089357,-0.3890065961703658,0.2447382078319788,-9.805424553751946
2.7,5.5,157.0,25.79474830627441,-0.08746951073408127,-79.78284334896874,40.4589056851761,264.00800109386444,0.006608357653021813,-0.022630689665675163,0.9418068528175354,0.3353267908096313,9.735838638753481e-06,-0.0020734351689623426,0.01283364277802383,0.0045341714285314074,0.004028684459626675,0.003712876001372933,-0.3873056045919657,0.25469265393912793,-9.807896756529807
2.81,5.699999809265138,156.0,25.80601692199707,-0.039758868515491486,-79.78284334642066,40.45890568620562,264.0093202638626,0.00661129504442215,-0.02260829508304596,0.9418058395385742,0.33533117175102234,-0.0009711157093964623,-0.003532789140753781,0.013102619640323342,-0.0011114833177998662,-0.003209551563486457,-0.004315981175750494,-0.3828506840765477,0.2770403101667762,-9.800008277893069
3.0,5.599999904632568,158.0,25.81102561950684,-0.015903547406196594,-79.78284343779231,40.45890564567019,264.0243072557449,0.006603583693504334,-0.022640669718384743,0.9418049454689026,0.3353314697742462,0.0011537832624652228,0.003556082492438907,0.013851256317112206,-0.009403101168572904,0.0015286178095266225,-0.010110496543347836,-0.3857447634637356,0.27910671617835764,-9.799914722442628
3.1,5.599999904632568,160.0,25.814781188964844,-0.015903547406196594,-79.78284344211968,40.458905643627794,264.02567625522613,0.0065972600132226935,-0.022644577547907836,0.9418102502822876,0.3353166878223419,0.0010198855481091532,0.002730050439281459,0.013998123928721077,-0.003284607781097293,-0.0006023154710419476,0.0020468805450946093,-0.3892365379258991,0.2570907798036933,-9.802771672010422
3.3,5.5,158.0,25.804765701293945,-0.02385532110929489,-79.78284348017498,40.458905584012925,264.04131365299224,0.006606515496969223,-0.022635893896222115,0.9418060779571532,0.3353286683559418,-0.003074970148458563,0.00518106850974969,0.014345433452791453,0.009698847308754921,0.0005627765785902739,0.006503362208604814,-0.3803989465534687,0.2438373346254229,-9.803901354074476
3.4,5.5,157.0,25.81853675842285,-0.02385532110929489,-79.78284356533754,40.45890557251186,264.05641246318817,0.006579839624464512,-0.02263522893190384,0.9418049454689026,0.3353325426578522,0.004769307044785242,0.004938573184818029,0.013952472725518495,0.005127348937094212,0.0020444728434085846,0.005635499488562346,-0.3829892630875111,0.2632760193385184,-9.801844888329509
3.6,5.599999904632568,156.0,25.80601692199707,-0.02385532110929489,-79.7828435788762,40.45890556987686,264.0592469024658,0.0065908576361835,-0.022649534046649933,0.9418054819107056,0.3353298008441925,0.002278280152908004,0.0033492316511023953,0.01458763065942698,-0.010243396274745464,-0.0011302544735372064,-0.005052388645708561,-0.3858113120868801,0.2778925235755741,-9.800058563947678
3.71,5.699999809265138,155.0,25.81102561950684,-0.015903547406196594,-79.78284359418066,40.4589055420736,264.07454252719884,0.006598903331905603,-0.02266244031488896,0.9418128132820128,0.3353082239627838,-0.001607558779091323,-0.0007971382652892585,0.014129834775976844,-0.0017314815195277331,-0.001008286140859127,0.0018889463972300289,-0.38530114252120257,0.2498882891982794,-9.802475218176845
3.91,5.199999809265137,156.0,25.80351257324219,-0.03180709481239319,-79.78284366071611,40.4589055335489,264.08994329452514,0.006571799982339144,-0.022642772644758224,0.9418025612831116,0.33533889055252075,0.0050060853737643645,-0.0019852711756831306,0.011569020640314192,0.00596594950184226,0.0002892160846386105,0.003429486649110913,-0.3799852925911546,0.248280798252672,-9.802810263633727
4.0,5.199999809265137,155.0,25.80601692199707,0.03180709481239319,-79.78284366298627,40.458905537126185,264.09113002300256,0.006558483000844717,-0.02266241051256657,0.9418014883995056,0.3353407084941864,0.0033281170895590488,-0.002595749979161651,0.011810754516272913,-0.0008427976281382142,1.8787455701385625e-05,-0.0009261024533770976,-0.38189689356833706,0.2745334443636239,-9.800109434723854
4.2,5.099999904632568,154.0,25.81227684020996,-0.02385532110929489,-79.78284370458135,40.45890549451509,264.107640748024,0.0065673659555614,-0.022646747529506683,0.941803514957428,0.33533599972724915,-0.00013164367709243976,-0.001163892681805975,0.01288644033676716,-0.0056255883537232884,-0.0011596656404435635,-0.003295409260317683,-0.3857725742831826,0.2764420486427844,-9.800173169374467
4.31,5.199999809265137,153.0,25.814781188964844,-0.039758868515491486,-79.78284370347387,40.45890549437982,264.10892904281616,0.0065722018480300895,-0.022657014429569244,0.9418054819107056,0.3353296220302582,-0.0008354621254821268,-0.001365665784457367,0.01289872050821538,0.0031708688475191593,-0.0002294541336596012,0.0030479757115244865,-0.3810160470753908,0.2492034888826311,-9.804512388110162
4.5,5.199999809265137,152.0,25.80351257324219,0.007951773703098297,-79.78284379253004,40.458905456660005,264.1234908151626,0.00653834268450737,-0.022658482193946842,0.9418076276779176,0.33532413840293884,0.0036484135368756603,0.002662859770546002,0.009998189080036872,-0.0003615636378526688,-0.0007642917917110026,0.0015408755280077455,-0.379955471791327,0.2521874143928289,-9.802839499711993
4.61,5.099999904632568,153.0,25.796001434326172,0.06361418962478638,-79.78284379660039,40.45890545623945,264.1244982528686,0.006545700598508121,-0.022629987448453903,0.941811740398407,0.33531454205513,0.001030596260926325,0.002645998982131931,0.010193438437765474,-0.008372550830245018,-0.0015736037166789176,-0.006841533351689577,-0.3769042119383812,0.2726987890899181,-9.798803166747094
4.8,5.300000190734863,153.0,25.81102561950684,0.015903547406196594,-79.78284380136539,40.458905415386795,264.14152074337,0.006515044253319503,-0.02263885736465454,0.9418171644210817,0.3352993130683899,-0.0017840761307994484,-0.0034812950020077947,0.01157807854579297,0.007422092370688915,0.0008941097185015677,0.00279375072568655,-0.3746119937673211,0.25614892126992345,-9.802903819084168
4.9,5.199999809265137,157.0,25.797252655029297,0.007951773703098297,-79.78284379667504,40.45890541492491,264.14268935203546,0.006509941536933185,-0.02265517972409725,0.9418179988861084,0.3352959454059601,-0.002922931937210244,-0.003368494355280973,0.011656795038149249,0.00840731244534254,0.0067386520095169536,0.007699295412749051,-0.38674715895205736,0.25879632124677304,-9.801870031356813
5.1,5.199999809265137,158.0,25.807270050048828,0.04771064221858978,-79.78284385991228,40.45890537452342,264.1598409461975,0.0065055382438004026,-0.022645696997642517,0.9418195486068726,0.335292249917984,-0.0027915794059606685,-0.0010321234147256204,0.013171721852873644,-0.009686678647994995,-0.003652136074379087,-0.007239160127937794,-0.3913448977097869,0.2687497075460851,-9.798566354513168
5.21,5.099999904632568,157.0,25.802261352539066,0.05566241592168808,-79.78284393383285,40.458905319958745,264.1764863777161,0.006523270159959793,-0.02263796143233776,0.9418294429779052,0.3352646231651306,-0.0002066226014146332,0.004086685426864371,0.016206963052828163,-0.007543504238128662,0.0009802066488191485,-0.0010403543710708618,-0.3850696293264628,0.2594555399939418,-9.801852489709855
5.4,5.300000190734863,152.0,25.80351257324219,0.015903547406196594,-79.78284399119634,40.45890529464178,264.1950947093964,0.006541470531374215,-0.0226138923317194,0.9418269991874696,0.3352726697921753,0.0053926784849841255,0.0013593646559160314,0.01845994557250873,0.009966053068637848,0.0017337272875010967,0.00804836954921484,-0.3833589167520404,0.24257334932684896,-9.805028112530707
5.51,5.199999809265137,151.0,25.79850578308105,0.04771064221858978,-79.78284399540004,40.4589052952996,264.1969777393341,0.006523591466248035,-0.022613512352108955,0.9418219923973083,0.3352870941162109,0.004654853958698232,0.0002471631271670024,0.018697207003368015,0.011323967017233372,6.584943184861913e-05,0.004357445053756237,-0.3837700856477023,0.2584786164388061,-9.802495098710061
5.7,5.300000190734863,153.0,25.80351257324219,0.007951773703098297,-79.7828440576682,40.45890525065574,264.2138750600815,0.006508739199489355,-0.02261523902416229,0.941827356815338,0.33527234196662903,0.0033542485909543213,0.0016031164817075993,0.017470512403240976,-0.004085369408130646,-0.0017452016472816467,-0.0028217092622071505,-0.3798493448272348,0.2735516420379281,-9.801149654388428
5.8,5.300000190734863,152.0,25.80351257324219,0.039758868515491486,-79.78284406196572,40.45890525070163,264.21561336994165,0.006502164527773857,-0.022647401317954063,0.9418213367462158,0.3352869749069214,0.0018677610224088871,0.0010040711410233987,0.017534622714261167,-0.006676864810287952,-0.00526949902996421,-0.010377334430813793,-0.3901432948932052,0.2856351324543357,-9.800993533730509
6.01,5.400000095367432,153.0,25.80601692199707,0.0,-79.78284412150802,40.45890519182671,264.2351162481308,0.006530956830829382,-0.02263186126947403,0.9418220520019532,0.3352857530117035,-0.00020413978778216417,0.0047932433462528285,0.0198802934413534,-0.007235107012093067,-0.004824141040444374,-0.007015930488705635,-0.3897284714877606,0.2819021968916059,-9.799539915919306
6.1,5.400000095367432,156.0,25.79975700378418,0.04771064221858978,-79.78284412497105,40.45890518913832,264.2371087121964,0.006521320436149836,-0.022636523470282555,0.9418200254440308,0.33529117703437805,0.0003756807440681386,0.003370679134471304,0.02016091253269487,0.0017934219213202594,-0.0035195283126086,0.00161677785217762,-0.3772496362030506,0.24810817748308184,-9.802143681049348
6.3,5.599999904632568,153.0,25.79975700378418,0.03180709481239319,-79.78284416266497,40.4589051694864,264.2537305402756,0.006529963575303554,-0.022599285468459133,0.941822588443756,0.33528637886047363,0.0006178528516926838,-0.002482750895239865,0.01878364506290256,0.006749052088707686,0.009064836427569393,0.0027388273738324642,-0.374765994809568,0.2488608603179455,-9.802099242210387
6.4,5.5,156.0,25.809772491455078,0.05566241592168808,-79.78284423858003,40.458905120242974,264.2685220885277,0.006523493211716414,-0.022597108036279682,0.9418368339538574,0.3352465927600861,0.0022012908432437078,0.003863301211424031,0.017333483616528745,-0.002459107665345073,-0.0018375661456957464,-0.0031020548194646835,-0.4072337195277214,0.2802794300951064,-9.800762568712237
6.6,5.599999904632568,154.0,25.81102561950684,0.03180709481239319,-79.7828442497818,40.45890511537315,264.27196181297296,0.0065349391661584395,-0.02259631082415581,0.9418485164642334,0.3352134227752685,0.001572422612444284,0.00371997328208404,0.017363794534752033,-0.0012442555744200945,-0.005395490676164627,0.00605201069265604,-0.38610666956752543,0.26398861220106484,-9.799746907353402
6.7,5.800000190734862,154.0,25.797252655029297,0.04771064221858978,-79.78284430454242,40.45890506871561,264.28918576717376,0.0065221325494349,-0.02256869524717331,0.9418483376502992,0.335216224193573,0.0007740411079917428,0.00702529151078507,0.019445720795692168,0.009130560792982578,-0.003301860066130757,0.006287002936005592,-0.3733290415629745,0.2384323146566749,-9.799904197454454
6.9,6.199999809265138,155.0,25.79975700378418,0.039758868515491486,-79.78284431358892,40.45890505947219,264.2931034612656,0.006496285554021597,-0.022596057504415512,0.9418490529060364,0.3352127969264984,-0.0002797813996592859,0.004526301636605639,0.020036070510863608,0.005704345647245646,0.004876522812992334,0.0052292486652731895,-0.3842733481898904,0.2639285686053336,-9.798178099393843
7.0,6.300000190734862,156.0,25.78973960876465,0.015903547406196594,-79.78284436713507,40.45890505037529,264.3082658696174,0.006472377572208643,-0.02261750586330891,0.9418700337409972,0.3351529836654663,0.00452276967109333,0.0013730757588122026,0.017493970556223443,0.0077134701423347,-0.0015169697580859065,0.00707946252077818,-0.3840336854383349,0.2540256328135729,-9.802557663917543
7.2,6.4000000953674325,157.0,25.802261352539066,0.05566241592168808,-79.78284441360776,40.45890500927922,264.32497454166406,0.0064714751206338406,-0.02259323373436928,0.9418613910675048,0.3351788818836212,0.0019500044399536761,0.004521616898456239,0.017263500344172025,0.010085592977702621,0.0038674790412187576,0.011392257176339626,-0.3927727877721191,0.2614603309705853,-9.799141135811807
7.31,6.5,156.0,25.79850578308105,0.04771064221858978,-79.78284441753564,40.458905007338814,264.3266965198517,0.006482440512627363,-0.022603189572691917,0.9418787360191344,0.335129052400589,0.0008694745618806298,0.003370002369611741,0.017728506853681058,0.002756011439487338,0.0019432741682976484,0.006810630671679975,-0.3751887850463391,0.2438157364726067,-9.807067036628725
7.5,6.5,155.0,25.808521270751953,0.05566241592168808,-79.78284446473971,40.45890498068207,264.3431661176681,0.006472947541624308,-0.02258565090596676,0.9418724179267884,0.3351483643054962,0.0018289457347710173,0.0014198786295299133,0.01681313865273385,-0.0006239826907403767,0.0039821271784603604,-0.0019117611227557067,-0.39031966153532266,0.2753276789747179,-9.801395237445833
7.6,6.4000000953674325,154.0,25.807270050048828,0.03180709481239319,-79.78284446782044,40.458904979780826,264.3448441672325,0.00646510673686862,-0.022588102146983147,0.9418814778327942,0.33512285351753235,0.001581923437967926,0.0016442619315409645,0.016753222528766827,0.00695263035595417,0.002417904091998935,0.001403733273036778,-0.3849900706484914,0.2439555397443473,-9.802260040640832
7.8,6.099999904632568,152.0,25.81227684020996,-0.039758868515491486,-79.7828445230728,40.45890493168691,264.3610472726822,0.00646592304110527,-0.022579247131943703,0.9418795704841614,0.3351287841796875,4.318634498363952e-05,0.005442083931313609,0.01637296829752603,-0.009432341903448105,0.0010771608212962749,-0.002527146600186825,-0.38463244032114746,0.2572898044064641,-9.803376274108887
7.91,6.099999904632568,155.0,25.814781188964844,-0.03180709481239319,-79.78284460129261,40.458904915455825,264.3760422515869,0.006451842375099659,-0.022544533014297485,0.9418801069259644,0.3351299464702606,0.005318061798637228,0.007217713811779399,0.015679219375038637,-0.00833195447921753,-8.932677883422002e-05,-0.009050811640918257,-0.3773742915317416,0.2818708229251206,-9.798864562511444
8.1,6.0,153.0,25.808521270751953,-0.03180709481239319,-79.78284462081463,40.45890491144026,264.379132335186,0.006434578448534012,-0.02255161665380001,0.9418739080429076,0.3351471424102783,0.0054468692256769615,0.005787415818557451,0.015528842847267969,0.0032295000273734327,0.0015814362559467554,0.0006835869280621409,-0.38589711997658016,0.2866969868168235,-9.798312000632288
8.2,6.0,152.0,25.804765701293945,-0.03180709481239319,-79.7828446264524,40.45890489632164,264.3941755342484,0.006445377599447966,-0.0225219875574112,0.9418770670890808,0.3351401090621948,0.0021479162425391447,0.0009040406248009877,0.015048644468070232,0.009946065954864023,0.0017473796615377069,0.00636036554351449,-0.38002786763012414,0.25888806771487,-9.797294000387193
8.4,5.599999904632568,154.0,25.79099273681641,-0.08746951073408127,-79.78284471278008,40.45890488462304,264.4111222076416,0.006440286058932543,-0.022530639544129368,0.9418895840644836,0.3351045846939087,0.008026717969106971,0.006552580987663014,0.014363539499890837,0.013064650818705559,0.0012019674759358168,0.011939811520278454,-0.3780135018378497,0.2540464817918837,-9.802317928075787
8.5,5.400000095367432,151.0,25.79349708557129,-0.09542128443717957,-79.78284472381986,40.45890488367725,264.4125649380684,0.006435539107769728,-0.022532742470502853,0.941891610622406,0.3350987136363983,0.008219427186953121,0.0048331680446705464,0.014302545369782843,0.011778387241065502,0.003907651640474796,0.010646573267877102,-0.3818907905369997,0.2436522519774735,-9.80343883931637
8.7,4.800000190734863,151.0,25.79975700378418,-0.039758868515491486,-79.78284475585913,40.45890483821214,264.4300806570053,0.0064374846406280994,-0.02252804860472679,0.9418970346450806,0.3350837528705597,0.0011053904005718358,0.007008209585506247,0.014785727542592187,0.009372750297188759,0.003758679842576385,0.008401400409638882,-0.3787226229161024,0.2473096853680909,-9.801802203655244
8.8,4.599999904632568,152.0,25.81227684020996,-0.039758868515491486,-79.78284476120176,40.45890483278112,264.43153119564056,0.006416649557650089,-0.0225267130881548,0.9418964982032776,0.3350858986377716,0.0005530114214037774,0.00576471871762265,0.014763314891120816,0.0088740149512887,0.0036759937647730103,0.006911436561495066,-0.3868669537827373,0.2542828737571836,-9.801089428067208
9.0,4.300000190734863,153.0,25.81102561950684,-0.015903547406196594,-79.78284478779284,40.45890478197517,264.4496285367012,0.006417762022465468,-0.02251285314559936,0.9418958425521852,0.3350885212421417,-0.0051561713249406865,0.008186798918168613,0.014946536709523159,-0.0017594704404473305,0.0013697874965146186,0.0009901177836582065,-0.38225196573883297,0.26623801779001954,-9.80083448946476
9.1,4.199999809265137,155.0,25.804765701293945,-0.007951773703098297,-79.78284478835099,40.458904773175114,264.4510829496384,0.006429416593164206,-0.02248907275497913,0.9418927431106568,0.33509862422943115,-0.00594741323614608,0.006721269883747018,0.01496710377965496,-0.0067229699343442926,0.0006453979294747112,-0.00547699723392725,-0.38345926959067583,0.2791347828134895,-9.796593503952025
9.31,4.0,156.0,25.809772491455078,-0.03180709481239319,-79.78284488531455,40.45890479000442,264.46858323097234,0.006457612849771977,-0.0225057490170002,0.9418841004371644,0.33512115478515625,0.004724713888418949,0.004021601208711085,0.014503441994865397,-0.005914682522416115,-0.0014264233177527785,-0.0037086457014083854,-0.3886350056156516,0.28269867902621626,-9.798127813339232
9.41,3.9000000953674316,157.0,25.81352996826172,-0.02385532110929489,-79.78284492987672,40.458904796957185,264.48511273145675,0.006446960382163525,-0.02249664068222046,0.9418843984603882,0.33512112498283386,0.008662830320338965,0.0009940474677989518,0.013980288750824462,0.0054512713104486465,0.0027682026848196983,0.005837293807417154,-0.3854837949201465,0.2507039026916027,-9.801153747439383
9.6,3.700000047683716,164.0,25.80351257324219,-0.02385532110929489,-79.78284494466607,40.458904803486426,264.48792911052703,0.006433847360312939,-0.02250832319259644,0.9418811202049256,0.33512985706329346,0.006546642495787995,-0.0001189877214757566,0.013915607773073322,-0.0045763002708554285,-0.003571461653336883,-0.005057686008512974,-0.3821173701435328,0.2574397123977542,-9.800198897123336
9.7,3.5999999046325684,160.0,25.814781188964844,-0.03180709481239319,-79.78284496756028,40.45890475963244,264.5052912282944,0.006447943393141031,-0.022536687552928925,0.941885769367218,0.3351145386695862,0.00029928806291009883,0.0037509219678031757,0.014445433192993863,-0.00522251334041357,0.00014409847790375352,-0.0003065522469114512,-0.3837529094517231,0.2605808731913567,-9.799526467323304
9.9,3.299999952316284,163.0,25.804765701293945,-0.03180709481239319,-79.78284504152089,40.45890472688016,264.52446926116943,0.006436352152377367,-0.02252690680325032,0.9418877363204956,0.3351099193096161,0.002862960521253484,0.008159147739109661,0.014664685772464962,-0.00595940463244915,-0.001377945183776319,-0.004363972693681717,-0.3801845364645124,0.2523267791233957,-9.800194219350816
10.0,3.0999999046325684,164.0,25.804765701293945,-0.03180709481239319,-79.7828450503103,40.458904722326494,264.5259088921547,0.00643007317557931,-0.02251576632261276,0.9418919682502748,0.3350989520549774,0.0022524011837282308,0.007356109013999654,0.014623503218123212,-0.0017255673883482814,-0.0019912354182451963,-0.003108723321929574,-0.3852198662236333,0.2570614706352353,-9.80027491092682
10.2,2.9000000953674316,170.0,25.804765701293945,-0.03180709481239319,-79.78284511932233,40.45890473267941,264.54400504112243,0.0064334324561059475,-0.0224965400993824,0.9418940544128418,0.3350942730903625,0.008347544494396555,0.003272778529340021,0.014102961187692362,-0.008144528605043888,-0.0040052784606814384,-0.004687871783971786,-0.3833895415440202,0.2601986845582724,-9.799811811447144
10.31,2.9000000953674316,171.0,25.802261352539066,-0.039758868515491486,-79.78284512963796,40.45890473502643,264.54541278362274,0.0064413012005388745,-0.02248825691640377,0.9418933391571044,0.3350968360900879,0.008696998125072953,0.0022565501312547327,0.013859262353156716,0.004563633352518082,-1.7290463802055452e-05,0.005209417082369328,-0.3808663218095899,0.2509027445688844,-9.800360280275346
10.5,2.700000047683716,172.0,25.828554153442386,0.039758868515491486,-79.78284517827733,40.458904752861365,264.56413811922073,0.006446171551942825,-0.022481855005025864,0.941897749900818,0.3350847363471985,0.01135402533923884,-0.003170720016933841,0.013527763076522252,-0.004144330974668264,0.0020135254599154,0.003964362666010857,-0.3827134572342039,0.2704435180127621,-9.797978124618533
10.61,2.5999999046325684,174.0,25.814781188964844,-0.02385532110929489,-79.78284518610567,40.45890476119739,264.5655279803276,0.006440236233174801,-0.02247103676199913,0.9419001936912536,0.3350785970687866,0.011526139812590895,-0.004295177354942101,0.01342605691417855,0.006857259664684534,0.002692959737032652,0.004901320207864046,-0.3850322071462871,0.2616597392968833,-9.800145687460901
10.8,2.4000000953674316,173.0,25.79975700378418,-0.039758868515491486,-79.78284526587886,40.45890473789788,264.58393151044845,0.006418044213205576,-0.02247710339725017,0.94190776348114,0.33505743741989136,0.012607292477816556,9.000788769470638e-05,0.013500599568570795,0.0056921932846307755,-0.0022940840572118763,0.0034153813030570745,-0.3843894519656897,0.2658714887313545,-9.798903738856318
10.9,2.299999952316284,178.0,25.79975700378418,-0.039758868515491486,-79.78284528679076,40.458904694978386,264.59935027837747,0.006410034839063883,-0.02248784713447094,0.94191312789917,0.3350418508052826,0.005540867867737453,0.002285133548854832,0.01111969363484059,-0.007153965067118406,-0.005130129866302013,-0.006082437466830015,-0.3843609102442861,0.2715555670671165,-9.798779193162918
11.1,2.299999952316284,178.0,25.814781188964844,-0.03180709481239319,-79.78284529911717,40.4589046985836,264.6015533256531,0.006427265238016844,-0.02247922495007515,0.9419162273406982,0.3350330889225006,0.004631107054331386,0.00036428432829214616,0.010926965803221764,-0.006521805189549923,-0.0030939728021621704,-0.006266443058848381,-0.3794422324374319,0.2543991237133741,-9.799731704592704
11.2,2.299999952316284,179.0,25.80601692199707,-0.02385532110929489,-79.7828453195232,40.458904675237655,264.6194939661026,0.00641297921538353,-0.0224818866699934,0.941917598247528,0.3350295126438141,0.0037814825685943774,-0.000865064849957158,0.01417055141893051,0.00497338455170393,-0.0004114009207114577,0.006343397777527571,-0.3837533114477992,0.2534985976852477,-9.800153873562813
11.4,2.0999999046325684,180.0,25.802261352539066,-0.03180709481239319,-79.78284539864963,40.45890463476772,264.6384218382836,0.006390058901160954,-0.022504018619656563,0.941919207572937,0.33502396941185,0.007704102489559611,0.006605795496585082,0.017237349832430124,0.004832109436392784,0.0015268460847437382,0.004845256917178631,-0.3851211213693023,0.2728355043008924,-9.797985725998881
11.51,2.0999999046325684,177.0,25.80351257324219,-0.03180709481239319,-79.78284541022639,40.45890463365151,264.6401369023323,0.0063765812665224075,-0.022492773830890656,0.9419174194335938,0.3350300192832947,0.006601499844010547,0.0059352450939265606,0.017192609004560138,-0.004845187533646822,-0.0013095641043037176,-0.001501395832747221,-0.3854228011518717,0.2727781650424004,-9.797523795962334
11.7,2.299999952316284,173.0,25.804765701293945,-0.02385532110929489,-79.78284543850619,40.458904603222095,264.657372777462,0.006379638332873583,-0.022492410615086555,0.9419174194335938,0.3350300192832947,0.004045426423259347,0.002991230283042323,0.01623196450093281,-0.002507818629965186,0.0013867003144696355,-0.0025979052297770977,-0.3801686028018594,0.25409302197396755,-9.798582726716996
11.82,2.299999952316284,173.0,25.809772491455078,-0.03180709481239319,-79.78284544454408,40.458904603084676,264.65899211645126,0.00637770863249898,-0.02249457687139511,0.941916823387146,0.33503156900405884,0.0042703095526132676,0.00219220986159746,0.016087733113607658,0.002488817553967237,-0.0004851826524827629,0.0014978774124756455,-0.3808950097113848,0.2530410165153444,-9.800033420920373
12.0,2.299999952316284,175.0,25.814781188964844,-0.03180709481239319,-79.78284546637893,40.458904550223174,264.676011865139,0.0063803340308368215,-0.022502511739730842,0.9419159293174744,0.3350333869457245,0.000334284075709616,0.002569393123143321,0.015624578798013922,0.002442994620651007,-3.7707948649767786e-05,0.0036406386643648148,-0.3834241132065654,0.2720752749033272,-9.797083500623703
12.11,2.299999952316284,173.0,25.80601692199707,-0.05566241592168808,-79.78284546809665,40.45890454783992,264.6775633740425,0.0063803340308368215,-0.022502511739730842,0.9419159293174744,0.3350333869457245,-0.0004885836417007081,0.0019279132893464247,0.015661063985946858,-0.0017298366874456403,-0.001661660149693489,-0.001057387446053326,-0.385681832805276,0.271718777474016,-9.79828217983246
12.3,2.299999952316284,167.0,25.79850578308105,-0.07156596332788467,-79.78284551206079,40.45890453268776,264.693527226448,0.006373618729412557,-0.022502237930893898,0.9419153332710266,0.3350352048873901,0.0029973540144070283,-0.0004924563072721363,0.01475201333815169,-0.000375425152014941,-0.000297210382996127,-0.0049346131272614,-0.3809876149892808,0.25438483458012345,-9.800072597265245
12.4,2.299999952316284,165.0,25.802261352539066,-0.02385532110929489,-79.78284555317646,40.458904528456934,264.7093108344078,0.006374672055244446,-0.022501815110445026,0.9419168829917908,0.3350309133529663,0.008411147040101662,-0.003780320688900197,0.017077607278622172,0.0014058673987165091,-0.0016812337562441824,0.001936111249960959,-0.3821412340924144,0.2570254188962281,-9.799736967086794
12.61,2.200000047683716,162.0,25.81227684020996,-0.02385532110929489,-79.78284556137041,40.458904542959104,264.7127761292457,0.006374643184244633,-0.02247334085404873,0.9419255256652832,0.33500832319259644,0.007534741624391678,-0.005537399056002052,0.016891710291418692,-0.00352221610955894,-0.0003121744666714221,-0.00514025567099452,-0.38152972497046,0.2654179092496633,-9.79792666912079
12.7,2.299999952316284,156.0,25.809772491455078,-0.03180709481239319,-79.78284560057078,40.45890448667058,264.72802412986755,0.00636138953268528,-0.022478222846984863,0.941926658153534,0.3350052237510681,0.006018545667807629,-0.0001883471500573246,0.01896089828984084,0.008547924458980559,0.00528704421594739,0.006453253794461489,-0.3828945381939412,0.2600572184845805,-9.798821293115617
12.9,2.200000047683716,153.0,25.797252655029297,-0.07156596332788467,-79.78284564162425,40.458904419821685,264.74468023061746,0.006356178317219019,-0.022479074075818062,0.9419313669204712,0.3349919617176056,0.002406080995279339,0.005514755014203356,0.02051790759758804,0.007972509600222109,-0.0005559007986448705,0.002671712543815375,-0.3846529786661267,0.2690583674423397,-9.798172836899758
13.01,2.200000047683716,153.0,25.808521270751953,-0.03180709481239319,-79.78284564736488,40.45890441614456,264.7467162656784,0.006346945185214281,-0.02247339300811291,0.941923975944519,0.33501341938972473,0.001026702022281122,0.004842883874183194,0.020524291620777544,-0.004926541354507208,-0.0015076812123879788,-0.002317385049536824,-0.385151124894619,0.27374096391722563,-9.796850781440735
13.2,1.8999999761581416,156.0,25.81102561950684,-0.039758868515491486,-79.78284566591617,40.45890439623688,264.7619835782051,0.00633263448253274,-0.02246434614062309,0.941929817199707,0.33499792218208313,0.0026877771670971817,-0.0004876056693764071,0.020861578118787968,0.00045646601938642556,-0.0005051089683547616,0.0025532571598887444,-0.3831551778316498,0.25193887118250136,-9.799912383556368
13.31,1.8999999761581416,160.0,25.79850578308105,-0.039758868515491486,-79.78284566781845,40.458904397170045,264.7640696215629,0.006336804479360581,-0.022476239129900932,0.9419339299201964,0.33498528599739075,0.002074503270184043,-0.0012290536079608335,0.0207126614204509,-0.004579192493110895,-0.002133209491148591,0.0005710719851776958,-0.3857289028912783,0.25957369029521943,-9.798634182214736
13.5,1.7999999523162842,162.0,25.81227684020996,-0.015903547406196594,-79.78284570364761,40.45890436505249,264.77913460612297,0.0063180155120790005,-0.022478315979242325,0.94193297624588,0.3349883854389191,0.0030532642670021864,-0.0003330011049440249,0.02133328133832416,-0.006604916416108608,-0.0007834089337848128,-0.0034340890124440193,-0.3824471531063319,0.26024158850312235,-9.799593125581742
13.6,1.7000000476837158,165.0,25.81352996826172,-0.015903547406196594,-79.78284570625384,40.45890436675728,264.7812617468834,0.0063180155120790005,-0.022478315979242325,0.94193297624588,0.3349883854389191,0.0040486398677931894,-0.0015206464936664554,0.021074295226448242,0.005712851881980896,0.001024561352096498,0.005760492291301489,-0.3835159875825048,0.25772902166470885,-9.799310120344165
13.8,1.600000023841858,163.0,25.81102561950684,-0.02385532110929489,-79.78284574079015,40.458904313248965,264.7937648642063,0.006315638311207295,-0.022488148882985115,0.9419322609901428,0.3349898159503937,0.0026669546949681434,0.0018608737025702167,0.01874408835516169,0.005097175482660532,0.0022648696321994066,0.007862959057092667,-0.3850247519463301,0.2704852707870305,-9.798371642231944
13.9,1.600000023841858,165.0,25.81227684020996,-0.02385532110929489,-79.78284579281734,40.45890429453132,264.8038471388817,0.006305639632046223,-0.02248720452189445,0.9419323801994324,0.3349896669387817,0.008317461654296854,0.002491889198752684,0.016432124470398768,-0.004296893253922463,-0.002952898619696498,-0.00750091765075922,-0.3853785815834999,0.2708609543927014,-9.797686348557471
14.1,1.5,164.0,25.73965835571289,0.9621646404266356,-79.78284581114478,40.45890430041456,264.80713129520416,0.0062999720685184,-0.02249612845480442,0.9419735074043274,0.3348734378814697,0.007600843303879886,0.0010595976464134237,0.016224501610149197,-0.0006353599019348621,-0.00233133346773684,-0.011878205463290216,-0.38261372566223145,0.2549745810963214,-9.799386134147644
14.2,1.5,165.0,25.778472900390625,0.2942156493663788,-79.78284582542075,40.45890429145723,264.8167434978485,0.006314059719443321,-0.02248623222112656,0.9419203400611876,0.3350234627723694,0.01177978782298298,-0.002700612957805326,0.014984429452741763,0.008687674999237059,0.0065981647931039325,0.012904849834740162,-0.3825362135097385,0.2509767483919859,-9.799629963040353
14.4,1.5,168.0,25.774715423583984,0.2942156493663788,-79.78284582825168,40.45890424583728,264.8294824409485,0.00629567401483655,-0.02247936651110649,0.941929817199707,0.3349975347518921,0.006344382009524629,-7.323830349165823e-05,0.017078400823062074,0.0038411500863730907,-0.0014540747506543994,0.0007601919351145625,-0.37815295793116094,0.2818610836565495,-9.798269315958024
14.5,1.5,167.0,25.77721977233887,0.278312087059021,-79.7828458328106,40.45890424897737,264.8312143135071,0.00627356581389904,-0.022478541359305385,0.9419696927070618,0.33488577604293823,0.005329633889052553,-0.0016841299822604645,0.01727896098550329,-0.0028175204060971733,0.0008302989299409089,-0.0006173606379888952,-0.3865622773021461,0.2806025801226497,-9.798060570359233
14.7,1.600000023841858,168.0,25.780975341796875,0.2942156493663788,-79.78284582494653,40.45890423073582,264.84161150932306,0.006281077861785889,-0.02249409630894661,0.9419591426849364,0.3349142968654633,0.005174467624040921,-0.0056794702407480255,0.015056747304049206,-0.0040448326617479324,-0.0019089223351329567,0.007446891162544489,-0.3735550729930401,0.25342457558959725,-9.797495144605637
14.81,1.7000000476837158,166.0,25.78347969055176,0.3339745104312897,-79.78284582592809,40.458904236922606,264.8431447792053,0.006279857829213142,-0.022486146539449692,0.9419575333595276,0.3349195420742035,0.004545243198503722,-0.0061470955239866535,0.014928379713336687,0.003894150955602528,-0.001564452424645424,-0.009321611374616623,-0.3817075534164906,0.2534628200344741,-9.803399078249932
15.01,1.7999999523162842,165.0,25.75969123840332,0.3975887000560761,-79.78284581206199,40.458904183650475,264.8512326824665,0.00627954537048936,-0.022477941587567333,0.941969096660614,0.3348873853683472,0.0006775988086084697,-0.002852613456549643,0.01109941508973532,0.005207953974604607,-0.0006574816070497036,-0.002795759355649352,-0.38116405472159387,0.2577759638428688,-9.8017372995615
15.12,1.8999999761581416,164.0,25.76970863342285,0.4532511234283447,-79.78284581029652,40.45890418599832,264.8523783135414,0.006286107935011387,-0.022450288757681847,0.9419445395469666,0.3349580764770508,-0.0004262616748549655,-0.00408281824588965,0.01166467205180138,-0.007336586248129606,0.0017351991264149547,-0.005471436772495508,-0.3919911612197757,0.2640284646302461,-9.79926860511303
15.31,2.0,164.0,25.668291091918945,1.1689107418060305,-79.78284583661194,40.458904136539374,264.86187935352325,0.006119866855442524,-0.022457551211118698,0.9419335126876832,0.3349919021129608,0.0027798467754902405,-7.669320641485772e-06,0.011339484925822171,0.01664806716144085,0.04201564937829971,0.02220638282597065,-0.3768075501546264,0.2637889846041799,-9.812858119010926
15.4,2.0999999046325684,165.0,25.76970863342285,0.326022744178772,-79.78284584064882,40.458904097821176,264.8692086982727,0.006072051357477903,-0.022527938708662987,0.9419327974319458,0.334989994764328,0.011980811107296778,2.4384911056471274e-05,0.010395403252910678,0.05548030138015747,-0.02622728608548641,0.025241455063223842,-0.4153758211433888,0.1842318780720234,-9.793266438245773
15.61,2.299999952316284,168.0,25.174983978271484,6.1387696266174325,-79.78284584958844,40.4589041008244,264.8714801120758,0.006159539800137281,-0.02242900617420673,0.941940188407898,0.3349744379520416,0.005974291551522818,-0.0011116630961882778,0.012281213536303482,0.004664009436964989,0.0016497452743351464,-0.009837891906499864,-0.4162227537855506,0.2744301130995154,-9.800136331915855
15.71,2.5,166.0,25.69333267211914,0.9303575754165648,-79.78284584981805,40.45890407326992,264.876398806572,0.006081178318709135,-0.022516164928674698,0.941948175430298,0.334947407245636,0.01068375275775708,-0.00042161766502481343,0.006541242068992734,0.019471876323223114,-0.03487745672464372,0.033958710730075836,-0.3902026441320777,0.15728224385529754,-9.800032251477242
15.9,2.700000047683716,164.0,25.78347969055176,0.21469789743423465,-79.7828458479772,40.45890405549161,264.8819045770168,0.00610323715955019,-0.0224611759185791,0.9419678449630736,0.3348955512046814,0.0009021892593966787,-0.0032727793447522987,0.006046101728193085,-0.04529830068349838,0.007045756094157695,0.00446550827473402,-0.3471490105614066,0.2222574726305902,-9.799346373081207
16.01,2.799999952316284,164.0,25.75593566894531,0.5168653130531311,-79.78284585397408,40.45890406212607,264.88244012475013,0.006127879023551941,-0.022414209321141243,0.9419691562652588,0.33489423990249634,0.006820578686785006,-0.0036641573730860546,0.004790827859615959,-0.012441103346645832,0.010377390310168266,-0.011879208497703077,-0.3611200187355279,0.2898880864866078,-9.785221254229548
16.21,3.0,161.0,25.45794677734375,4.4450416564941415,-79.78284584617309,40.45890401123719,264.88746366381645,0.006156946066766977,-0.02242826484143734,0.9419596195220948,0.33491986989974976,0.007793468316846786,-0.0018952607791705327,0.004337255220485311,0.006653556134551764,0.01268054824322462,0.022324731573462486,-0.3746433860063553,0.3088837715238333,-9.802893878817557
16.31,3.0999999046325684,166.0,25.39910125732422,5.590096950531006,-79.78284585114983,40.45890401373155,264.88792133808136,0.006088915280997753,-0.022496998310089108,0.9419432282447816,0.33496248722076416,0.006304969185086775,-0.0012801081161486635,0.005141953232308353,0.0010721214348450305,-0.021619794890284545,-0.004717816133052111,-0.4255810762569309,0.2291941707395017,-9.798021978735925
16.5,3.2000000476837163,169.0,25.210041046142567,8.301651954650879,-79.78284583041311,40.458903967970414,264.8924474465847,0.005924857221543789,-0.02257670648396015,0.9419203400611876,0.33502447605133057,0.008242211274616301,-0.0002498642575766877,0.0033033555186192404,0.02280846051871777,0.019676493480801586,0.006803677417337894,-0.35874023851007225,0.27358458744362,-9.816108001470568
16.6,3.299999952316284,169.0,25.11112976074219,9.558032035827637,-79.78284583204109,40.458903970977396,264.89284494996065,0.005781795363873243,-0.022574964910745617,0.9418966174125672,0.3350938558578491,-0.0018791523644059328,-0.00390922190067535,0.003159698980905077,-0.04816630110144615,-0.05102385953068733,0.046199824661016464,-0.3934128751605749,0.3349152832478285,-9.807146558761595
16.81,3.4000000953674316,168.0,24.82566070556641,12.555850982666016,-79.78284581581995,40.458903923177616,264.8978313553333,0.004867126699537039,-0.02202993631362915,0.9419007897377014,0.3351329267024994,0.0058030290343510345,-0.010032289075717142,0.006572433804063445,0.00814376398921013,-0.08887116611003876,0.09045126289129256,-0.33263033755123617,0.4292497655376792,-9.850034716129304
16.91,3.5,168.0,24.72424507141113,14.48813247680664,-79.78284583751666,40.45890389789689,264.9008489894867,0.0039434367790818214,-0.021117910742759705,0.9418566226959229,0.3353275656700134,0.008542757612414109,-0.0004938401785600489,0.011176551628454276,-0.01645621843636036,0.0015212036669254305,0.16480836272239685,-0.4031627783551812,-0.019678292647004127,-9.812537691593171
17.1,3.700000047683716,167.0,24.427509307861328,18.448116302490234,-79.78284585539389,40.458903926313425,264.9045080590248,0.002642185892909765,-0.01632138155400753,0.9418229460716248,0.3357027769088745,0.00766954470940464,-0.010765759583297093,0.023707895041413744,-0.004404360894113779,-0.008094854652881622,-0.030500676482915882,-0.4170866798982024,0.1272016814723611,-9.874824571609498
17.2,3.799999952316284,169.0,24.29604339599609,20.181602478027344,-79.7828458248417,40.458903872350454,264.90856206893915,0.001779853249900043,-0.013344136998057364,0.9414628744125366,0.3368478715419769,0.005190194821504143,-0.008814781373998862,0.02268574384496293,-0.07663410902023315,0.02506208978593349,0.035493981093168266,-0.33520888656377795,0.007928623426705599,-9.920108917951584
17.4,3.799999952316284,170.0,24.018089294433594,23.75990104675293,-79.782845863869,40.45890382679973,264.915019159317,0.007343212142586708,-0.001826821593567729,0.939357340335846,0.34285667538642883,0.0252745744549684,-0.0145329855070585,0.09168974860726213,-0.039534829556941986,0.3031956255435944,0.02001407369971276,-0.19737360488623384,0.2822013002447784,-10.019297575950622
17.51,3.799999952316284,168.0,23.85907745361328,25.75579643249512,-79.78284589595462,40.45890385536817,264.92786393046384,0.007798844482749699,0.004783345852047205,0.9376930594444276,0.3473445177078247,0.05122435332629178,-0.010260681234676272,0.1769312031991796,0.029866250231862068,0.15076446533203125,0.058606069535017014,-0.12609967318363488,0.7463092236220837,-10.608995121717452
17.7,3.700000047683716,167.0,24.32233619689941,18.821847915649414,-79.7828458252647,40.45890386155658,264.96528208732605,0.0021167912054806948,0.005695165600627661,0.9363144636154176,0.3511101603507996,0.0783656805534185,-0.005041950472020322,0.28405369682623105,-0.11468437314033507,-0.19885586202144626,0.06942462176084517,0.1259239643532783,0.1850595149025321,-10.787560901641848
17.8,3.799999952316284,168.0,24.13452911376953,21.24713897705078,-79.78284587634509,40.458903922392324,264.9941159236431,0.00779504096135497,7.768064824631438e-05,0.9367260932922364,0.3499763309955597,0.09708278441085068,-0.02061348920769109,0.2903013021826258,0.04910662770271301,-0.07940640300512314,0.1091414839029312,0.2421908135153353,-0.05585198264569045,-10.31679338335991
17.91,3.799999952316284,169.0,24.230937957763672,19.577266693115234,-79.78284605010887,40.45890416929944,264.99463969945907,0.012282763607800009,0.0022195603232830767,0.9372847080230712,0.3483413755893707,0.10789492118110436,-0.033861868387100987,0.2478491755711211,0.003955536987632513,-0.018028035759925842,-0.04666252061724663,0.2901960337534547,0.28697218967601656,-9.983023788928984
18.1,3.9000000953674316,170.0,24.152057647705078,20.467866897583008,-79.78284617075498,40.45890436341831,265.04242761909956,0.011398311704397202,-0.005706630181521177,0.9372251033782959,0.3484920263290405,0.11188086220761892,-0.031804143499689866,0.21003331678549672,-0.05096554756164552,-0.3480338454246521,0.04773489758372307,0.2797163066826761,0.23600782150402666,-9.604236481189727
18.2,3.9000000953674316,170.0,24.03937339782715,22.257015228271484,-79.7828459823777,40.458904420429306,265.06060591816896,0.01279049925506115,-0.01257992722094059,0.937125325202942,0.3485318124294281,0.0864765403337531,-0.05461656409165816,0.16724984611289945,-0.11846214532852173,-0.15293100476264954,0.11758601665496825,0.054483574298210435,0.2007066274434328,-9.498069171309472
18.4,3.799999952316284,166.0,23.9930477142334,22.91701316833496,-79.78284609798806,40.458904575925004,265.113003616333,0.014933865517377853,-0.013237649574875832,0.9361472129821776,0.351041704416275,0.11776291754191585,-0.074445109354845,0.14754620182756475,0.08094571530818939,0.013310715556144714,0.1340608447790146,-0.2275191809982061,0.5205241075158119,-9.59266718029976
18.5,3.799999952316284,164.0,24.103227615356445,20.37244415283203,-79.78284614224766,40.45890468583454,265.1290357160568,0.013916028663516045,-0.00857719499617815,0.9355313181877136,0.3528653979301453,0.10648766661752862,-0.07426804824808958,0.16682573513268031,0.016873003914952278,0.18395790457725525,0.0709124431014061,-0.22265422448515887,0.3497876762598753,-9.9813023686409
18.7,3.700000047683716,162.0,24.00932502746582,22.2331600189209,-79.78284609140856,40.45890456715527,265.1721662554145,0.010272006504237652,-0.009325208142399788,0.9354958534240724,0.3530653715133667,0.07190775010362295,-0.032959405396126844,0.1991374935439463,0.06614094972610474,-0.030361276119947437,-0.06480090320110321,-0.10518025419674816,0.3201193425804377,-9.924674423933027
18.8,3.5999999046325684,160.0,23.994298934936523,21.930992126464844,-79.7828461216381,40.458904613552214,265.1921206909418,0.008388819172978401,-0.010648060590028765,0.9363614916801452,0.3507754802703857,0.06802270272303418,-0.032990739082641725,0.204875697473244,0.12277520447969435,0.16059112548828125,-0.03539299964904785,-0.15673805080354214,0.2829589714854956,-9.87072918176651
19.0,3.5999999046325684,165.0,24.09571647644043,20.8734073638916,-79.78284635962352,40.45890469797249,265.2507966017537,0.011611561290919779,-0.012990841642022131,0.9372653365135192,0.3481811881065369,0.09986186120357046,-0.01737279080484393,0.1973696903746009,0.13369892537593842,0.1060481145977974,-0.009837510995566843,-0.05638023746665567,0.1902826499193907,-9.842608752250671
19.1,3.5,167.0,23.991796493530273,23.02833747863769,-79.78284642775411,40.45890474646953,265.2702208842337,0.01446972880512476,-0.013512340374290943,0.9366276264190674,0.3497667610645294,0.06623053589209993,0.0009112971434048939,0.18658964415832915,-0.1826268583536148,0.036937639117240906,-0.07205787301063538,-0.044889257289469235,0.4618418166786433,-9.67705361187458
19.31,3.4000000953674316,168.0,23.93294906616211,22.64665222167969,-79.78284652581362,40.45890437638208,265.34531798690557,0.014056161977350712,-0.009690854698419573,0.9343942999839784,0.3558311760425568,0.030627522368219168,0.028198051005441236,0.22829541072785875,-0.0462474562227726,-0.07462354004383087,0.15357878804206848,0.008944070083089173,0.0189942597784102,-9.88008940458298
19.4,3.5,165.0,24.382434844970703,11.44260311126709,-79.78284648043339,40.458904416404884,265.4077315229177,0.012525778263807295,-0.008027073927223679,0.933495819568634,0.3582797050476074,0.057727990413180864,0.02061885221565255,0.2531136100349089,-0.037035271525382996,-0.07192814350128174,0.05420904234051704,-0.0607497201114893,0.1449947769753635,-9.860652090311053
19.6,3.4000000953674316,159.0,23.716344833374023,26.527118682861328,-79.7828466360027,40.45890446091911,265.44199572980403,0.012133097276091577,-0.009758460335433485,0.9326329231262208,0.3604905605316162,0.0915645462178334,0.02731166159887015,0.06883513664275179,-0.005321635864675045,-0.05015656352043152,0.06719546765089035,-0.058878743578679865,0.5033822639286518,-9.096703425049784
19.7,3.4000000953674316,160.0,23.67377471923828,27.15530776977539,-79.78284640257596,40.458904321969314,265.5054308819771,0.015056207776069641,-0.0077959680929780015,0.9319124221801758,0.3622869253158569,0.1005817590142346,0.026430628922179927,0.13822367638283328,0.04548181593418121,0.16636106371879578,0.1588100790977478,-0.15562744528055192,0.4557240942120552,-9.79645375549793
19.9,3.5,159.0,23.686294555664066,24.539175033569336,-79.78284649641063,40.45890419918671,265.57298657774925,0.022790541872382164,-0.003230835311114788,0.9317002892494202,0.3624979257583618,0.11918111495616625,0.015418941977757181,0.3917828538881792,-0.004493023734539747,0.08568233251571655,-0.02475523576140404,-0.1607908656075597,0.7205080921947956,-10.533074873685838
20.0,3.5,158.0,23.43838882446289,28.57072448730469,-79.78284658702017,40.458904244670336,265.6202830421924,0.024865562096238136,-0.003770097158849239,0.9321963787078856,0.3610783815383911,0.1216167819421324,0.008584806069255872,0.5441521050901303,0.05063317343592644,-0.010689792223274708,-0.05913152918219566,0.04322820036672057,0.6221476922929288,-11.243047306537626
20.2,3.5999999046325684,152.0,23.22053337097168,31.80709648132324,-79.78284642934176,40.458904341710586,265.7672587680817,0.022631626576185226,-0.009667044505476952,0.9320971369743348,0.3613713979721069,0.13161208049278808,-0.028683661811948025,0.8727663130542479,-0.03578287363052368,-0.14011527597904205,0.09419256448745728,-0.04422138649038971,0.6989206836372615,-11.428029820919035
20.31,3.5999999046325684,153.0,23.390811920166016,28.85698699951172,-79.78284647476937,40.45890442846528,265.86541587591165,0.023399880155920986,-0.01455476600676775,0.9315633773803712,0.3625331819057465,0.13435347412175944,-0.046570277009761685,1.0807833409694827,-0.19615453481674194,-0.11012797802686693,-0.1039307937026024,-0.2037481114827097,0.5848841178417206,-11.711460735797882
20.5,3.5999999046325684,151.0,23.4033317565918,28.37988090515137,-79.78284632341239,40.45890441175728,265.9925677227974,0.02265340462327004,-0.018960993736982342,0.9314354658126832,0.3627057373523712,0.1574380581984284,-0.05209435752829391,1.261678283374623,-0.1228419989347458,-0.1595311313867569,-0.0629834532737732,-0.029631477948278195,0.7003724011033774,-11.682166185379028
20.6,3.700000047683716,149.0,23.36451911926269,28.864938735961914,-79.78284645201288,40.45890459796097,266.2832523632049,0.024557482451200485,-0.027158044278621674,0.9325805306434632,0.3591001331806183,0.18526009304232247,-0.06851437817398066,1.61983076615578,-0.3091735243797302,-0.0006240296061150732,-0.2520577907562256,-0.3230547910183668,0.8285485576093198,-11.51224492907524
20.8,3.799999952316284,144.0,23.06152153015137,33.15094375610352,-79.78284637143909,40.45890456245372,266.6502775001526,0.03691493719816208,-0.019895238801836967,0.9347137808799744,0.3529188334941864,0.2335854965585503,-0.08043230050849094,1.926663835120636,0.09969675540924072,0.2421104609966278,-0.14156770706176758,-0.3768520986288785,0.8915427314490081,-11.318212094306949
20.9,3.799999952316284,138.0,23.11911582946777,32.85673141479492,-79.78284617306281,40.45890428440033,266.8797037649154,0.035886235535144806,-0.015300828963518144,0.9355886578559875,0.3509300947189331,0.20110308093926546,-0.06143375839754385,2.1244373983157754,0.049670543521642685,0.15725959837436676,-0.04698435589671135,-0.3734085271507502,0.7822038917988541,-11.644186180830006
21.0,3.799999952316284,142.0,22.94132423400879,34.693588256835945,-79.78284614291891,40.458904303455355,267.1012237119674,0.0373091921210289,-0.013477505184710026,0.9355424642562866,0.35097983479499817,0.16773580432940488,-0.06378764218831465,2.3032512465826755,0.11077385395765303,0.1821674108505249,0.04774224013090134,-0.3158656759187579,0.5405135816708208,-11.66775396823883
21.21,3.799999952316284,144.0,23.415851593017567,27.179162979125977,-79.78284579251628,40.45890404115989,267.6335319328308,0.02551723085343837,-0.01453578006476164,0.9358160495758056,0.3512634634971619,0.0875285873483966,-0.05838320527982304,2.694741873084812,0.18235231935977936,-0.09985778480768204,0.011966440826654434,-0.09596376325003804,0.4217591533809901,-11.49886182188988
21.4,3.799999952316284,147.0,23.23806190490723,29.636260986328125,-79.78284562869747,40.4589040070198,267.90954936027526,0.017414666712284088,-0.01872166618704796,0.9359291791915894,0.3512589633464813,0.02675879286797809,-0.0982796092658383,2.827565453089888,0.13716119527816772,-0.09869939088821413,0.1252240687608719,-0.21511343590915205,0.4004735707864165,-11.185753948688507
21.5,3.9000000953674316,155.0,23.79021644592285,21.97075080871582,-79.78284507455197,40.458903647543714,268.54607975959783,0.001961857546120882,-0.017214858904480934,0.9342653155326844,0.3561576306819916,-0.046439307732248886,-0.14988373571935806,3.078597921579901,-0.03312323242425918,-0.1192093938589096,0.16872628033161166,-0.16712378388270738,0.1114150032028556,-10.929995566606523
21.7,4.099999904632568,157.0,23.660001754760746,22.821590423583984,-79.7828445859692,40.45890317726303,269.22415245056146,0.0065278559923172,-0.022882062941789627,0.9312071204185486,0.36371296644210815,-0.07660895342381402,-0.1550362279453192,3.0983324732105184,-0.1856080740690232,-0.0551641508936882,0.0613362230360508,-0.14288811653852462,0.19944881826639171,-10.130089448690414
21.81,4.199999809265137,156.0,23.62744903564453,24.53122329711914,-79.78284444783726,40.458903157828786,269.5330299186706,0.010835041292011738,-0.022186430171132088,0.9303967356681824,0.3657215833663941,-0.02936402237206447,-0.16843182836900786,3.0593072799457213,-0.3174210786819458,-0.013925925828516485,0.058153469115495675,-0.2976272053085268,0.4722338537871838,-9.398958281278613
22.0,4.300000190734863,165.0,23.56609916687012,25.77169990539551,-79.78284428135571,40.45890287569141,269.9181155014038,0.0160133745521307,-0.02148767560720444,0.9297291040420532,0.3672677874565125,0.024024445723835056,-0.16089272887380618,3.024152223144368,-0.06833717226982118,0.04283441603183746,0.10377076268196106,-0.2812325445190072,0.5486768428981305,-9.253148603439332
22.1,4.300000190734863,162.0,23.56484603881836,25.80350685119629,-79.78284404984144,40.458902844146046,270.51525629043584,0.02192358858883381,-0.01572238281369209,0.9297916293144226,0.3670964241027832,0.05451008205756721,-0.11566377067947807,2.950844302502732,0.050400935113430016,0.07615722715854645,-0.01363568939268589,-0.1884483052790165,0.4026880575343967,-9.466906435489657
22.3,4.300000190734863,167.0,23.453413009643555,27.870967864990234,-79.78284356727531,40.45890198047142,271.12683904647827,0.02045050635933876,-0.008523270487785341,0.9314621686935424,0.3631630837917328,-0.039319622947891486,-0.05904393457244093,2.9196390056964336,0.12415648996829988,0.2154424786567688,-0.13512414693832395,-0.1767751066759229,0.3378870575129986,-9.529773359298707
22.4,4.300000190734863,170.0,23.47595024108887,27.00422477722168,-79.7828435151664,40.45890072990578,271.50980079650884,0.015553558245301247,-0.002003178233280778,0.9322135448455808,0.3615689277648926,-0.1273959275419287,0.02525888494843093,2.9522284816426114,0.16776785254478455,0.058344360440969474,-0.0182358343154192,-0.08380379308015108,0.2303945310227573,-9.768078972101213
22.5,4.300000190734863,174.0,23.556081771850586,25.23892974853516,-79.78284329407619,40.45890054382314,271.8042577552796,0.01060690265148878,-0.0016408452065661552,0.9325911402702332,0.3607750833034515,-0.20599626105249705,0.05415467660935347,2.9471143073569928,-0.04364444315433502,-0.09594691544771193,-0.06529481709003447,0.08566198339685799,0.009526841053739191,-9.6923084127903
22.71,4.400000095367432,179.0,23.1103515625,31.870710372924805,-79.7828439619864,40.45890050306362,272.4596895027161,0.005087476223707199,-0.013725446537137032,0.9335435628890992,0.358165055513382,-0.18759066631288,0.014163701829834618,2.91119659719316,0.004693517927080393,-0.13272878527641296,-0.0842527449131012,-0.12801176751963794,0.045915324864909055,-9.697411862611773
22.8,4.300000190734863,182.0,22.973878860473643,33.755279541015625,-79.78284378792388,40.45890032699762,272.7523702430725,-0.00046538043534383183,-0.010555042885243893,0.9341189861297609,0.3568053841590881,-0.18269963522367672,-0.008259728256968038,2.95476681515726,0.20740340650081635,-0.032889209687709815,-0.009369609877467155,-0.10087320428341627,0.12880319729447365,-10.14464082956314
23.01,4.300000190734863,186.0,23.231800079345703,29.556743621826172,-79.78284403207131,40.458900394131796,273.38849151611333,-0.008453218266367912,-0.0011705183424055574,0.9346705675125122,0.3554126620292664,-0.19281185541400986,0.01183740307826714,3.0225120499486,0.14554721117019653,0.0853499099612236,0.0010590247111395,0.037067044051364066,0.0828328903298825,-10.199697042703633
23.2,4.099999904632568,199.0,23.112855911254893,32.26034545898437,-79.78284424953813,40.458900293257415,273.97782695770263,-0.008817539550364017,0.004233283456414938,0.9332038164138794,0.35921451449394226,-0.16820097846076046,0.06871033253798263,3.0191969882265766,-0.06778352707624435,-0.03648067638278008,-0.0027235134039074183,0.04412371514830739,-0.002829074794426561,-10.038027377128602
23.3,4.0,202.0,22.97137451171875,32.761306762695305,-79.78284419862544,40.45890019277058,274.2820271301269,-0.005514982622116804,3.3313088351860636e-05,0.9320337772369384,0.3623296022415161,-0.16584092087702942,0.058469609173683525,3.0652526120712795,-0.15622945129871368,-0.09960990399122238,0.11727264523506165,-0.1527464855834842,-0.013802608363330363,-10.180265575647352
23.4,3.9000000953674316,210.0,23.174205780029297,28.578676223754893,-79.782844321662,40.45890008867074,274.539969329834,-0.003794792108237744,-0.0027533010579645642,0.93129163980484,0.3642442524433136,-0.10119583980382074,0.03640712561025535,3.114503461126924,-0.00467784283682704,-0.003716088132932782,0.03917437046766281,-0.15303932145237922,-0.041229731692001226,-10.654486459493636
23.6,3.799999952316284,213.0,23.336973190307607,26.821332931518555,-79.78284425345669,40.45889994715547,275.1801537322998,-0.001553859794512391,-0.0020720388274639845,0.9319207668304444,0.3626526594161987,-0.08260497150735993,0.0183659109905571,3.2696104167995035,0.07175695151090622,-0.012251174077391623,-0.02518786303699017,-0.043133539427071814,0.04077218706719578,-10.487144994735717
23.8,3.799999952316284,214.0,23.09783172607422,31.12324333190918,-79.78284461623954,40.45889962327305,275.85152519226074,-0.009247465059161186,-0.009312833659350872,0.9321016073226928,0.36195915937423706,-0.048013614096232685,0.03012446007593773,3.2587330523637137,0.12248874455690385,-0.04167662933468819,-0.0016242116689682007,-0.015535761911887675,-0.028543432170990857,-10.10947099685669
23.91,3.700000047683716,215.0,23.195491790771484,28.1572322845459,-79.78284464028165,40.458899576943466,276.1914395141601,-0.00955969374626875,-0.00873433519154787,0.932318925857544,0.3614053726196289,-0.03422085699033233,0.01201095748659546,3.271962144919224,0.06206535175442696,0.04734964296221733,0.07748015224933624,-0.025569303031079474,-0.2409999366849661,-10.181115760803225
24.0,3.700000047683716,213.0,23.2856388092041,28.037954330444336,-79.78284471746777,40.45889950700467,276.5215786743164,-0.006186523474752903,-0.006340109277516604,0.9325022101402284,0.3610557019710541,-0.031131702390410413,0.03672746401487175,3.3331136071081287,-0.01658622920513153,0.047401364892721176,0.029945295304059982,0.005675684383604676,-0.10320867357775568,-10.341389111280444
24.2,3.5999999046325684,213.0,23.369525909423828,26.28061294555664,-79.78284469068362,40.458899323603724,277.20163333892816,0.0052243447862565535,-0.0013730664504691954,0.9328598976135254,0.36019906401634216,0.008544354869182348,0.07426099552709332,3.402253560167675,-0.11982957273721695,0.1078805774450302,-0.06533227115869522,-0.11777330204844474,0.1535865477472544,-10.298243676424027
24.3,3.5,211.0,23.663759231567386,23.36231231689453,-79.78284477230726,40.45889926548242,277.54307163238525,0.00808294303715229,0.0008706492953933775,0.9328283667564392,0.36022937297821045,0.04256083921075753,0.09810640969675884,3.413314169121515,-0.035452865064144135,0.018083058297634125,-0.03019907884299755,0.0021967943524941803,0.3345412807166577,-9.920059801340104
24.51,3.5,203.0,23.32445335388184,26.71000862121582,-79.78284465415359,40.45889933065365,278.21779048919683,0.004365629516541958,-0.005222511012107135,0.9326497316360474,0.3607191443443297,0.04367061894472392,0.05093646682155567,3.2759437497037727,-0.13024947047233582,-0.005132463295012713,-0.14162209630012512,-0.16010082107037307,0.3477320875972509,-9.2906584918499
24.7,3.5,202.0,23.533544540405273,24.38809013366699,-79.7828446905271,40.458899308127606,278.5434693145752,0.002256571315228939,-0.0025897750165313482,0.93230140209198,0.3616661727428436,0.04571951012946016,0.01905007174383687,3.2306681743743524,0.12438192218542099,0.037979554384946816,0.08817311376333238,-0.06734000723809004,-0.002936170203611255,-9.36029122889042
24.8,3.799999952316284,198.0,23.355754852294922,27.807353973388672,-79.78284488942442,40.458899485617664,278.9350241470337,0.0008359491475857794,-0.00016785305342637002,0.931832194328308,0.3628886938095093,0.06476667559343922,-0.007088926224595334,3.1678610492524917,0.10583997517824173,-0.02946916408836842,0.0002456912770867348,-0.03996708942577243,0.12770415829494594,-9.126675667762758
24.91,3.799999952316284,203.0,23.20050048828125,28.87289047241211,-79.78284523544136,40.45889933284044,279.69323623657226,-0.0021729730069637303,-0.0006370705086737871,0.9307757019996644,0.3655838370323181,0.06209656393608856,-0.03611233772354168,3.0352298871353938,-0.023901868611574173,-0.008631087839603424,0.14206691086292267,-0.23469535913318398,-0.082359110545367,-8.983935778141023
25.1,4.0,198.0,23.219280242919922,28.864938735961914,-79.7828453109079,40.45889948579265,280.28737438201904,0.0017056312644854188,-0.00998620130121708,0.9306140542030334,0.36586180329322815,0.10953587022316913,-0.0916258735692714,2.9119946748013747,0.016061920672655106,-0.07935062795877458,0.037721943110227585,-0.15567265156656504,0.02366343506611884,-9.114160872101785
25.2,4.099999904632568,196.0,23.23931312561035,29.2863826751709,-79.78284550671185,40.458899473906456,280.6841944503784,0.000962964550126344,-0.011685130186378956,0.9307571649551392,0.36545005440711975,0.17150288879538414,-0.13813604221779333,2.893563936955345,0.06679263710975647,-0.004290739074349403,-0.07750781625509262,-0.3568876944109798,0.15259365398436786,-9.299604731798173
25.3,4.5,194.0,23.147912979125977,30.272403717041016,-79.78284555595889,40.45889960018663,280.9710625457764,0.0009808152681216598,-0.015733515843749046,0.9307656288146972,0.3652763366699219,0.16544063724055616,-0.14908747364237962,2.8382611783866603,-0.022975152358412743,-0.05943923071026803,-0.020627470687031742,-0.28368716910481456,0.2465334857627749,-9.2329441344738
25.5,4.699999809265137,196.0,23.31318473815918,27.099645614624023,-79.78284569715154,40.45889953566168,281.64488685607915,0.0030943413730710745,-0.01859816536307335,0.9319782257080078,0.3620238304138184,0.17415105163607614,-0.20716924817716456,2.8231749154669648,-0.04858996719121933,-0.032151900231838226,0.010774617083370686,-0.5100142490118742,-0.040809038230217996,-9.653795142173767
25.7,5.0,198.0,22.99140739440918,31.13119506835937,-79.78284594636717,40.4588995729628,282.34438026428217,0.006671644281595945,-0.02341875061392784,0.9324764609336852,0.36040928959846497,0.21610192012293847,-0.2120900538552691,2.8889429096278842,0.043173909187316895,-0.1025889590382576,0.07826973497867584,-0.4687732522934676,0.10645290981978177,-9.691122597455976
25.8,5.099999904632568,199.0,23.14666175842285,28.32421875,-79.78284596668331,40.45889972872768,282.6361664581299,0.0010532697197049856,-0.02900817058980465,0.9319068193435668,0.3615344762802124,0.21005695977081768,-0.23302439402799965,2.93120634583485,0.06754308193922043,-0.12062565982341765,0.0049070906825363645,-0.639324326813221,0.294437055811286,-10.113254145383836
25.9,5.400000095367432,193.0,23.13163757324219,29.88276672363281,-79.78284608196209,40.45889939135896,283.0757798004151,-0.004718917887657882,-0.03313010558485985,0.9310999512672424,0.3632259666919708,0.19579158356126125,-0.2516332156242872,3.0132590424727503,0.19763444364070887,-0.024728359654545784,0.08964212983846664,-0.48121565211564293,0.1562726672552526,-10.144785840511325
26.1,5.5,200.0,23.19674301147461,29.02397537231445,-79.78284619262567,40.4588996238753,283.6843766021728,-0.010626345872879028,-0.032670941203832626,0.92942613363266,0.3674054741859436,0.15479884482176198,-0.2648615888930809,3.046082614258194,-0.023658588528633118,0.04988028854131698,0.12136923521757124,-0.6442016355693341,-0.03937028970569372,-9.922606848478315
26.2,5.5,199.0,23.075294494628906,29.35795021057129,-79.78284593621076,40.45889940788821,284.08092582702636,-0.008639615960419178,-0.03041762113571167,0.928386390209198,0.3702688217163086,0.14051437548969647,-0.2437200374126016,3.0681707282785498,-0.04472886398434639,0.045720800757408135,-0.050641972571611404,-0.4887573543190956,0.2871385612338781,-9.91445466041565
26.41,5.5,198.0,22.95134162902832,31.727577209472656,-79.78284584138711,40.45889926621779,284.77005088806146,0.0007252268260344862,-0.028545580804347995,0.9281274080276488,0.37116605043411255,0.1648019584054743,-0.16694077905531166,3.134305712863941,-0.13944852352142334,-0.02828818187117577,-0.07594311982393265,-0.35608154609799386,0.2424680263549089,-10.13057827591896
26.5,5.5,193.0,23.172954559326172,29.18301010131836,-79.78284595509773,40.45889933547598,285.0859516906738,0.0033768434077501297,-0.0311502069234848,0.9288337230682372,0.3691695630550385,0.1972511716390508,-0.1513483908098483,3.1732040534250783,0.0009118663147091868,0.04237900301814079,0.07628404349088669,-0.4513315196335316,0.15619378466159106,-10.187699725627901
26.7,5.599999904632568,191.0,23.1929874420166,27.083742141723643,-79.78284598184098,40.458898921345046,285.7816227722168,0.00634678965434432,-0.02227717824280262,0.93177992105484,0.3622839152812958,0.1909028062388928,-0.11114858114443198,3.2206293921602094,-0.025254229083657258,0.17863725125789642,-0.10099250823259354,-0.4109726484864951,0.4532867189124226,-10.234622461795807
26.9,5.599999904632568,190.0,23.14415740966797,28.713855743408203,-79.78284597595812,40.45889880262256,286.4808396148682,0.007933917455375195,-0.017116338014602658,0.9336683750152588,0.3576416075229645,0.1726843039084056,-0.0670590087010203,3.2336850144781546,0.03805311396718025,-0.04495805501937866,0.15819068253040314,-0.40820896200835705,0.03785264488309622,-10.092138680219653
27.01,5.400000095367432,190.0,23.15417289733887,28.228797912597656,-79.78284606429678,40.45889884219207,286.80580413818365,0.007648000493645669,-0.019609510898590088,0.9333359599113464,0.35838672518730164,0.185449437654098,-0.07200316775786626,3.2577216110152385,0.08828159421682358,-0.035392168909311295,-0.07727659493684769,-0.2662826393544674,0.3568886445835233,-10.06868432879448
27.1,5.5,181.0,23.294403076171875,26.40784072875977,-79.78284615109891,40.458898890580684,287.13380897521967,0.004964163992553949,-0.023141872137784958,0.9325069189071656,0.3603759407997131,0.18900684009556265,-0.09828282422949257,3.288343678764716,0.084069162607193,-0.06553204357624054,0.0835103765130043,-0.36042197082191707,0.3025896093249321,-10.078804689645768
27.3,5.5,183.0,23.35700607299805,25.86712074279785,-79.78284599568704,40.45889890437565,287.82664192199707,0.0021923542954027653,-0.024559976533055302,0.9307237267494202,0.3648909032344818,0.18675679080872448,-0.1552221176838541,3.25833133346062,-0.059713289141654975,-0.05653653293848038,-0.009885817766189577,-0.4983214987814426,0.3824917381256819,-9.732063632011414
27.5,5.599999904632568,182.0,23.231800079345703,28.05385780334473,-79.78284575566313,40.458898765643504,288.211449508667,0.0040017543360590935,-0.028888355940580368,0.930372953414917,0.3654528558254242,0.16268059297397694,-0.1739457873411296,3.1964103048095023,-0.20507892966270447,-0.13033200800418854,0.1393277794122696,-0.419607524201274,0.056724971942603584,-9.498548642992974
27.6,5.599999904632568,182.0,23.46343040466309,25.23097801208496,-79.78284584396421,40.45889893829728,288.84274566650384,0.01397740375250578,-0.03225494921207428,0.9314116835594176,0.3622659146785736,0.21160358260276027,-0.2143716976239247,3.1113127369849494,-0.06590776890516281,0.04487644508481026,-0.051099196076393134,-0.5715477152913809,0.5419834255054593,-9.440410947203636
27.8,5.599999904632568,180.0,23.25559043884277,26.33627510070801,-79.78284556829125,40.45889884146421,289.5513409423828,0.00618556747213006,-0.03590235114097595,0.9330883622169496,0.35779723525047297,0.19199932285199672,-0.22717917248207345,3.0699350007085533,0.12385903298854828,-0.02938584797084332,-0.15379680693149567,-0.5858056024834514,0.7063106140494347,-9.391444609165193
27.9,5.599999904632568,180.0,23.323200225830078,26.01820373535156,-79.78284553005913,40.45889863981206,289.95341766357416,0.0026274241972714663,-0.038368359208107,0.9339482188224792,0.35533323884010315,0.15443247849354982,-0.2456840387091675,3.0947477511461914,0.04472983255982399,-0.07379452139139175,-0.11403141915798187,-0.6593163956701756,0.2983548364788294,-9.77750176012516
28.1,5.599999904632568,181.0,23.336973190307607,26.38398551940918,-79.78284552631625,40.45889868616203,290.2642258453368,0.0008355929749086499,-0.04004308581352234,0.9343360662460328,0.3541357517242432,0.12179513292615515,-0.25185053344764485,3.1011468418056225,-0.07335595786571503,-0.03027033805847168,-0.042075518518686295,-0.7216933228075505,0.19978395508602265,-9.820679354667664
28.21,5.699999809265138,183.0,23.142906188964844,27.58470344543457,-79.78284522962677,40.458898492874866,290.97567070007324,-0.0001886100217234344,-0.03493079915642738,0.9341629147529602,0.3551332652568817,0.07709314309945088,-0.241896989613282,3.1461461652338,0.10332752764225006,0.03813939169049263,-0.03552395105361938,-0.4239627131447196,0.046209138315171004,-9.96705270409584
28.4,5.599999904632568,192.0,23.29189872741699,25.54109764099121,-79.78284474920295,40.45889822288671,291.6803044128418,-0.008950729854404926,-0.031091980636119843,0.9321173429489136,0.3607082962989807,0.028801198134040463,-0.1920651654987824,3.2034145962649414,0.06784703582525252,-0.06524661183357239,0.20570845901966087,-0.38699884504079823,0.10177062397822738,-10.162417534589768
28.52,5.5,197.0,23.42962455749512,23.990501403808594,-79.7828447442477,40.45889819900158,292.0022858428955,-0.010232045315206051,-0.029301932081580162,0.9309236407279968,0.3638928532600403,-0.00437919629303339,-0.1830977850206852,3.2230949370955844,-0.08885424584150314,0.05565633624792099,0.05902023613452913,-0.5420154390111566,-0.08551468838006257,-9.983962851762774
28.6,5.5,198.0,23.44464874267578,22.193401336669922,-79.7828447453854,40.458898167111094,292.3250225830078,-0.005361090879887343,-0.02745867893099785,0.9300225973129272,0.3664360344409943,-0.011799249120999014,-0.16390916621934076,3.221334302026107,-0.12962405383586886,0.1470007300376892,-0.06765132397413254,-0.5199894161894918,0.2370117153413594,-9.79948261320591
28.8,5.5,199.0,23.34573745727539,24.21315193176269,-79.78284460663296,40.4588978980934,293.02687347412115,0.0007589171873405576,-0.024415967985987663,0.9293481707572936,0.3683955669403076,0.05217525164986793,-0.1325497216756476,3.146893864522191,0.0656280443072319,0.04862004518508911,-0.04168415814638138,-0.4339353221654893,0.22545134972780945,-9.593194599151614
28.9,5.5,197.0,23.58112335205078,22.153642654418945,-79.78284440640115,40.45889757129901,293.41838157653814,-0.0014701399486511946,-0.02289092354476452,0.9291292428970336,0.3690429925918579,0.07257492029279107,-0.13357154336711158,3.1351181840829345,0.12552645802497864,-0.027757847681641586,-0.14354944229125974,-0.5911207946017385,0.3733689853549004,-9.573071991205216
29.1,5.400000095367432,195.0,23.44965744018555,25.286640167236328,-79.78284444039735,40.45889759024588,294.03919494628906,-0.0007897845352999866,-0.026657072827219963,0.9295971989631652,0.3676109313964844,0.053875275440168686,-0.1545147103518325,3.0576270762582785,-0.17478381097316742,-0.09428206831216812,0.08505868166685104,-0.5775413671508431,0.2213213516771793,-9.407651336789133
29.3,5.400000095367432,196.0,23.61242485046387,22.55918312072754,-79.78284435016059,40.45889724367801,294.7439011383057,0.006280678790062666,-0.03032154217362404,0.930324912071228,0.3654267489910126,0.1259055761311894,-0.14793711317428998,3.0120848404853864,-0.17719367146492004,-0.034947529435157776,-0.16774334013462067,-0.5744327314943075,0.2512376438453794,-9.460032448768617
29.4,5.400000095367432,196.0,23.420860290527344,24.26086235046387,-79.78284413001256,40.4588967987634,295.14084136962884,0.009708141908049585,-0.036032941192388535,0.9302940964698792,0.3649116158485413,0.13478695405366492,-0.14683133152000716,2.9954424502429498,-0.12946473062038422,-0.09818894416093826,0.13398657739162445,-0.5724208507686853,0.20361316870898008,-9.285707069635393
29.51,5.5,190.0,23.430877685546875,23.71219062805176,-79.78284416131099,40.45889681124971,295.43941200256353,0.014855001121759416,-0.040629658848047256,0.9301647543907166,0.3645851016044617,0.1526392187707719,-0.16995277295359312,2.9643109755628223,-0.08948621153831482,-0.13183645904064178,0.06670308858156204,-0.5123782052099705,0.3062492902390659,-9.473895027637482
29.71,5.599999904632568,189.0,23.59239196777344,21.756053924560547,-79.78284410575472,40.458896509189614,296.13006103515625,0.016060322523117062,-0.03795570507645607,0.9309133887290956,0.3629072606563568,0.16255565021934326,-0.17164482258483887,2.9998682574858497,0.015631973743438717,0.04261450469493866,0.10070312023162843,-0.6971877881884575,0.3197604697197676,-9.688024742603304
29.9,5.699999809265138,189.0,23.38830757141113,23.950742721557607,-79.78284416382657,40.4588960429975,296.83432281494134,0.006421219557523727,-0.03790391981601715,0.9311301708221436,0.3626551330089569,0.10614552117007484,-0.15540480914009153,2.987592914656507,0.1351509988307953,-0.0038480858784168963,-0.08953062444925307,-0.7328938105702401,0.27226980445906523,-9.403732532858847
30.01,5.800000190734862,189.0,23.460926055908203,23.147613525390625,-79.78284413851621,40.458895992638936,297.1317204284668,0.004128615837544203,-0.04173905774950981,0.9308599829673768,0.36296069622039795,0.05145707051992804,-0.17156061648820053,2.9449697659996352,-0.007795643527060747,-0.11981278657913208,0.002805114956572652,-0.6673203568160534,0.211033541187644,-9.395542922616006
30.11,5.800000190734862,197.0,23.29941177368164,25.57290458679199,-79.78284409514815,40.4588959284908,297.42409027099615,0.00538000138476491,-0.046466786414384835,0.9306975007057192,0.3627866804599762,0.01866380224677426,-0.1931588146923378,2.8911500558841987,-0.06298423558473587,-0.13123151659965515,0.07556799799203873,-0.7982088173925878,-0.14772961109876634,-9.26828529059887
30.3,5.800000190734862,202.0,23.05526161193848,28.43554306030273,-79.78284408960911,40.45889547158801,298.1177853393554,-0.002225693082436919,-0.03973578289151192,0.9310853481292723,0.36262398958206177,-0.0009659863868124733,-0.18297671748237865,2.9216538281396742,0.059995681047439575,0.13059259951114655,-0.014763523824512959,-0.7160222545266152,0.2088626161962748,-9.8792158305645
30.4,5.800000190734862,204.0,23.36076164245605,23.0203857421875,-79.78284376003909,40.45889527965672,298.49017608642583,-0.008344950154423714,-0.035337552428245544,0.9309597611427308,0.3633120954036713,-0.048219261752608315,-0.16755501985654933,2.991560030135253,0.02378224954009056,0.02729356847703457,-0.0616646483540535,-0.7475940030813217,0.09603710926137864,-10.0532909488678
30.6,5.800000190734862,205.0,23.1103515625,27.529041290283203,-79.7828436632995,40.458895043229475,299.08847320556634,-0.01231809239834547,-0.03607835620641709,0.9307636022567748,0.3636288344860077,-0.10664114432060952,-0.1387914216937174,2.980831189132998,-0.12630771100521088,0.0046838289126753824,-0.01975652202963829,-0.7169045993685723,-0.07574188968166709,-9.715933502912524
30.8,5.800000190734862,206.0,23.25934600830078,25.37411117553711,-79.78284336785023,40.4588947692306,299.43312347412115,-0.005641684867441654,-0.037884749472141266,0.9304249882698059,0.3644753694534302,-0.1117212208775798,-0.15078095782794493,2.9880368141177005,-0.2064264416694641,0.07803051173686981,-0.05250317975878716,-0.7494309058785439,0.02866383684799075,-9.894969398975373
30.91,5.800000190734862,208.0,23.209264755249023,25.827362060546875,-79.78284309703247,40.45889429641152,300.0777844238281,-0.002181129762902856,-0.029879814013838768,0.9304044246673584,0.3653083145618439,-0.06571644752040104,-0.11574405231628587,3.071501014216558,0.06612712144851685,0.03512214124202728,0.05481165647506714,-0.6361155941337348,-0.08297555325552823,-10.228539018630984
31.0,5.9000000953674325,210.0,23.1641902923584,27.179162979125977,-79.78284303937856,40.458894150252654,300.38755310058593,-0.004710320383310318,-0.02801637165248394,0.9310491681098938,0.3637861907482147,-0.09122216872810016,-0.09560173979468664,3.126147064194321,0.13718277215957642,-0.07024267315864563,0.03971461206674577,-0.613906918913126,-0.16952032003551726,-10.374080893993376
31.2,5.800000190734862,210.0,23.37578582763672,23.282794952392567,-79.78284244800005,40.45889363561717,301.03290451049804,-0.018280478194355958,-0.026365380734205246,0.93185955286026,0.3613981306552887,-0.14672992455818726,-0.12160935996188472,3.170075660293945,0.1062549278140068,-0.02502221055328846,-0.05107764154672624,-0.6137505789846183,-0.18234819754958154,-10.389400599002839
31.31,5.800000190734862,216.0,23.63871765136719,19.94304847717285,-79.7828423686917,40.45889350541751,301.3508442687988,-0.020867204293608662,-0.026563428342342377,0.9321420192718506,0.360513836145401,-0.20055678306435026,-0.13468747054992292,3.178829068994121,-0.09896630793809892,-0.02311067469418049,0.0014161801664158704,-0.6751452469825745,-0.11194923771545293,-9.881590969562527
31.4,5.699999809265138,219.0,23.370779037475586,23.4179744720459,-79.78284210415278,40.45889329746906,301.6828945922852,-0.019377870485186573,-0.02792021818459034,0.9323741793632508,0.3598935902118683,-0.19532559631612967,-0.15916278198488534,3.0995519589292164,0.019096989184618,0.08780953288078308,-0.033183686435222626,-0.5606204386800527,-0.14069919308647513,-9.580823060274122
31.6,5.699999809265138,219.0,23.407087326049805,23.338457107543945,-79.7828419410963,40.45889308297418,302.3003643798828,-0.01606503687798977,-0.027206487953662872,0.9326207637786864,0.35947221517562866,-0.15556540763187368,-0.16211838256319744,3.0697665153722995,0.07767491787672043,0.06203583255410194,-0.0785754844546318,-0.5115463656932115,-0.08196537366136909,-9.674537554979327
31.8,5.599999904632568,223.0,23.38580322265625,24.03026008605957,-79.78284157942305,40.458892785392884,302.93368804931634,-0.017774971202015873,-0.025384429842233658,0.9323784708976746,0.3601529598236084,-0.1506872574308227,-0.1544395807106268,3.051367046583753,-0.006338543258607388,0.008534478023648262,0.03567645698785782,-0.6639730451256037,0.024070643386803568,-9.836660964488985
31.9,5.599999904632568,223.0,23.46843910217285,21.636775970458984,-79.7828414843375,40.45889240872733,303.27216995239263,-0.01821516454219818,-0.02725684456527233,0.931899070739746,0.3612333536148071,-0.1458930636935783,-0.12603074059051428,3.0517093193797136,0.07704371213912964,-0.04214486852288246,0.11436732858419416,-0.5422189586609603,-0.20735787179321047,-9.893785922527314
32.0,5.599999904632568,223.0,23.495983123779297,21.859426498413086,-79.78284144036316,40.45889230314065,303.57775390625,-0.018454123288393017,-0.028420722112059593,0.9314998984336852,0.36215975880622864,-0.14920690617469465,-0.12829863832535324,3.046091877218408,-0.03880405053496362,-0.030321324244141582,-0.06096622347831726,-0.6317643155157566,0.05017204304225743,-9.695743651986124
32.21,5.5,224.0,23.241817474365234,25.906879425048828,-79.78284104345884,40.45889204974401,304.2112606811524,-0.020488254725933075,-0.027594001963734627,0.9311033487319946,0.3631328046321869,-0.1422311669698942,-0.15082163554816805,3.0011957301159344,-0.1500902771949768,-0.04840284213423729,-0.1380757838487625,-0.6930599462985992,0.08842714995145798,-9.62917544066906
32.3,5.599999904632568,229.0,23.447153091430664,23.0203857421875,-79.78284101630314,40.45889197285727,304.51153076171875,-0.020424392074346542,-0.02593272179365158,0.9312871098518372,0.36278754472732544,-0.12304821943762433,-0.1516318113938641,2.9979133088322194,0.0168096125125885,0.12875598669052124,0.00022884302597958595,-0.6488052946329117,0.11760567882098258,-9.673018448352812
32.51,5.599999904632568,228.0,23.32695770263672,24.761823654174805,-79.78284078811191,40.458891645898646,305.14388549804687,-0.014351306483149529,-0.021064182743430138,0.9322937726974488,0.3608029782772064,-0.12745298536108735,-0.12279061978686692,2.960536688507946,-0.17991001904010773,0.03142401948571205,0.062116518616676324,-0.6839909879118204,-0.010499635012820365,-9.473499755859377
32.7,5.599999904632568,229.0,23.35700607299805,23.96664619445801,-79.78284076516798,40.458891587735465,305.43926513671875,-0.013954765163362026,-0.022748176008462902,0.932168185710907,0.36104074120521545,-0.07247884310343923,-0.12701812997563874,2.9495891364861384,0.14345717430114746,0.014223079197108747,0.03604371100664139,-0.6100512649118901,-0.24484923183918,-9.767373213171961
32.8,5.699999809265138,229.0,23.38329887390137,22.36833953857422,-79.78284061316111,40.45889129864907,306.0792950439453,-0.013149281032383442,-0.03007625602185726,0.9317061901092528,0.3617267012596129,-0.0913289394552193,-0.1717016036596111,3.025942501883211,-0.01785147748887539,-0.044723235070705414,0.033552151173353195,-0.8890692130476237,-0.041473149452358485,-10.04375998735428
33.0,5.800000190734862,226.0,23.341981887817386,24.316524505615234,-79.78284032573131,40.458891232606135,306.6988591003418,-0.01753278635442257,-0.036697816103696816,0.9314655661582948,0.3615493774414063,-0.07879949466289596,-0.21576949196776046,2.980526772952288,0.006811289582401514,-0.22396695613861084,0.1282789707183838,-0.7819997508823872,-0.1191525414492935,-9.77886825442314
33.1,5.800000190734862,227.0,23.205507278442386,27.131452560424805,-79.78284025963875,40.458891191638884,306.9961727905273,-0.021907651796936992,-0.03958464786410332,0.9310150146484376,0.3621660172939301,-0.08493736997090041,-0.24525896005582545,2.9471603517679053,0.15739475190639496,0.02945417538285256,0.06920207291841507,-0.7237933503091336,-0.09229201331734656,-9.520189772844317
33.21,5.800000190734862,229.0,23.06152153015137,27.89482307434082,-79.78283991905809,40.45889106954014,307.31572998046875,-0.024115823209285736,-0.03958801925182343,0.9307048916816713,0.3628219366073608,-0.12438022417698455,-0.2628864437610423,2.959603758516612,-0.027143390849232674,-0.03600488230586052,0.0518181286752224,-0.7407969072461129,-0.3738862081244588,-9.842848488092423
33.41,5.800000190734862,230.0,23.354501724243164,23.0203857421875,-79.78283959272656,40.4588908640694,307.93839920043945,-0.025918809697031968,-0.03326359763741493,0.930566906929016,0.3636853694915772,-0.14929850390867175,-0.24653070256281,3.053281308997137,-0.05914503335952759,0.1179976537823677,-0.04483484849333763,-0.8637065497040749,-0.06965496559627354,-10.178076378107072
33.61,5.9000000953674325,239.0,23.39957618713379,23.068096160888672,-79.78283952054139,40.45889071965181,308.55627716064447,-0.024800317361950874,-0.027287770062685013,0.931022047996521,0.3630954921245575,-0.13879188579271967,-0.1845349201190979,3.1121335573396043,0.12704433500766754,0.021170664578676224,-0.06434100866317749,-0.588979653865099,-0.3562217330932617,-10.121656594276429
33.7,5.9000000953674325,235.0,23.11536026000977,26.94061088562012,-79.78283924148491,40.45889053344464,308.874815826416,-0.026188408955931664,-0.026554593816399567,0.9312552809715272,0.3624538779258728,-0.1597197411478094,-0.1755190206529107,3.090275633798228,0.0039010420441627507,-0.06724812835454941,-0.061112988740205765,-0.7404403732717038,-0.1443690974917263,-9.867160041332246
33.8,5.9000000953674325,237.0,23.24056434631348,24.769775390625,-79.78283920608027,40.458890469386674,309.18568695068365,-0.027488550171256062,-0.02544339373707772,0.9316483736038208,0.36142557859420776,-0.1609839747292575,-0.1808371188236652,3.1151320151446145,0.037951651960611336,0.08994411677122116,0.026614513248205185,-0.7624174987524748,-0.07692348405718802,-9.933143531084061
34.0,5.9000000953674325,239.0,23.22428894042969,24.658451080322266,-79.78283898263099,40.458890208437694,309.81003463745117,-0.030735155567526817,-0.023655440658330917,0.9325789213180542,0.35887646675109863,-0.17401390923445026,-0.16492951308204806,3.0848280979097016,-0.05694082006812096,-0.025872187688946724,0.04025951027870178,-0.7485655910521746,-0.19256244275718928,-9.816888020038606
34.1,5.800000190734862,244.0,23.33572196960449,23.17942047119141,-79.78283896452885,40.458890148669575,310.119501953125,-0.028460539877414707,-0.02364189736545086,0.9327818155288696,0.3585377633571625,-0.1556581073825198,-0.1690438646015241,3.0838653015884843,0.16789330542087555,0.0014848486753180625,0.07061510533094406,-0.6284807384759188,-0.4959907986223698,-9.875684112310411
34.3,5.800000190734862,242.0,23.420860290527344,22.121835708618164,-79.78283885738738,40.45889006549407,310.7481755065918,-0.02962864749133587,-0.02145286649465561,0.9313479661941528,0.3622884154319763,-0.10452848926284238,-0.16254540640322804,3.0899349198700885,0.2051733136177063,-0.029989393427968025,0.10860341042280196,-0.5174834822863341,-0.09354907331988216,-9.815651918649673
34.5,5.800000190734862,241.0,23.29064750671387,24.817485809326172,-79.78283868506406,40.45888988597718,311.3740223693848,-0.029880685731768605,-0.017535442486405373,0.9298648238182068,0.3662663698196411,-0.12254816986315015,-0.16303136361869267,3.0381746537884773,-0.07935628294944763,-0.03376159816980362,0.2224682569503784,-0.6528438203036785,-0.09404026684351266,-9.63057292521
34.61,5.800000190734862,241.0,23.15793037414551,25.42182159423828,-79.78283871070224,40.45888990148121,311.6779278564453,-0.02587277628481388,-0.02104947343468666,0.9294933080673218,0.3673277795314789,-0.0852435944360509,-0.166324705576045,3.0194391575814987,-0.08143123239278792,-0.13840535283088684,0.07547365874052048,-0.4747314554080368,-0.3175244944542647,-9.653273570537568
34.7,5.800000190734862,242.0,23.095327377319336,28.46735000610352,-79.78283854377726,40.45888975789775,312.00660980224615,-0.0218060240149498,-0.03026657924056053,0.9292832612991332,0.367479532957077,-0.05359282066544231,-0.16801861382780295,3.0022278955555053,-0.02414592728018761,-0.16346172988414764,0.03468915820121765,-0.5699143686890602,-0.3214016735181213,-9.698814024925232
34.9,5.800000190734862,241.0,23.062774658203125,27.97434043884277,-79.78283845678077,40.45888971403731,312.6378010559082,-0.01702248863875866,-0.0357937254011631,0.9301347136497498,0.3650733530521393,0.01107915974485605,-0.2244636798611523,3.0109530192605125,-0.044498272240161896,0.025656959041953087,-0.005090557038784027,-0.7891688758134843,0.024866367210634056,-9.681730214953424
35.1,5.800000190734862,241.0,23.05776596069336,27.409765243530273,-79.78283850203336,40.45888972513554,312.93929946899414,-0.01857829838991165,-0.032895784825086594,0.9307211637496948,0.3637731969356537,0.014801225957089688,-0.2154269432438312,3.008943964554492,0.05739717185497284,0.004792595282197,0.02131587639451027,-0.6221305891871453,-0.18315807346254587,-9.800912257432936
35.2,5.800000190734862,242.0,23.07779884338379,28.228797912597656,-79.78283846446084,40.45888969085964,313.57435119628906,-0.016910096630454063,-0.0269984919577837,0.931738555431366,0.3617299497127533,-0.027635108609878514,-0.1911072206624796,3.0362291538901927,-0.009159980341792108,-0.009157547727227213,0.041758276522159576,-0.6230716985464096,-0.2377128878608346,-9.873987250328064
35.31,5.800000190734862,239.0,22.81987571716309,30.67794418334961,-79.78283848300502,40.45888968902175,313.87889755249023,-0.01672101579606533,-0.024474442005157467,0.9315837025642396,0.3623164892196655,-0.03605137414566215,-0.17540626004411725,3.0443971161397987,0.0015759336529299615,-0.028336884453892708,0.12530522048473358,-0.5381908848881721,-0.2681479559652508,-9.857456002235413
35.52,5.800000190734862,239.0,23.13038444519043,26.01820373535156,-79.7828384184739,40.45888966142755,314.5179699707031,-0.019235776737332344,-0.028471939265727997,0.930645227432251,0.36430585384368896,-0.03979924572123704,-0.16649723610619135,3.1572898374903406,0.1030365228652954,0.06822449713945389,-0.020751824602484703,-0.3971726713702083,-0.2436485061049461,-10.424565753936768
35.6,6.0,239.0,23.1003360748291,26.46350288391113,-79.78283843992384,40.45888964071043,314.83567321777343,-0.022176723927259445,-0.026047158986330032,0.9307485222816468,0.3640561401844025,-0.05484220495089415,-0.18845320970144308,3.1805588515202534,0.0775953084230423,0.010345185175538065,0.013245198875665665,-0.5839303638786077,-0.2673795587383211,-10.101966680288315
35.81,6.099999904632568,239.0,22.88873863220215,28.268556594848643,-79.78283830335933,40.45888955220802,315.4745281982422,-0.02683859132230282,-0.02347510866820812,0.9313206672668456,0.3624505400657654,-0.1184696088353697,-0.19319265657145834,3.164850005671532,-0.036648232489824295,0.011942393146455288,0.017706528306007385,-0.8815225772559643,-0.4890959811955691,-9.84341332912445
36.0,6.199999809265138,244.0,23.25934600830078,22.71026611328125,-79.78283817031827,40.458889511471575,316.12409103393554,-0.029668336734175682,-0.0194714330136776,0.9311071038246156,0.3630157113075256,-0.10683084328588402,-0.2479006446202756,3.1986211283996493,0.053469844162464135,0.0008094575605355202,0.0461203008890152,-0.8641820745170117,-0.2450889311358333,-10.123682069778443
36.11,6.300000190734862,240.0,23.374534606933594,22.185449600219727,-79.78283812632637,40.45888955176788,316.4441708374024,-0.03201062604784965,-0.02439103834331036,0.930765688419342,0.3633948266506195,-0.146119258129106,-0.25803466491878946,3.1854831417831204,-0.2637063860893249,-0.12488549202680588,-0.09689338505268097,-0.9967863274365664,-0.2819041155092418,-9.603860505223272
36.3,6.4000000953674325,240.0,23.137897491455078,25.15146064758301,-79.78283803065476,40.45888955668252,316.77044189453125,-0.02813488058745861,-0.035060763359069824,0.9306609034538268,0.3631110489368439,-0.13363677700959947,-0.309259641696748,3.1349862639753696,-0.2500976026058197,-0.11798352003097536,0.03760911151766777,-1.0799213086813688,-0.30269372630864383,-9.554314123392103
36.4,6.5,240.0,23.109100341796875,27.84711265563965,-79.78283780118525,40.458889676965924,317.42106903076166,-0.027333689853549004,-0.048500906676054,0.9299631714820862,0.3634133040904999,-0.03132789383246321,-0.3945834022349547,3.1369228086674408,0.02456582337617874,-0.1767548769712448,0.016578299924731255,-0.8922503907233477,-0.2658636680804193,-9.752448779940606
36.6,6.599999904632568,248.0,23.18797874450684,24.9924259185791,-79.78283770816853,40.45888979746833,318.04953277587884,-0.02660906314849853,-0.05031432956457138,0.9299973249435424,0.3631329238414765,-0.030555283876610807,-0.4452736955925847,3.0978000577134432,-0.023090939968824387,0.24110426008701324,0.05842471867799759,-1.0036253770440815,-0.23943483805283905,-9.684147453904153
36.71,6.699999809265138,251.0,23.155426025390625,25.652421951293945,-79.78283753152488,40.45888980250322,318.3920735168457,-0.025215886533260345,-0.04406414553523064,0.9305999875068665,0.3625000715255737,-0.03571823494275949,-0.3897177682875875,3.079993298310273,-0.018040793016552925,0.05846841260790825,-0.10092031955718994,-0.9383566363155842,-0.08391970499418676,-9.277670656442645
36.8,6.9000000953674325,251.0,23.15667724609375,23.680383682250977,-79.7828375091874,40.458889821625064,318.6999729919433,-0.023911353200674057,-0.041089683771133416,0.9310672879219056,0.3617370128631592,-0.054156412058376686,-0.3364089718937118,3.0479429868876533,0.0198045801371336,0.10751371830701828,-0.06708082556724547,-0.7281594662368298,-0.30618727320805195,-9.586024158596992
37.0,7.0,251.0,23.179214477539066,25.73194122314453,-79.7828373180817,40.45888987177428,319.36162841796875,-0.022706246003508568,-0.03389115631580353,0.9319165945053101,0.3603711128234863,-0.08518918769721326,-0.28477895240019063,3.0805821622819933,0.0840076357126236,-0.02354283817112446,-0.10530492663383484,-0.8065031658858062,-0.15234551277011635,-9.518250836133957
37.11,7.0,242.0,22.96511459350586,27.52108955383301,-79.7828372486273,40.45888986702925,319.6699627685547,-0.03131653368473053,-0.033025629818439484,0.93189936876297,0.3598504364490509,-0.10003277639175387,-0.2888432734056273,3.0637050363997886,0.2264054119586945,-0.04845652729272842,-0.00851621013134718,-0.8632506130635739,-0.4074678639695049,-9.659340641498568
37.3,7.0,244.0,23.041488647460927,27.44952392578125,-79.78283714110144,40.458889881453295,320.3330372619629,-0.03809510543942452,-0.03623013570904732,0.9311851859092712,0.3607360124588013,-0.1757313568466571,-0.30395583120107816,3.1191688194435203,0.014217070303857328,-0.11575791984796525,0.07517055422067642,-0.7568394742906094,-0.4879894687235356,-9.892180277109146
37.5,7.0,245.0,23.072790145874023,26.5748291015625,-79.78283696501927,40.4588898473964,320.9836758422852,-0.03732927888631821,-0.03454466536641121,0.9309338331222534,0.361628919839859,-0.1580653704721154,-0.3057555694222199,3.1633732436441755,-0.07557084411382675,-0.05135058984160423,0.009812376461923122,-0.7873793354630471,-0.5461904606223107,-9.837560266256332
37.6,7.0,246.0,23.209264755249023,24.10182762145996,-79.78283694897398,40.458889840235905,321.30168426513666,-0.03612755611538887,-0.03503206744790077,0.9309425354003906,0.3616816997528076,-0.16097075773715525,-0.28696805205844983,3.154373077047125,-0.11715827882289885,0.016682133078575134,-0.13543307781219482,-0.7869100964069367,-0.15253149990923706,-9.717388874888421
37.7,7.0,252.0,23.02145576477051,26.964466094970703,-79.78283675866516,40.45888979902925,321.6322163391113,-0.03338029980659485,-0.034949950873851776,0.9310457110404968,0.361687958240509,-0.15884753502053214,-0.2940414774983036,3.1129595563731547,-0.08411117643117905,-0.002069637645035982,0.0830424427986145,-0.8257437213510276,-0.3827949162572623,-9.505058932900427
37.9,6.9000000953674325,253.0,23.109100341796875,26.932659149169922,-79.7828366510831,40.458889766015844,322.2768124389648,-0.03136405348777771,-0.037974052131176,0.9304120540618896,0.3631909489631653,-0.1208582662976317,-0.2966495849449303,3.0502849264905514,-0.043863534927368164,-0.03066576644778252,0.11894116550683975,-0.9721408250927924,-0.4770564179867506,-9.395548185110092
38.1,6.9000000953674325,253.0,23.00392723083496,28.65819358825684,-79.78283660540464,40.45888978694123,322.8905323791504,-0.03129718825221062,-0.03320908918976784,0.9294504523277284,0.3661142289638519,-0.09513626234549356,-0.2995665594019377,3.0778495252932565,0.034598398953676224,-0.03321307525038718,0.08743871003389359,-0.9550428356230259,-0.18919875886291265,-9.708967130184174
38.2,6.9000000953674325,253.0,22.90626716613769,27.57675170898437,-79.78283646122753,40.45888970628208,323.2257908630371,-0.030243383720517162,-0.03412332758307457,0.9292412996292114,0.3666490614414215,-0.11421081868699892,-0.2854174053696634,3.1350302654053275,0.0425608716905117,0.02036935649812221,-0.011333725415170193,-0.8909182488173247,-0.19393388891592625,-10.164980953931806
38.3,6.9000000953674325,250.0,23.099082946777344,24.55507850646973,-79.78283644306072,40.45888970639158,323.54351318359375,-0.029505247250199318,-0.03711211681365967,0.9290249943733216,0.3669668734073639,-0.11335377572759515,-0.2870948108183698,3.1926593068209934,-0.05414362251758576,-0.07020975649356842,0.00020834874885622407,-0.9307866847515108,-0.25576459474861624,-10.223515090942383
38.51,6.800000190734862,250.0,23.25559043884277,23.592912673950195,-79.78283627299245,40.4588897393277,324.18730056762695,-0.03280826658010483,-0.040831852704286575,0.9292359352111816,0.3657555282115936,-0.09004278724269589,-0.336262895269172,3.191864222833429,0.06548154354095459,0.12151402980089188,-0.005730857141315937,-0.8665672268718482,-0.1880907114967704,-9.875783514976504
38.6,6.800000190734862,249.0,23.04023742675781,27.84711265563965,-79.78283626585839,40.45888973223377,324.5070751953125,-0.033524174243211746,-0.03716758266091347,0.92997807264328,0.3641918301582336,-0.10793945912695073,-0.3052660191967632,3.164254696070617,0.05464676395058632,-0.018451105803251263,0.013637115247547626,-0.8117772813141346,-0.3805901139602065,-9.545949681401254
38.8,6.800000190734862,249.0,23.211767196655273,23.17942047119141,-79.78283615938099,40.458889661193524,325.1507023620605,-0.029553931206464767,-0.0343167744576931,0.9315841197967528,0.3606938421726227,-0.13232094947297898,-0.2888356978320473,3.1763831422767037,-0.09896980226039886,0.210161492228508,-0.18061991035938266,-0.92414541721344,-0.16667056985199452,-9.955516147613526
38.9,6.9000000953674325,251.0,23.099082946777344,25.35820770263672,-79.78283614755979,40.45888962199224,325.477770690918,-0.026409223675727844,-0.03318202868103981,0.9325353503227234,0.3585795760154724,-0.12588875486984208,-0.2584516955029343,3.1839617996564358,-0.09507319331169127,0.0874701738357544,-0.07123914361000061,-0.9176372469216586,-0.1605808409303427,-9.903850150108337
39.1,6.9000000953674325,245.0,23.294403076171875,22.77388000488281,-79.78283611695547,40.45888956063744,326.12045944213867,-0.028135545551776886,-0.03590530529618263,0.9327431321144104,0.3576445579528809,-0.12520990815608146,-0.2333000000021732,3.2015732813358064,-0.02024169825017452,-0.09985633939504623,-0.2614360749721527,-0.8066744893044234,0.07468257520347835,-9.633820468783377
39.21,6.800000190734862,245.0,23.19674301147461,24.03821182250977,-79.782835941725,40.45888955646782,326.43906295776367,-0.031735271215438836,-0.03762805089354515,0.932348132133484,0.3581956624984741,-0.11651203210945553,-0.2599234277544471,3.1471240898568635,0.19814585149288172,0.012334123253822328,-0.02999519556760788,-0.6802034539729357,-0.5100865352153778,-9.633984775543214
39.41,6.699999809265138,245.0,23.390811920166016,20.97677993774414,-79.78283582030558,40.458889444779146,327.0847271728516,-0.03317417576909065,-0.0386958085000515,0.931842029094696,0.3592669367790222,-0.15966449597503524,-0.25884845609733803,3.1134398007258604,0.1392574906349182,-0.011935719288885592,0.2320875972509384,-0.7255656413733961,-0.7937826213240624,-9.598959953784943
39.5,6.699999809265138,250.0,23.248077392578125,25.326400756835927,-79.78283580607544,40.458889381897784,327.39513671875,-0.03629579767584802,-0.035952385514974594,0.9314469695091248,0.360273152589798,-0.16997611439983246,-0.25094267102610684,3.0582757642858636,-0.02058342657983303,0.0763951912522316,0.10107534378767014,-0.8183008736371994,-0.3441784422844649,-9.272253211140633
39.7,6.699999809265138,251.0,23.18672752380371,23.664478302001953,-79.78283576065489,40.458889307939664,328.03559005737304,-0.037146329879760735,-0.029867909848690036,0.9307571649551392,0.3625179529190064,-0.18588246891747154,-0.21871607055896514,3.0576907578729062,-0.0749567523598671,0.11944699287414552,0.006458419840782882,-0.9234920639544726,-0.2775517222657801,-9.681705656647683
39.9,6.9000000953674325,250.0,23.31944465637207,23.04424095153809,-79.78283577280428,40.45888925342974,328.342703704834,-0.03209761902689934,-0.027191877365112305,0.9310981035232544,0.3623351752758026,-0.1733139512167078,-0.2092747714906132,3.0541388569319707,-0.07931625843048096,0.0693381056189537,0.05367577448487282,-0.9920820962637664,-0.4279980959370733,-9.682459362745288
40.0,6.9000000953674325,250.0,23.109100341796875,25.83531379699707,-79.78283569156099,40.45888908025316,328.98422134399414,-0.027345970273017883,-0.028740482404828068,0.9309211373329164,0.363059401512146,-0.1124115952963934,-0.18862778557384866,3.0564824550904124,-0.09370425343513487,-0.15054768323898315,0.021994320675730702,-1.0751224257051946,-0.17673150837421414,-9.518900461792946
40.1,7.0,243.0,23.38204765319824,20.984731674194336,-79.78283570434634,40.4588890818012,329.28927124023437,-0.030528854578733444,-0.03291970491409302,0.9304739236831664,0.3635968863964081,-0.07847676106503433,-0.22926148172444244,3.0335056569285355,-0.012345977127552029,-0.08515375107526779,0.10468819737434387,-0.9699486308544876,-0.10800884476862847,-9.621943019628523
40.3,7.0,248.0,23.28313446044922,23.577009201049805,-79.78283561838145,40.45888909901644,329.9142254638672,-0.025201942771673203,-0.04887192696332932,0.9304673075675964,0.3622251451015472,-0.06260767000977921,-0.3135378253557841,2.9839872371957243,-0.0074496157467365265,-0.20107723772525787,0.25714683532714844,-1.0457046452164651,-0.7215994749963284,-9.48832946419716
40.4,7.0,246.0,23.169198989868164,25.135557174682607,-79.78283558622552,40.45888905928483,330.23193634033197,-0.019497711211442947,-0.05265761166810989,0.9308823943138124,0.3609778881072998,-0.04432332358850016,-0.3376110204472957,2.9735500017671765,-0.1817256510257721,0.03556976094841957,0.1899939477443695,-1.2142545832693576,-0.23127576123923066,-9.373456234931947
40.6,7.099999904632568,246.0,23.27061462402344,21.930992126464844,-79.78283556208554,40.458889044339045,330.8244122314453,-0.01646871492266655,-0.04506409168243408,0.931174099445343,0.3614041805267334,-0.0075201865034518625,-0.31307397598264153,2.9289528435362584,0.03324400633573532,0.0940333679318428,-0.03023782558739185,-0.9826871556043624,0.060428634881973274,-9.560806871652604
40.8,7.199999809265138,235.0,23.27186584472656,22.026412963867188,-79.78283526983682,40.458889200616,331.4201229858398,-0.02536973170936108,-0.04178261384367943,0.930050015449524,0.3641669750213623,-0.03796568152679857,-0.3123236202575021,2.876043906719354,0.06902587413787843,-0.08030711859464645,0.05524963513016701,-0.9186624830961228,-0.12820484440773727,-9.41524628520012
40.91,7.300000190734862,239.0,23.44464874267578,20.714370727539066,-79.78283527164845,40.458889168109295,331.72754180908197,-0.030795762315392494,-0.04229668900370598,0.9297906160354614,0.3643516898155213,-0.05716494322613036,-0.3188695369608576,2.8771927789262848,0.19429127871990204,-0.0474516861140728,-0.08585768193006517,-1.05064568862319,0.01994419477880001,-9.559643275737765
41.01,7.400000095367432,238.0,23.165441513061523,24.09387588500977,-79.78283522277894,40.4588891903766,332.01497924804687,-0.03158421441912651,-0.04307730123400688,0.9300034642219543,0.36364880204200745,-0.07898818641849649,-0.3382809887794597,2.8328256401292617,-0.005571749992668629,-0.028335424140095718,0.0054134028032422074,-1.1435488821566109,-0.06061899829655886,-9.433184373378754
41.21,7.5,238.0,23.10158729553223,24.93676376342773,-79.78283508209577,40.45888916204382,332.60687530517583,-0.032222993671894073,-0.04581716656684876,0.9302995204925536,0.3624987900257111,-0.0657928779201603,-0.35956602913168345,2.847196621186733,0.02676456980407238,-0.057166494429111474,0.003227105364203453,-1.1190779922902585,-0.3948516556620598,-9.820539021492005
41.4,7.5,241.0,23.32445335388184,23.02833747863769,-79.78283505456236,40.45888919900999,332.89507568359375,-0.033793110400438316,-0.04625780135393144,0.9303771257400512,0.3621005117893219,-0.06855847963865533,-0.35925884876997355,2.868098403622444,0.006115809548646212,-0.09315729141235353,0.02352406457066536,-1.08901782207191,-0.17019443091005088,-9.808618302941325
41.51,7.599999904632567,242.0,22.973878860473643,27.86301612854004,-79.78283493890879,40.458889244032,333.46871459960937,-0.03923826664686203,-0.048752591013908386,0.930532932281494,0.3608214259147644,-0.07904293957450989,-0.355491144581895,2.757814149395951,-0.020014131441712383,-0.06457512825727463,0.06322000920772552,-1.0557359091192484,-0.2441152052767575,-9.0956667137146
41.7,7.599999904632567,244.0,23.16043472290039,24.165441513061523,-79.78283484691383,40.45888931426709,334.04294097900384,-0.03227686136960983,-0.04756199568510056,0.9326661825180054,0.35613200068473816,-0.09451596611482094,-0.3726688685961185,2.83551994374309,-0.1055770292878151,0.1012006849050522,-0.047356586903333664,-1.2405614988505842,-0.6864018680155277,-9.636518374085426
41.9,7.599999904632567,244.0,23.25058174133301,22.551231384277344,-79.78283475717953,40.45888941346836,334.6103466796875,-0.027744382619857788,-0.047359339892864234,0.93364417552948,0.3539715707302093,-0.05368228084560813,-0.28429907421500433,2.8632596038879083,0.00559462606906891,-0.1043553501367569,-0.08821620047092438,-0.9296663582324982,-0.1449037157278508,-9.802971646785736
42.0,7.699999809265138,245.0,23.29941177368164,23.15556526184082,-79.78283476443656,40.458889405369604,334.897822265625,-0.03283784165978432,-0.05010247230529785,0.9327113628387452,0.3556135296821594,-0.05141188974783701,-0.30179180004532863,2.8551510449440545,0.24872732162475586,0.05269085615873337,0.03087693266570568,-1.0133225456625223,-0.4852294367551804,-9.763567845225335
42.1,7.699999809265138,241.0,23.08531188964844,25.485435485839844,-79.78283475827367,40.458889375183894,335.18483245849615,-0.03711077570915222,-0.051054276525974274,0.9316128492355348,0.3579300045967102,-0.12322990469672696,-0.3017998262739098,2.8508760186152915,-0.04258362948894501,0.014694685116410255,-0.1483130306005478,-0.9897776354849341,-0.2301814731024205,-9.735087811946867
42.3,7.699999809265138,243.0,23.19799613952637,23.96664619445801,-79.78283471986842,40.45888943904432,335.4599102783203,-0.041597463190555566,-0.0497639924287796,0.9308249354362488,0.35966411232948303,-0.12246304256564396,-0.2982045684639623,2.841431804812772,0.2294167131185532,0.12985961139202118,0.014839198440313341,-0.807678602412343,-0.6646269100159407,-9.886796160936356
42.41,7.599999904632567,244.0,23.139148712158203,24.714113235473643,-79.78283459591147,40.45888922995577,336.02633941650384,-0.046447183936834335,-0.03740689158439636,0.930397629737854,0.3616680502891541,-0.21232018756363308,-0.24632449235030565,2.867688467814556,0.04899211972951889,0.04411868378520012,-0.1047116219997406,-0.9548866418749096,-0.7183847489207983,-9.89003785729408
42.5,7.5,255.0,23.11661148071289,25.01628112792969,-79.78283460342641,40.45888913424778,336.3159130859375,-0.04491211101412773,-0.034517627209424966,0.9306157231330872,0.3615880608558655,-0.25046646927430816,-0.2031362858925604,2.8868964755927347,-0.1396637111902237,0.007137167733162642,0.05055900663137436,-0.7685888694226742,-0.6879696527123451,-9.899696288108826
42.7,7.400000095367432,253.0,23.06027030944824,27.266632080078125,-79.78283464087734,40.45888896675451,336.88277709960937,-0.040277168154716485,-0.03407600149512291,0.9322960376739502,0.3578277826309204,-0.21321183526378712,-0.16958649037779988,2.881352447486198,0.053213346749544144,-0.03105991519987583,0.08051317930221558,-0.8107895404100418,-0.791818980127573,-9.897895345687868
42.81,7.199999809265138,255.0,23.03773307800293,26.01820373535156,-79.78283467109868,40.45888885334604,337.17309844970697,-0.03861671686172485,-0.03234432265162468,0.933323323726654,0.3554860353469849,-0.2227641516407698,-0.1564774305902973,2.9145855175761954,-0.0550297275185585,0.0683649554848671,-0.1654142439365387,-0.8736645772308111,-0.2132561044022441,-10.04822726011276
43.0,7.099999904632568,256.0,23.18797874450684,24.44375228881836,-79.78283471820366,40.458888673906436,337.74643218994134,-0.03835431486368178,-0.03019007481634617,0.9342139959335328,0.35335785150527954,-0.19242980835959567,-0.11710436021509985,2.9714404040833844,0.15639738738536835,-0.11727212369441985,0.031337883323431015,-0.8339347203075886,-0.6410395344346762,-10.132656376361847
43.2,6.9000000953674325,253.0,23.00267601013184,26.43964767456055,-79.78283462516164,40.45888854566814,338.31064880371093,-0.040363047271966934,-0.027715107426047325,0.9340652227401732,0.35373008251190186,-0.22187566082843185,-0.10837144930873964,2.9190940468147906,-0.002504079136997461,-0.005250195506960154,-0.019828259944915768,-0.7737850707024336,-0.4600140867009759,-9.880152554512025
43.31,6.800000190734862,252.0,23.49347877502441,19.87943458557129,-79.78283466589009,40.45888841834878,338.60365570068365,-0.039379280060529716,-0.02505064755678177,0.9337120056152344,0.35496994853019714,-0.211721476195024,-0.11074348469541627,2.9245407058973205,0.14918819069862366,0.15662196278572085,0.10812997072935104,-0.6706275419890881,-0.6668560878932477,-9.850708315372467
43.4,6.599999904632568,253.0,23.35700607299805,21.318706512451172,-79.78283454456346,40.45888834422747,338.88502777099615,-0.03915364667773247,-0.02244843728840351,0.9329930543899536,0.35705333948135376,-0.23690750014997425,-0.0860408711463485,2.8783079015841504,-0.11068294942378998,-0.02080979943275452,0.10936379432678224,-0.8112187991291285,-0.2455824178643525,-9.456638724803923
43.6,6.5,254.0,23.56735038757324,17.144023895263672,-79.78283463946771,40.4588881113794,339.44980895996093,-0.04232802614569664,-0.01699657738208771,0.931594967842102,0.3606249988079071,-0.22393180483005254,-0.06800331655569679,2.746254245909391,0.07072693854570389,0.010027960874140264,-0.011964521370828152,-0.5764351470395923,-0.6935741358250379,-9.099862090945244
43.8,6.4000000953674325,256.0,23.80398750305176,15.394634246826172,-79.78283457942275,40.45888786618135,340.00252807617187,-0.04499475285410881,-0.011168444529175758,0.9299431443214417,0.3647691905498505,-0.22532720960480515,-0.07107740555032513,2.5724830539038672,0.011521657928824423,-0.07796662300825119,0.06231755390763283,-0.6441456484794617,-0.7373154750466347,-8.948833188414573
43.9,6.4000000953674325,257.0,23.76267051696777,15.87969207763672,-79.78283448215035,40.45888783467518,340.2662228393554,-0.047959014773368835,-0.00922844186425209,0.9288975596427916,0.3671023547649384,-0.2474231727712145,-0.08248262261195337,2.4503596951561764,-0.0967838019132614,-0.004832215141505003,-0.0735294446349144,-0.8060826779901982,-0.2312010447867215,-8.3055576056242
44.0,6.5,259.0,23.702571868896484,17.756311416625977,-79.78283446569256,40.458887794522745,340.50480926513666,-0.04969770833849907,-0.009251468814909458,0.9283381700515748,0.36828356981277466,-0.2313970595875717,-0.11572164305810205,2.297602021590485,-0.03059379011392593,0.05706572160124779,0.010957238264381886,-0.7923613824695349,-0.6494965817034245,-8.351855859160423
44.2,6.599999904632568,260.0,23.77644348144531,16.51583480834961,-79.78283431664906,40.45888777617385,340.95245635986333,-0.05342791602015495,-0.014500889927148819,0.9288931488990784,0.3661867082118988,-0.2281788664793235,-0.16500351194977972,2.0067634074141734,0.019047658890485764,-0.097481831908226,0.19803094863891602,-0.7170751187950373,-0.932651361823082,-8.254023755192755
44.3,6.699999809265138,262.0,23.688798904418945,17.064506530761722,-79.78283422712347,40.45888778219424,341.1464718627929,-0.05715189129114151,-0.017156928777694702,0.9292499423027042,0.3646010756492615,-0.2286741573353529,-0.19375808594744406,1.8388461653624049,-0.013109670020639895,-0.025582803413271904,-0.08511943370103836,-0.6350811485946178,-0.7872580788284541,-8.164788227677345
44.5,6.800000190734862,266.0,23.756410598754893,17.907394409179688,-79.78283397406706,40.45888782823826,341.51376617431634,-0.06306781619787216,-0.01850109733641148,0.9298171401023864,0.3621054589748383,-0.21096980594167627,-0.22464940019555285,1.6137127574207364,0.022725293412804604,-0.14676281809806824,0.04453166946768762,-0.9015834239870312,-0.9482254938036204,-8.443193460702897
44.7,6.9000000953674325,268.0,23.60491180419922,19.43413543701172,-79.78283379273203,40.45888786051953,341.85844696044916,-0.06615066528320312,-0.024614613503217697,0.9301517009735109,0.3603277802467346,-0.18343659398042167,-0.2187946191640168,1.4144814219843609,-0.11473625153303145,0.0876891165971756,0.07256778329610825,-0.7074538177996874,-0.7529941990971566,-8.385470332503319
44.8,7.0,268.0,23.72135353088379,16.969085693359375,-79.78283371549567,40.45888791431876,341.99810302734375,-0.06509522348642349,-0.02485113963484764,0.9303975105285645,0.3598689436912537,-0.1352195560747972,-0.20721876631208372,1.3347123312889957,0.04718184471130371,-0.0872875228524208,-0.007961474359035492,-0.938578391969204,-0.8035331457853317,-8.877148663401604
44.9,7.199999809265138,272.0,23.3933162689209,23.56905746459961,-79.78283380529955,40.45888783965425,342.20579040527343,-0.06356186419725418,-0.02703102491796017,0.9301215410232544,0.3606983125209808,-0.11299303232650255,-0.1779508520788191,1.3175756369262939,0.06370256841182709,-0.03752981498837471,0.1212923377752304,-0.8526526808738709,-0.8384288902580739,-8.857316662073135
45.11,7.300000190734862,273.0,23.420860290527344,21.573162078857425,-79.78283380039593,40.45888791952112,342.46599853515625,-0.057499762624502175,-0.03432932868599892,0.9296424388885498,0.3623261749744415,-0.09975301761898844,-0.15588318594330305,1.285678453375989,-0.3422126770019531,0.04659480229020119,-0.016155051067471504,-1.0224628400802611,-0.5022416914254427,-9.563399527072908
45.2,7.5,273.0,23.539804458618164,19.561363220214844,-79.78283406551812,40.45888777208153,342.71946228027343,-0.05354101955890656,-0.033950015902519226,0.9296501874923706,0.36294808983802795,-0.057322549542718385,-0.14168162781353644,1.38272290551917,0.06483712047338486,-0.0690464973449707,0.18663816154003146,-0.8915083059668542,-1.0500327542424202,-9.854050583839417
45.41,7.599999904632567,273.0,24.139537811279297,4.182632923126222,-79.78283420003913,40.45888780039499,342.99631774902343,-0.05383987724781037,-0.03465670347213745,0.9296612739562988,0.3628087639808655,-0.06307595326720825,-0.08680687450561314,1.3645414084017675,-0.16129080951213834,-0.2182461619377136,-0.0957060605287552,-1.0224740959703922,-0.4868156767264009,-9.46899096786976
45.51,7.699999809265138,274.0,24.00056076049805,16.261377334594727,-79.78283453664095,40.45888760318835,343.30621612548833,-0.047119326889514916,-0.036217667162418365,0.930298924446106,0.3619558215141296,-0.07857600547788246,-0.09428953321267547,1.3102442016287177,-0.30939888954162603,0.02621305175125599,-0.0111483009532094,-1.060277806967497,-0.8541993425041438,-8.127965387105943
45.7,7.699999809265138,268.0,23.88662338256836,16.523786544799805,-79.78283438652933,40.45888746189153,343.57629669189447,-0.009293091483414171,-0.033025484532117844,0.9491703510284424,0.3128874599933624,-0.14826126440255302,-0.0712216992540403,0.9697582123049108,-0.16203615069389346,-0.01913130097091198,-0.9134138226509094,-0.7688101134449244,-0.6578346381336451,-8.100077092051507
45.81,7.699999809265138,270.0,23.54857063293457,19.306907653808594,-79.78283428403145,40.45888737763604,343.665774230957,-0.026140615344047543,-0.03882816061377525,0.9641063809394836,0.2613580226898193,-0.12539405849643534,-0.03293122896464963,0.8237905089501041,0.6061508655548096,-0.3285424113273621,-1.026483178138733,-0.8530120653659106,-0.8016875452548266,-8.178528599739074
46.01,7.699999809265138,271.0,23.8365421295166,16.006921768188473,-79.78283387251506,40.458887056064405,343.8269528198242,-0.062295291572809226,-0.044476892799139016,0.9885234236717224,0.13024088740348816,-0.3139953665958777,0.03092141862995978,0.5856693923146884,-0.0917096585035324,-0.06025131419301032,-1.5196542739868164,-0.8796360462158919,-1.0363081696629526,-8.424311631917954
46.2,7.699999809265138,250.0,23.83278465270996,16.309087753295902,-79.78283363630574,40.45888687111973,343.88018310546875,-0.06397202610969542,-0.03483578935265541,0.9957854151725768,0.055726826190948486,-0.30127890056657103,0.11231472786213116,0.4492929158847347,-0.09136306494474412,0.1515399068593979,-1.5387932062149048,-0.4386586298793553,-1.0959684804081915,-8.410057289600372
46.31,7.699999809265138,232.0,23.791467666625977,16.11824607849121,-79.78283296898388,40.458886365131576,343.92488372802734,0.06048426032066345,0.017821693792939186,-0.993096113204956,0.09891541302204132,-0.19540759263380209,0.26797133250798577,0.2406242188648089,-0.08165042102336884,0.0610729418694973,-1.4384170770645142,-0.1627183271571994,-1.2027171497046951,-8.726148412227634
46.5,7.699999809265138,240.0,23.453413009643555,22.360387802124023,-79.7828321883689,40.45888592624596,343.9138287353516,0.0649789348244667,0.009845471940934658,-0.9658662676811218,0.250565767288208,-0.0567246775316733,0.3276682728860765,0.08811619746850341,0.051297854632139206,-0.19201096892356875,-1.3843480348587036,0.2310915374010801,-0.7826548583060503,-8.838150073885918
