time,wind_speed,wind_angle,battery_voltage,battery_current,position_x,position_y,position_z,orientation_x,orientation_y,orientation_z,orientation_w,velocity_x,velocity_y,velocity_z,angular_x,angular_y,angular_z,linear_acceleration_x,linear_acceleration_y,linear_acceleration_z
0.0,3.9000000953674316,193.0,24.40246772766113,-0.007951773703098297,-79.78283266711851,40.45890154260386,269.4833064050674,0.0148187093436718,-0.007763611618429421,0.7495728731155396,0.6617104411125183,-0.0025175045019523875,-0.0130446031541897,0.04870397223266108,-0.0038349828682839866,-0.0018784607527777555,-0.0023122462444007397,0.06807460481766611,0.32282097548246386,-9.802313835024837
0.2,3.5999999046325684,191.0,24.40246772766113,-0.007951773703098297,-79.78283265019553,40.45890154074008,269.48814785194395,0.014814636670053003,-0.007765689864754677,0.749556303024292,0.6617293357849121,-0.0017723935341349742,-0.01496966267192153,0.048640553355985085,0.005000694189220667,0.0005449671298265457,0.007185877766460179,0.06146154552698136,0.3102719005197287,-9.805621020197867
0.3,3.5,191.0,24.392452239990234,0.015903547406196594,-79.78283273327644,40.45890156380985,269.49475335788725,0.014810119755566118,-0.007779816631227731,0.7495669722557068,0.6617171168327332,0.0023636716201905017,-0.0024814514002254712,0.04595385156764386,0.0026655765250325203,0.002387629589065909,0.0048201074823737144,0.06644821548834444,0.3038878556527197,-9.805347370505334
0.5,3.299999952316284,192.0,24.404972076416016,0.0,-79.78283272921995,40.458901565175466,269.49936103534696,0.014816503040492538,-0.007778300438076258,0.7495729327201843,0.6617102026939392,0.002135921132342401,-0.0037548021221737436,0.04620005266625354,0.002061093226075173,0.0005519087426364422,-0.0036892646457999945,0.0651844129152596,0.31629464227706194,-9.80367857515812
0.61,3.0,194.0,24.40121650695801,0.0,-79.78283275626183,40.45890157788386,269.50334739398954,0.014823404140770437,-0.007746639661490917,0.7495787739753723,0.661703884601593,0.0012951770147509685,-0.004786525903847075,0.04026790111637432,0.005878988653421402,0.0019564765971153975,-0.00079215073492378,0.06624747326597571,0.3146314383298159,-9.803622441887855
0.8,2.9000000953674316,195.0,24.4074764251709,0.02385532110929489,-79.78283283494122,40.458901588521385,269.50240730953215,0.014803153462707996,-0.007764234673231841,0.7495905160903931,0.6616907119750977,0.001098960870909741,0.003680416916919639,0.033124768464880064,-0.005942445248365402,-0.0016313507221639154,-0.0009358619572594762,0.06612497866619378,0.31235106077045205,-9.803298506140713
0.9,2.5999999046325684,196.0,24.4074764251709,0.03180709481239319,-79.78283283776581,40.458901588732594,269.5057241888046,0.014815635047852991,-0.007762819062918425,0.7495958805084229,0.661684513092041,0.002027240878790689,0.0018207842097988489,0.03303039594698624,0.005715992767363787,-0.001633338863030076,0.0018920034635812046,0.06660852969624102,0.31174550849944355,-9.803885566592216
1.1,2.4000000953674316,192.0,24.40622520446777,-0.007951773703098297,-79.78283284977323,40.45890160384398,269.50969409656517,0.014795123599469662,-0.007741860114037991,0.7496109604835509,0.661668062210083,0.0009003344631003182,-0.003029919736950688,0.029907629467252176,0.0024516081903129816,0.00027141987811774015,0.006016544066369534,0.06712809592019768,0.3072805380821228,-9.804790715575221
1.2,2.5,185.0,24.4074764251709,0.015903547406196594,-79.78283290057068,40.458901604443504,269.513340470314,0.014789948239922525,-0.00777022447437048,0.7496355772018433,0.661639928817749,-0.0032824481034166397,0.0005378452218708979,0.026671426011865985,-0.0027689873240888123,0.00020654199761338527,0.0025137069169431925,0.06752103794831782,0.310512440353632,-9.804514142274858
1.4,2.700000047683716,180.0,24.40622520446777,0.02385532110929489,-79.78283289989501,40.45890160077926,269.5159977645874,0.014774535782635212,-0.007773814257234334,0.7496305108070374,0.6616460680961609,-0.00303300035389083,-0.0012920537966412907,0.026757309052906183,0.006586099974811077,0.004709117580205202,0.002235522260889411,0.06007765576243401,0.3121555444970727,-9.805231010913849
1.5,2.9000000953674316,178.0,24.40622520446777,0.039758868515491486,-79.78283292940061,40.45890161994628,269.51999544811247,0.014783439226448538,-0.0077691441401839265,0.7496398091316223,0.6616353392601013,-0.0028386917669419873,-0.0020188423659489112,0.02467036795611792,0.0024748062714934353,-0.00041696763946674764,0.0024215823505073786,0.06853483550716191,0.3001070094667375,-9.805872450470924
1.7,3.2000000476837163,178.0,24.404972076416016,0.0,-79.78283292547944,40.458901617354286,269.52245735836027,0.01476961746811867,-0.007754219230264425,0.7496619820594788,0.6616107225418091,-0.002418046394010309,-0.003735122449287043,0.02472855299653352,0.005875896662473679,-0.0002606642374303192,0.0017408502753823991,0.06378547570668161,0.31547109849751,-9.803576248884204
1.81,3.5,177.0,24.39996337890625,0.007951773703098297,-79.78283298780433,40.45890161792405,269.52341234397886,0.014768240042030813,-0.007749618962407112,0.7496710419654846,0.6616005897521973,-0.00467487613046956,0.0003507084808731429,0.019243755197132496,0.006664870772510767,0.0014562910655513404,0.003689280245453119,0.06433712852653116,0.3088712365552783,-9.805884144902233
2.0,3.799999952316284,175.0,24.40372085571289,0.007951773703098297,-79.78283298662024,40.458901612423396,269.52531909656517,0.014760430902242659,-0.007749869488179683,0.7496766448020935,0.6615943908691406,-0.00548615259405495,-0.00046375745836817726,0.01943669248548764,0.007449710741639137,0.004167330916970968,-0.0016684996662661429,0.0653386834776029,0.31634781539440154,-9.806760057806967
2.11,3.9000000953674316,176.0,24.40121650695801,0.0,-79.78283301704677,40.45890163370635,269.5275396080017,0.014758107252418997,-0.007727496791630982,0.7497091889381409,0.6615577936172485,-0.004615905148261768,-0.00394839499230515,0.017803974340053902,-0.004942643456161022,-9.846203465713188e-05,-0.0001939954090630636,0.054076292887330055,0.3163279348611832,-9.803948716521264
2.3,3.799999952316284,171.0,24.408727645874023,0.02385532110929489,-79.78283307285953,40.45890166900779,269.52829754066465,0.014749213121831415,-0.00770256109535694,0.749699592590332,0.6615691184997559,0.000563504966489,-0.0010051090752939953,0.0150702273580874,0.005968339275568725,0.0016821784665808082,0.008270934224128723,0.05946682272478938,0.3017898564040661,-9.805444434285164
2.4,3.799999952316284,172.0,24.408727645874023,0.039758868515491486,-79.78283307130089,40.45890166899883,269.529822227478,0.014743330888450147,-0.0077252984046936035,0.7497190833091736,0.6615468859672546,-0.00026393095731843015,-0.001082449822398196,0.015274288660407172,0.004645625129342079,0.0072994832880795,0.0013269969495013356,0.06895839319098741,0.3041012424789369,-9.80481761276722
2.6,3.700000047683716,170.0,24.404972076416016,0.007951773703098297,-79.78283310354325,40.458901661562365,269.5303046674728,0.014770425856113434,-0.007723693735897541,0.7497119307518005,0.6615543961524963,-0.006118362916608447,-0.002147625780410718,0.01097383041888234,-0.0024929153732955447,-0.0004977493081241847,-0.002324207220226527,0.06260294486302882,0.32445541843771936,-9.805006477832793
2.7,3.700000047683716,169.0,24.40372085571289,0.039758868515491486,-79.78283318097567,40.45890170198896,269.5329015226364,0.01476024091243744,-0.0077075958251953125,0.749714195728302,0.6615522503852844,0.0005739202365766879,0.0034318799029304445,0.01043597475773368,0.006785297766327858,-0.0011422879761084914,0.0023003078531473875,0.07075605568941683,0.3195368502661586,-9.802481065392497
2.9,3.5999999046325684,167.0,24.40622520446777,0.007951773703098297,-79.78283318433117,40.4589017015287,269.5339693994522,0.014761087484657763,-0.007725547067821027,0.7497023940086365,0.6615654230117798,-0.00028381397598685785,0.00200313754660718,0.01084363736067913,-0.0050803530029952535,-0.005086271092295647,-0.007859298959374428,0.05909186088480056,0.327139107696712,-9.80278804421425
3.01,3.5,171.0,24.4074764251709,0.007951773703098297,-79.78283325964065,40.458901710651396,269.5367404193878,0.01476285792887211,-0.007758366409689187,0.7496885657310486,0.6615806221961975,-0.0026670378670139053,0.006699186381726389,0.010759500048948026,0.003064847318455577,0.003038427792489529,-0.0030363837722688913,0.06667740806937217,0.31146411124616863,-9.804574953317642
3.2,3.5,171.0,24.408727645874023,0.02385532110929489,-79.78283326589455,40.45890170709532,269.53782343578337,0.014757718890905382,-0.007751618046313523,0.749708354473114,0.6615584492683411,-0.0038165851837079407,0.005826716060320578,0.011005007378820313,-0.009806349873542786,-0.003632070729508996,-0.004819131921976805,0.06906839393544942,0.32444858450442554,-9.801392313838006
3.31,3.5,172.0,24.404972076416016,0.02385532110929489,-79.7828332800056,40.458901705474645,269.5390931339264,0.014778166078031063,-0.00775067787617445,0.7497197389602661,0.6615450382232666,-0.008776222725999894,-0.0007928990841444836,0.008317980282965931,0.002294154139235616,-0.0004130156885366887,0.0027760185766965146,0.062041529933921986,0.31733562938869003,-9.805196512341501
3.51,3.299999952316284,175.0,24.40246772766113,0.0,-79.78283327730995,40.458901697343094,269.5399062604904,0.014763157814741138,-0.007757214829325677,0.7497238516807556,0.6615407466888428,-0.009954353573993168,-0.001661878997769743,0.008473479820699773,-0.004522417206317186,-0.0009425731841474774,-0.009341459721326828,0.06379869132768362,0.313688099719584,-9.801609830260276
3.61,3.4000000953674316,177.0,24.404972076416016,0.007951773703098297,-79.7828333683738,40.45890175514449,269.54341721248625,0.01477959007024765,-0.00778127694502473,0.7497276067733765,0.6615357398986816,-0.00047292665834978173,0.003177274087140689,0.009121457952054593,0.00960096437484026,0.0013783861650153995,0.002727280603721738,0.06385647826362402,0.31689094863832,-9.806082950234414
3.8,3.4000000953674316,181.0,24.41749382019043,0.07951773703098297,-79.78283343002687,40.45890181148647,269.54548310947416,0.014775318093597887,-0.007797506637871265,0.7497374415397644,0.6615245342254639,0.0031878790610762107,0.004980947232190602,0.009422241001939249,-0.005859462544322014,0.0010266625322401524,-0.002541314577683807,0.06926529435440898,0.3284104385599494,-9.798501450419426
3.9,3.5999999046325684,183.0,24.408727645874023,0.04771064221858978,-79.7828334383907,40.45890181541706,269.54743504238127,0.014791485853493212,-0.00781950168311596,0.7497382760047913,0.6615229845046997,0.0030180786407595305,0.0017237431843303386,0.009493244416912041,0.0050167720764875395,0.00010264048614772037,0.002557956613600254,0.058372813244350265,0.3125824643298984,-9.80659867465496
4.1,3.700000047683716,182.0,24.40121650695801,0.0,-79.78283351416503,40.45890184777285,269.5477893323898,0.014797125011682509,-0.007805257104337215,0.7497243285179138,0.66153883934021,0.0020468215617643532,0.006723769192136552,0.0068981428578656,0.003953942097723484,-0.0003924313641618937,-0.002278305822983384,0.07192896603606641,0.31288918733596804,-9.80141745686531
4.2,3.700000047683716,180.0,24.404972076416016,0.007951773703098297,-79.78283358055872,40.45890186518631,269.5486907930374,0.014804341830313206,-0.0078021688386797905,0.749745786190033,0.6615143418312073,-0.00194954398060676,0.005719037031962167,0.004427150792077552,0.004449415951967239,-0.00439913012087345,0.0041506849229335785,0.059839824833907186,0.3029660238325596,-9.805074890255929
4.4,3.5999999046325684,177.0,24.38994789123535,0.015903547406196594,-79.78283358689166,40.45890186230967,269.5491507024765,0.014816013164818287,-0.00779631221666932,0.7497495412826538,0.6615099310874939,-0.0027595107688147074,0.00517420798752363,0.004586587844866581,-0.004294667392969132,0.0006380282575264572,-0.0002567741903476417,0.061775920162908726,0.3199819695577026,-9.799928171038626
4.51,3.700000047683716,176.0,24.39996337890625,0.09542128443717957,-79.78283367243526,40.458901914088365,269.5518956155777,0.014805328100919725,-0.00779151963070035,0.7497605085372925,0.6614977717399597,0.002145027783256218,0.007697549729085301,0.006240481810870749,0.004626921378076077,-0.0019610766321420674,0.0006220581126399338,0.06583268183749169,0.3115236797556281,-9.803781486153603
4.7,3.5999999046325684,169.0,24.40121650695801,0.04771064221858978,-79.78283368122773,40.45890191453962,269.55254256439207,0.014820422045886515,-0.0078010004945099345,0.7497462034225464,0.6615135669708252,0.002047501490787657,0.006509022113815868,0.006423327124765628,-0.006587964948266746,-0.0018842403078451755,0.0014168136985972526,0.06140902565326543,0.3185777607187629,-9.801565976142884
4.81,3.5,168.0,24.398712158203125,0.09542128443717957,-79.78283370019426,40.45890193975993,269.55547368240354,0.014850147068500519,-0.007813133299350739,0.7497550249099731,0.6615027189254761,-0.0031662457010690807,0.0001914267389474433,0.008127698797446457,-0.005711901932954788,0.00018192917923443014,-0.0010422589257359505,0.06741017839405686,0.3180069628357887,-9.803813645839693
5.0,3.4000000953674316,157.0,24.40121650695801,0.08746951073408127,-79.78283369841917,40.45890193696653,269.5562623710632,0.014846399426460266,-0.007823334075510502,0.7497680783271791,0.6614879965782166,-0.002731583956292269,-0.001212550048432902,0.007821212535135371,0.005946092307567597,-0.0023361430503427982,0.00024034644593484702,0.0731024702405557,0.3138963336870074,-9.803461643457414
5.1,3.299999952316284,157.0,24.3974609375,0.12722837924957275,-79.78283373992483,40.45890199218904,269.55896007728575,0.01482613105326891,-0.007833103649318218,0.7497644424438477,0.6614923477172852,-0.0005715137942666838,-0.004058464154128278,0.008616097801317533,0.006121911574155092,0.0009683916578069328,0.004340457729995251,0.06257615730632096,0.3066021879762411,-9.80499829173088
5.31,3.0,154.0,24.392452239990234,0.08746951073408127,-79.78283379147945,40.45890201714622,269.56043970298765,0.014805315993726254,-0.007819126360118389,0.7497487664222717,0.6615107655525208,-0.004608350533224017,-0.0025121001246202488,0.009428041114758591,-0.0048785442486405355,-0.0003895989211741835,-0.002836517058312893,0.06251174657139927,0.3211013824492693,-9.80210158109665
5.4,2.9000000953674316,153.0,24.39495658874512,0.09542128443717957,-79.7828337813293,40.458902009721214,269.5622781486511,0.014814021997153759,-0.007814262993633747,0.749751091003418,0.6615080237388611,-0.005144280748605486,-0.00484873037538013,0.00947965046723679,-0.0018928038189187648,-0.0014142422005534172,-0.002556888852268457,0.06303630576934666,0.31848804250359536,-9.801346705555916
5.6,2.5999999046325684,153.0,24.38994789123535,0.039758868515491486,-79.7828338647707,40.458902079641646,269.56496178817747,0.014795553870499134,-0.007815156131982803,0.7497531771659851,0.6615061163902283,0.0013308690840469894,-0.0004915682483169243,0.01287201813141184,-0.00194291933439672,-0.0002497742243576795,0.0008640086743980646,0.07088201750535518,0.3045117901079357,-9.804471457600592
5.7,2.5999999046325684,152.0,24.392452239990234,0.06361418962478638,-79.78283393035309,40.45890213499111,269.5682435007095,0.01478856522589922,-0.00781632587313652,0.7497549057006836,0.6615042090415955,0.00202093843244438,-0.0018635780781142094,0.015475351784195769,0.0025562497321516275,-7.487972470698878e-05,0.00551863294094801,0.06565273377578706,0.30985287442803383,-9.804598926901818
5.9,2.4000000953674316,152.0,24.398712158203125,0.07951773703098297,-79.78283392785559,40.4589021358268,269.56980049324034,0.01478856522589922,-0.00781632587313652,0.7497549057006836,0.6615042090415955,0.0009037353859512856,-0.0025280165243306858,0.015678174342521382,-0.005627784412354231,0.0010713654337450864,-0.00813765823841095,0.06332173668779432,0.32534035798162225,-9.801609245538712
6.01,2.4000000953674316,158.0,24.398712158203125,0.09542128443717957,-79.78283400443631,40.45890218390842,269.5725411148071,0.01477191410958767,-0.007837590761482716,0.7497643828392029,0.6614935994148254,0.000794411947131068,-0.0008339719343888058,0.016970339815798017,-0.008765512146055698,-0.0006925167399458588,-0.0018926116172224285,0.06465146661736071,0.3181884823367,-9.802640109658242
6.2,2.299999952316284,165.0,24.39620780944824,0.07951773703098297,-79.782834002676,40.458902184282415,269.57423591327665,0.014778743498027325,-0.007843591272830963,0.7497661113739014,0.6614913940429688,0.0010882512594045759,-0.0021580052772675927,0.016919274790937456,0.006380578503012657,2.656549622770399e-05,0.0002097673568641767,0.06404441599734127,0.3190630796179176,-9.803958072066306
6.31,2.200000047683716,169.0,24.38869667053223,0.10337305814027786,-79.78283406650438,40.45890223606542,269.57467412662504,0.014775246381759644,-0.00785005185753107,0.7497761249542236,0.6614800095558167,-7.752824810229864e-05,-0.003092579715226141,0.014877266350097822,0.0011258638696745038,0.00040603766683489084,-0.002882529515773058,0.062226882101967924,0.3200345579534769,-9.801788755059242
6.5,2.0,169.0,24.39996337890625,0.07951773703098297,-79.78283406224658,40.45890223610346,269.5761625738144,0.014793025329709053,-0.007845807820558548,0.7497777938842773,0.6614778637886047,1.701990424064564e-05,-0.0040083288544046185,0.01492931006288568,0.0040000397711992255,-0.00017322573694400492,0.002795461332425475,0.06694576785899699,0.30578363260254265,-9.80453343808651
6.6,1.8999999761581416,175.0,24.3974609375,0.07156596332788467,-79.78283413736985,40.4589022489792,269.57790362548826,0.014832094311714172,-0.00784902274608612,0.7497841715812683,0.6614696383476257,-0.0077373631893549065,-0.0031334181434613585,0.016956863435715355,0.008876030333340168,-0.0004767356149386615,0.0005450882599689066,0.06819170444738121,0.3079984299838543,-9.803756343126297
6.8,1.7999999523162842,166.0,24.40121650695801,0.09542128443717957,-79.7828342045207,40.458902331271936,269.57710492324827,0.01481862645596266,-0.007862200029194355,0.7497949600219727,0.6614575982093811,-0.0017343790250275355,-0.00619738230635849,0.017914130907421395,-0.008364075794816017,-0.004190196748822928,-0.0032248429488390684,0.06267206077929588,0.3154175599291921,-9.802273489236832
6.9,1.7000000476837158,166.0,24.398712158203125,0.10337305814027786,-79.78283418621686,40.45890232864371,269.5806616516113,0.0148505549877882,-0.007869741879403591,0.7498084306716919,0.6614415049552917,-0.002611440350621419,-0.008446809952904723,0.018028450890173842,-0.0029892202001065016,-0.0038697335403412576,0.003332801861688495,0.06377568162046374,0.3107927047088743,-9.803366333842279
7.1,1.600000023841858,161.0,24.39620780944824,0.09542128443717957,-79.7828342755014,40.45890238838485,269.58073401165007,0.0148477740585804,-0.007880703546106815,0.7498042583465576,0.661446213722229,-0.0013336190394729367,-0.006688744067679053,0.02100330967348823,0.00213062041439116,0.0019263506401330235,-0.0006648346898145974,0.06437577496748417,0.3193880751729012,-9.802530182003975
7.21,1.600000023841858,157.0,24.3974609375,0.10337305814027786,-79.78283434889035,40.45890248005339,269.58208381843565,0.014834520407021047,-0.00787449534982443,0.7498061656951904,0.6614444255828857,0.005221534024266093,-0.009626497465283787,0.02361801447306549,-0.002367342356592417,-0.0009821391431614757,-0.0033664677757769823,0.0631850671581924,0.3227445596829057,-9.802284598946573
7.4,1.600000023841858,163.0,24.40121650695801,0.05566241592168808,-79.78283433753434,40.458902485078006,269.58445119571684,0.014834520407021047,-0.00787449534982443,0.7498061656951904,0.6614444255828857,0.0054016288273244645,-0.010569092937749209,0.023560540612793567,0.006235375069081782,-0.00037725776201114064,0.0009470248478464783,0.06740160400047898,0.311737980209291,-9.80350257396698
7.51,1.600000023841858,159.0,24.40246772766113,0.04771064221858978,-79.78283443316869,40.45890257091046,269.58746051502226,0.0148199163377285,-0.007876206189393997,0.7498087882995605,0.6614417433738708,0.007391635709998494,-0.008634620887038709,0.02891274462235607,0.007542477454990147,0.002363104606047273,0.0024392872583121053,0.06433860860299319,0.3108827518299222,-9.804776682257652
7.7,1.7999999523162842,162.0,24.40121650695801,0.015903547406196594,-79.78283442378523,40.45890257710772,269.59037792396543,0.0148199163377285,-0.007876206189393997,0.7498087882995605,0.6614417433738708,0.005919026945327216,-0.009511957829884031,0.02916644345028975,-0.006858470384031534,-0.0018334273481741548,-0.0024153187405318017,0.059243363155983386,0.31486393824219705,-9.800523417592052
7.8,1.7999999523162842,160.0,24.392452239990234,0.03180709481239319,-79.78283453208057,40.458902648185074,269.5929683418274,0.014824528247117996,-0.00787495169788599,0.7498235702514648,0.6614248156547546,0.004374019015208366,-0.0063400973437573475,0.032557052387195036,-0.002368260407820344,-0.0020031051244586697,-0.005330349784344435,0.07096521242056042,0.3208602213487029,-9.802091640830039
8.0,2.0,158.0,24.40622520446777,0.015903547406196594,-79.78283452385588,40.45890265200687,269.59624957752226,0.014846507459878922,-0.007879272103309631,0.7498081922531128,0.6614418029785156,0.0042484559161952064,-0.008431820487003064,0.03278697398013312,-0.007146341260522605,-0.003745432244613767,9.527101065032184e-05,0.060146566112525765,0.31272031243890525,-9.801085919737815
8.1,2.5,166.0,24.40372085571289,0.007951773703098297,-79.78283461464005,40.458902730872936,269.59463655662535,0.01483321934938431,-0.007898318581283092,0.7498196363449097,0.6614288687705994,0.00694429952868448,-0.009572239475203944,0.034323166238459116,0.005816305056214333,0.0021001193672418594,-0.0006096892757341268,0.060942358458414676,0.31851658422499896,-9.805070212483406
8.2,2.5999999046325684,173.0,24.40372085571289,0.007951773703098297,-79.78283474116472,40.458902802250144,269.59577941608427,0.014822312630712988,-0.007942439056932926,0.7498037815093994,0.6614465117454529,0.004778201522097914,-0.0033370887891365714,0.035925989057546945,0.004781852941960096,0.0008507075253874062,0.004247304052114487,0.06385497077833861,0.3083145450800657,-9.804358606338502
8.4,3.0,180.0,24.40246772766113,0.03180709481239319,-79.78283473683453,40.458902805394814,269.59938478183744,0.014817953109741213,-0.00793988723307848,0.7497965097427368,0.661454975605011,0.003698948036157954,-0.0035457139639320946,0.036061850241246515,-0.001708035822957754,-0.0034245578572154045,-0.006704520434141159,0.06966726758982987,0.32473626751452683,-9.80252608895302
8.5,3.2000000476837163,180.0,24.40121650695801,0.007951773703098297,-79.78283484907847,40.45890290959904,269.59800326538084,0.014856580644845963,-0.007899630814790726,0.7497965693473816,0.661454439163208,0.00909993074092655,-0.005012264728815273,0.033312514075524886,0.004045198671519756,0.0017985271988436578,-0.0009187527466565373,0.06131951300427318,0.3132851169258356,-9.80289972603321
8.7,3.5999999046325684,176.0,24.404972076416016,0.007951773703098297,-79.78283484409194,40.45890291754335,269.60137068939207,0.014862979762256144,-0.00789710134267807,0.7498085498809814,0.6614407300949097,0.008655886299498625,-0.005360604031000778,0.03353385638602989,-0.004870511125773192,-0.00423262408003211,0.00394836300984025,0.0660432501230389,0.3092841596156359,-9.80379318058491
8.8,3.5999999046325684,180.0,24.40121650695801,0.015903547406196594,-79.78283494211978,40.458902986929814,269.59644233894346,0.014852151274681091,-0.007924948818981647,0.7498002052307129,0.6614501476287842,0.005362062049720682,-0.008329968912536581,0.028157576010748395,-0.005559297278523445,-0.0020502752158790827,-0.0009952319087460637,0.05562961942981929,0.3183131742104888,-9.80288276910782
9.0,4.0,170.0,24.40246772766113,-0.007951773703098297,-79.78283493243133,40.458902991561715,269.5992565126419,0.014875075779855253,-0.007919572293758392,0.7498127818107605,0.6614354848861694,0.00544678078229016,-0.00885839881654558,0.027993747929888773,0.004936160985380411,0.002950248075649143,0.0006410692003555598,0.06716455879155547,0.3106624945253134,-9.804600681066514
9.11,4.099999904632568,173.0,24.40246772766113,0.015903547406196594,-79.78283508918015,40.45890305182071,269.5945297451019,0.014856417663395403,-0.007965082302689552,0.7498149871826172,0.6614327430725098,0.003564304831773092,-0.0019177196133878945,0.02524541268659586,0.0014891664031893015,-0.0016103755915537474,0.00647148583084345,0.06724795013666153,0.30737994074821473,-9.803361071348188
9.3,4.300000190734863,176.0,24.40372085571289,0.007951773703098297,-79.78283520800859,40.45890309612773,269.58664369297026,0.014866959303617476,-0.007940985262393951,0.7498267889022827,0.6614194512367249,-0.00020685009235157424,-0.0012285068780412652,0.022976713340988927,0.007619029842317104,0.002707048319280148,-0.00027779099764302373,0.06452047528233379,0.3206304623186588,-9.803125428557395
9.4,4.199999809265137,176.0,24.40372085571289,0.11132483184337616,-79.78283520225892,40.45890309230071,269.5912477941513,0.014878035522997381,-0.007936048321425915,0.7498298287391663,0.6614158749580383,-0.002460209662936359,-0.003144178064139161,0.023114343268422214,0.006723229307681322,0.0026306891813874245,0.00455903634428978,0.05802608249243349,0.3183884936571121,-9.802203322649005
9.61,4.099999904632568,176.0,24.39996337890625,0.0,-79.78283531060484,40.45890315751018,269.58617484283445,0.014875584281980991,-0.007925883866846561,0.7498205304145813,0.6614266037940979,-0.0020145227671354475,-0.004590704212665442,0.02818582905548105,-0.004669216461479664,-0.0004781902825925499,-0.005553324706852436,0.0699999147746712,0.31809810630977153,-9.80103504896164
9.72,3.9000000953674316,176.0,24.40246772766113,0.007951773703098297,-79.78283546813509,40.45890324938349,269.58440065097807,0.014858837239444256,-0.007879205979406834,0.7498307228088379,0.6614160537719727,0.007369585231276148,-0.0010694528977787511,0.03486894896577385,0.000587277696467936,-0.0011574134696274994,-0.0019385814666748047,0.06375977536663413,0.3190593154728413,-9.801954231262208
9.9,3.5999999046325684,173.0,24.40246772766113,0.02385532110929489,-79.7828354668421,40.458903254781774,269.5879116029739,0.014866606332361696,-0.007903492078185081,0.7498325705528259,0.6614134311676025,0.006814261706930641,-0.0017441225920847225,0.035008720846013516,-0.0016036676242947578,-0.001511033158749342,0.003790395800024271,0.06946325458120554,0.3097487208992243,-9.804087880253793
10.0,3.4000000953674316,169.0,24.40246772766113,0.007951773703098297,-79.78283559810242,40.458903328753316,269.5825850934982,0.014817400835454462,-0.007896440103650093,0.7498419880867004,0.6614038944244385,0.007876672853853638,-0.0029454764461656967,0.0328522369864338,-0.002586009446531534,0.00028912094421684737,0.004152071196585894,0.0598024163581431,0.3122555318847299,-9.803445855975152
10.2,3.299999952316284,174.0,24.40622520446777,0.007951773703098297,-79.78283559473499,40.45890333475185,269.58588838291166,0.014814251102507113,-0.007876042276620865,0.7498475313186646,0.6613979935646057,0.007273514029895697,-0.0035612533534081533,0.03295236168632395,0.0006909174262546003,0.0030430196784436703,-0.0037677364889532328,0.0660299751162529,0.32479689583182336,-9.802740681767462
10.31,3.299999952316284,173.0,24.40121650695801,0.03180709481239319,-79.7828357333486,40.45890339032443,269.5796943874359,0.014827015809714794,-0.007867690175771713,0.7498568892478943,0.6613872051239014,0.004526877124246214,-0.003115296834330069,0.031220470760637963,-0.005117641761898994,-0.002038621110841632,-0.003102347254753113,0.06629649851471188,0.32267866887152197,-9.801716249585153
10.51,3.0999999046325684,178.0,24.39370346069336,0.007951773703098297,-79.78283589513526,40.45890344337664,269.5706338853836,0.014815612696111204,-0.007877239026129246,0.7498570680618286,0.6613871455192566,0.002809921902361125,0.0008295454925004176,0.0259729576929482,-0.004684256855398417,0.0002732163411565125,-0.0023993579670786858,0.06811653118114919,0.30765443097800016,-9.804874915480614
10.61,3.0,175.0,24.40121650695801,0.0,-79.78283589590052,40.4589034453306,269.57324444961546,0.014815612696111204,-0.007877239026129246,0.7498570680618286,0.6613871455192566,0.0028473210929932315,3.2808726771030125e-05,0.025873000079257642,0.006369408685714006,0.0032224822789430627,0.002658785553649068,0.06688762917649001,0.30319901710376146,-9.802659990191463
10.8,2.799999952316284,172.0,24.40372085571289,0.015903547406196594,-79.78283606817463,40.45890347871801,269.5610679359436,0.014807595871388912,-0.007890096865594387,0.7498565912246704,0.6613876223564148,-0.0016265318451418411,0.004980549077469925,0.02274305331145253,-0.00023064627021085468,0.003547603962942958,-0.0055266222916543475,0.06291665255092085,0.3236981674656272,-9.803061693906782
10.9,2.799999952316284,171.0,24.4074764251709,0.05566241592168808,-79.78283607670849,40.458903473149576,269.5656024188995,0.014807595871388912,-0.007890096865594387,0.7498565912246704,0.6613876223564148,-0.002349248323825349,0.003489692810025985,0.02259535070915551,-0.0004077010962646455,-0.004990384913980961,-0.004465811885893345,0.06540703651495278,0.3231924929469824,-9.799974364042283
11.11,2.9000000953674316,169.0,24.39996337890625,0.02385532110929489,-79.78283623158245,40.45890353253174,269.55380248737333,0.014793121255934237,-0.00788885448127985,0.7498574256896973,0.661387026309967,0.001359420315894209,0.004476682278125847,0.021368707059097183,0.0023363984655588865,-0.0007599450182169676,0.003057238180190325,0.06685899152420463,0.3124852543696761,-9.80555436193943
11.22,2.799999952316284,172.0,24.40372085571289,0.007951773703098297,-79.78283639592141,40.458903577106746,269.543875333786,0.014783580787479876,-0.007894271053373814,0.7498586177825928,0.6613858342170715,0.0008887229050680405,0.005905413661843601,0.019980731734053903,-0.006189344916492701,-0.000905192515347153,-0.0016104262322187426,0.06512293949257582,0.3163340378925205,-9.801716249585153
11.4,2.9000000953674316,172.0,24.40372085571289,0.02385532110929489,-79.78283640201329,40.45890357673719,269.545878288269,0.014783580787479876,-0.007894271053373814,0.7498586177825928,0.6613858342170715,0.0012405345054670367,0.004453786847867458,0.01992561447984426,0.00594299053773284,0.0022185144480317827,0.0020399214699864388,0.06396328588016331,0.3137547214329243,-9.804091388583183
11.52,3.0,174.0,24.39996337890625,-0.015903547406196594,-79.78283657341674,40.45890360269317,269.53517436695097,0.014776476658880709,-0.007902964018285275,0.7498593926429749,0.6613849997520447,-0.002607294226074281,0.006915892884790666,0.01905877237534505,0.006566674914211035,0.0013138593640178446,-8.920237451093271e-05,0.06728988563641906,0.3104063864797354,-9.80449777007103
11.72,3.0,165.0,24.3974609375,-0.007951773703098297,-79.78283675303571,40.458903643468396,269.52204453659056,0.014763555489480497,-0.007900329306721687,0.749862790107727,0.6613814830780029,-0.0011697477099866175,0.007973851156838565,0.014589540729746532,0.005503780208528042,0.0015044950414448974,0.0037344563752412796,0.067311136610806,0.3230353490263224,-9.80337568938732
11.81,3.0,168.0,24.3974609375,0.015903547406196594,-79.78283676120064,40.45890364084372,269.52351176452635,0.014756572432816029,-0.007905135862529278,0.7498667240142822,0.6613771319389343,-0.002303611246494668,0.006950357080812258,0.014772060425949913,-0.004694078117609024,-0.001266566920094192,-0.008813351392745972,0.06463196980766953,0.31846348419785503,-9.802096318602562
12.0,2.799999952316284,169.0,24.392452239990234,0.015903547406196594,-79.78283676834452,40.45890363789191,269.5249814958572,0.014757548458874226,-0.007878847420215607,0.7498571276664734,0.6613883376121521,-0.0017321527320659394,0.005543891659454967,0.01464513303873954,0.007251487113535405,0.002025662921369076,0.0013240927364677186,0.06373214727267623,0.31326110679656266,-9.803902523517607
12.11,2.799999952316284,168.0,24.40246772766113,0.007951773703098297,-79.78283690189082,40.45890367957709,269.51192855548857,0.014752528630197046,-0.007870815694332123,0.7498506903648376,0.661395788192749,-0.002080607767180066,0.0013474890667547128,0.012811887373096423,0.005114997737109661,0.004061028826981783,-0.0012512886896729474,0.06733881038613618,0.315195658095181,-9.803975613713263
12.3,2.5999999046325684,166.0,24.40622520446777,0.015903547406196594,-79.78283705510566,40.45890370954528,269.495796916008,0.014744695276021956,-0.007872727699577808,0.7498545646667479,0.66139155626297,-0.004678642023682613,0.0018251188082871398,0.007699541094827096,-0.005220135673880577,-0.001602717093192041,0.0071060024201869965,0.06906299439724535,0.3086457533016801,-9.803400247693062
12.4,2.5999999046325684,165.0,24.39119911193848,0.10337305814027786,-79.7828370548597,40.458903700302,269.4973090858459,0.014762201346457003,-0.007868912070989609,0.7498536705970764,0.6613921523094177,-0.004697696988677547,-0.000563811893155421,0.007718983842421512,0.0031644194386899467,0.001723250257782638,0.0018123185727745288,0.06606067299842835,0.3109670613706112,-9.804494261741636
12.6,2.4000000953674316,162.0,24.398712158203125,-0.007951773703098297,-79.78283727907912,40.458903786493075,269.4824703903198,0.014726548455655575,-0.007871393114328384,0.7498618960380554,0.6613836884498596,0.004825468240642508,0.009856601536953256,0.007041930537971371,-0.0076734842732548705,0.0014274462591856716,-0.005474086850881577,0.06235466203652323,0.32143620863556865,-9.803093853592873
12.7,2.299999952316284,161.0,24.39996337890625,0.007951773703098297,-79.78283742928909,40.458903820357,269.4680647821426,0.0147274537011981,-0.007868499495089054,0.7498669028282166,0.661378026008606,-0.000408737717125811,0.0036147757461456632,0.006883059979211532,-0.009088562801480292,-0.002105359220877289,0.0002781810471788049,0.06544858829118312,0.3160207367688417,-9.803482108712195
12.9,2.299999952316284,155.0,24.39370346069336,-0.007951773703098297,-79.78283743258065,40.45890381936224,269.4687448711395,0.0147274537011981,-0.007868499495089054,0.7498669028282166,0.661378026008606,-0.00039399376224069817,0.002464987021579013,0.00678614454484531,0.005418223794549704,0.0027575145941227674,-0.000507264630869031,0.0653450331883505,0.3186852763965726,-9.80339556992054
13.0,2.299999952316284,151.0,24.39495658874512,0.015903547406196594,-79.78283764257837,40.458903866787466,269.453040596962,0.014711276628077032,-0.007878659293055534,0.7498676776885986,0.6613773107528687,9.262091267695119e-05,0.010126036550464216,0.003594058264304404,-0.004114164039492607,1.9058217226586294e-09,-0.006978992372751236,0.06678822651039809,0.3213228457421065,-9.801785246729851
13.2,2.299999952316284,146.0,24.40246772766113,-0.007951773703098297,-79.78283765389503,40.458903865778886,269.45340692710874,0.014711276628077032,-0.007878659293055534,0.7498676776885986,0.6613773107528687,0.0004437180607662657,0.008954741964133251,0.0035626429801322757,0.007254731375724076,0.0015304171247407794,0.004785494878888129,0.06558777486439794,0.3088174056261778,-9.804349835515023
13.3,2.200000047683716,143.0,24.39996337890625,0.0,-79.78283779085375,40.458903912460855,269.4386665792465,0.014710361137986185,-0.007874582894146442,0.7498680949211121,0.6613768935203552,0.0001274262326523783,0.002689067311036273,0.004382545685122111,0.005298011936247349,0.002883527660742402,0.002921778708696365,0.06779680268839001,0.3097729502990842,-9.804042271971703
13.5,2.200000047683716,141.0,24.39495658874512,-0.015903547406196594,-79.78283779323317,40.458903911760906,269.43911659431456,0.014710361137986185,-0.007874582894146442,0.7498680949211121,0.6613768935203552,-0.0009753991069387268,0.0019029246837084528,0.004625120948765772,-0.00931360200047493,-0.0009928906802088024,-0.00043938783346675336,0.06633169601205736,0.3158407156169415,-9.802912005186082
13.61,2.0999999046325684,136.0,24.398712158203125,-0.02385532110929489,-79.78283793019962,40.45890396232209,269.42604589176176,0.014705647714436052,-0.007871835492551327,0.749869167804718,0.6613759398460388,-0.0005908758141736773,-0.00234857347874959,0.008385646159477044,-0.003975623287260532,-0.00014601588190998882,0.0004524047835730017,0.06429909878410399,0.31659983038902284,-9.802533690333368
13.8,2.200000047683716,128.0,24.36741065979004,0.6202383637428284,-79.78283810162975,40.45890403216186,269.4112142295837,0.014693270437419416,-0.007872091606259346,0.7498701214790344,0.6613751053810121,0.004563053929443329,-0.0011580729962002946,0.010659325934389645,0.006896703969687224,0.0022194944322109227,0.0021110859233886003,0.06723027601372451,0.3163823870569468,-9.802930716276167
13.9,2.200000047683716,123.0,24.37867927551269,0.3180709481239319,-79.78283809832905,40.45890403894474,269.41337918949125,0.014698155224323273,-0.007850373163819313,0.7498937249183655,0.6613485217094421,0.004781774174319809,-0.0028628367152344885,0.010688923614925756,0.011172731406986712,0.00500971358269453,-0.002127839718014002,0.06434433247894049,0.31644623134285216,-9.804621731042863
14.1,2.200000047683716,115.0,24.381183624267567,0.2862638533115387,-79.78283825790494,40.458904101589646,269.3966352910995,0.014700653962790966,-0.007835161872208118,0.749876856803894,0.6613677740097046,0.005189002614271196,-0.001409533643283823,0.009222186579830557,-0.00819545891135931,-0.00043222293606959283,0.001706455834209919,0.0637707206234336,0.31236041631549605,-9.801292326450348
14.2,2.200000047683716,109.0,24.384939193725586,0.3180709481239319,-79.78283844163414,40.4589041427268,269.3804957838058,0.01468734722584486,-0.007840795442461967,0.7499002814292908,0.6613414287567139,0.0012228923367095994,0.0030661086558657893,0.008372521837936983,-0.00833969097584486,0.0002404460683465004,0.01235427986830473,0.062079335837624976,0.3241984333097935,-9.800141594409943
14.4,2.0999999046325684,104.0,24.37617492675781,0.3101191818714142,-79.7828384446425,40.458904142530066,269.3813166589737,0.014683331362903118,-0.007834866642951965,0.7499291896820068,0.6613087058067322,-0.0002891745387523494,0.002200690279412789,0.008045333362772779,0.006347508169710636,-0.002022627741098404,-0.0061442325823009005,0.06910347722936422,0.2959698668494821,-9.80463810324669
14.51,2.200000047683716,104.0,24.37742805480957,0.3419262766838074,-79.78283844651527,40.45890414238328,269.38212573242185,0.014668233692646028,-0.007829973474144936,0.7498781681060791,0.6613670587539673,0.0005931217892307287,0.0011771140339108931,0.008038004611883752,-0.008109325543045998,-0.004430171567946672,0.011087392456829548,0.058256645514629786,0.3298201657086611,-9.802938902378083
14.7,2.200000047683716,107.0,24.37742805480957,0.37373337149620056,-79.78283864335377,40.458904200092334,269.3673207731247,0.014654175378382206,-0.007799900602549314,0.7498815655708313,0.6613637804985046,0.0011301086340042676,0.0043889491237504965,0.01077494534506762,-0.003830782370641828,-0.0001641043636482209,0.0015519980806857347,0.062378050899133085,0.3152818314358592,-9.803044152259828
14.8,2.200000047683716,105.0,24.37617492675781,0.44529932737350464,-79.78283883784306,40.45890425540446,269.3495060176849,0.014661348424851894,-0.007801941130310297,0.7498994469642639,0.6613433957099915,0.00264699443995552,0.005969277199292803,0.008597676113983255,0.005881159566342832,0.008548704907298088,-0.0023875576443970203,0.06867477582301945,0.3109313568100333,-9.800914596319199
15.0,2.299999952316284,109.0,24.139537811279297,3.538539409637451,-79.78283884477473,40.458904255780745,269.3503755302429,0.014657572843134403,-0.0077972053550183764,0.7499410510063171,0.6612963080406189,0.001796658834112484,0.005013766211118075,0.008975049917555973,-0.005460165906697512,0.0024928839411586523,0.005153725855052471,0.07778495251201094,0.3401059662178159,-9.812701413631439
15.1,2.4000000953674316,110.0,24.358646392822266,0.5804795026779175,-79.78283906803914,40.45890434083871,269.3313635559082,0.014421330764889715,-0.007833453826606274,0.749918520450592,0.6613266468048096,0.007739552244715016,0.011010859807269905,0.0036527782776999353,0.0202269796282053,-0.0500602126121521,-0.0005332053988240659,0.07521006714552643,0.19414420595392587,-9.797817910909654
15.3,2.4000000953674316,113.0,24.36741065979004,11.156338691711426,-79.78283922661014,40.458904359152974,269.30924534511564,0.01446693390607834,-0.007792442571371794,0.7499082088470459,0.6613378524780273,0.0015015501848629426,0.007740175199638095,0.0008926127633484026,0.026082279160618786,-0.0040648640133440495,0.0012447490589693186,0.053755344701930885,0.25600087707862257,-9.796353183388712
15.41,2.299999952316284,116.0,24.26975059509277,2.3298697471618652,-79.7828392432682,40.45890435247611,269.30955326271055,0.014422155916690825,-0.007786603644490242,0.7498571872711182,0.6613967418670654,-0.002330131751125012,0.006380801016113239,0.0014766726145814466,0.02957071363925934,0.04661905020475388,0.00877565611153841,0.04311886200215668,0.2529978750273585,-9.787834959626199
15.6,2.299999952316284,122.0,24.372419357299805,0.2465049922466278,-79.78283945480206,40.45890439428555,269.2859634132385,0.014442400075495243,-0.007802605163305999,0.7499176263809204,0.6613275408744812,-0.005224349598094138,0.013570039909801795,-0.005202504637360262,-0.00770507287234068,-0.036022666841745384,-0.00585075793787837,0.08461064488627018,0.3175425477325917,-9.806657146811483
15.71,2.299999952316284,123.0,24.372419357299805,0.2544567584991455,-79.78283962653083,40.458904490968315,269.2609530658722,0.014520907774567602,-0.007763780653476716,0.7499407529830933,0.6613000631332397,0.005339141987320857,0.005921985297700914,-0.00927062375599184,-0.0015331131871789696,0.040170054882764816,-0.00011130402708658947,0.07206324642989785,0.3021612825058401,-9.80965442955494
15.9,2.4000000953674316,126.0,24.20464515686035,3.6657676696777344,-79.78283963550602,40.458904495667454,269.26005994987486,0.014595056883990763,-0.007714222185313702,0.7499377131462097,0.6613024473190308,0.006160354250640365,0.006375845947790626,-0.010039138142063829,-0.005389461293816567,-0.0004931025905534625,0.013835383579134941,0.10977871472015978,0.32308570817112925,-9.796764242649079
16.01,2.5,126.0,24.149553298950195,4.365523815155028,-79.78283979583382,40.45890455353648,269.238322016716,0.014460735023021696,-0.007793217897415161,0.7499390840530396,0.661302924156189,0.007077079492243565,0.004148182845377833,-0.008036269959838834,-0.0007360602612607182,0.0043214932084083574,0.006656704470515251,0.0611972833564505,0.3137345485389233,-9.80131220698357
16.2,2.4000000953674316,130.0,24.02560043334961,6.9816575050354,-79.7828398019433,40.458904558162615,269.2375138969421,0.01435886137187481,-0.007752038538455962,0.7499433159828186,0.661300778388977,0.005413876115772018,0.004686888712359463,-0.008011535467708575,0.0016117427730932832,0.04395819455385208,0.007313676178455353,0.06868684027343988,0.2774594641663134,-9.8088878595829
16.3,2.5,132.0,23.98678779602051,7.848401069641112,-79.78284002543049,40.45890459351447,269.2119926185608,0.013794749043881891,-0.00776323303580284,0.7499749064445496,0.6612769365310669,0.004729499509311775,0.01337449876340173,-0.015570322369093503,0.011799442581832407,0.00655323127284646,0.0421229749917984,0.055170905361883335,0.34069185722619305,-9.774960560202599
16.5,2.799999952316284,135.0,23.78520774841309,10.71899127960205,-79.78284004253057,40.45890459484861,269.2106118173599,0.013547603040933607,-0.007865550927817822,0.7499052286148071,0.6613597869873047,0.0016389396963964616,0.012352541858535914,-0.01398170326505137,0.027682995423674583,0.08735944330692291,-0.13239601254463196,0.12619879262521866,0.2728876907005906,-9.840815995931626
16.6,3.0999999046325684,137.0,23.71759605407715,11.752721786499025,-79.78284024654809,40.45890461711241,269.1816982002258,0.012782156467437744,-0.007240224163979292,0.7498647570610046,0.6614280343055725,0.0007558952116970418,0.02152944586638297,-0.017708212103598443,0.021092502400279045,-0.034884434193372726,-0.04331319406628609,0.1571858927048743,0.1187316606938839,-9.877732976675034
16.8,3.299999952316284,141.0,23.539804458618164,15.5457181930542,-79.78284038605278,40.45890472309202,269.1515184612274,0.012144478969275951,-0.006642819382250309,0.7500531673431396,0.6612327098846436,0.018376962234718842,0.013343095550008972,-0.02791629198768095,0.11899008601903915,0.018850617110729214,-0.1351746916770935,0.032263035625219344,0.5069773513823748,-9.78043940126896
16.91,3.5,147.0,23.43588447570801,17.064506530761722,-79.78284042569061,40.458904740343755,269.146476146698,0.010942656546831131,-0.005036287475377321,0.7500082850456238,0.6613187193870544,0.004975367274553453,0.012934833124028737,-0.024196156438585664,-0.009648512117564678,0.01473910640925169,0.07210268080234528,0.1250012463144958,0.2129541688039899,-9.844303275346755
17.1,3.700000047683716,153.0,23.23806190490723,20.746177673339844,-79.78284060644519,40.45890478888885,269.11984789085386,0.01109166909009218,-0.004099059849977493,0.7501332759857178,0.6611810326576233,-0.000746634718436037,0.00924882873413376,-0.025811109096989908,-0.05389174818992615,0.0506528802216053,-0.06578619033098221,0.06304803674574942,0.4349584752693773,-9.816106832027435
17.21,3.799999952316284,156.0,23.125375747680664,22.614845275878906,-79.78284077283747,40.45890479781611,269.09075987052915,0.011814115568995476,-0.0009170103585347533,0.7500047087669373,0.6613264679908752,-0.008633347237010694,-0.0002547347164012564,-0.020697851792103858,-0.10523701459169388,0.050447873771190636,-0.04686610400676727,-0.03830116058466957,0.29676538053900003,-9.773516882658006
17.4,4.0,164.0,22.87621879577637,26.73386383056641,-79.78284078226379,40.4589047983706,269.0881705255508,0.013576699420809746,-0.001594091416336596,0.7499482035636902,0.6613553166389465,0.001436208508933563,0.013038905016592087,-0.02524866073705067,-0.07252435386180878,-0.02590992860496044,0.01510292198508978,0.15198746217414738,0.33582792397588496,-9.805476009249688
17.5,4.099999904632568,168.0,22.773550033569336,28.42759132385254,-79.7828409385931,40.458904851598454,269.07024776649473,0.017156761139631268,-0.004556088242679834,0.7476070523262024,0.663904070854187,0.025172175875873986,0.015282137626535797,0.09789734484619914,0.10944237560033797,0.030278453603386882,0.14729055762290955,0.1689606866799295,0.320072126314044,-10.207015417814253
17.7,4.199999809265137,169.0,23.046497344970703,22.78183174133301,-79.78284096048434,40.45890485592158,269.0859174699783,0.020598826929926872,-0.00350880715996027,0.7453623414039612,0.6663320660591125,0.01667202796962168,0.03702872839965017,0.2109106521275352,0.004050917457789183,-0.05603807419538498,0.10645575076341628,0.3451296380907297,0.5348354967311025,-10.742518630027769
17.81,4.199999809265137,169.0,22.9788875579834,24.23700714111328,-79.78284129179183,40.458905052832996,269.0855219335556,0.0053965048864483825,-0.004129416774958372,0.7421486377716064,0.6702009439468384,0.05211707619138484,0.07534472085180208,0.2254661396956301,0.18006303906440735,-0.18433278799057007,0.05591737106442452,0.3186762863025069,0.16978662416338922,-10.091845149993896
18.0,4.199999809265137,170.0,22.92379570007324,24.75387191772461,-79.78284138680428,40.45890508603535,269.10916042041777,0.001369575271382928,-0.0011804898967966435,0.7435141801834106,0.6687178015708923,0.0544240530276482,0.08349849226948983,0.24169869095547725,0.05690018460154533,0.16504769027233124,-0.08241015672683716,0.17187143063172694,0.29021847244352106,-9.928295019865038
18.11,4.099999904632568,172.0,22.94257736206055,24.141586303710927,-79.78284163985224,40.458905123605135,269.0996831626892,0.005907873623073101,-0.001821704790927469,0.7475256323814392,0.6642042994499207,0.09862703462686848,0.12498006102845838,0.20793220910099944,-0.07571890950202942,0.12801142036914825,0.012129103764891623,0.3429508924484253,0.04913610829040408,-9.999150409698489
18.3,3.9000000953674316,178.0,22.847421646118164,24.730016708374023,-79.78284209717631,40.4589053768123,269.1315431566238,0.015352953225374222,-0.004974739626049995,0.7500128149986267,0.6612265110015869,0.11110112825487252,0.1828705958012157,0.17315689800831602,-0.18914133310318,-0.16519449651241302,-0.030156560242176056,0.35701421353965995,0.5778117643296719,-9.784838846325874
18.4,3.9000000953674316,180.0,22.893747329711914,24.276765823364247,-79.7828423331509,40.45890546349962,269.1497102947235,0.018835611641407013,-0.00722156185656786,0.7500182986259459,0.6611093878746033,0.14390538555094726,0.19659695001319785,0.17459689892799884,0.13486537337303162,-0.04045894742012024,0.12492895126342772,0.318508727028966,0.08224560147151351,-9.8952734541893
18.6,3.9000000953674316,181.0,22.856185913085927,25.15146064758301,-79.78284301304582,40.45890561427873,269.1319143743515,0.02182622253894806,-0.004164029378443956,0.7496631741523743,0.6614465713500977,0.1764752313380704,0.21956575637151068,0.17052813922016244,0.17798839509487152,0.21068596839904785,-0.04191670939326286,0.3735532822832465,0.4771005644649268,-9.987273545265198
18.71,4.0,181.0,22.92254447937012,23.91098403930664,-79.78284400318056,40.458906110610926,269.13662504863737,0.029753172770142555,0.002557866740971804,0.7496282458305359,0.661185085773468,0.2103963524566716,0.2697836810193729,0.18064565066703986,-0.17447388172149658,0.012087647803127766,-0.07322534173727037,0.1568172074854374,0.4705031875893474,-9.851096570491787
18.9,4.099999904632568,173.0,22.996416091918945,22.75002479553223,-79.7828443372624,40.458906265346286,269.1561492652893,0.034609224647283554,0.0026913718320429325,0.7490906715393066,0.6615573763847351,0.234505740597292,0.2586181356785717,0.17565156917102864,0.1663905531167984,0.011506790295243263,0.17965444922447205,0.4432659434527159,0.19846613885834813,-9.890559428930283
19.0,4.099999904632568,171.0,22.966365814208984,22.654603958129893,-79.78284486771331,40.45890659488625,269.1879669399261,0.03874249756336212,0.005511644296348095,0.7474535703659058,0.663160502910614,0.18969843661294689,0.21976943081067046,0.14739702467959725,-0.17701025307178495,0.11171677708625792,-0.0784698873758316,0.4035888576507569,0.8330935252457857,-9.466031692028047
19.2,4.300000190734863,172.0,22.962610244750977,23.75990104675293,-79.78284513149609,40.45890674954914,269.20249402236936,0.039902843534946435,0.005629103630781175,0.7471058964729309,0.6634824872016907,0.1924169793572866,0.20666680113497565,0.10227373295087806,-0.2269256412982941,-0.008136732503771782,-0.1097625344991684,0.3436059633269906,0.6545596857368946,-9.358282710313796
19.31,4.300000190734863,174.0,22.93381309509277,22.877254486083984,-79.78284595301652,40.458907214189466,269.21408629131315,0.047358766198158264,0.003978651482611896,0.7463844418525696,0.663815975189209,0.19102639793850787,0.1551832602023848,0.05074142887026779,0.16785599291324615,0.04796962812542915,0.03035365603864193,0.7240531128644944,0.35652132980525497,-9.50121438860893
19.5,4.400000095367432,173.0,23.589887619018555,14.68692684173584,-79.78284614995059,40.45890734491999,269.2201673955917,0.05057838559150697,0.0011410940205678346,0.7467197775840759,0.6632120013237,0.14472836570417458,0.1462356167239796,0.030049477925185895,-0.23525701463222504,0.07204221934080124,0.10260268300771712,0.5282895022630691,0.6532156301289798,-9.475268538594246
19.61,4.400000095367432,173.0,22.77980995178223,25.978445053100586,-79.7828467222529,40.45890763038052,269.20003473472593,0.04931800812482834,0.0020763257052749395,0.7491710186004639,0.6605347990989685,0.1881665537478944,0.1184051213885874,-0.1966931211437152,0.2480427473783493,-0.24614544212818146,0.10704269260168076,0.5662428654357792,0.42005469001829626,-8.360699772834778
19.81,4.400000095367432,175.0,22.605775833129893,28.538917541503906,-79.78284717902466,40.45890791705735,269.17711710643766,0.03794108331203461,0.00017138394468929619,0.7501342296600342,0.6601964235305786,0.1846011249389402,0.13470322264568904,-0.2344460630539817,0.16112938523292542,-0.3273325562477112,0.05618268996477127,0.6391402857005597,0.4676441549509764,-9.06568920850754
19.9,4.300000190734863,175.0,22.488082885742188,31.00396728515625,-79.78284754221191,40.458908218049814,269.1400917739868,0.03227561339735985,-0.008573045954108238,0.7491196393966675,0.6615924239158629,0.1684572348054377,0.1325593382693771,-0.14249133331274547,-0.12976022064685822,-0.10464762896299362,-0.002039372455328703,0.38923803627491,0.7452268309146166,-10.261951178312305
20.1,4.300000190734863,190.0,22.29526710510254,32.69769287109375,-79.7828481689472,40.45890842880985,269.1524620027542,0.036709848791360855,-0.008507407270371914,0.7484157085418701,0.6621586680412292,0.193162073639712,0.1456525985705551,0.017140306895384167,-0.07412941753864287,0.11605627089738844,0.04144401475787163,0.30886736277490856,0.7834057869762182,-10.806556166410447
20.21,4.300000190734863,181.0,22.157541275024414,37.651649475097656,-79.78284867688144,40.45890873859028,269.16813409042356,0.04189318418502808,0.0005003517144359648,0.7466646432876587,0.6638800501823425,0.1902755183072807,0.15371598848622406,0.3721267111977629,0.057240042835474014,0.0751267671585083,-0.04273698851466179,0.502312990911305,0.7389138114452363,-11.607587288618088
20.4,4.199999809265137,182.0,22.0423526763916,38.74104309082031,-79.7828488563978,40.458908863950974,269.2178628416061,0.04509655758738519,0.002757414942607284,0.7457146048545837,0.6647318601608276,0.19655370083173984,0.15606611524147698,0.5944177652247911,0.04435525089502335,0.09738537669181824,0.08211971819400787,0.5564926698803901,0.4627078624069691,-11.98671724319458
20.52,4.199999809265137,181.0,22.04986572265625,38.69333267211914,-79.78284927593081,40.45890920029233,269.35321354579924,0.05024109035730362,-0.002722617704421282,0.7445363998413086,0.6656831502914429,0.19776569199812216,0.16177348764590427,1.0941061217088095,0.00739911012351513,-0.11398982256650925,-0.040446389466524124,0.5793569276109338,0.7368888475745917,-12.450202639102935
20.6,4.199999809265137,177.0,21.924659729003906,40.15645980834961,-79.78284937624741,40.45890929344797,269.477894780159,0.04570085182785988,-0.004261097405105829,0.7443075776100159,0.6662578582763672,0.21396225219244447,0.16045614491547616,1.3562409956010943,-0.030986890196800232,-0.1552009880542755,-0.002468341728672385,0.6175516346096993,0.6051026932150125,-12.365230901241302
20.8,4.300000190734863,186.0,22.0423526763916,36.75309753417969,-79.78284954864519,40.45890941852957,269.5888231964111,0.03811198845505714,-0.0045197736471891395,0.7445632219314575,0.6664478778839111,0.21621846194769845,0.1514638422130595,1.5974979398475126,-0.04134826734662056,-0.1297915279865265,-0.10104439407587053,0.64442463375628,0.8492707244306803,-12.37919288277626
21.0,4.199999809265137,190.0,21.98350715637207,38.1923713684082,-79.7828496830214,40.458909619151115,269.96364605140684,0.031518738716840744,-0.00959506258368492,0.7479149103164673,0.6629765629768372,0.2431140709250381,0.1090827043909113,2.100708337698769,-0.0890590250492096,-0.04387009888887405,0.07765775918960571,0.3121585046499968,0.7528816401958466,-12.191932293176654
21.1,4.099999904632568,191.0,21.72182846069336,30.87673759460449,-79.78284989666062,40.458909845230544,270.3585540027618,0.03676392138004303,-0.012941365130245686,0.7488348484039307,0.6616097092628479,0.3152033164612472,0.09230655876776918,2.4789003108135224,-0.035869747400283813,0.023929335176944733,-0.1054135411977768,0.2641482960060239,1.2125482926517726,-11.788341096639636
21.3,4.300000190734863,197.0,21.564069747924805,33.61214828491211,-79.78285008022327,40.45891002239638,270.53638636779783,0.03517231717705726,-0.014837619848549366,0.7478068470954895,0.6628180742263794,0.33721840810320475,0.10099237288967162,2.5244780236460542,0.052184902131557465,0.0173856932669878,0.1294834166765213,0.17160633249208332,0.8737352554500103,-11.140826282501221
21.41,4.400000095367432,198.0,21.733097076416016,29.62830924987793,-79.78285015032839,40.45891015774365,270.7960509033203,0.03101169876754284,-0.015631258487701416,0.7462718486785889,0.6647348403930664,0.3641759955567652,0.09324270908131256,2.640629532556229,0.1924067586660385,0.05802909284830093,0.1069427728652954,0.17237737923860552,0.8392314206063748,-11.038949074745181
21.51,4.599999904632568,200.0,21.683013916015625,32.07745742797852,-79.78285053505691,40.45891070008499,271.2350338668823,0.028515981510281563,-0.013090617954730988,0.7437054514884949,0.6677706837654114,0.3496176822876125,0.07839480155208174,2.6725544922138496,-0.09929871559143066,0.25655597448349,-0.016138359904289246,0.03551351422676817,0.8770735770463944,-10.055985345840456
21.71,4.599999904632568,200.0,22.26146125793457,32.80902099609375,-79.78285096329527,40.458911515993655,271.6564136714935,0.04227270931005478,-0.008047000505030155,0.7445297837257385,0.6662009358406067,0.3989207937788749,0.13494370777711567,2.585288384468357,-0.09448395669460297,-0.0074229901656508454,-0.031598430126905434,0.2336913922056556,0.602613716237247,-9.752254067659381
21.9,4.699999809265137,208.0,22.32781982421875,30.8608341217041,-79.78285103447412,40.45891171333986,271.9177221031189,0.03894912078976631,-0.009165318682789804,0.7448065876960754,0.6660796999931335,0.4094445131653814,0.14436600038864436,2.5915625829140336,0.036403048783540726,-0.13156650960445404,-0.03080623038113117,0.3498288260400295,0.6219293718785048,-9.866546083688736
22.01,4.800000190734863,201.0,22.43048858642578,29.413612365722656,-79.78285107872183,40.458911910182564,272.1802343101501,0.0332552082836628,-0.010283168405294418,0.7452405691146851,0.6658865809440613,0.4042556511014017,0.10780557598901366,2.603513492566155,0.036539208143949516,-0.14773248136043549,-0.0692344382405281,0.15826092157512905,0.5485042038559914,-9.82958349466324
22.2,4.800000190734863,203.0,22.402942657470703,30.391679763793945,-79.78285165214007,40.45891281296832,272.5794595451355,0.025540979579091072,-0.01725020632147789,0.7443780303001404,0.6670469045639038,0.4126729088557093,0.06946766321128364,2.535225520354758,-0.16773007810115814,-0.12289945036172867,-0.033175110816955566,0.2052043788135052,0.9213602422177792,-9.860740967988967
22.31,4.900000095367432,204.0,22.24894142150879,31.55263900756836,-79.78285191631356,40.45891319168325,273.16962134552,0.037159182131290436,-0.0295198317617178,0.7421671748161316,0.6685324907302856,0.4459528053944463,0.04546975994803604,2.4905147645397485,-0.20859462022781367,-0.05211097002029419,0.06313440948724748,0.1886692934855819,0.8405704329907895,-9.329889215826988
22.5,5.099999904632568,213.0,22.33157730102539,31.55263900756836,-79.78285199538402,40.45891342673851,273.41809212875364,0.040854331105947495,-0.033776890486478806,0.7411033511161804,0.6692951321601868,0.5054581009302435,0.06612706312771205,2.416125878476045,-0.00992915965616703,-0.00012918238644488156,-0.02274538204073906,0.19119127068668604,1.078505259230733,-9.117787315249442
22.6,5.099999904632568,222.0,22.216388702392575,32.78516387939453,-79.7828534045163,40.45891333340948,273.865816947937,0.04339748620986938,-0.03413548320531845,0.7416790723800659,0.6684786081314087,0.4933561856114349,0.13454729691935452,2.4416066869636404,0.11303867399692535,0.12470849603414536,-0.11252836883068083,0.17733978325501085,1.0519578038156032,-9.23049765944481
22.81,5.300000190734863,224.0,21.869569778442386,37.94586563110352,-79.78285477888065,40.45891376478571,274.5747417182922,0.051309149712324136,-0.029553944244980805,0.7481263279914856,0.6609091758728027,0.4219319984618435,0.18537864542533028,2.455082776657691,-0.007664377335458994,0.15723775327205658,-0.08302140980958939,0.030938104523811488,0.81776431851089,-9.348900268077848
22.9,5.400000095367432,226.0,21.765649795532227,38.68537902832031,-79.782854964692,40.4589138761244,274.8230293960571,0.05205586925148964,-0.019627716392278668,0.7507492899894714,0.6582403779029846,0.4159422515685616,0.19400235782286235,2.4453957945912017,0.12823478877544406,0.0970974788069725,-0.10469071567058563,0.14327378609217706,0.9168999130278828,-9.60859090268612
23.01,5.599999904632568,221.0,21.90087127685547,37.88225173950195,-79.78285626634131,40.45891445664286,275.6466616363525,0.04700888693332672,-0.02188500016927719,0.7485054135322571,0.661098301410675,0.3510175890330018,0.2109677381321169,2.643745019558367,0.07283218950033188,-0.15778663754463196,0.028217965736985207,0.1601473612524569,0.9475305522233248,-9.997529561519622
23.2,5.699999809265138,214.0,21.832008361816406,39.957664489746094,-79.78285661680083,40.458914831418994,276.3886574478149,0.03660523518919945,-0.028835417702794075,0.7450885176658629,0.6653357744216919,0.3167271459846039,0.0421748518498854,2.8050628862917817,0.11050628870725633,-0.11720488965511322,0.01845257356762886,-0.10248595772311092,0.8668339329957963,-10.040641082525251
23.3,5.9000000953674325,217.0,21.739356994628906,41.42874145507813,-79.7828566127728,40.45891486796649,276.672644493103,0.030562404543161392,-0.031540900468826294,0.7438206076622009,0.6669347882270813,0.2968381245321923,-0.0015450878448649008,2.85013836593768,0.09168518334627153,-0.08467418700456619,-0.01745988987386227,-0.12596890568733216,0.7942367307096719,-10.18918959617615
23.51,6.099999904632568,218.0,21.70304679870605,40.5620002746582,-79.7828565881353,40.45891489804593,276.96273219299314,0.023230841383337968,-0.029074685648083687,0.7428082823753357,0.6684691309928894,0.28993053246978584,-0.04849762191043388,2.9280197400592463,0.18816623091697693,-0.018417559564113617,0.024663977324962616,-0.16125641360878945,0.7378618973493576,-10.489555217027664
23.7,6.4000000953674325,236.0,21.711811065673828,41.11862182617188,-79.78285748280648,40.4589154263454,277.6514157028198,0.016007862985134125,-0.028904439881443974,0.7409954667091371,0.6706966757774353,0.26654027042785994,-0.047096182502867685,3.042383333617713,0.0004988877917639911,0.0786980390548706,-0.07175567746162415,-0.4314796377718449,0.8088091615587474,-10.11675194978714
23.81,6.599999904632568,239.0,21.632932662963867,35.9976806640625,-79.78285790679054,40.45891579106678,278.0048245162964,0.016065867617726326,-0.02621736750006676,0.7403814792633057,0.6714832782745361,0.3066673745625629,-0.04523752266543943,3.0463884417212364,0.028848733752965924,0.10770434141159058,0.12808504700660706,-0.2353270959667861,0.7925379683822393,-9.957764986753462
23.9,6.699999809265138,245.0,21.183446884155273,36.18852233886719,-79.78285797425201,40.45891604715908,278.6204146118164,0.02274140529334545,-0.01611834578216076,0.7394736409187317,0.6726081967353821,0.36012218340052393,-0.056743362009201374,3.0899592968349103,0.025321586057543755,0.2464616596698761,0.09639344364404676,-0.440601623095572,0.9547526675462724,-10.133790736198426
24.1,6.800000190734862,249.0,21.18094253540039,38.33550262451172,-79.78285859882712,40.458917092216396,279.30540644836424,0.025303838774561882,-0.017925696447491646,0.7356770038604736,0.6766223311424255,0.4148907862786309,0.027143961205582046,3.033683187802372,-0.16428901255130768,-0.30706289410591125,0.07917648553848268,0.05350022794213146,0.5235498954355717,-9.491020352840424
24.3,7.0,246.0,21.095802307128906,40.01332473754883,-79.78285848252075,40.45891712395768,279.6721256942749,0.022630980238318443,-0.03999478742480278,0.7343215346336365,0.6772446036338806,0.3839742195635167,-0.04462639818265507,2.9981800065540134,-0.12468314915895462,-0.3811625242233277,-0.04684809595346452,-0.11388289365917445,0.5223136478662491,-9.394185199141504
24.4,7.199999809265138,268.0,21.04822540283203,40.87211608886719,-79.78285843385855,40.45891730988252,279.9719618530273,0.008382056839764118,-0.05543787777423858,0.7325098514556885,0.6784436702728271,0.4705385873123746,-0.13802077652931294,2.961965019717527,0.1221211701631546,-0.36759206652641296,-0.012364793568849564,-0.3816140710562468,0.8865983258932829,-9.52549085855484
24.6,7.199999809265138,270.0,21.1020622253418,39.58393096923828,-79.78285833591573,40.458917656411735,280.6283777923584,-0.014014110900461674,-0.06473316252231598,0.7283528447151184,0.6819936633110046,0.3701258589335608,-0.2997335868120446,2.966813728655356,0.06454938650131226,0.007475238759070634,0.09325658529996872,-0.5891934061422944,0.6701697050035,-9.621568797826768
24.7,7.199999809265138,271.0,21.20097541809082,38.152610778808594,-79.78285837851485,40.458917772151935,280.92679679107664,-0.010976667515933514,-0.059949666261672974,0.7273327112197876,0.6835734844207764,0.3251953853138204,-0.2889336739842729,2.932073474007629,-0.008425900712609291,0.2499243915081024,-0.03366469219326973,-0.7067004771530628,0.5717293444275856,-9.437515990734099
24.8,7.300000190734862,279.0,21.378765106201172,35.83069229125977,-79.78285849093656,40.458918191097666,281.5930851669312,0.0074515966698527345,-0.027011672034859657,0.7277387380599976,0.6852819323539734,0.30992064721138424,-0.1047811729871634,2.952933680110665,0.23934736847877505,0.22918350994586945,-0.0281341914087534,-0.3714474806562065,0.4581500308960677,-9.595862098932267
25.01,7.300000190734862,267.0,21.249805450439453,39.13068008422852,-79.78285905452371,40.45891857558824,282.257210609436,-0.00030109946965239937,-0.02114149555563927,0.7248644232749939,0.6885671019554138,0.2427590200724145,0.04886483779865666,2.967322969855708,-0.020574573427438736,-0.29534903168678284,0.06804385036230087,-0.18994683701545,0.4317415199428797,-9.655711859464644
25.1,7.199999809265138,270.0,21.202226638793945,39.73501586914063,-79.78285917200785,40.45891870635796,282.5540083618164,-0.012458240613341331,-0.032044656574726105,0.7235069870948792,0.6894603371620178,0.2401303543291441,0.002900295964242975,2.9602627771278804,-0.06272657960653305,-0.2878059148788452,-0.07726802676916122,-0.5278484029322863,0.3555235755443573,-9.64086753308773
25.31,7.099999904632568,271.0,21.24855232238769,39.25790786743164,-79.78285981066837,40.45891895222268,282.93219268035887,-0.015921665355563164,-0.041344959288835526,0.7224161624908447,0.6900377869606018,0.24232915203875505,-0.06362982948909902,2.9906912985216243,-0.0904715657234192,-0.09097428619861604,0.10641505569219588,-0.5126101204007865,0.2068651342391968,-9.790338737368584
25.5,7.0,283.0,21.214746475219727,38.271888732910156,-79.78286017115151,40.45891924498593,283.5293596954345,-0.005727446172386408,-0.04294343292713165,0.7215621471405029,0.6909928917884827,0.3052621277479452,-0.0804380043576196,2.9730104312467094,-0.045418307185173035,0.13511379063129425,0.04460448026657105,-0.5222896011918784,0.5242354083806277,-9.698389517068863
25.62,7.099999904632568,282.0,21.239788055419922,37.17454147338867,-79.78286107730517,40.45891947028488,284.2564409942627,-0.0037496683653444047,-0.035393830388784416,0.7217744588851929,0.6912125945091248,0.33819579768881425,0.04671120161504379,3.0362223585314023,0.00840181764215231,-0.09104209393262863,-0.06725629419088364,-0.5169949839636684,0.5008420872688294,-9.730105984210967
25.7,7.0,280.0,21.113330841064453,40.43476867675781,-79.78286119877515,40.458919840412605,284.6695631713867,-0.010968418791890144,-0.03674224764108658,0.7203987836837769,0.6924993395805359,0.3549379447878235,0.04381249756902797,3.1124413711519674,0.030242813751101494,-0.13643920421600342,0.02911332435905933,-0.4096715333685279,0.5523542664572597,-9.835106774568557
25.9,7.099999904632568,280.0,21.09830665588379,39.81453323364258,-79.78286180260869,40.458920249531175,285.3008707733154,-0.01161576434969902,-0.0432809479534626,0.7178071141242981,0.694798469543457,0.3537272161434036,0.019757652284040486,3.1962710392341616,-0.11688393354415895,0.07319433987140657,0.13916511833667755,-0.4344380365312101,0.3582385108619929,-10.176953712701795
26.1,7.0,280.0,21.29362678527832,37.087074279785156,-79.78286279108501,40.45892040982103,285.7092589111328,0.0005403565010055902,-0.041659586131572716,0.7177083492279053,0.6950964331626892,0.37222446800297104,0.07387574241567482,3.2610274316262595,-0.17755573987960815,0.2868630290031433,0.009376752190291882,-0.6260776790231467,0.4320312129333616,-10.01967179775238
26.21,7.0,283.0,21.226015090942386,39.01935577392578,-79.78286318644292,40.4589205994399,286.03629481506346,0.015337008051574232,-0.03560490161180496,0.7181586027145386,0.6947987675666809,0.4027020134231095,0.13297776983075688,3.2763718797616805,-0.197476014494896,0.3082115948200226,-0.060780368745327,-0.4895597750321031,0.6013056940957904,-9.97881262421608
26.3,6.9000000953674325,282.0,21.152145385742188,40.02922821044922,-79.78286363436739,40.458921002093646,286.73816287231443,0.018408605828881264,-0.03340564295649528,0.7200191020965576,0.6929052472114563,0.43518287989924587,0.22359838745207675,3.314949017215351,0.09418392181396484,-0.10520058870315553,-0.014394541271030903,-0.3048653273843229,0.5621524457260967,-10.159355932474137
26.5,6.800000190734862,281.0,21.162160873413086,39.3374252319336,-79.78286395494989,40.45892119825896,287.4081362457275,-0.0032885749824345108,-0.034812234342098236,0.7207756042480469,0.69228595495224,0.3495578930216767,0.12484214170643004,3.4045619599097727,0.22005149722099304,-0.11182626336812973,0.026640342548489567,-0.3683903735876083,0.6234826847165823,-10.274384697675703
26.6,6.800000190734862,277.0,21.123348236083984,40.02922821044922,-79.78286429152641,40.45892131844144,287.7521532745361,-0.01049692928791046,-0.032591067254543304,0.7202228307723999,0.6928973197937012,0.2959858878400293,0.09824077212975346,3.4737401822148484,0.10108694434165956,-0.058041684329509735,0.04758135974407196,-0.529188255853951,0.2385941728949547,-10.39734345674515
26.8,6.800000190734862,276.0,21.09830665588379,39.92585754394531,-79.78286502223807,40.4589216338252,288.1234720916748,-0.010453494265675543,-0.03098196722567081,0.7190687656402588,0.694169282913208,0.2939430000331973,0.12208857703760415,3.5114906049284285,-0.028017666190862656,0.08500939607620239,0.05719566345214844,-0.4560705417394638,0.4000189132243395,-10.389726873636246
27.0,6.699999809265138,276.0,21.05949211120605,40.48248291015625,-79.78286590084214,40.4589219813614,288.83566844177244,-0.0024081103038042784,-0.025322958827018738,0.717137336730957,0.6964675784111023,0.3215632633144109,0.2095251766221776,3.622098456814869,-0.09643422812223433,0.028938636183738712,0.037241943180561066,-0.3098095684871078,0.4282755463197828,-10.340719020366668
27.11,6.599999904632568,276.0,21.079524993896484,39.34537887573242,-79.78286670416765,40.458922524743,289.22971713256834,0.003015131922438741,-0.02408413589000702,0.7159348130226135,0.697745144367218,0.3723811474822461,0.269663089882908,3.6642174932008733,-0.1310724914073944,0.058138590306043625,-0.03623322024941445,-0.4384114388376473,0.3436590998992324,-10.288329137563704
27.2,6.5,272.0,21.100811004638672,39.89405059814453,-79.78286806287812,40.45892336722922,289.99654566955564,0.009905828163027763,-0.019715743139386174,0.7126641273498535,0.701158344745636,0.4664155631725844,0.3521599766983274,3.7355533629714817,0.09121289104223253,-0.04917833209037782,0.0019779668655246496,-0.1968083435855806,0.6207191444188357,-10.201324907541276
27.41,6.4000000953674325,269.0,21.113330841064453,38.836463928222656,-79.78286906322765,40.45892391371118,290.75251567077635,0.004160953685641289,-0.02026980370283127,0.7082952260971069,0.7056130170822144,0.450211040749256,0.3347146393275441,3.8031277791000404,0.02818330004811287,-0.016645055264234543,0.06805487722158432,-0.3754975545778871,0.4685467457771301,-10.095546437501909
27.6,6.300000190734862,269.0,21.11458396911621,39.17839050292969,-79.78286942974019,40.458924111826036,291.143968460083,0.003072768449783325,-0.019897986203432083,0.7065140604972839,0.707412600517273,0.4364746982396722,0.2900081793694112,3.8131591242618192,-0.014071483165025713,0.010970323346555231,0.1276906281709671,-0.4645851109921933,0.4764680053666234,-10.161846846342089
27.71,6.4000000953674325,269.0,21.152145385742188,38.16056442260742,-79.78286987144976,40.458924391572644,291.5271719665527,0.0036005037836730476,-0.02015963941812516,0.7049967646598816,0.7089148759841919,0.4371892802015475,0.27635072327571203,3.839946997762997,-0.10449983924627304,-0.033522386103868484,0.033279318362474435,-0.31620517987757923,0.4747714722901583,-10.133434056043628
27.8,6.300000190734862,273.0,21.12459945678711,37.7470703125,-79.78287107891724,40.4589247233987,292.3304823608398,0.004284648224711418,-0.023528661578893655,0.702242374420166,0.7115362286567688,0.4400913786709841,0.2634503447174353,3.8846059420508072,-0.0197189636528492,-0.02546115405857563,0.11336031556129456,-0.5064131681621075,0.4317630450055003,-10.083310554027555
28.01,6.300000190734862,276.0,21.14087677001953,38.57405471801758,-79.78287191005373,40.45892588071045,293.1083067626953,0.0032461308874189854,-0.034961048513650894,0.7015280723571777,0.7117764353752136,0.5248625635025274,0.2229131486235187,3.911923370671807,-0.05107787996530533,-0.09949485212564467,-0.1371098756790161,-0.2787122483924032,0.5285953847318888,-10.160278623104096
28.1,6.300000190734862,276.0,21.14087677001953,37.73116683959961,-79.78287232949259,40.458926187757115,293.5025004119873,0.00281722005456686,-0.041660383343696594,0.7033202648162842,0.7096458673477173,0.5443479758344388,0.19530973125902326,3.9530154009979865,-0.10051874816417694,-0.14216142892837524,-0.11175083369016647,-0.3754138297587633,0.3855278317630291,-10.23503878355026
28.32,6.300000190734862,277.0,21.301137924194336,36.02153396606445,-79.78287254209741,40.458926397193494,293.9210032196045,0.0037005224730819455,-0.04463786631822586,0.7068249583244324,0.7059690952301025,0.5463995690466266,0.14710488299173266,3.980695171055346,0.017788181081414226,-0.028385318815708164,-0.13455745577812195,-0.4208961043506861,0.5757023081928492,-10.151192049980164
28.5,6.300000190734862,287.0,21.35247230529785,34.35961532592773,-79.78287343530971,40.458926902790864,294.7229460449218,0.0014504431746900082,-0.035147834569215775,0.7176477909088135,0.6955172419548035,0.5115727005903584,0.15266427957315354,3.9980859272831055,0.06435695290565491,0.15593476593494415,-0.16980063915252686,-0.38980108659714463,0.4203638980910182,-9.8109472489357
28.61,6.300000190734862,281.0,21.46515655517578,31.74348068237305,-79.78287360068867,40.45892695659655,295.14598262023924,0.005750651471316814,-0.025182217359542847,0.7232938408851624,0.690057098865509,0.4421020448612864,0.15425750900029708,3.9848331444996585,0.07424096018075943,0.16711275279521942,-0.118464358150959,-0.4807785727456213,0.31947534486651424,-9.721582497954367
28.7,6.199999809265138,282.0,21.546541213989254,30.980112075805664,-79.78287380259522,40.45892697067492,295.9493025512695,0.005196144338697195,-0.010884885676205158,0.733970046043396,0.6790748238563538,0.35076428397266923,0.20439148467397805,3.8657869161440312,0.12363625317811965,0.06477055698633194,-0.1725982427597046,-0.3775851202011109,0.3982155222818256,-9.182710120081902
28.91,6.300000190734862,282.0,21.908382415771484,30.45529365539551,-79.78287439023798,40.458927363329735,296.70837962341307,-0.0015644686063751578,-0.013205599971115593,0.7419884204864502,0.6702808737754822,0.3234673025367637,0.1529546531761364,3.7332901995211474,0.05895361304283143,-0.08850395679473877,-0.016682496294379234,-0.4223971576988697,0.3224053846299648,-9.246328411102297
29.0,6.199999809265138,267.0,21.90963554382324,32.73745346069336,-79.7828737589083,40.45892694212957,297.115871307373,-0.0058424081653356535,-0.01676322892308235,0.7441177964210509,0.6678125858306885,0.272787672805318,0.05033582147791178,3.6867156075192615,-0.025719406083226204,-0.04714386165142058,0.014638498425483704,-0.4848442879691721,0.41955351054668427,-9.13786314547062
29.21,6.199999809265138,270.0,21.96722984313965,30.375776290893555,-79.78287393372345,40.458927129749505,297.4815634460449,-0.004834883846342564,-0.01999369636178017,0.7467169761657715,0.6648238897323608,0.2849269473393557,-0.003889513382531559,3.6268978341339,-0.030326327309012413,0.018508492037653927,-0.07641874253749847,-0.5629233645647764,0.14782077284529807,-9.188253280520438
29.4,6.199999809265138,269.0,22.09619140625,28.992168426513672,-79.7828743003737,40.4589273232825,298.2793787689209,-0.0018733447650447488,-0.028568908572196964,0.75069260597229,0.6600310802459717,0.35786932898990553,-0.029020077620965017,3.5383558868309413,-0.0500156469643116,-0.06699924170970918,-0.01403892319649458,-0.3140808864310384,0.479641837477684,-9.120948904752732
29.51,6.199999809265138,269.0,22.01981544494629,29.516984939575195,-79.78287471453369,40.45892756553906,299.0314100952148,-0.0021449299529194828,-0.03513642400503158,0.7504958510398865,0.6599369645118713,0.4074564476342004,-0.03533038399931997,3.3670371502162277,0.009197833016514778,0.012705380097031592,0.034759104251861565,-0.37011672746390106,0.5265409655123949,-8.817959053516386
29.6,6.4000000953674325,272.0,22.12123107910156,28.936504364013672,-79.78287492145206,40.45892781050307,299.36451708984373,0.00016488648543599993,-0.031593948602676385,0.7496510148048401,0.6610788106918335,0.4547026394067919,-0.037671136742907896,3.2686221095563948,0.062085635960102074,0.12610995769500732,0.10979735106229782,-0.2921803229302168,0.5419958508387208,-8.809395221471787
29.81,6.5,271.0,22.21138000488281,27.7039794921875,-79.78287501380119,40.458927821502535,299.74205386352537,0.0028503958601504564,-0.02557029388844967,0.7483764886856079,0.6627750396728516,0.453131512753587,-0.005619810611165232,3.236795375246865,-0.06096883863210676,0.17630232870578766,-0.014923108741641045,-0.4174297652766109,0.8999445956200361,-9.105475417971613
30.0,6.699999809265138,269.0,22.302780151367188,25.21507453918457,-79.78287543723431,40.45892843064257,300.3898123474121,0.014708071015775204,-0.020038826391100883,0.747909665107727,0.6633350253105164,0.5192550881010836,0.03691418566483312,3.2376245031277584,-0.15693020820617676,0.0823938325047493,-0.010545292869210243,-0.6651691661775112,0.7227765195071698,-9.904431363344194
30.11,6.699999809265138,267.0,22.22640419006348,25.93073463439941,-79.7828753840522,40.45892837489593,300.8080557556152,0.022080054506659508,-0.029405001550912857,0.747226357460022,0.6635515093803406,0.5607181258981774,0.029177802897331327,3.2902723046847213,-0.2794927954673767,-0.038524478673934937,0.11500009149312973,-0.5551302320882678,0.8992028763145209,-9.701639399528503
30.3,6.9000000953674325,264.0,22.21012687683105,25.652421951293945,-79.782875788405,40.45892857921153,301.5452307434082,0.026747032999992367,-0.05746034532785416,0.7434654235839844,0.6657643914222717,0.7114710494054659,-0.044334179410112584,3.2107128990664515,-0.16310568153858185,-0.19806720316410065,-0.022788587957620617,-0.3933148612082005,1.0744437832385303,-9.227717893123627
30.41,7.0,277.0,22.21388435363769,26.79747772216797,-79.78287589701796,40.45892893434408,301.86794268798826,0.0240603405982256,-0.06715046614408493,0.7417382001876831,0.6668855547904968,0.7629548223877024,-0.0975940929577922,3.1163174904582567,-0.09305023401975633,-0.26041337847709656,-0.02386983297765255,-0.3084514795616269,1.0298679001629354,-9.081108900904656
30.5,7.0,275.0,22.101198196411133,28.363977432250977,-79.78287600827315,40.45892928150883,302.18272769165037,0.023366475477814674,-0.07179465144872665,0.7408322691917419,0.6674332022666931,0.7722367920473822,-0.1479711419802214,3.0341549630771536,0.0006971567054279149,-0.05662215128540993,-0.09604581445455553,-0.4993493662029505,1.0831636628508567,-9.034292584061623
30.71,7.0,274.0,22.379154205322266,23.77580451965332,-79.78287525764065,40.4589296334272,303.2643583984375,0.027278145775198936,-0.05656129121780396,0.7378987669944763,0.6719837188720703,0.682523808917218,-0.13263030979191498,3.126822847979414,0.05203108862042427,0.0825425237417221,-0.07539518177509308,-0.3981319436430931,0.9834983105957508,-9.636527144908904
30.9,6.9000000953674325,279.0,22.561954498291016,19.94304847717285,-79.78287534166391,40.45892987312659,303.5818251342773,0.031637921929359436,-0.055550988763570786,0.7371980547904968,0.6726457476615906,0.6336506093061895,-0.09339681719470368,3.096203098556725,-0.01687030494213104,7.141939568100497e-05,0.13345366716384888,-0.2891402276046574,0.7671614909917116,-9.40120945930481
31.0,6.800000190734862,279.0,22.326568603515625,24.89700508117676,-79.78287544364316,40.45893009786731,303.8927954406738,0.03517255187034607,-0.05838221684098244,0.7355377674102783,0.674046516418457,0.6290176277607855,-0.04576810586465474,3.0097681362810644,-0.02123840898275376,-0.019441645592451096,0.0036534366663545366,-0.2752354208752513,0.9898942874372006,-8.982644712924957
31.2,6.599999904632568,278.0,22.26146125793457,26.98036956787109,-79.78287577142719,40.45893059281305,304.4933165283203,0.03686435148119928,-0.06013583391904831,0.7333031892776489,0.6762330532073975,0.5946465043055179,0.0009184134913982623,2.844025956889132,-0.07158786803483963,-0.007041109260171652,-0.040992513298988335,-0.1268599482625723,0.8278654566407204,-8.986883944272995
31.31,6.4000000953674325,278.0,22.07740974426269,28.69795227050781,-79.78287595298848,40.45893082053605,305.08084475708006,0.040272239595651634,-0.05369870364665985,0.7373805642127991,0.672134280204773,0.4929456496749549,0.028167503241314017,2.736500992989267,-0.02736283466219902,0.13995686173439026,-0.1527710258960724,-0.15659651163965466,0.7209918031096458,-9.148867605328562
31.5,6.099999904632568,273.0,21.92340850830078,31.31408500671387,-79.78287610895376,40.45893089516407,305.3564108581543,0.0446171835064888,-0.04734393581748009,0.7417750954627991,0.6674860715866089,0.4306229386065957,0.049695920315241816,2.7132092645597767,0.11618193238973618,0.14896386861801147,-0.09128496050834656,-0.2894586998596788,0.6303860536962748,-9.439826225638393
31.6,5.9000000953674325,263.0,21.778169631958008,33.946121215820305,-79.782876094101,40.458930936694934,305.9277838439941,0.03123756125569344,-0.03259754925966263,0.7475759387016296,0.6626401543617249,0.3143213331710654,0.0836465819096038,2.8003315957666364,0.20749381184577945,-0.04236894100904465,-0.07439451664686203,-0.14659844895824792,0.8392580254375935,-10.053453501462934
31.8,5.800000190734862,263.0,21.67424964904785,36.54635238647461,-79.78287613647242,40.458930814292366,306.1894835205078,0.02164122834801674,-0.029206238687038418,0.7482151389122009,0.662459671497345,0.23994408068517764,0.06588348391702628,2.874048690195964,0.18581961095333105,-0.009860859252512457,-0.059643924236297614,-0.20465704288333653,0.5335995415225625,-10.372144296169283
31.9,5.699999809265138,262.0,21.71932411193848,34.59021759033203,-79.78287623298165,40.45893078160101,306.4828528137207,0.015868714079260826,-0.02675711363554001,0.7479437589645386,0.6630327701568604,0.1846074215616564,0.04177032399344795,2.986699124116164,0.0976925939321518,-0.02989890985190868,0.06906585395336151,-0.16858597151935098,0.4169050873070955,-10.751414583921433
32.0,5.599999904632568,255.0,21.92340850830078,31.34589195251465,-79.78287632904117,40.45893074432136,306.78802096557615,0.014156226068735124,-0.0292990580201149,0.7463130354881287,0.6647993326187134,0.14471362751142064,0.03470743812808598,3.105616487530924,-0.1340743452310562,-0.07973691821098328,0.1330319195985794,-0.186850188151002,0.3432148576900363,-10.783646775484085
32.2,5.599999904632568,259.0,21.72933959960937,34.669734954833984,-79.78287639073469,40.458930292428754,307.6095350952148,0.014033935964107512,-0.030221415683627125,0.7462181448936462,0.6648671627044678,0.17141995767938314,-0.03803834884832656,3.2181609919666214,0.015327882952988148,0.2092465758323669,0.044495273381471634,-0.5118557199463248,0.7800142557173968,-10.418748943805696
32.3,5.5,259.0,21.988513946533203,29.61240577697754,-79.78287649938137,40.458930278824894,307.9366301269531,0.014181019738316538,-0.02107929438352585,0.7450677156448364,0.6665049195289612,0.2106450081696925,0.003409735373432668,3.3185143627742573,0.083686962723732,0.09223100543022156,-0.17800359427928925,-0.3397520634904504,0.9823314987123012,-10.705616852045061
32.5,5.5,260.0,21.99978256225586,29.246623992919922,-79.7828766135318,40.45893028212495,308.27260577392576,0.013701574876904488,-0.02421090006828308,0.7433078289031982,0.6683709621429443,0.1879022763416908,0.0399368654859264,3.3889566833543365,-0.1850845217704773,-0.023604793474078185,-0.006869758479297161,-0.3161908176541329,1.0217069412767887,-10.537523435354233
32.7,5.800000190734862,253.0,21.869569778442386,32.435287475585945,-79.78287654776811,40.4589300490042,308.87621295166014,0.020268766209483147,-0.04021244868636131,0.7420116066932678,0.6688729524612427,0.2945990437473982,-0.08171995614147642,3.3693671184146385,-0.01961228437721729,0.14377282559871676,0.03475833311676979,-0.6450258737057448,1.0060168882459402,-9.854386214017866
32.81,5.9000000953674325,265.0,21.8670654296875,32.47504425048828,-79.7828763381878,40.45892976434722,309.0991057128906,0.023626632988452908,-0.03986405208706857,0.7436910271644592,0.6669155955314636,0.3067840222338517,-0.10983043781965636,3.2968481807150294,0.0057242289185524,0.04063079506158829,0.05056670308113098,-0.3922443822026253,0.8458775120973587,-9.912881759405137
32.9,6.199999809265138,266.0,21.888351440429688,33.17480087280273,-79.78287630546902,40.45892979465104,309.7679938049316,0.02008003741502762,-0.044065825641155236,0.7462232112884521,0.663932204246521,0.301691826030857,-0.1081695200784528,3.3778525649043463,-0.019638612866401672,-0.3504912257194519,0.1364445835351944,-0.2555401164852083,0.8056407746672629,-10.201183404922483
33.1,6.199999809265138,265.0,22.03609275817871,29.64421272277832,-79.78287586026832,40.45892945667575,310.2777327270508,0.005315125454217196,-0.05623459815979004,0.7446302175521851,0.6650829315185547,0.2759776260906344,-0.20374517862613006,3.3221468723447884,-0.04967179149389267,-0.17287050187587738,-0.05944084376096725,-0.3135602284222841,0.7925184532999993,-9.834119764566422
33.2,6.300000190734862,267.0,22.02983283996582,28.03000259399414,-79.78287576927966,40.45892911177616,310.4773787231445,0.0015396632952615619,-0.05615730583667755,0.7430397272109985,0.666885256767273,0.2306104773102504,-0.2257938487396591,3.2337162066004987,-0.04075656086206436,-0.11806419491767885,-0.08355912566184998,-0.4308146266266704,0.8573148851841689,-9.850327076911928
33.4,6.4000000953674325,272.0,22.022319793701172,29.071685791015625,-79.78287579786084,40.45892909744444,310.80291354370115,0.0008924267021939158,-0.051532551646232605,0.7419579029083252,0.6684624552726746,0.2391281780080413,-0.2203802096377928,3.2329432768094244,-0.011765506118535995,0.048058591783046715,-0.036896374076604836,-0.5581888740509748,0.92944811090827,-9.718437865376472
33.6,6.599999904632568,273.0,22.145021438598643,27.67217254638672,-79.78287580866592,40.45892873283041,311.3112333984375,0.008487031795084476,-0.04041313752532005,0.7419208884239197,0.66921466588974,0.2322194046432307,-0.13341304102815693,3.095760187297921,-0.008936804719269277,0.12993010878562927,-0.1404397040605545,-0.5265416598692536,1.0819430565834045,-9.485353231430055
33.71,6.800000190734862,274.0,22.15253257751465,28.14132881164551,-79.7828757111335,40.458928611954406,311.9008330078125,0.021426504477858543,-0.034823622554540634,0.7438074350357056,0.6671422123908997,0.2890838289318891,-0.09594250150912972,3.0261827970040445,-0.0165064986795187,0.0641820877790451,-0.0008681371691636741,-0.5501547266542912,0.9971403763443232,-9.419546327590943
33.8,6.9000000953674325,268.0,22.10871124267578,28.14132881164551,-79.78287570190814,40.45892867149709,312.2021139831543,0.02359800599515438,-0.042200099676847465,0.7449929118156433,0.6653179526329039,0.3060096026921333,-0.10984499758365528,2.9693375167720912,-0.09015000611543657,-0.07803300023078917,0.03599350899457932,-0.6336627602577211,0.7301739051192999,-9.233986108303073
34.0,7.0,265.0,21.882089614868164,30.773365020751953,-79.7828756562817,40.458928732914146,312.4979666442871,0.02149599231779576,-0.0528094582259655,0.7454476952552795,0.6641210913658142,0.3385018689092516,-0.15496416442499938,2.925389431056065,0.026227373629808426,-0.20863765478134155,0.0421341247856617,-0.50132360547781,0.8040582988411189,-9.455086289048195
34.2,6.9000000953674325,268.0,21.63543701171875,33.962024688720696,-79.78287557660408,40.45892875132531,313.1197699279785,0.014504378661513329,-0.06635703891515732,0.7451371550559998,0.663443386554718,0.29576426990051136,-0.2585142091896703,2.9838392193084418,-0.1919044554233551,-0.287045419216156,0.18729710578918451,-0.5942497858777642,0.4775450624898076,-9.787939040064813
34.31,6.9000000953674325,269.0,21.711811065673828,34.85262680053711,-79.78287535782094,40.4589285927381,313.4140585632324,0.012220234610140324,-0.07208552211523056,0.7450838088989258,0.6629514098167419,0.2903214380825562,-0.2777258050556219,3.00637916631502,0.03662615641951561,-0.1900339275598526,-0.05544229969382286,-0.6777161946147681,0.5117942510917783,-9.981312893629074
34.5,7.0,287.0,21.634183883666992,37.11092758178711,-79.78287526321749,40.458928428036025,314.02380358886717,0.011441925540566444,-0.062404166907072074,0.7473050355911255,0.6614453792572021,0.18224088138503625,-0.2841718453252746,3.0076740950940914,0.13807304203510284,0.10013553500175476,0.0696033388376236,-0.6605557130277158,0.6979485840350389,-9.556703295707702
34.61,7.099999904632568,289.0,21.6917781829834,34.256240844726555,-79.78287496231685,40.458928199894345,314.3164366455078,0.005237196106463671,-0.05120381712913513,0.7487162947654724,0.6608893871307373,0.14009260704973084,-0.2722303181250888,2.9864106297095847,0.2428824156522751,0.0647474154829979,-0.03997176140546799,-0.7269892191141845,0.6825731842964888,-9.574226816296578
34.7,7.300000190734862,291.0,21.61289978027344,36.721290588378906,-79.78287475980315,40.45892775321482,314.91096484375,-0.00615757517516613,-0.0395609550178051,0.7513638138771057,0.6586725115776062,-0.027843341777617048,-0.2649332491352853,2.9922091057425404,0.02906965278089046,0.0431259386241436,0.02248192578554153,-0.9196228151768446,0.4085184258967639,-9.713208115696908
34.9,7.400000095367432,293.0,21.63167953491211,36.522499084472656,-79.78287450063306,40.458927442951854,315.5148428649902,-0.010555854067206384,-0.04610461741685866,0.7537101507186891,0.6555029153823853,-0.057563601021674016,-0.3487278982593794,3.0398623411251298,-0.07174816727638245,-0.05173927918076515,0.04326793551445007,-1.1501831330358985,0.4948771233111621,-10.045717635154723
35.1,7.5,283.0,21.46265411376953,38.03333282470703,-79.78287432433095,40.45892703507428,315.8072928161621,-0.011916271410882471,-0.05011873319745064,0.7539801597595215,0.6548740267753601,-0.0437660126069207,-0.3691051722716002,3.0688424062801727,0.04648912325501442,-0.07831227779388428,0.18681293725967407,-1.0995001255720855,0.6443003804236651,-10.224538353681565
35.21,7.5,286.0,21.59161376953125,36.41912460327149,-79.78287418070829,40.45892689674471,316.1178282470703,-0.01617739349603653,-0.05224474519491197,0.7533565759658813,0.6553339958190918,-0.012380894752422015,-0.3926271152132525,3.1133018650400066,0.10392554849386217,0.06541714072227478,0.13593143224716187,-0.9963551683723928,0.8055794519931079,-10.285051188468934
35.4,7.599999904632567,287.0,21.01191520690918,35.6637077331543,-79.7828738301926,40.458926500207966,316.7249067993164,-0.030141634866595268,-0.049129899591207504,0.7489703893661499,0.6600918173789978,-0.0007621780112492954,-0.3933833961645829,3.1244273898714647,0.11407332867383956,-0.0844467505812645,0.025329647585749626,-1.1234859889000657,0.5207902289181948,-9.820154274702071
35.51,7.800000190734862,289.0,21.013166427612305,36.25213623046875,-79.78287342763315,40.45892620528369,317.3325575561523,-0.017345884814858437,-0.03622608259320259,0.7432060837745667,0.667855978012085,0.01698273871167498,-0.4761512495399098,3.12973900829594,-0.07464843988418579,0.3033278286457062,0.18935216963291168,-1.4005324020981789,0.3520689674466849,-9.787346132397653
35.7,7.900000095367432,290.0,21.10707092285156,35.266117095947266,-79.78287322328394,40.45892619518385,317.6513098449707,-0.004766161553561688,-0.025974394753575325,0.7394184470176697,0.6727281212806702,0.060051847632751475,-0.4253986160650144,3.1800712353373024,-0.015619581565260887,0.1563197672367096,0.2895158529281616,-1.063146377876401,0.3983020976185799,-10.066086995601657
35.8,8.0,282.0,20.99814224243164,37.842491149902344,-79.78287309356678,40.458926150091,317.95215975952146,0.0006621088832616807,-0.02486165054142475,0.7350766658782959,0.677527666091919,0.07961764537889103,-0.3572609931487752,3.1974210186481176,-0.1182238906621933,-0.07976005226373672,0.1568589210510254,-0.6757347194105388,0.5215008483454585,-10.030561652183533
36.0,8.100000381469728,283.0,20.851652145385746,39.05911254882813,-79.78287258288908,40.45892621207275,318.58946597290037,-0.02503378503024578,-0.05836622416973114,0.7272118926048279,0.6834688782691956,0.16472458053963307,-0.4224133118107077,3.128904603688214,0.04401566088199616,-0.5921519994735718,0.16115640103816986,-0.7673164422065021,0.3918881405889988,-9.530725870728494
36.11,8.100000381469728,283.0,20.930532455444336,38.53429794311523,-79.78287227594504,40.45892622936528,318.9082640380858,-0.03795917332172394,-0.07635467499494553,0.7234452366828918,0.6850956678390503,0.1588648590147341,-0.5542952924645703,3.118292057988361,-0.05832900851964951,-0.3063957393169403,0.08930625021457672,-1.0387034084647897,0.3024137177690864,-9.916155030727387
36.2,8.0,305.0,20.945556640625,38.65357208251953,-79.78287193453663,40.45892628094659,319.55420291137693,-0.029205029830336567,-0.08500584959983826,0.7215683460235596,0.6864839196205139,0.2039222739003108,-0.6292853141273876,3.1988838017690644,-0.13553211092948916,0.1546613872051239,0.0595858171582222,-1.1642694409936667,0.4918146806582809,-10.264292403459553
36.41,8.0,311.0,20.970598220825195,36.64972686767578,-79.78287188475007,40.45892622658481,320.21673190307615,0.003850512439385057,-0.06635209172964096,0.7250907421112059,0.6854386329650879,0.2118968271290084,-0.4397126073562778,3.320043940359206,-0.04207352548837662,0.3938257098197937,0.053423866629600525,-1.1375140439718965,0.6545121040195226,-10.172044390439988
36.5,8.100000381469728,312.0,21.05824089050293,36.522499084472656,-79.78287173281561,40.45892612711086,320.5602110595703,0.012812448665499687,-0.054861541837453835,0.727809488773346,0.6834613680839539,0.2310949817604861,-0.33120194937178504,3.3439097743146715,0.1394224613904953,0.1991894245147705,-0.05671370401978493,-0.9211628986895084,0.8446588792651892,-10.061757717132569
36.71,8.100000381469728,312.0,21.055736541748047,36.466835021972656,-79.78287158500473,40.45892590148553,321.23672854614256,-0.004337066784501076,-0.04595298320055008,0.7326561212539673,0.6790320873260498,0.1478360709746288,-0.2492677955777917,3.376528914480621,0.18532875180244449,-0.2372718006372452,-0.13619527220726013,-0.9186440643668176,0.4003977397084236,-9.904080530405043
36.9,8.100000381469728,299.0,21.03445243835449,36.9677963256836,-79.78287150418026,40.45892579964122,321.5749052734375,-0.02199277281761169,-0.05363169685006142,0.7341099381446838,0.6765519976615906,0.07764151809784392,-0.30443492837088576,3.3648661460487186,0.11801239848136902,-0.3822136521339417,-0.1224980503320694,-0.9205928682535888,0.5896931603550911,-9.706483817696572
37.01,8.100000381469728,300.0,21.103315353393555,36.29984664916992,-79.78287142563825,40.4589256985226,321.91224658203123,-0.035621460527181625,-0.0662553459405899,0.7361484169960022,0.6726269125938416,0.01832281601570887,-0.4156042395612463,3.3504304376310485,0.011930412612855434,-0.3791502118110657,0.06708995997905731,-1.0277013605833054,0.2992450750619173,-9.807049494981769
37.1,8.0,298.0,21.115835189819336,34.86057662963867,-79.78287139701209,40.45892550980121,322.59702288818363,-0.037993714213371284,-0.07767371833324432,0.7421274185180664,0.6646579504013062,0.06696992892661145,-0.5223185399183532,3.3467896898848264,-0.021387895569205284,0.1570730358362198,-0.14110495150089264,-1.2955875988304617,0.5757542753219604,-9.780142362713814
37.3,8.0,298.0,21.24354362487793,33.85070037841797,-79.78287157940261,40.458925330037395,323.293361541748,-0.022767720744013783,-0.05441255867481232,0.7487431168556213,0.660230815410614,0.11208752490474752,-0.3833664531275207,3.3603455492296614,-0.011085730977356434,0.3385678827762604,-0.1044008880853653,-1.104890600591898,0.6884713438153267,-9.693440433740617
37.4,8.100000381469728,296.0,21.24730110168457,33.437210083007805,-79.78287171185758,40.45892530166596,323.63006198120115,-0.015752652660012245,-0.043906643986701965,0.7515194416046143,0.65805983543396,0.11593818053883193,-0.266125983286276,3.3420424753566493,-0.010952631011605264,0.19217191636562347,-0.02318442054092884,-1.0619765692949297,0.5859359588474036,-9.527496453523637
37.6,8.199999809265138,288.0,21.38001823425293,30.566619873046875,-79.78287183779408,40.45892532772929,324.3324049682617,-0.008942597545683384,-0.040007300674915314,0.7546444535255432,0.654852032661438,0.16602374641732126,-0.16784522852195127,3.323337895082767,-0.04979221895337105,-0.096853606402874,-0.05814392492175102,-0.7237519081681967,0.5915711398422718,-9.58571191728115
37.8,8.300000190734862,288.0,21.537776947021484,34.948047637939446,-79.78287202372069,40.45892535452264,324.7048987121582,-0.00883314944803715,-0.046027790755033486,0.7552620172500609,0.6537452340126038,0.19990136693335425,-0.17557747801225992,3.314074861760188,-0.12129086256027224,-0.1256290078163147,0.18965980410575867,-0.908231854364276,0.3250837017595768,-9.441416668295863
37.9,8.399999618530272,288.0,21.68802261352539,31.727577209472656,-79.78287215281101,40.45892549023277,325.360801574707,-0.010979014448821543,-0.06373294442892075,0.7560271620750427,0.6513376235961914,0.2801122380237853,-0.2729491622197575,3.2174726829099805,0.01481601968407631,-0.2115030288696289,0.028362385928630832,-0.8469674330949784,0.6808601693809033,-9.40321096122265
38.0,8.399999618530272,294.0,21.811975479125977,31.4890251159668,-79.7828723802714,40.45892554498101,325.7393454284668,-0.013130594044923779,-0.0678657740354538,0.7564977407455444,0.6503331065177917,0.3219011712267664,-0.3161491839372866,3.2069507569518647,-0.026647889986634254,-0.1218629702925682,0.15613815188407898,-1.1309821924567225,0.5085607042908669,-9.2265759319067
38.21,8.399999618530272,297.0,21.72182846069336,31.838903427124023,-79.78287243637124,40.458925632710475,326.0601195068358,-0.014241420663893225,-0.06915082782506943,0.7571129798889159,0.6494577527046204,0.3235006209129503,-0.35167576043420545,3.1442835896303727,0.01785692200064659,0.020398491993546486,0.08636210858821869,-1.3099311111867429,0.7079784592241051,-9.132698299884797
38.4,8.399999618530272,297.0,21.72182846069336,31.75938415527344,-79.78287263328282,40.458925886286394,326.7487868041992,-0.013152016326785088,-0.06779957562685013,0.7573966979980469,0.6492924094200134,0.32142359144858057,-0.33345288369404136,3.105997844814365,0.03166884556412697,0.012484936974942684,-0.11135336011648178,-1.0531849151104689,0.7529114609956742,-9.20774906694889
38.51,8.399999618530272,297.0,21.680509567260746,33.33383560180664,-79.78287270728524,40.45892596349734,327.0605848999023,-0.014928638003766537,-0.06693007051944733,0.7566850781440735,0.6501732468605042,0.2949335867573303,-0.31373460651841195,3.0688621218016214,-0.0047311154194176214,-0.03867565467953682,-0.05074196681380272,-0.9609693541377784,0.4080252132564784,-9.296690479516984
38.6,8.5,297.0,21.669240951538086,33.28612518310547,-79.78287285502584,40.45892613517741,327.72549807739256,-0.014744267798960209,-0.06566658616065979,0.7551128268241882,0.6521313190460205,0.2685414322030796,-0.29589326499557433,3.0406531907900223,-0.12296726554632187,0.012138095684349535,-0.15545585751533508,-0.974480296075344,0.7717747248709202,-9.287494563460351
38.8,8.5,296.0,21.7205753326416,33.214561462402344,-79.78287286644931,40.45892619872008,328.083759185791,-0.01317613571882248,-0.06473110616207123,0.7543393969535828,0.6531527638435364,0.2705326322454808,-0.30346141559952,3.0494657884880594,0.004665910266339779,0.03008008562028408,0.06519968807697296,-1.0395323243737222,0.4795578933879733,-9.306721962690354
38.9,8.600000381469728,296.0,21.56532096862793,33.747329711914055,-79.78287300013265,40.45892630872972,328.6902121276855,-0.011812260374426842,-0.06250112503767014,0.7523506283760071,0.6556848883628845,0.2646105682806253,-0.30509799973393925,2.9780311354932363,0.04050140082836151,0.03949771448969841,0.08483847975730896,-1.2962433640658857,0.3997785195708275,-9.487821925878526
39.11,8.600000381469728,296.0,21.676753997802734,33.771183013916016,-79.78287297791253,40.45892639442592,329.0485266418457,-0.013226446695625782,-0.06205097958445549,0.7510051727294922,0.6572412252426147,0.2680491743890004,-0.3129443334589928,3.0230658635861207,0.0021110300440341234,0.09049247950315477,-0.0761038288474083,-1.2598524865508078,0.6246834104508162,-9.52782565176487
39.3,8.699999809265138,297.0,21.572834014892575,34.66178131103516,-79.78287305888036,40.45892646594711,329.6878889770508,-0.012589078396558763,-0.06499139964580536,0.7486530542373657,0.6596486568450928,0.2502346364267261,-0.32677371525166804,3.0323519946001602,-0.10109088569879532,-0.008746257051825523,0.05024097114801407,-1.2055670826137066,0.7122597905248403,-9.59456635594368
39.41,8.699999809265138,300.0,21.584102630615234,33.98588180541992,-79.78287309562998,40.458926519001324,329.9932936401367,-0.012182379141449928,-0.06662838160991669,0.7473701238632202,0.6609464287757874,0.2647476863944966,-0.3309283571366123,3.024001985323884,-0.0015815960941836238,0.0038689593784511094,0.06933678686618805,-1.1917965973913671,0.7088735217601061,-9.653185862302779
39.5,8.699999809265138,300.0,21.700542449951172,33.0634765625,-79.78287315108051,40.45892659248279,330.61786639404295,-0.01232111919671297,-0.0621621236205101,0.7452058196067809,0.6638165712356567,0.266518760249144,-0.3314922024680874,3.0160675123794096,-0.027384605258703232,0.054321154952049255,-0.002878855215385556,-1.1070333127677443,0.6780091401189566,-9.564926235079763
39.71,8.699999809265138,300.0,21.64545249938965,33.0634765625,-79.78287315211772,40.45892667747904,331.23070132446287,-0.007557894103229045,-0.0641796737909317,0.7443683743476868,0.6646349430084229,0.2669398082573718,-0.3135911967018735,2.9805862498227014,-0.08775369077920914,-0.0012940315064042807,-0.03111419826745987,-1.0675211184471851,0.5592829977348447,-9.43182314157486
39.8,8.800000190734863,297.0,21.596622467041016,33.78708648681641,-79.7828731595722,40.45892673253002,331.529933807373,-0.007429160177707672,-0.06780216842889786,0.7440804243087769,0.6645991802215576,0.2825116594677246,-0.31197118618388153,2.9458118761398864,-0.00030712931766174734,-0.12099816650152205,-0.01239271368831396,-1.1741817140579225,0.5986078984290362,-9.422413802146911
40.0,8.800000190734863,305.0,21.51899528503418,35.18659973144531,-79.78287315967901,40.458926783173055,331.82660662841795,-0.00877070240676403,-0.070822574198246,0.7438253164291382,0.6645534038543701,0.2909878234040353,-0.3336644040068509,2.9252938647830464,2.594146280898713e-05,0.0015517816646024587,-0.1234988570213318,-1.0293455245345828,0.7835717017203571,-9.556378190517426
40.2,8.800000190734863,304.0,21.561565399169922,35.71936798095703,-79.78287314839889,40.45892674238079,332.42174517822264,-0.010184077546000479,-0.07313308864831924,0.743768036365509,0.6643470525741577,0.25994845725681337,-0.3444587746473822,2.9055304096953227,0.0017598830163478851,-0.04291095957159996,-0.06071418523788453,-1.0735370993614195,0.6386616910994053,-9.49353524029255
40.3,8.800000190734863,304.0,21.632932662963867,33.826847076416016,-79.78287309037641,40.458926706002906,332.7095335693358,-0.009876457974314691,-0.07111680507659912,0.7441290616989136,0.664166271686554,0.25235991824478377,-0.34768532900976995,2.9027300477355897,0.08450118452310562,0.04320843517780304,0.11544642597436905,-1.1260341323912144,0.7316759817302227,-9.666132182478906
40.4,8.800000190734863,303.0,21.53902816772461,36.78490447998047,-79.78287310819468,40.45892669674903,333.29896533203123,-0.00929289311170578,-0.06426883488893509,0.7442140579223633,0.6647771596908569,0.20868797867059471,-0.32291112358921004,2.9301306488978796,0.03184196352958678,0.0723203718662262,-0.009900806471705437,-0.9995897018909456,0.702774071842432,-9.804770835042
40.61,8.800000190734863,299.0,21.51899528503418,36.32370376586914,-79.78287306714721,40.45892660496588,333.8780821533203,-0.013439156115055084,-0.06307873129844667,0.7434715032577515,0.665650486946106,0.1953441083288422,-0.32379163094093194,2.9648269145001085,0.07361885160207747,-0.09162262827157974,-0.015298322774469852,-1.0702455554902557,0.6248589731007814,-9.90343032002449
40.8,8.899999618530273,298.0,21.15464973449707,31.011919021606445,-79.78287300182201,40.458926547269705,334.1530302734375,-0.016833135858178142,-0.06440447270870209,0.7430976033210754,0.6658638119697571,0.18808450453998765,-0.3293462519312795,2.9625554880872778,0.0179863553494215,-0.06116817519068717,0.03258690983057022,-1.142498429864645,0.6794351298362017,-9.86963809132576
40.91,8.899999618530273,298.0,21.079524993896484,34.311904907226555,-79.78287302360361,40.45892655291221,334.7502974243164,-0.016861075535416603,-0.06924732029438019,0.7426226735115051,0.6659070253372192,0.19827370030727,-0.3576174790789195,2.9413246013904613,-0.009560682810842993,0.015279933810234068,0.1691960245370865,-1.1948034549504518,0.6414807799458504,-9.510047192573547
41.0,8.800000190734863,298.0,21.03069496154785,35.63190078735352,-79.78287300803407,40.458926486294935,335.01245104980467,-0.014708721078932284,-0.06995832175016402,0.7424686551094055,0.6660553812980652,0.2128312972846409,-0.3390132503065595,2.889792817149106,-0.0302753783762455,0.050498168915510185,0.006897602695971727,-1.128142126724124,0.6898730675876141,-9.533258884549141
41.21,8.800000190734863,300.0,20.988126754760746,35.70346450805664,-79.78287297629626,40.45892639468786,335.5712431640625,-0.008131634443998337,-0.06589487195014954,0.7433199286460876,0.665632963180542,0.2265999341320757,-0.3218933453298257,2.8689795946893053,0.02071424573659897,0.1832587867975235,-0.09057170897722244,-1.0364508417248726,0.9050700455904008,-9.785037066936491
41.3,8.899999618530273,300.0,20.95181655883789,36.49864196777344,-79.78287299896613,40.45892639700885,335.8605498046875,-0.005331843160092832,-0.06149302795529365,0.7439097762107849,0.665423572063446,0.21776885158332127,-0.3027460295089794,2.8658201005976256,0.09351222962141036,0.04190478473901749,0.027863748371601105,-1.1156848530471326,0.6708740021288395,-9.750689937472343
41.5,8.800000190734863,301.0,20.93804359436035,36.7928581237793,-79.78287300358724,40.4589263914651,336.14930712890623,-0.0051473593339324,-0.058521229773759835,0.7445593476295471,0.6649662852287292,0.20299065235701355,-0.29413161813500965,2.8648275692411898,0.0946979597210884,0.01822449266910553,0.0594136156141758,-1.0843229464441542,0.5099860361963511,-9.760262414216996
41.7,8.899999618530273,297.0,20.93553924560547,37.09502410888672,-79.78287278834581,40.4589262384474,336.70241534423826,-0.009839411824941635,-0.0604131817817688,0.7453018426895142,0.6639116406440735,0.16684140115056545,-0.3226320058089037,2.8622218709334164,0.0871753841638565,-0.06599947810173035,-0.15313607454299927,-0.9668999657034876,0.6639203470945358,-9.839239586591724
41.8,8.899999618530273,299.0,20.906742095947266,38.34345245361328,-79.7828727028581,40.45892606662992,337.2565077514648,-0.016435945406556133,-0.068462073802948,0.7455193400382996,0.6627546548843384,0.14145046960359434,-0.3664841679080794,2.868648850735311,-0.003783264197409153,-0.0436888188123703,-0.1669802963733673,-1.1550439964979888,0.5704840336740017,-9.871577028036118
42.0,8.899999618530273,298.0,21.00565528869629,35.83069229125977,-79.78287240962837,40.45892582388814,337.80714404296873,-0.013367492705583572,-0.06608588248491287,0.7463170289993286,0.6621668338775635,0.11353360984064585,-0.40060284765865306,2.885623189499172,0.0307755209505558,0.05658602342009544,-0.07884325832128525,-1.043039922863245,0.5079829262942076,-9.82370353460312
42.1,9.0,299.0,20.95807647705078,36.7371940612793,-79.78287234887091,40.45892574378293,338.09765612792967,-0.014436126686632631,-0.06904526799917221,0.7470227479934692,0.6610457301139832,0.08695619658860408,-0.3749803503882829,2.862179077152041,-0.04514359310269357,-0.17705832421779633,0.0244002528488636,-1.1661249087005854,0.3032100719958544,-9.520718361139297
42.3,8.899999618530273,299.0,21.03069496154785,35.09117889404297,-79.7828721695527,40.458925632107146,338.35571276855467,-0.02091940678656101,-0.07777366042137146,0.7474019527435303,0.6594725847244263,0.09794888111084094,-0.3743453452324716,2.7480482277662177,0.10096338391304016,-0.31110841035842896,0.1114996001124382,-1.208428344503045,0.5733063750341535,-8.922041246294976
42.5,9.0,299.0,21.041963577270508,36.69743728637695,-79.78287215249055,40.458925541468396,338.88795458984373,-0.04283098876476288,-0.07821086049079895,0.7414941191673279,0.6650076508522034,0.1279394649285801,-0.4071496402877607,2.5357363331895586,0.1038193553686142,0.17385008931159973,0.26922890543937683,-1.4170440620183946,0.7877373312413692,-8.971265446543693
42.61,9.100000381469727,299.0,21.019428253173828,34.90033721923828,-79.78287226888972,40.458925567746455,339.1582869262695,-0.03338441252708435,-0.06974393874406815,0.7369410991668701,0.6715200543403625,0.13064320862210574,-0.4054834339791058,2.55685171935972,-0.113664872944355,0.34429487586021423,0.12139103561639784,-1.5407362081110478,1.0969088588654996,-9.219910690784452
42.71,9.199999809265137,299.0,20.980613708496094,36.37141418457031,-79.7828720301492,40.45892534282967,339.6875380249023,0.005407403688877821,-0.06180015206336975,0.7274684906005859,0.6833308935165405,0.2204255749525768,-0.2391633836292949,2.51522634392868,-0.2223605364561081,0.03340449184179306,0.3030303418636322,-1.1061300641298295,0.7357628931105137,-9.155452739596367
42.9,9.199999809265137,298.0,21.04572105407715,35.51262283325195,-79.78287206043099,40.45892538989139,339.93955218505863,0.015422603115439415,-0.06510304659605026,0.7232389450073242,0.6873494386672974,0.2820934538646845,-0.19020994627875398,2.4774888499604657,-0.1270109862089157,-0.07574015855789185,0.2684586048126221,-0.937108840495348,0.8305882126092912,-9.323968909978868
43.1,9.300000190734863,306.0,20.989377975463867,36.57815933227539,-79.78287195268095,40.45892533236053,340.44723498535154,0.011091615073382854,-0.0761677622795105,0.7149446606636047,0.6949314475059509,0.3309996945930592,-0.2488119924429015,2.467162641233699,-0.02337509393692017,-0.12928518652915955,-0.06580816954374312,-1.0803061285614968,1.1249946436285974,-9.492625998258589
43.2,9.399999618530273,311.0,20.89046669006348,38.16056442260742,-79.78287188023296,40.458925355355696,340.69610583496086,0.004824721720069647,-0.0830652043223381,0.7114769816398621,0.6977660655975342,0.3185443502686287,-0.3022848967161583,2.438949671526836,0.0553499311208725,-0.2372170090675354,0.16285088658332825,-1.4063112053275109,0.8421094932407142,-9.376414341330527
43.3,9.5,309.0,21.06324958801269,34.073352813720696,-79.78287173105036,40.45892536260853,341.1890181274414,-0.006700650323182344,-0.09227433800697328,0.7035130262374878,0.7046347260475159,0.34567651545349104,-0.3764074535360694,2.40362218546168,0.24611809849739075,0.04024272784590721,0.1943473219871521,-1.3593566018342973,1.2466430416703225,-9.533640123009684
43.51,9.600000381469727,308.0,21.0281925201416,35.60009002685547,-79.7828716022889,40.45892549374323,341.6746901245117,-0.012368164025247095,-0.08138522505760193,0.6960189938545227,0.7132889628410339,0.3155416735978859,-0.3242636792125483,2.4592222592785795,-0.14138439297676084,0.14760161936283112,-0.03651003167033196,-1.0367505115270614,1.1947279527783394,-9.929064513444901
43.6,9.899999618530273,301.0,21.19095802307129,32.586368560791016,-79.78287161809456,40.458925557230074,341.9249800415039,-0.006457390263676643,-0.08024261891841887,0.6911836862564087,0.7181814312934875,0.3399993861374355,-0.3193532065480845,2.4695042791138166,-0.08866658061742783,0.15915700793266296,0.12852264940738678,-1.354098200798035,1.354050399810076,-9.714305638074878
43.8,10.0,303.0,21.129608154296875,33.59624481201172,-79.78287146207026,40.45892557389137,342.149375793457,-0.0003329445607960224,-0.07945312559604645,0.6844457983970642,0.7247214317321777,0.3951105117573216,-0.2930046451243656,2.4458467785924056,-0.09816849231719972,-0.002407618565484881,0.4088185131549835,-1.1703895023465156,1.2609481085836889,-9.596087801456452
44.0,10.100000381469727,301.0,21.10456657409668,35.234310150146484,-79.78287148487505,40.458925876158645,342.6370390625,0.014322136528789997,-0.09242939203977583,0.6675038337707521,0.7387086749076843,0.5215505956766526,-0.20463827301411788,2.3177585832037053,-0.054621610790491104,-0.13098400831222534,0.2990884780883789,-0.8089800464361906,1.215791377723217,-9.104329363703727
44.11,10.0,301.0,21.0281925201416,37.82658767700195,-79.78287127816469,40.45892581571851,342.8518904418945,0.0192150566726923,-0.09738895297050476,0.6585386395454407,0.7459712624549866,0.5336494346986025,-0.1918001003630332,2.2769182516436146,-0.030804570764303207,-0.04608117416501045,0.2498563975095749,-0.7369419841468334,1.4322317661345003,-9.193653184175492
44.2,9.800000190734863,317.0,21.016923904418945,36.88827896118164,-79.78287112298364,40.45892600478988,343.3020857543945,0.03043409995734692,-0.09223725646734238,0.6426175236701965,0.7600057125091553,0.4821283791364171,-0.15191884812139608,2.320903113283042,-0.04522131755948067,0.2295462489128113,0.3266078233718872,-0.6653192934393883,1.1693735486268997,-9.925235756635669
44.4,9.800000190734863,316.0,21.1020622253418,35.29792404174805,-79.78287122944062,40.4589260261318,343.78747546386717,0.03782627731561662,-0.06874683499336243,0.625349760055542,0.7763896584510803,0.36943005865076906,-0.08564224804687905,2.4207095336432847,0.1939155012369156,-0.06242874264717103,0.11467842757701875,-0.6170895583927631,1.0736715853214265,-9.92292376756668
44.51,9.800000190734863,315.0,21.099557876586914,34.44708633422852,-79.78287105550811,40.45892595760147,343.99611651611326,0.02652020193636417,-0.060130145400762565,0.6131288409233093,0.7872446179389954,0.3000761460264601,-0.08424831187880358,2.415747981864893,0.14479386806488034,-0.1697128564119339,0.34162360429763794,-0.7868664615601302,0.8333803311735392,-9.797852994203568
44.71,9.699999809265137,314.0,20.906742095947266,38.03333282470703,-79.78287101936282,40.45892588021233,344.2402876586914,0.012631111778318882,-0.05904250964522361,0.59809410572052,0.7991482019424438,0.23469777136622755,-0.14881815065047274,2.4364482982468383,0.1111459583044052,-0.2573581635951996,0.3859986066818237,-0.7953217546641828,1.1343457301706077,-9.799407184123991
44.9,9.600000381469727,305.0,20.850400924682614,39.41694259643555,-79.78287077817122,40.45892568185271,344.6895827026367,-0.006876531522721052,-0.07706590741872787,0.5585247874259949,0.8258715271949768,0.21609265487972365,-0.2634846537973789,2.46384746445058,-0.03534751385450363,-0.22157640755176544,0.4125637710094452,-0.8741011449694633,1.3978859522938731,-10.197719514369963
45.0,9.600000381469727,308.0,20.86417388916016,37.71526336669922,-79.78287058681114,40.4589254459193,345.13942706298826,0.004434531554579735,-0.08893829584121704,0.5102392435073853,0.8554099798202515,0.3045872174099201,-0.30320488582185845,2.5881104838094946,-0.1152966096997261,0.1483171582221985,0.7781788110733032,-0.8347163468599319,1.5409268273413181,-10.641412085294725
45.1,9.300000190734863,305.0,20.761505126953125,40.95958709716797,-79.7828705911821,40.4589253892623,345.40554034423826,0.01296093128621578,-0.08934121578931807,0.4791480898857117,0.8730792999267578,0.3649014823218349,-0.2325216876394009,2.6655938133141164,-0.01913025602698326,0.11819598823785782,0.6801037192344666,-0.3885598323494196,1.8040370598435398,-10.541431714296342
45.31,9.100000381469727,303.0,20.801570892333984,39.38513565063477,-79.78287051214254,40.458925118855454,345.9050368041992,0.029968680813908573,-0.08078334480524063,0.40504249930381775,0.9102288484573364,0.4066338692796032,-0.08657948372363497,2.8165106600222907,0.08534166216850281,0.04524336382746697,0.9057686924934388,-0.18902389056980606,1.5528167018294334,-10.603683511018751
45.5,8.699999809265138,320.0,20.74272346496582,40.60175704956055,-79.78287062117433,40.45892506130742,346.19451892089836,0.03160947188735008,-0.07426157593727112,0.3632307946681976,0.928196907043457,0.3855626492667331,-0.001390389791066364,2.9276122519383563,0.07011176645755768,-0.10976441949605943,1.0545531511306765,-0.11982724618166685,1.440458360016346,-10.689362761974335
45.61,8.5,326.0,20.870433807373047,38.47863388061523,-79.78287049111142,40.458924784976794,346.4474943847656,0.028956977650523182,-0.06895705312490462,0.32010769844055176,0.9444244503974916,0.3596497027336931,0.03064493360165575,3.0191459284562376,0.0667128786444664,-0.040150392800569534,0.8313069939613342,0.12068965567275886,1.6588490872085095,-10.802654904127124
45.8,8.399999618530272,319.0,21.09830665588379,34.121063232421875,-79.78287045599211,40.4589244169253,347.01967608642576,0.02970511466264725,-0.06334402412176132,0.23408955335617065,0.9696944952011108,0.256824473309673,0.029520958053803774,3.171819494271538,-0.1629902869462967,0.021367685869336128,0.7856411933898926,0.3740926513820887,1.3226824267208577,-10.570354381799696
45.9,8.399999618530272,315.0,21.224763870239254,32.40348052978516,-79.78287062219188,40.45892432268162,347.34093463134764,0.03234812989830972,-0.06798405200242996,0.1971426755189896,0.9774796962738036,0.2655844896291505,0.06962155968403523,3.2382725323278505,-0.10605522990226746,-0.049185797572135925,0.8920027613639832,0.4863246202468872,1.2990519279241564,-10.402988358736039
46.01,8.300000190734862,322.0,21.282358169555664,31.576494216918945,-79.78287079822131,40.45892422474926,347.66760241699217,0.035800009965896606,-0.06962879747152327,0.16681726276874542,0.9828745722770692,0.30230353570710944,0.06740098460583586,3.266369106126757,-0.00016068533295765516,0.13366271555423734,0.5296676754951477,0.18335733560845252,1.5070061060786248,-9.998439388275148
46.2,8.300000190734862,323.0,21.165916442871094,33.86660385131836,-79.78287051720497,40.4589232471734,348.32770526123045,0.05452476441860199,-0.0558922290802002,0.10834537446498872,0.9910420775413512,0.26206076055021266,0.1028785029099416,2.7881697525329017,-0.06594425439834595,0.10828668624162674,0.2775218188762665,0.6678610780835152,1.4864714156091214,-8.538045823574066
46.3,8.300000190734862,316.0,21.251056671142575,36.66563034057617,-79.78287054836373,40.458923097533045,348.60317218017576,0.0594162791967392,-0.05600085854530335,0.09515433013439176,0.9921085834503174,0.2871944754683009,0.09602269074189,2.7092711037933888,-0.1098676770925522,0.05802563577890396,0.21852204203605646,0.6160314316302539,1.3021699556708335,-8.813439740538596
46.51,8.300000190734862,311.0,21.269838333129886,36.26008987426758,-79.78287053725508,40.45892293123355,348.87255847167967,0.06361871212720871,-0.06340336054563522,0.08548523485660553,0.9922827482223512,0.3088405963880228,0.10971843957616943,2.6510238195130285,-0.2512986958026886,-0.0952913463115692,0.044853415340185165,1.0120718993246556,1.5221859164536002,-9.038277461528779
46.7,8.300000190734862,315.0,21.183446884155273,39.766822814941406,-79.78287037262942,40.458922344929796,349.44208514404295,0.06127139180898665,-0.07616353780031204,0.07961317896842958,0.9920215606689452,0.4097611444652963,0.10121441973507296,2.690177723002704,-0.11751354485750196,-0.19580163061618805,0.09826767444610596,1.1437338003516198,1.3898572866618637,-9.856989394426346
46.81,8.399999618530272,313.0,21.129608154296875,40.11669921875,-79.78287018646671,40.45892180986383,349.7498625488281,0.06232726946473121,-0.07820986211299896,0.08209384232759476,0.9915942549705504,0.4386062967975314,0.07417923846630617,2.8010006775015537,-0.1941699981689453,-0.03858061134815216,-0.0010794410482048988,1.0239697406440973,1.7442586353421212,-10.18954978466034
46.91,8.600000381469728,308.0,21.17718505859375,39.00345230102539,-79.78287009837327,40.458921314930976,350.33270251464836,0.06322328001260757,-0.08141984790563582,0.09280872344970703,0.9903334379196168,0.4920554334634528,0.06257341125152202,2.9804559577304035,-0.041435550898313515,-0.19691897928714752,-0.06395621597766876,0.9661109570413828,1.7414532874524595,-10.513403670787813
