time,wind_speed,wind_angle,battery_voltage,battery_current,position_x,position_y,position_z,orientation_x,orientation_y,orientation_z,orientation_w,velocity_x,velocity_y,velocity_z,angular_x,angular_y,angular_z,linear_acceleration_x,linear_acceleration_y,linear_acceleration_z
0.0,0.8000000119209291,120.0,24.657886505126953,-0.02385532110929489,-79.78283712323746,40.45889455370553,269.7426327342987,0.01908724382519722,0.017332475632429126,0.8864302635192871,0.4621435701847077,0.001523003581422488,0.008499002712326545,-4.9931305241481925e-05,-0.00444065872579813,-0.004239974077790976,-0.0030879327096045017,0.4746903056278825,0.16841530591249468,-9.793574586510658
0.1,0.8000000119209291,121.0,24.66665077209473,-0.007951773703098297,-79.78283713265957,40.45889455080752,269.742647277832,0.019087441265583042,0.0173324104398489,0.8864292502403259,0.4621455073356629,0.0023053236415712768,0.008293910475870839,-0.000577774267189658,0.0035332674160599717,0.002530454657971859,0.0029656169936060905,0.4732052955776454,0.1744631358794868,-9.793000974655152
0.29,0.8000000119209291,119.0,24.66039085388184,0.007951773703098297,-79.78283714210417,40.458894547984656,269.7426222438812,0.019087441265583042,0.0173324104398489,0.8864292502403259,0.4621455073356629,0.001981223338337225,0.008370640290992356,-0.0008254160931090626,0.0006793295033276081,0.0010964247630909083,-0.0003947243967559189,0.4720823743566871,0.1711655986122787,-9.793170543909074
0.39,0.8000000119209291,119.0,24.66665077209473,-0.007951773703098297,-79.78283727516768,40.45889443192026,269.75674556446074,0.01907433196902275,0.017330048605799675,0.8864250779151917,0.4621541500091553,0.011780021716060336,0.013627035246281827,-0.0013915292714640247,0.005077738780528307,-0.00015535402053501454,0.008890381082892418,0.4740501451492311,0.1676796348206699,-9.792626168131829
0.6,0.699999988079071,110.0,24.664146423339844,-0.03180709481239319,-79.7828373297735,40.45889428905714,269.7692189092636,0.019082069396972656,0.017327891662716866,0.8864246010780334,0.462154746055603,0.007911526833028558,0.012279330101388023,-0.004922641485539118,-0.0049158907495439035,-0.0041794865392148495,-0.003579063806682825,0.4728165653720498,0.1773029092513025,-9.791425150036813
0.69,0.699999988079071,108.0,24.6653995513916,-0.007951773703098297,-79.7828373652203,40.45889428862183,269.76828037452697,0.019103093072772026,0.017322596162557602,0.8864336609840393,0.4621367752552033,0.00845822895330179,0.01231141899790924,-0.005900121844814896,0.0019219998503103848,0.0012613126309588554,0.0015681249788030982,0.475582773461938,0.16918092571198942,-9.792546645998957
0.89,0.5,97.0,24.664146423339844,-0.007951773703098297,-79.78283740786576,40.45889412991787,269.7823853368759,0.01909162104129792,0.017298623919487,0.8864350318908691,0.46213552355766296,0.0012753059153694198,0.012854824482309473,-0.0045285972510341185,-0.00456622801721096,-0.0006056231795810162,-0.005185334943234921,0.4718860540911555,0.18103814715519548,-9.78980254769325
0.99,0.5,89.0,24.66915512084961,0.007951773703098297,-79.78283747956745,40.45889400162212,269.79484735679625,0.019094951450824738,0.017301781103014946,0.8864352703094482,0.4621348977088928,0.005487681733814094,0.009473208003920151,-0.006820111917889832,-0.004829202778637409,-0.0034622973762452602,0.0010515579488128424,0.4715244768932462,0.17280632732436066,-9.792948934435843
1.2,0.5,69.0,24.664146423339844,-0.007951773703098297,-79.78283749289952,40.45889400093506,269.79419599723815,0.01909785345196724,0.017298692837357518,0.8864263296127319,0.4621519148349762,0.005657379567388932,0.009357139228412671,-0.007307191763281416,0.0014490463072434068,9.537044388707729e-05,-0.0017433648463338616,0.4710465035587549,0.17935497131198647,-9.79162863314152
1.3,0.4000000059604645,60.0,24.667903900146484,0.0,-79.78283756536578,40.45889385837764,269.80867646884917,0.019110351800918586,0.017313480377197266,0.8864282369613647,0.4621472358703613,0.004677224401706151,0.00980500178209303,-0.004479134803219934,-0.0071777766570448875,-0.0015747264260426164,-0.006810008082538843,0.4714877490699291,0.17915344337001446,-9.791830362081528
1.49,0.4000000059604645,47.0,24.67165946960449,0.007951773703098297,-79.78283757837038,40.45889385701263,269.80826376628875,0.019116148352622986,0.017314203083515167,0.8864323496818542,0.4621392488479614,0.005237582785345033,0.00957006705867738,-0.004890197821642867,0.0011960748815909028,-0.002217800822108984,0.0039165932685136795,0.4738991408050061,0.17390723012387754,-9.793124350905419
1.6,0.30000001192092896,43.0,24.667903900146484,0.0,-79.78283765389628,40.458893690388656,269.8232627983093,0.019119348376989358,0.017306281253695488,0.8864308595657349,0.4621420204639435,0.000530942230956923,0.01250851841240353,-0.0030186468462996808,-0.00014716290752403438,0.0004870115371886642,-0.0019181432435289023,0.4717158635705711,0.18138673257082705,-9.791352644562721
1.79,0.30000001192092896,32.0,24.667903900146484,0.007951773703098297,-79.78283766661137,40.458893684429455,269.8229957695007,0.019119348376989358,0.017306281253695488,0.8864308595657349,0.4621420204639435,0.0010153149754150732,0.012413521510188177,-0.0035318621333652422,0.0041003762744367105,0.005193558521568775,-0.0008050563046708702,0.4742702928185463,0.1686870004422963,-9.793068217635156
1.9,0.30000001192092896,25.0,24.664146423339844,0.0,-79.78283774120125,40.458893545866395,269.8387115473747,0.019116871058940887,0.01730324886739254,0.8864310979843141,0.4621418118476868,0.0024050347340931182,0.014166429396848966,-0.0004237589510853803,-0.00894590187817812,-0.004548659082502128,-0.0025907089002430443,0.4720279587060213,0.17656634280458094,-9.792266564369204
2.0,0.30000001192092896,21.0,24.67165946960449,-0.007951773703098297,-79.7828378184924,40.45889340036747,269.8546309943199,0.0191173292696476,0.017302313819527626,0.8864294290542603,0.4621450901031494,0.0032045025763744344,0.012915802743228415,0.0026545841863102326,-0.0037410252261906867,-0.0005682054325006902,0.0030916687101125717,0.4736764349788428,0.16947122169658546,-9.79323135495186
2.19,0.30000001192092896,23.0,24.667903900146484,0.007951773703098297,-79.78283783303175,40.45889339612487,269.85494242858886,0.01911723241209984,0.017302295193076134,0.8864279985427856,0.4621478617191314,0.003035564247511172,0.012960766882416916,0.0022734880389983524,-0.002922258572652936,-0.003138534491881728,-0.001979637891054153,0.4704350309818983,0.18168711500242354,-9.79107841014862
2.3,0.30000001192092896,30.0,24.6653995513916,0.0,-79.78283790625835,40.458893250553494,269.8717309708595,0.019117794930934903,0.01730087585747242,0.8864259123802185,0.4621518850326538,0.00301270991967595,0.01226032371520427,0.0050211958700693785,-0.0039824098348617545,-0.004308023490011692,-0.0022103311493992805,0.4710440550372005,0.17807609388604762,-9.7918139898777
2.49,0.30000001192092896,33.0,24.66915512084961,0.007951773703098297,-79.78283791997974,40.45889324678443,269.87227617454533,0.019117794930934903,0.01730087585747242,0.8864259123802185,0.4621518850326538,0.0035992028034529007,0.012108585919565384,0.004554790473912522,0.0034292081836611032,0.0021831740159541373,0.0022202061954885717,0.4735225435718894,0.1724873799830675,-9.79258582234383
2.6,0.30000001192092896,36.0,24.6653995513916,0.007951773703098297,-79.78283802141365,40.45889313446171,269.88934545469283,0.01911093294620514,0.017303887754678726,0.8864244222640991,0.462154895067215,0.011646273023354857,0.010798161388093482,0.006248163085011064,0.0006344554130919278,0.00014738021127413958,0.0008488203748129307,0.4706408529728651,0.18057638157159087,-9.791544433236123
2.79,0.4000000059604645,37.0,24.66915512084961,0.007951773703098297,-79.78283803931905,40.45889313753122,269.8900253648758,0.01911093294620514,0.017303887754678726,0.8864244222640991,0.462154895067215,0.01178586629588273,0.010816594490458329,0.005844956360199352,0.0038773305714130397,-0.0013926581013947725,0.00315110688097775,0.4750168360769749,0.16819424461573362,-9.793967519402504
2.9,0.4000000059604645,41.0,24.667903900146484,0.007951773703098297,-79.78283809184903,40.458892996623156,269.9051695342064,0.019117221236228943,0.017301598563790318,0.8864224553108215,0.4621585607528687,0.007743834746315318,0.008026434800046394,0.003774093818102912,0.0036720531061291695,0.002592529635876417,0.003463491797447205,0.475531171783805,0.16996922174468634,-9.793486878275873
3.1,0.4000000059604645,43.0,24.667903900146484,0.007951773703098297,-79.78283817086748,40.45889285573965,269.9200165743828,0.01911444030702114,0.017295029014348984,0.8864226341247559,0.4621586203575134,0.00821994270727995,0.0124663485571411,0.00210519091553155,-0.005936845671385528,-0.002735657384619117,-0.002265264512971044,0.4718827650323511,0.17750575281679631,-9.792485834956171
3.2,0.4000000059604645,45.0,24.66289520263672,0.007951773703098297,-79.78283820611608,40.458892855564656,269.9205207700729,0.019114205613732338,0.017295407131314278,0.8864210247993469,0.4621617197990418,0.008357286548078028,0.012552711335931336,0.0014575456366778838,0.0003928389342036098,-0.003402031259611249,0.0013330593938007946,0.47307179633528,0.1704422066733241,-9.793948223590853
3.39,0.4000000059604645,46.0,24.6653995513916,0.007951773703098297,-79.78283824446511,40.458892698622925,269.93586175394057,0.019121525809168816,0.017291614785790443,0.8864192962646484,0.4621647894382477,0.0015017013028022952,0.010800476294134028,0.001081930635460838,0.0005417169304564595,5.6911183492047705e-05,-0.004593302495777607,0.4716379859670997,0.18054281489923604,-9.792180610299113
3.49,0.4000000059604645,44.0,24.67165946960449,0.007951773703098297,-79.78283833814518,40.458892569516784,269.953461455822,0.01911522075533867,0.017291171476244926,0.8864194750785828,0.4621647596359253,0.007520503879307525,0.012182213058539674,0.004445483184290021,-0.0049284007400274285,-0.0004114412295166403,-0.00501139834523201,0.4718942036479712,0.18021193558350207,-9.792441980838776
3.69,0.4000000059604645,42.0,24.664146423339844,0.0,-79.78283835487703,40.45889256912615,269.9539574260712,0.01911571808159352,0.017290974035859108,0.8864178657531738,0.4621678292751312,0.008281625808694952,0.01202789257340155,0.0039319344917123035,0.007679321337491273,0.003327538259327412,0.0005885272985324264,0.474557683467865,0.17153031868860127,-9.792985771894458
3.79,0.4000000059604645,42.0,24.664146423339844,0.007951773703098297,-79.7828384484545,40.45889243299774,269.9697149271965,0.01911342516541481,0.01728757657110691,0.8864155411720276,0.4621724784374237,0.008720101460879549,0.014303833710390762,0.002161182093485597,0.0011650027008727193,0.0026313005946576595,-0.0010593596380203962,0.4734553371369839,0.17747684564441446,-9.793141307830814
3.99,0.4000000059604645,38.0,24.67165946960449,0.015903547406196594,-79.78283846800427,40.45889243183725,269.97000323486327,0.01911342516541481,0.01728757657110691,0.8864155411720276,0.4621724784374237,0.008477414850736633,0.014517908843926999,0.0018677940061692735,-0.0016880687326192856,-0.0008572535589337349,0.006428243592381477,0.4746048631891608,0.16889390051364905,-9.793864023685456
4.1,0.4000000059604645,40.0,24.67917060852051,0.015903547406196594,-79.78283854136859,40.45889229520885,269.9856739516258,0.019116992130875587,0.017285868525505066,0.8864138126373291,0.4621756672859192,0.006922582225212031,0.012673981830343463,0.0007424299503262518,0.002681680954992771,0.003315781708806753,0.004855533130466938,0.4744892344996333,0.1676830517873168,-9.79327053129673
4.29,0.4000000059604645,37.0,24.66915512084961,0.007951773703098297,-79.78283855805688,40.458892293494074,269.9858054394722,0.019116992130875587,0.017285868525505066,0.8864138126373291,0.4621756672859192,0.006124105875680301,0.01284527684635896,0.0004454153079639736,-0.0019417931325733664,-0.0018903632881119847,-0.005663430783897638,0.4716334909200669,0.17922675283625722,-9.792232065796853
4.39,0.4000000059604645,33.0,24.667903900146484,0.015903547406196594,-79.78283862846837,40.45889215870476,270.001577960968,0.019118625670671463,0.01728437840938568,0.8864114880561829,0.4621800780296326,0.005316983738423584,0.011724482174946543,-0.00023895777387688584,-0.002333720214664936,-0.0030119132716208696,-0.0031326678581535816,0.4720258390903473,0.17303456973284484,-9.79220282971859
4.5,0.4000000059604645,23.0,24.66289520263672,0.0,-79.782838686994,40.45889202436627,270.0176145310402,0.01912021078169346,0.01728156954050064,0.8864114880561829,0.4621800482273102,0.004918060316516093,0.011214548831539252,-7.44199037899093e-05,0.0010018025059252977,-0.00030197453452274203,-0.00011538575199665503,0.4719662705808878,0.17784565877169373,-9.791779491305352
4.7,0.4000000059604645,19.0,24.66665077209473,0.04771064221858978,-79.78283871533343,40.45889201974436,270.01765774440764,0.019119895994663242,0.017282191663980484,0.886409342288971,0.4621841907501221,0.0044757039490894105,0.011399251093489516,-0.0007407125333427732,-0.0033666472882032394,0.002595790196210146,-0.004755486734211446,0.4709098614379764,0.1812528861500323,-9.791450293064118
4.89,0.5,8.0,24.67040634155273,0.03180709481239319,-79.78283877166093,40.458891865733975,270.03321646404265,0.01912456937134266,0.0172729454934597,0.886407196521759,0.4621884524822235,-0.0008907488747564953,0.014643255745525243,-0.0007932243787277829,0.003341561416164041,0.002230409532785416,0.005539646372199058,0.4737622794136405,0.1670984215848148,-9.793701471090317
4.99,0.5,2.0,24.66665077209473,0.05566241592168808,-79.7828388379137,40.458891754281055,270.0490288014412,0.019120864570140842,0.017279354855418202,0.8864070177078247,0.462188720703125,0.005952974391724443,0.009556091184657865,-0.0007184478019566923,0.004201275296509266,0.003732639364898205,0.007643586955964565,0.4742176313325763,0.1701951252669096,-9.792260132431984
5.19,0.5,2.0,24.66039085388184,0.07951773703098297,-79.78283885108554,40.458891753496864,270.0489983434677,0.019119719043374055,0.017280403524637222,0.8864058852195741,0.4621909260749817,0.0051934640463270785,0.009814864220074774,-0.0010439757046019683,-0.004981998354196549,-0.002998792100697756,-0.002835434162989259,0.4720426863804461,0.17702322961762548,-9.791457894444466
5.3,0.5,1.0,24.664146423339844,0.08746951073408127,-79.78283891788784,40.458891640494656,270.06500052165984,0.01911935955286026,0.017280567437410355,0.8864038586616516,0.4621948301792145,0.007436079128035628,0.008129741155216101,-0.0008072797017682649,-0.00537856575101614,-0.0011455188505351546,-0.0025692549534142017,0.4739161708205938,0.17110407494008542,-9.793289827108383
5.49,0.4000000059604645,353.0,24.6653995513916,0.09542128443717957,-79.78283893086153,40.458891641884826,270.06495087099074,0.01911935955286026,0.017280567437410355,0.8864038586616516,0.4621948301792145,0.0074928493202714545,0.008150212398776344,-0.0011868985825724445,3.95770803152118e-05,0.0014961072010919456,-0.003782015526667237,0.4721552818268538,0.18072844572365285,-9.791653776168824
5.59,0.4000000059604645,350.0,24.66164207458496,0.08746951073408127,-79.78283902539752,40.458891534904964,270.0812411780357,0.019114039838314056,0.017279308289289474,0.886402428150177,0.4621978998184204,0.011407216269519705,0.01035738388470125,-0.0008774443423954705,-0.005009963642805815,-0.0017117960378527641,-0.0016902588540688155,0.4716388630494476,0.18184924732893706,-9.791471927762032
5.79,0.4000000059604645,346.0,24.65287780761719,0.07951773703098297,-79.78283904332541,40.458891538159534,270.0812016005516,0.019114039838314056,0.017279308289289474,0.886402428150177,0.4621978998184204,0.011982644996728598,0.010343405179272772,-0.0013323587029600494,0.005719533190131187,0.0057430374436080464,0.0026472941972315307,0.4746433451771737,0.1687281502224505,-9.7937353849411
5.9,0.4000000059604645,344.0,24.657886505126953,0.07951773703098297,-79.78283908957305,40.45889142079992,270.0952510113716,0.019119849428534508,0.017277654260396957,0.8864002823829651,0.4622019231319428,0.007852259223716995,0.00802184640123493,-0.0040816500763901755,0.00416276790201664,0.0018747106660157442,-0.0001629185862839222,0.4737264652177692,0.17345997294411064,-9.792252531051638
6.1,0.4000000059604645,347.0,24.65913963317871,0.07156596332788467,-79.78283912342604,40.458891289484185,270.1114824886322,0.01912732794880867,0.0172721054404974,0.8864003419876099,0.4622016549110413,0.0007943874611317463,0.00793265426709437,-0.00226209569021095,-0.0012943454785272481,0.00047879794146865606,0.0016611118335276842,0.4735358459874988,0.17155531553551556,-9.792835498452183
6.19,0.4000000059604645,345.0,24.66164207458496,0.07156596332788467,-79.78283914035043,40.45889128239431,270.1110350961685,0.019127247855067253,0.017272451892495155,0.8863986730575562,0.4622049033641815,0.0009426307403514226,0.00812088798651071,-0.0029860399655153155,0.004280043300241232,-0.0018267004052177074,0.004219269845634699,0.4755107065290213,0.16843039903789758,-9.793752926588061
6.39,0.4000000059604645,348.0,24.656635284423828,0.07951773703098297,-79.78283919502934,40.458891185779045,270.12729524326323,0.0191235076636076,0.0172748826444149,0.8863964676856995,0.4622091352939606,0.004831362435711557,0.006768617293700565,-0.0016169641049899332,-0.007379174232482909,-0.0020297712180763483,-0.0034163736272603273,0.4702181358262897,0.18203319707885385,-9.791483622193336
6.5,0.4000000059604645,348.0,24.66164207458496,0.07951773703098297,-79.7828392609898,40.45889106999093,270.1434709305763,0.019123541191220284,0.017271062359213833,0.886396586894989,0.4622090756893158,0.004420324480344101,0.00841012256231129,-0.0008921641069822268,-0.006346395704895258,-0.004385089036077261,-0.0024011402856558557,0.4715493275597692,0.17568200625479222,-9.792281767129898
6.69,0.4000000059604645,350.0,24.65538215637207,0.04771064221858978,-79.78283927224179,40.458891069138936,270.1434057826996,0.01912382617592812,0.017270894721150398,0.8863953351974487,0.4622113704681397,0.004860553937904668,0.00826981338918235,-0.0014003782977446216,0.0015027975896373393,0.002698042197152972,-0.0005899951211176813,0.4717598638683558,0.17609418014064432,-9.791636819243427
6.8,0.30000001192092896,350.0,24.66039085388184,0.08746951073408127,-79.78283933499219,40.458890959635795,270.1602269287109,0.019123399630188945,0.017269276082515717,0.8863938450813293,0.4622143507003784,0.004447128614684182,0.009158725598167735,0.0011223163131522831,-0.002328814473003149,-0.0006095150602050126,-0.004334845580160618,0.4712301426753402,0.1805376072227955,-9.791800541281699
6.99,0.30000001192092896,353.0,24.66164207458496,0.09542128443717957,-79.78283934684714,40.45889095826893,270.1603746886253,0.019123399630188945,0.017269276082515717,0.8863938450813293,0.4622143507003784,0.004804350712467226,0.009129337707412222,0.0007748617717687798,0.005256902892142534,0.0015199566259980206,0.005344545934349298,0.4745079455897212,0.16863828582689167,-9.794600772857669
7.09,0.30000001192092896,354.0,24.664146423339844,0.08746951073408127,-79.78283940787306,40.458890866223506,270.17608861875533,0.019122360274195668,0.017270106822252274,0.8863916397094727,0.4622186720371246,0.007502085937734312,0.007454852472804522,0.0003035941964966509,0.002989392494782805,0.000442716758698225,0.003044766141101718,0.4751809601113201,0.17174343142658474,-9.793150078654287
7.29,0.30000001192092896,357.0,24.66289520263672,0.09542128443717957,-79.78283942000769,40.45889086753952,270.17615787935256,0.019122360274195668,0.017270106822252274,0.8863916397094727,0.4622186720371246,0.0067775043803353155,0.007775393697441979,5.250649546831922e-05,-0.003382005263119936,-0.005141003057360649,0.0005311138811521231,0.4717842759937048,0.17299365749582649,-9.791721603870393
7.4,0.30000001192092896,358.0,24.66164207458496,0.08746951073408127,-79.78283945711851,40.45889076182017,270.1918674583435,0.01912589929997921,0.01726977899670601,0.8863891959190369,0.462223082780838,0.0038862833089573744,0.005872501648547562,4.831492136892576e-05,-0.0009879916906356812,0.0004656806122511625,0.004631082061678171,0.47487558927387,0.16813668608665466,-9.7935991448164
7.59,0.30000001192092896,357.0,24.65913963317871,0.09542128443717957,-79.78283951895817,40.45889067949053,270.2077137107849,0.0191235076636076,0.017270321026444442,0.8863871693611145,0.4622271656990051,0.007562251151374193,0.0052690723344530465,-0.00015627352207445928,0.0073360311798751346,0.002590757329016924,0.00515415845438838,0.4728312565013766,0.18101585464552045,-9.791873046755793
7.7,0.30000001192092896,1.0,24.6653995513916,0.07156596332788467,-79.7828395290254,40.458890681968924,270.2077256913185,0.0191235076636076,0.017270321026444442,0.8863871693611145,0.4622271656990051,0.0068625102148844,0.005536709869397004,-0.0003929716748137781,-0.0021544767078012232,-0.004118553362786771,0.0017007243586704135,0.4716826806217432,0.17437425820156932,-9.792251361608503
7.89,0.30000001192092896,6.0,24.6653995513916,0.06361418962478638,-79.78283957641146,40.45889058644109,270.223093378067,0.01912309043109417,0.01726765558123589,0.8863849043846129,0.4622316360473633,0.006435729960616438,0.006725305720194778,-0.0003189375674391286,0.00378567399457097,0.003304544370621443,-0.0012611768906936054,0.4715972016379237,0.17946508169174194,-9.791225759983064
8.0,0.30000001192092896,8.0,24.66164207458496,0.0,-79.78283963331377,40.45889050571451,270.23847852897643,0.01912187971174717,0.01726786606013775,0.8863849043846129,0.4622316956520081,0.008017695936780488,0.006189433388938841,-0.00020951226115596293,-0.003823748091235757,-0.002980508143082261,-0.0027717514894902697,0.4709985929355026,0.18169391239061952,-9.791583609580996
8.19,0.30000001192092896,9.0,24.66665077209473,0.0,-79.78283964492138,40.45889050862165,270.23848454904555,0.019122270867228508,0.017267676070332527,0.8863824009895325,0.4622364342212677,0.008611639693870932,0.006208985858399735,-0.0005673281181102637,0.005924095399677754,0.0035161282867193213,0.003046790137887001,0.4747252792865038,0.1696933976188302,-9.794027745723724
8.3,0.30000001192092896,10.0,24.66915512084961,0.015903547406196594,-79.78283972882373,40.45889039414857,270.2540287847519,0.01912032999098301,0.017257217317819595,0.8863808512687683,0.4622398614883423,0.00555116459082408,0.014850263043136906,-0.0007508059156756928,0.003423079615458846,0.0026714999694377184,0.0017322283238172533,0.4725779989734292,0.17619347317144274,-9.792411575317383
8.49,0.30000001192092896,8.0,24.66915512084961,0.0,-79.78283974693151,40.458890390361134,270.254019724846,0.01912032999098301,0.017257217317819595,0.8863808512687683,0.4622398614883423,0.005323546403468747,0.015066539153487766,-0.0010728132459071832,0.00025360408471897244,0.0007346437196247281,0.00045976779074408114,0.4741271091252566,0.16975588973611594,-9.793468167185784
8.6,0.30000001192092896,9.0,24.6653995513916,0.007951773703098297,-79.78283978083793,40.45889030059987,270.26950715732573,0.01912594400346279,0.0172592606395483,0.8863797187805176,0.4622417390346527,0.0030313424175902864,0.01055022939375759,-0.0008793456644166824,0.0027165133506059647,0.003008473198860884,0.005836691241711378,0.4714119910821319,0.1816787827201188,-9.790499535799027
8.79,0.30000001192092896,11.0,24.66289520263672,0.0,-79.78283979296272,40.45889029699312,270.26946567249297,0.01912594400346279,0.0172592606395483,0.8863797187805176,0.4622417390346527,0.0021092395183028305,0.010882455553394569,-0.001056668415802513,-0.006903588771820068,-0.002681093057617545,-0.00412050588056445,0.4714956428110601,0.17895186061039567,-9.79149297773838
8.89,0.30000001192092896,13.0,24.6653995513916,0.007951773703098297,-79.78283982663443,40.45889022511396,270.284545170784,0.01912641152739525,0.017262950539588928,0.8863775134086609,0.4622458219528198,0.0032291072459072656,0.007329533290243856,-0.001108249410454404,-0.00262244394980371,-0.003536773147061467,0.0002321600768482313,0.4724686560407281,0.1727321955934167,-9.792086470127106
9.09,0.30000001192092896,10.0,24.6653995513916,0.015903547406196594,-79.78283986469252,40.45889014685558,270.29979513835906,0.01912594959139824,0.017260869964957237,0.8863775730133057,0.4622457921504974,0.0038559233593228673,0.008155675122740458,-0.000779152032078235,-0.00021565839415416121,-0.0016886551165953279,-0.0033512050285935398,0.4720988927409053,0.1797111581079662,-9.790484917759896
9.2,0.30000001192092896,10.0,24.6653995513916,0.007951773703098297,-79.782839885822,40.45889014380217,270.299654709816,0.01912577077746392,0.01726134866476059,0.8863754868507385,0.4622496962547302,0.003229581839509799,0.008548178189731716,-0.0014430045109489144,-0.005960925947874785,-0.0004006611416116357,-0.006310668308287859,0.4725649158284068,0.18134329872205854,-9.79169996917248
9.39,0.30000001192092896,5.0,24.66289520263672,0.015903547406196594,-79.78283990239363,40.458890051626796,270.31503008556365,0.01913125067949295,0.017258336767554283,0.8863738179206848,0.4622527956962586,-0.0010449175697897566,0.008035845808101877,-0.0009140112035477564,0.0025269160978496075,0.002997136209160089,0.0051064807921648026,0.4746771493926645,0.17118175154551865,-9.792251361608503
9.5,0.30000001192092896,4.0,24.667903900146484,0.007951773703098297,-79.7828399093773,40.45889004628085,270.3149653549194,0.01913125067949295,0.017258336767554283,0.8863738179206848,0.4622527956962586,-0.0017961990136552515,0.008414210921098389,-0.001142965827102581,-0.0006636090110987425,-0.0001827975793275982,-0.0033065886236727238,0.4724438053742052,0.1742933108098805,-9.79155086517334
9.69,0.30000001192092896,358.0,24.667903900146484,0.007951773703098297,-79.782839957809,40.45888997319162,270.3304340119362,0.019128410145640373,0.017258649691939354,0.8863715529441833,0.4622573256492615,0.0009499820982701224,0.009055772551447938,-0.0010322149953401014,0.00016812542162369937,2.107328691636212e-05,0.0008061586995609107,0.4753425625339151,0.16778479333966972,-9.792876428961756
9.8,0.30000001192092896,357.0,24.667903900146484,0.0,-79.78284000017058,40.45888990347437,270.3454310173988,0.01912686973810196,0.017258761450648308,0.8863697052001953,0.462260901927948,0.0027002535658047296,0.009133442140574757,-0.0010653656442664123,0.005300152115523815,0.0026176741812378172,0.0020592089276760817,0.4743143662065268,0.17136053016409278,-9.792621490359306
9.99,0.30000001192092896,355.0,24.6653995513916,0.007951773703098297,-79.78284001069456,40.45888990031133,270.3453639919759,0.01912686973810196,0.017258761450648308,0.8863697052001953,0.462260901927948,0.001918351660230605,0.00942898985920839,-0.0013354921172840347,-0.005460171028971672,-0.002675896277651191,-0.0010983039392158393,0.4725396631658078,0.17391866873949768,-9.791815159320832
10.09,0.30000001192092896,357.0,24.664146423339844,0.0,-79.78284005167038,40.458889846506175,270.3602129395008,0.01912441477179528,0.017261989414691925,0.886367917060852,0.4622642993927002,0.005880621636773346,0.0075265067234818435,-0.0012858520735868552,0.0021041941363364467,0.0013457165332511067,0.0039635030552744865,0.4750914977118373,0.1685659265331924,-9.79346992135048
10.29,0.20000000298023224,355.0,24.667903900146484,0.015903547406196594,-79.78284006283243,40.45888984675443,270.3601172144413,0.01912441477179528,0.017261989414691925,0.886367917060852,0.4622642993927002,0.005192935972134951,0.007664304034025675,-0.0015015810229480587,-0.003896370064467192,-0.003036560490727425,-0.00591004965826869,0.4709532770141959,0.18019309658557173,-9.79148829996586
10.39,0.20000000298023224,353.0,24.6653995513916,0.007951773703098297,-79.7828400788475,40.458889780608175,270.3750335152149,0.01912819780409336,0.01726224459707737,0.8863657712936401,0.4622682631015778,0.0027547626171170398,0.005720858811170959,-0.0011959757228769414,-0.003121190471574664,-0.00222563068382442,-0.002753525739535689,0.4728949546068907,0.17192951906472445,-9.792092902064324
10.59,0.20000000298023224,344.0,24.6653995513916,0.0,-79.7828400881122,40.45888973311569,270.3899445707798,0.01912911236286164,0.017265889793634415,0.8863657116889954,0.4622682332992554,0.004375779327011597,0.0019169443601509894,-0.00044159614638471174,-0.0018387450836598875,0.0010657707462087274,-0.0029888867866247892,0.4715307626500726,0.1798791376501322,-9.791422226428988
10.7,0.20000000298023224,342.0,24.664146423339844,0.007951773703098297,-79.7828400978632,40.45888973732664,270.38983004045485,0.01912892423570156,0.017266521230340004,0.8863633871078491,0.4622725546360016,0.0036959947710659335,0.0022984919451818505,-0.0010271860689631076,-0.0049163829535245895,-0.0052385940216481686,-0.007914581336081028,0.4715460019558668,0.17836026856675746,-9.791049758791923
10.89,0.20000000298023224,336.0,24.6653995513916,0.007951773703098297,-79.78284014842556,40.45888967566548,270.4059590871334,0.0191230047494173,0.017261618748307228,0.8863615393638611,0.4622764885425568,0.006926788041298013,0.008071438049332653,0.002620862420310554,0.004615737590938807,0.00036653189454227686,0.004220127128064632,0.4737176578491926,0.17324210934340956,-9.792111028432847
10.99,0.20000000298023224,334.0,24.66665077209473,0.015903547406196594,-79.7828401834507,40.45888963193132,270.42166508984565,0.01912208274006844,0.017263362184166908,0.8863615989685059,0.4622763693332672,0.008472356181899048,0.007006000894836408,0.004687928949543385,0.0009974729036912322,0.0013322188751772044,-0.0026468746364116677,0.4728717484697701,0.1809896883554757,-9.790487256646156
11.19,0.20000000298023224,326.0,24.66665077209473,0.0,-79.7828401957793,40.45888963463194,270.42216737818717,0.01912221871316433,0.017263902351260185,0.8863596320152283,0.4622802436351776,0.00877182893520811,0.007129107443064956,0.0043549353827305615,0.004916595295071603,0.00013464923540595922,0.004990393761545421,0.4739537026360631,0.16866432420909405,-9.793595636487009
11.3,0.10000000149011612,324.0,24.66665077209473,0.007951773703098297,-79.78284022766748,40.458889560403684,270.4363519723415,0.019125696271657944,0.017257142812013626,0.8863573670387268,0.4622845649719238,0.0030100570800786525,0.01088500327748976,0.001921310367696585,0.003927590325474739,0.00320160249248147,0.0018008969491347673,0.473631776869297,0.1750955305248499,-9.792471801638603
11.49,0.10000000149011612,312.0,24.664146423339844,0.007951773703098297,-79.78284024005508,40.45888955670306,270.4365868742466,0.019125696271657944,0.017257142812013626,0.8863573670387268,0.4622845649719238,0.0025937578159032767,0.011219176449222948,0.0016090524494916602,0.0006932231481187046,-0.001510472036898136,0.0037265559658408174,0.4743326022103429,0.1686223338916898,-9.793215567469595
11.59,0.10000000149011612,307.0,24.66164207458496,0.0,-79.78284029170105,40.45888952032344,270.45085178565984,0.019120553508400917,0.01725938729941845,0.8863555192947388,0.4622882902622223,0.008467837553729714,0.011465251293847196,0.0005735695654066182,0.005974781233817339,0.0020786039531230927,0.0031685435678809877,0.4745552349463105,0.17097229331731795,-9.793082835674287
11.79,0.10000000149011612,292.0,24.6653995513916,0.0,-79.7828403083556,40.45888952029982,270.4509617562294,0.019120553508400917,0.01725938729941845,0.8863555192947388,0.4622882902622223,0.00775836129829058,0.011779653026146643,0.00021364513025997836,-0.002824854338541627,-0.0028399478178471327,-0.0019667951855808496,0.472107663564384,0.1745297575928271,-9.791436844468116
11.9,0.10000000149011612,283.0,24.667903900146484,0.0,-79.78284032164831,40.45888946180962,270.46476881456374,0.01912527158856392,0.017258565872907642,0.8863537907600403,0.462291419506073,0.0036467683587281608,0.010585646388759251,-0.0001432497374282277,0.0011794872116297483,-0.0029588111210614447,0.0049277585931122286,0.475592750273645,0.1680768800340593,-9.79391021668911
12.09,0.10000000149011612,271.0,24.66289520263672,0.007951773703098297,-79.78284033578991,40.45888941874857,270.4783638293743,0.01912529207766056,0.017259085550904274,0.8863537907600403,0.4622913599014282,0.0036915023283443774,0.010026461007043855,-4.964719165123424e-05,-0.0040953257121145725,-0.0009979484602808952,-0.004126485902816057,0.47135801397264004,0.1779486794024706,-9.79160992205143
12.2,0.10000000149011612,266.0,24.66289520263672,0.007951773703098297,-79.78284036072677,40.458889414195426,270.47839676094054,0.019125709310173992,0.01725904829800129,0.8863516449928284,0.4622955024242401,0.003963813651999453,0.010331640884390477,-0.0006673301249674438,0.0032995699439197783,-0.0013637313386425376,0.003220666665583849,0.4739002371579409,0.17041200214996935,-9.792517994642258
12.39,0.10000000149011612,257.0,24.66665077209473,0.015903547406196594,-79.7828403721418,40.45888937136827,270.49196733784675,0.01912521757185459,0.017260247841477394,0.8863500952720642,0.4622985422611237,0.0041625741410976115,0.009959953530282187,-0.00044118678843899474,-0.002204556949436665,-0.002716152695938945,-0.004992872942239046,0.4719110509380698,0.18234456131234766,-9.790594260692595
12.5,0.10000000149011612,251.0,24.67040634155273,0.007951773703098297,-79.78284041495172,40.45888932938357,270.50736101222043,0.01912141218781472,0.017258208245038986,0.8863503336906433,0.4622982740402222,0.0067082102655271385,0.013138851770734044,0.0033764612996909607,-0.001452405471354723,-0.0020082660485059023,-0.004375723656266928,0.4722789504379034,0.1719229044020176,-9.792163653373716
12.69,0.10000000149011612,244.0,24.66289520263672,-0.007951773703098297,-79.78284043202369,40.45888932770671,270.5077453131676,0.01912151463329792,0.017258159816265106,0.8863478899002075,0.4623029232025146,0.0066737948922944,0.013161830494173885,0.0029208857643813193,-0.0008819260401651262,-0.0006180623895488677,-0.004438468255102634,0.4711592451855541,0.18036445654928684,-9.79045860528946
12.79,0.10000000149011612,240.0,24.664146423339844,0.015903547406196594,-79.7828404557448,40.45888927342518,270.5227187151909,0.019124597311019897,0.017256421968340874,0.8863459825515747,0.4623066186904907,0.0028878438519020304,0.014152140912732338,0.0048992795996476044,-0.0048306770622730255,-0.005257062613964082,-0.0039044404402375217,0.4722575350105762,0.17630575798451895,-9.79089890062809
12.99,0.20000000298023224,237.0,24.65913963317871,-0.015903547406196594,-79.78284047121598,40.45888926857105,270.5232583756447,0.019124597311019897,0.017256421968340874,0.8863459825515747,0.4623066186904907,0.003260813736934311,0.014057957415000148,0.004493303942788432,0.0017364358063787222,0.0010656309314072132,-0.00039909614133648574,0.4723457548767329,0.17891202645376325,-9.791061453223225
13.09,0.20000000298023224,238.0,24.65913963317871,-0.007951773703098297,-79.78284049096672,40.45888925827033,270.53653018426894,0.019121287390589714,0.01726512424647808,0.886343777179718,0.4623105823993683,0.0085396841236457,0.008996546938717778,0.0028907734906289816,-0.004846699070185423,-0.0014327047392725945,-0.0015245832037180662,0.4718588645383716,0.17829704554751516,-9.791227514147756
13.29,0.20000000298023224,240.0,24.664146423339844,0.0,-79.78284050542034,40.458889260229256,270.5368533606529,0.019121287390589714,0.01726512424647808,0.886343777179718,0.4623105823993683,0.009043222860162558,0.008930407106014369,0.00246323326919163,0.005023220553994179,0.0022859291639178987,-0.0006477187853306532,0.4733299143612385,0.17501001499593258,-9.79170581638813
13.39,0.20000000298023224,241.0,24.66164207458496,0.007951773703098297,-79.7828404945253,40.458889202308704,270.54967944574355,0.019129853695631027,0.017261911183595657,0.8863412737846375,0.462315171957016,0.0012237632528623857,0.008236714244361629,0.0013797072161995285,-0.005927490070462228,-0.0023686718195676804,-0.004106543958187103,0.4720333308354021,0.18134212927892804,-9.791175473928453
13.59,0.20000000298023224,244.0,24.66039085388184,0.0,-79.78284050016116,40.4588891554315,270.5645072336197,0.01913097128272057,0.017257703468203545,0.8863415122032166,0.462314784526825,-0.00022463964500862377,0.011007589651929077,0.004861138440379304,-0.0012053371174260974,0.002826353535056114,0.0013097613118588929,0.4746246340870858,0.17241920510306954,-9.79152747631073
13.69,0.20000000298023224,245.0,24.657886505126953,0.007951773703098297,-79.78284052033776,40.458889142963706,270.56552811217307,0.019130012020468712,0.017258955165743828,0.8863394260406494,0.4623188078403473,-0.0012030028557917006,0.011386774634538192,0.004316502046025802,-0.0036843570414930578,0.0020087775774300107,-0.006188339553773403,0.4703021164610982,0.180483557023108,-9.790691324472427
13.9,0.20000000298023224,248.0,24.66039085388184,-0.02385532110929489,-79.78284052061463,40.458889117133054,270.5793285841942,0.019129090011119843,0.017260340973734856,0.886337399482727,0.4623227417469025,0.0009107501229973924,0.010781658005863571,0.0058492398376919046,0.005335475318133831,0.0025884329807013273,-3.300049138488248e-05,0.4748068844899536,0.1705522805079818,-9.793863438963893
14.0,0.20000000298023224,250.0,24.667903900146484,0.0,-79.7828405289419,40.458889099715854,270.59211837005614,0.019126597791910168,0.017264993861317638,0.8863372802734375,0.462322860956192,0.004414481087315279,0.008476060943621128,0.003945077088177529,-0.0016146170673891902,1.9969111235695888e-05,-0.002822092035785317,0.4724730414524675,0.18021917151287198,-9.792447828054428
14.2,0.30000001192092896,256.0,24.66289520263672,-0.007951773703098297,-79.78284053994936,40.45888909867747,270.59255254518985,0.01912637054920196,0.017265548929572102,0.8863349556922913,0.4623273313045502,0.004668674066493756,0.008577601534560202,0.003696941521705506,0.006634800229221582,0.0020384746603667736,0.004418638534843922,0.475579155497253,0.1686017955467105,-9.79328047156334
14.29,0.30000001192092896,258.0,24.64787101745605,0.3896369338035584,-79.78284052571641,40.458889090362135,270.60686618340014,0.01912755519151688,0.017272613942623142,0.8863332271575928,0.4623302817344666,0.005600974085578705,0.003500901989021745,0.006141704383207514,0.001825435436330736,-0.003315784735605121,-0.0021508270874619484,0.4718814128637314,0.1772514902986586,-9.790417674779894
14.5,0.30000001192092896,261.0,24.654130935668945,0.3180709481239319,-79.78284053252017,40.458889092562345,270.60749803733825,0.01912755519151688,0.017272613942623142,0.8863332271575928,0.4623302817344666,0.005688681740121023,0.0034825009654815197,0.005883940739030065,0.0003495918936096132,0.006098866928368807,0.009915879927575588,0.4723802169039846,0.1694988315179944,-9.793193348050117
14.6,0.30000001192092896,261.0,24.64787101745605,0.3101191818714142,-79.78284054003088,40.458889068469894,270.6221140499115,0.019164999946951863,0.017259186133742332,0.8863439559936523,0.4623087048530578,0.005474467534993666,0.00635817556813081,0.007476973811993856,0.0021456656977534294,0.0023779910989105697,-0.0009202258079312742,0.4740623877570033,0.1784568389877677,-9.792357780933381
14.79,0.30000001192092896,261.0,24.650373458862305,0.2942156493663788,-79.7828405489358,40.45888906904261,270.6228958393335,0.019162688404321667,0.01726008579134941,0.8863514065742493,0.4622943699359894,0.004721357275241503,0.006565350640794034,0.007356238389528418,0.002489206148311496,0.005174426361918449,0.002669478300958872,0.4777316252142192,0.1655272199213505,-9.794653982520103
14.89,0.30000001192092896,258.0,24.64787101745605,0.3101191818714142,-79.78284053096716,40.45888905076431,270.63501696538924,0.019179075956344604,0.017305558547377586,0.8863592743873596,0.4622769355773926,0.003534873918445293,0.004628462287962499,0.00550317912752501,0.0006659693899564445,0.0015145818470045926,0.00462267454713583,0.4747041562199593,0.172222884837538,-9.79273960411549
15.09,0.30000001192092896,258.0,24.646617889404297,0.3498780429363251,-79.78284054148271,40.458889034779865,270.64775060367583,0.019188418984413147,0.017302334308624268,0.8863598108291626,0.4622757136821747,0.006157810099024759,0.009648373112292084,0.007166506297428238,-0.003974754828959704,-0.0048220190219581145,-0.00442180223762989,0.4695258620381356,0.17791514927521349,-9.790728161931039
15.2,0.30000001192092896,258.0,24.64286231994629,0.3896369338035584,-79.7828405684715,40.45888903406731,270.6492564703226,0.01918118447065353,0.01728154718875885,0.886352002620697,0.4622918367385864,0.006579109764108042,0.010244401647060794,0.006672068268383034,0.0029519600793719287,0.0008868163567967713,0.005167390685528517,0.4747396049648524,0.16843229938298465,-9.792421515583992
15.39,0.4000000059604645,258.0,24.64286231994629,0.4612028896808624,-79.78284053000161,40.458889023062476,270.65990613651275,0.0191673506051302,0.01729118824005127,0.8863486051559448,0.4622983932495117,0.003088974465734529,0.006955383914589124,0.004341962098396242,-0.006561267655342817,-0.0038052315358072532,-0.004046272952109575,0.4782798016816378,0.17500573921948673,-9.791978881359102
15.49,0.4000000059604645,262.0,23.97051048278809,11.045014381408693,-79.78284052093505,40.458889000002905,270.6710450078249,0.01915762200951576,0.01734394952654839,0.8863333463668823,0.4623260796070099,1.9265091221043525e-05,0.010291144476822157,0.002717159490919243,0.004182400647550821,-0.007309921085834503,0.0008280418114736676,0.4808311245962978,0.13329709315672514,-9.798534194827079
15.69,0.4000000059604645,264.0,24.63534927368164,0.3419262766838074,-79.78284053065373,40.4588889966532,270.671427818656,0.01883390173316002,0.01750968582928181,0.8863812088966371,0.4622414112091065,0.00032273587046031504,0.009093549673822287,0.003479042764159345,-0.021804193034768105,0.010857604444026949,-0.0044193831272423285,0.4788280146941543,0.2539039741829038,-9.784202084541322
15.8,0.4000000059604645,264.0,24.645366668701172,0.2544567584991455,-79.78284048366542,40.45888897458128,270.6839622284174,0.018866673111915592,0.017579426988959312,0.8863806128501892,0.4622385799884796,-0.0055075924618358104,0.004775534643721751,0.002815164324713215,-0.006250743288546801,0.027953466400504112,0.0015692609595134856,0.4840950403735042,0.16471918953582645,-9.792363628149033
15.99,0.4000000059604645,266.0,24.61656951904297,0.9065022468566896,-79.78284048668573,40.45888896725224,270.6843923653364,0.01879776082932949,0.01763181947171688,0.8863677978515625,0.4622639119625092,-0.003085147526824181,0.006690607421248322,0.005183503337283177,0.024420954287052155,0.019252538681030273,-0.017224114388227463,0.52078273717314,0.17853416841477154,-9.820749521255491
16.09,0.4000000059604645,269.0,24.64035797119141,0.326022744178772,-79.78284049240591,40.45888897846292,270.69545923423766,0.01862845942378044,0.017741601914167404,0.88637375831604,0.4622550904750824,-0.0017896943011981852,0.0089016949988119,0.0012200899839119427,-0.024458426982164383,0.016869952902197838,-0.01265827100723982,0.5008934331312775,0.2075376554019749,-9.779783343672753
16.22,0.4000000059604645,275.0,24.64035797119141,0.2465049922466278,-79.78284050291583,40.458888973658574,270.6956199879646,0.01878070831298828,0.017626339569687843,0.8863651752471924,0.4622698724269867,-0.0016871430081189436,0.012670800820748592,0.0008190806016794963,-0.029292745515704155,-0.03022262267768383,0.012426537461578846,0.4663018169626594,0.2051154828630388,-9.789589709043502
16.39,0.4000000059604645,280.0,24.51014518737793,2.7433619499206543,-79.78284047810126,40.45888900030349,270.70587538433074,0.0189844723790884,0.017538048326969147,0.8863531351089478,0.4622881412506104,0.005492436980150392,0.006809797263260146,0.0016063726713970875,-0.0008231169194914403,0.00988315511494875,-0.008227167651057243,0.4802843368425966,0.2038573630526662,-9.802120292186736
16.59,0.4000000059604645,289.0,24.3974609375,5.144797801971436,-79.78284044062221,40.45888901430188,270.7181209723353,0.01894289441406727,0.01750907488167286,0.8863623142242432,0.4622732698917389,0.004862240703752832,0.006900565761647557,0.005393774719035118,-0.005141304340213536,0.004299988970160484,-0.002290697768330574,0.4798521545156837,0.17602057831361892,-9.799872037768363
16.69,0.4000000059604645,289.0,24.339866638183594,6.4011778831481925,-79.78284045085526,40.458889015079656,270.7187448914051,0.018868511542677883,0.017554910853505138,0.8863820433616638,0.4622366428375244,0.005297315358650361,0.005151654544513424,0.005831120031750407,-0.008245670236647129,0.023137582466006282,0.0005789776332676411,0.4871602969989181,0.14451181523501874,-9.81593141555786
16.89,0.5,295.0,24.22843360900879,8.810565948486328,-79.78284039308016,40.45888902807349,270.72884286445384,0.01813717745244503,0.017881643027067184,0.8864324688911438,0.4621568322181702,-0.00020336454764078985,0.0023655760316118003,0.004103339087331622,-0.020850986242294308,-0.006372654810547829,0.007832957431674005,0.4558238623291254,0.2535658223927021,-9.782261978387831
16.99,0.5,298.0,24.150806427001953,10.329354286193848,-79.78284034103645,40.45888906031396,270.73915095132594,0.01700301468372345,0.0183625053614378,0.8864171504974365,0.4622104167938232,0.007645677164191269,0.006072481975161229,0.007485479392231606,-0.002529199933633209,0.08611077815294266,0.040104981511831284,0.365183139257133,0.08832307864911855,-9.788837757110596
17.19,0.5,301.0,24.001811981201172,13.27151107788086,-79.7828403482998,40.458889066153716,270.73971650999783,0.016069712117314342,0.018959259614348408,0.8864358067512512,0.4621839225292206,0.013734588320491835,-0.003028576991801423,0.00465534108812804,0.04392481222748757,0.06260920315980911,0.0010713801020756364,0.3839885522425175,0.15206633563153446,-9.763362023234368
17.3,0.5,307.0,23.920429229736328,14.949335098266602,-79.78284028967438,40.45888909982121,270.74812125664954,0.014616580680012703,0.0193023718893528,0.8864206671714783,0.4622468948364258,0.0009559947973212414,-0.003166418704787671,0.004744270369644375,0.00977931544184685,0.053718220442533486,-0.060019738972187035,0.4359801300242544,0.0012892470974475146,-9.850643996000288
17.49,0.5,309.0,23.737628936767567,18.71052360534668,-79.78284028850365,40.45888909520069,270.7486753190756,0.015102592296898363,0.01855825446546077,0.8863384127616882,0.4624195396900177,-0.0136635293655277,0.003807286347120871,0.008903104555825353,-0.0258241817355156,-0.05178484693169594,0.0018518498400226235,0.5160233229026199,0.026916195452213288,-9.885273545980453
17.59,0.6000000238418579,304.0,23.65749740600586,20.539432525634766,-79.78284023031112,40.458889137739604,270.75774601352214,0.01651972346007824,0.008426161482930183,0.8857378363609314,0.4638153612613678,-0.01961088450279941,0.010361173824466014,0.04072676699820965,-0.04198532551527023,-0.08078128099441527,-0.020237443968653682,0.3237218486890197,-0.048605619650334116,-10.013426971435546
17.8,0.6000000238418579,305.0,23.42586898803711,24.61869239807129,-79.78284019714538,40.45888910607536,270.7641564185619,0.019887765869498253,0.0008031852776184678,0.8856525421142578,0.4639220237731934,-0.0640808500877833,-0.011919220366475584,0.09993541611922677,-0.1787339597940445,-0.13638082146644592,-0.015895426273345947,-0.03889026070944965,-0.002591988472267985,-10.27672241449356
17.9,0.699999988079071,310.0,23.822769165039066,16.08643913269043,-79.7828399772913,40.458889097822144,270.8070033646077,0.02103827334940433,-0.01028891373425722,0.886063277721405,0.4629725515842438,-0.11069426100346123,0.004728085391945879,0.33713851357093083,0.19108454883098602,-0.14230890572071075,-0.04791032522916794,0.035366463605314494,0.20990287240594627,-11.056454468965534
18.09,0.8000000119209291,309.0,23.726360321044922,18.527633666992188,-79.78283971086212,40.45888889647985,270.8406364989355,0.007037474308162929,-0.0056264298036694535,0.8864628076553345,0.4627122282981873,-0.13883270598899766,0.005406571837575133,0.3289028514435478,0.3040241599082947,-0.03990335762500763,0.07158622145652771,0.13334021637216212,-0.07016486107371747,-10.183440613746644
18.19,0.8000000119209291,308.0,23.70382308959961,18.74233055114746,-79.78283948100268,40.45888862236955,270.9018810863495,1.2791533663403246e-05,0.004013974685221911,0.8866140246391296,0.4624926447868347,-0.17937811357345726,0.013841868037790904,0.2673483559048115,0.1443079262971878,0.043521225452423096,0.01561109349131584,-0.01886292126495391,-0.08924428006634116,-9.423166923522947
18.39,1.0,313.0,23.62619781494141,19.94304847717285,-79.78283953514892,40.458888306694064,270.91685451072453,-0.001383617869578302,0.008963225409388542,0.8865002989768982,0.4626392126083374,-0.16909727257002574,0.024552842803138908,0.18605151507725146,0.09314843267202376,0.04603296145796777,0.01834637857973576,0.08029767466709019,0.0274794833175838,-9.3874199706316
18.5,1.0,313.0,23.606164932250977,20.110036849975586,-79.78283914961936,40.45888824945681,270.9694403733015,-0.0060188593342900285,0.014653935097157957,0.8861260414123535,0.4631734788417816,-0.12830745192753928,-0.00939810995132373,0.1257732700944962,0.13222837448120114,0.02438711188733577,0.060946408659219735,0.1931417921930552,-0.0708787330146879,-9.52269998252392
18.69,1.100000023841858,309.0,23.59990310668945,20.40425109863281,-79.78283905143623,40.45888815914764,270.98120944452285,-0.007468598894774914,0.014427517540752888,0.8859736919403076,0.4634508788585663,-0.13085242563197072,-0.010264951447619332,0.10978372403022957,-0.05088144540786743,-0.08651472628116608,0.03326259180903435,0.11189734367653728,-0.2168557599931956,-9.596888285279274
18.8,1.100000023841858,305.0,23.52102470397949,22.11388397216797,-79.7828388504559,40.4588878324268,271.0348927105665,-0.002438725670799613,0.009319674223661423,0.8857214450836182,0.4641172289848328,-0.13310378574733026,0.013483665032811969,0.1327181997274715,-0.11972086131572725,-0.055344633758068085,0.028944455087184906,0.19578614065423608,-0.03760502900462598,-9.879968951940537
18.99,1.2000000476837158,292.0,23.58112335205078,20.49967384338379,-79.78283878170706,40.45888773795552,271.0499584699869,-0.0018719336949288843,0.006764980498701334,0.8858425617218018,0.4639329612255096,-0.11840061841416542,0.016622960209627148,0.16571860304763034,0.014395969919860363,-0.04275612160563469,0.025077406316995617,0.19020495504140847,-0.038391854097135365,-10.03880622625351
19.1,1.2999999523162842,289.0,23.48346328735352,22.2331600189209,-79.78283856914166,40.45888756908249,271.0995941932201,-0.005748933181166649,0.008711020462214947,0.8867264986038208,0.4621767401695252,-0.1029219054509884,0.01807179001954,0.2294612263970933,0.06284283846616745,0.020291838794946667,-0.07378973066806792,0.09053489760495724,0.06644669429864734,-10.099938865900038
19.29,1.2999999523162842,282.0,23.56234169006348,20.491722106933594,-79.78283852793534,40.45888749272661,271.12441109371184,-0.008121668361127377,0.010652421973645687,0.8872168660163879,0.4611581563949585,-0.08501542495613419,0.02446080916175793,0.2633435338249016,-0.007823517546057701,0.051758043467998505,-0.0768493264913559,0.10234311207197606,0.01674635025439784,-10.095614265203476
19.39,1.399999976158142,265.0,23.517269134521484,21.39027214050293,-79.78283838310823,40.45888727055353,271.1414050633907,-0.00904164370149374,0.010631087236106396,0.887669026851654,0.4602706134319306,-0.09166795987544124,0.0338300957142987,0.2597707362243225,-0.03385946899652481,0.03853051364421845,-0.02315753698348999,0.1169315953552723,0.020774355505127462,-10.066026184558867
19.5,1.399999976158142,262.0,23.503496170043945,21.962799072265625,-79.78283824927877,40.45888709967539,271.1902558679581,-0.009104525670409204,0.009416764602065086,0.8877738714218141,0.4600935578346253,-0.04594830306779159,0.05245622132684799,0.2437691143350334,0.07889571785926819,-0.0239285659044981,0.0232040174305439,0.1500407322216779,-0.09233097039163113,-9.895096868276596
19.59,1.2999999523162842,257.0,23.55858612060547,20.467866897583008,-79.78283827106742,40.45888704019042,271.215342628479,-0.0061401883140206346,0.007262921892106533,0.8875227570533752,0.4606659114360809,-0.028939515168676988,0.05683680375713108,0.252483656368276,0.04475414752960205,-0.03223579376935959,0.05744611099362373,0.14093309998512268,-0.19341345017775893,-9.896318936347962
19.8,1.2999999523162842,259.0,23.98553466796875,12.865970611572266,-79.78283796965106,40.45888714371189,271.27657489728927,0.0011383675737306476,0.0073060388676822186,0.8864032030105591,0.4628550410270691,-0.0030043646697386663,0.00326379927542043,0.21746683960107074,-0.068147674202919,0.04174084961414337,0.012657360173761843,0.16549049209803346,-0.024232519897632303,-9.333797494769096
19.99,1.2999999523162842,261.0,23.3782901763916,23.10785484313965,-79.78283797368749,40.45888714579053,271.29140503954886,0.00240860995836556,0.007324747741222382,0.8859123587608337,0.4637885987758637,-0.0058624191294613754,0.0034126212983475964,0.0875098080348938,-0.09539475291967392,0.0233861654996872,-0.021275302395224568,0.1858697379939258,0.06677261718548835,-8.846087084412575
20.09,1.2999999523162842,256.0,23.25183296203613,25.827362060546875,-79.78283795786496,40.45888725196147,271.33056099963187,0.002929768757894635,0.006477351766079664,0.8847419619560242,0.4660269916057586,0.016244484158703238,0.001673306874879774,0.15965648221741258,0.17432764172554016,0.03805952146649362,0.05573128908872605,0.158537421785295,-0.07263168258592488,-10.315908114910126
20.29,1.399999976158142,260.0,23.25934600830078,25.93868637084961,-79.78283796363431,40.45888725383936,271.35197745513915,0.0013094209134578705,0.00609247386455536,0.8843395709991455,0.4668028354644776,-0.006178572268155535,0.00017399650480300592,0.2742117537933637,-0.06495825201272963,0.1131565123796463,-0.016036685556173325,0.1555838104337454,0.19559124564751984,-10.785681606531146
20.4,1.399999976158142,266.0,23.14666175842285,27.457475662231445,-79.78283806915387,40.458887266192015,271.45038144540786,-0.0001887760299723596,0.006202496588230133,0.8839319944381714,0.4675744771957398,-0.009225998777476192,0.007047172946280771,0.6124288193030107,0.1336577832698822,0.11539497971534728,0.07718567550182343,0.1977246205508709,-0.13573396596126258,-11.493643766641615
20.59,1.399999976158142,275.0,23.0076847076416,31.40155601501465,-79.78283807395347,40.45888728980983,271.51589553308486,-0.0014809672720730305,0.006479759234935045,0.883895754814148,0.46763676404953003,-0.018618648275345817,0.021044556884794414,0.7659527441755233,0.05824201926589013,-0.07385128736495973,-0.040712039917707436,0.10365419486537576,-0.15032213861122729,-11.577937227487563
20.7,1.399999976158142,277.0,23.03773307800293,29.33409309387207,-79.78283807413196,40.45888727281627,271.6015409107208,-0.002569841453805566,0.005013107322156429,0.8839360475540161,0.4675740599632263,-0.03309891278029884,0.02143485918429581,0.9539231168269604,-0.11726058274507525,0.003387754783034325,-0.01785205863416195,0.05076660894323141,0.02959059768822044,-11.67669202208519
20.79,1.399999976158142,283.0,23.14165306091309,27.7596435546875,-79.78283806657909,40.45888733139866,271.8359704489708,-0.003590781008824706,0.0031968548428267236,0.8839754462242126,0.4675085842609406,-0.01005213459660141,0.018789233857341985,1.3920667078918731,0.045217175036668784,0.026423843577504158,-0.00897083431482315,0.11763780196197332,-0.02575127934571356,-12.078505665063858
21.0,1.5,287.0,22.816120147705078,34.129013061523445,-79.78283807242997,40.458887397830495,272.1523464794159,-0.00572438631206751,0.006858623586595058,0.8839798569679259,0.467439591884613,-0.00020996398549431522,0.029323873918133094,1.7911552147838978,0.10266417264938353,0.02769891545176506,0.016063973307609558,0.08860446676611901,-0.14414282851852478,-12.114913938045502
21.09,1.5,287.0,22.94257736206055,30.510955810546875,-79.78283811209731,40.4588874051708,272.34502612304686,-0.00394013337790966,0.007052935194224118,0.8839465379714966,0.4675182104110718,-0.00408080782455564,0.036105059184833865,2.061873987182655,-0.09896820038557053,0.002046303590759635,-0.010592839680612087,0.0607654345035553,0.006450127540156245,-12.38841511130333
21.29,1.600000023841858,274.0,22.79608726501465,34.03359222412109,-79.78283816383883,40.45888742116516,272.56277583789824,-0.0011767653049901128,0.005799798294901848,0.8842753767967224,0.4669283926486969,0.0062591447087740225,0.04895655697982772,2.2782387245979043,-0.18648110330104828,0.0008222159813158214,-0.0774601548910141,0.06444146934896708,0.1445769385993481,-11.99563307762146
21.49,1.7999999523162842,261.0,23.102840423583984,27.9266300201416,-79.78283829517784,40.458887584235185,273.04171477508544,0.0007682167924940586,0.003055310109630227,0.885716438293457,0.4642159640789032,0.055287314185768016,0.05078853446788747,2.697467403505683,-0.05892205610871315,0.0004923458909615874,-0.041711371392011636,0.023224665485322475,0.06687457344029099,-12.042346483469007
21.59,1.8999999761581416,255.0,23.069034576416016,28.16518402099609,-79.78283844784312,40.458887773902376,273.5788344020844,0.005198856815695764,0.0039518680423498145,0.8870915770530701,0.4615474045276642,0.08514924978004726,0.04255371668924345,2.9441947900679386,0.00594161218032241,0.14341923594474792,-0.030709970742464062,0.0860159226693213,0.02490434213541448,-11.204615896940231
21.69,2.0999999046325684,244.0,23.369525909423828,22.535327911376953,-79.78283851707545,40.45888781738251,273.87854896736144,0.009886337444186207,0.005084292963147163,0.8875200152397156,0.4606350958347321,0.09438568115624547,0.052289747114346516,3.029490391177855,-0.010149781592190266,-0.004556726664304732,0.008400865830481052,0.18957541091367602,-0.08907754305750132,-10.769153866767883
21.9,2.0999999046325684,235.0,23.27311897277832,24.24495887756348,-79.78283864368093,40.45888797191096,274.13492380332946,0.012428739108145235,0.0065077911131083965,0.8875131607055664,0.4605689346790314,0.10174135460558012,0.06263578667321365,3.0036984195229484,-0.08048620074987411,0.09979743510484697,-0.005204654298722744,0.09800012005493046,0.2721093714796007,-10.119829924106599
22.09,2.200000047683716,225.0,23.20676040649414,25.262784957885746,-79.78283888612756,40.458888157726825,274.65359960746764,0.014191766269505026,0.005445798393338919,0.8864167332649231,0.4626386165618897,0.12005410257051508,0.06580807461809783,2.9366815490377216,0.18753722310066226,-0.12600047886371613,0.14820238947868347,0.13465708242729307,-0.2820982613414526,-9.920782517194748
22.2,2.299999952316284,220.0,23.21427154541016,24.722064971923828,-79.78283889410768,40.45888819575231,274.94891606521605,0.015346584841609,0.0048127807676792145,0.8854149580001831,0.4645231664180756,0.08429552377120679,0.03845306588668243,2.9659951414308905,-0.034031394869089134,0.08857899904251099,0.03450009599328041,0.12370881979353725,0.27165469564497474,-10.057744188308718
22.3,2.4000000953674316,210.0,23.311931610107425,23.147613525390625,-79.78283921925645,40.458888459281,275.45425091934203,0.015776898711919785,0.006385382730513811,0.8845341205596924,0.4661649465560913,0.10806216398004778,0.024435751667733457,2.9256866330614706,0.2293865829706192,0.04690519347786904,0.08455696702003479,0.2333026254549623,-0.11813953874632716,-9.981694132089617
22.49,2.5,206.0,23.2568416595459,24.491464614868164,-79.78283965968419,40.45888856562989,275.8690763587952,0.01262535247951746,0.0042700651101768025,0.8852132558822632,0.4649946391582489,0.058689732126541376,0.0329561477835317,2.8266390307802114,0.07321245223283768,-0.18252840638160706,-0.004889937583357096,0.03961880550719798,-0.1261771396547556,-9.854465736150743
22.6,2.5,200.0,23.31318473815918,22.77388000488281,-79.78283961248223,40.45888858573939,276.1519919509888,0.00993943866342306,0.004277720581740141,0.8852912783622742,0.4649111926555634,0.06627842182451398,-0.000700014454538142,2.8249397593653662,0.30009764432907104,-0.06345786899328232,0.116689495742321,0.07843363713473082,-0.2699352487921715,-9.83757663846016
22.79,2.5999999046325684,196.0,23.340728759765625,22.20135307312012,-79.78283954876912,40.45888860695383,276.4342533226013,0.00971428956836462,0.005043015815317632,0.8849928379058838,0.4654759764671326,0.02815807382755413,-0.019718793014827308,2.819220082704077,0.05824073776602745,0.11428128927946092,0.017136063426733017,0.10561765333637596,0.16894919324666266,-9.735538632273675
22.99,2.700000047683716,198.0,23.25058174133301,23.88712882995605,-79.78283938330584,40.45888865534217,276.9238773460388,0.010840263217687609,0.004338858649134636,0.8849090933799744,0.4656175076961517,0.0183959250848548,-0.016826874619371383,2.709824261592042,-0.1482459306716919,-0.05166327580809593,-0.0755157396197319,0.03525267130695284,0.1209069710969925,-9.499197099208832
23.1,2.700000047683716,199.0,23.30316734313965,22.71026611328125,-79.7828385275629,40.45888861504749,277.6858736152649,0.012214682064950466,-0.0003245924308430404,0.8855515122413635,0.4643806517124176,0.05115945122606146,-0.08001327508119607,2.7635890968126366,0.17034760117530826,-0.02730632573366165,0.026482941582798958,0.12525052956305446,0.010558043215423822,-9.7540707975626
23.2,2.700000047683716,198.0,23.234304428100586,23.577009201049805,-79.78283839973889,40.45888866559875,277.96181117248534,0.01066720299422741,-0.0018629301339387887,0.8856809139251709,0.4641682207584381,0.04017036875285745,-0.10000353054808776,2.757162512355414,0.03341963514685632,0.05050114169716835,0.03218399360775948,0.07688377780839803,0.1845449416525662,-9.774737781286241
23.4,2.799999952316284,195.0,23.36076164245605,21.8355712890625,-79.78283784325919,40.45888849311217,278.60851679992675,0.006640523206442594,-0.0007297756965272129,0.8853773474693298,0.4648252725601196,-0.002793810016123225,-0.1037353169670538,2.7706845910567943,-0.1422615498304367,-0.13784721493721008,-0.04617490246891976,-0.016412090517114848,0.316780728623271,-9.597386468052862
23.5,2.9000000953674316,193.0,23.295656204223643,22.41604995727539,-79.78283743794934,40.45888815037738,279.0418463821411,0.004007227253168821,-0.000646855856757611,0.8848724961280823,0.4658158123493194,-0.010301258096981136,-0.09247825754550916,2.804152714302084,0.17611734569072726,-0.1417412906885147,0.1034858226776123,0.08158611777238549,-0.040588483996689316,-9.576096755862237
23.7,3.0,194.0,23.29690742492676,23.64062309265137,-79.7828373017784,40.45888816513047,279.32018099975585,0.0022126864641904827,-0.002684695878997445,0.8847745060920715,0.4660063982009888,-0.02912669930760153,-0.09333232371479168,2.7618866277711054,0.04138454049825668,-0.011387948878109457,-0.0021411986090242863,0.13981709492392838,0.2756557260453701,-9.415767272114756
23.79,3.0999999046325684,195.0,23.22554016113281,23.282794952392567,-79.78283703447222,40.458888287119976,280.000724899292,0.010142412036657332,-0.006786252837628126,0.8861590623855591,0.463220477104187,-0.021679771749066885,-0.10626318661411556,2.765974933246752,-0.21016594767570496,0.01806475780904293,-0.051860421895980835,-0.14827321029268206,0.2273370950482786,-9.529679219126702
24.01,3.0999999046325684,196.0,23.25934600830078,24.11773109436035,-79.78283679117389,40.45888839819352,280.6577092285156,0.006871097721159458,-0.004138377960771322,0.8862785100936891,0.4630831778049469,0.02929053435349045,-0.0700138080773976,2.7508941182846347,0.3119871914386749,-0.10619016736745834,0.05231667309999466,0.15264655301347374,-0.1882478005997837,-9.531214697957038
24.09,3.2000000476837163,202.0,23.19048309326172,24.809534072875977,-79.78283668119134,40.45888838518117,280.93046389770507,0.003534424351528287,-0.00735669443383813,0.8866473436355591,0.462374210357666,-0.020549626994368436,-0.07053987483304812,2.7030208256771417,0.1790515035390854,-0.033089466392993934,-0.04113779962062837,0.10528512035496533,-0.0795515151321888,-9.397915722727776
24.29,3.2000000476837163,213.0,23.16794586181641,24.78567886352539,-79.78283655879588,40.45888835806228,281.19945441436766,0.004994351416826247,-0.005728339310735464,0.8871956467628479,0.4613308012485504,-0.04945843433289932,-0.09630898487000138,2.679312118940141,0.11403916776180267,0.14125633239746094,0.06126200407743454,-0.0266500671976246,-0.11946112825535238,-9.531795326471327
24.49,3.2000000476837163,223.0,23.155426025390625,24.32447624206543,-79.78283644600806,40.458888474532216,281.8605147476196,-0.00064278015634045,0.0016993122408166528,0.8872792720794678,0.4612292349338532,-0.07281843592651087,-0.03192435792852005,2.6833808887618282,0.12006955593824388,-0.008833766914904121,0.0025690742768347268,0.2070582568086684,0.06640310056507588,-9.550465486049653
24.6,3.2000000476837163,226.0,23.10158729553223,25.668325424194336,-79.78283629552263,40.45888865510814,282.5408583755493,-0.009696159511804579,0.002755887806415558,0.8850432634353638,0.4653998017311096,-0.11673643812789132,-0.05058713558647898,2.732717187710832,-0.09667614102363586,-0.006962182465940714,0.0011843491811305285,-0.13555467571131885,-0.1885619970783592,-9.7421436470747
24.69,3.299999952316284,235.0,23.0715389251709,26.02615547180176,-79.7828362143714,40.45888862609311,282.81438647460936,-0.00735506834462285,0.00378289888612926,0.8838062882423401,0.4677800834178925,-0.10489286311822353,-0.051891724306230264,2.737993381191936,0.0590742789208889,0.05185019224882127,0.07160453498363495,0.07949645994231105,-0.14988480342552066,-9.919083316326144
24.89,3.299999952316284,235.0,23.09282302856445,26.71000862121582,-79.78283606596746,40.45888863881585,283.26242362213134,-0.004666462540626526,0.003097736043855548,0.8832474946975708,0.4688735902309418,-0.07677250220509803,-0.03756846925019424,2.8569650238167403,-0.008753069676458836,-0.05806934833526611,-0.04637177288532257,-0.03820408081635833,-0.0724229141464457,-10.009512845277788
25.1,3.299999952316284,243.0,23.162939071655273,24.451704025268555,-79.78283574696964,40.458888546403905,283.92813216400145,-0.0020961416885256767,-0.005284762475639582,0.8842363953590393,0.4670051336288452,-0.04989002337428877,-0.047076577000586095,2.924931427248686,-0.0007543016690760853,-0.027674406766891483,-0.02280727028846741,0.07263149072416128,-0.0488122547697276,-10.061789292097092
25.19,3.299999952316284,247.0,23.126628875732425,25.3900146484375,-79.7828356818075,40.45888853457648,284.222178565979,-0.0007770424708724023,-0.007322465069591998,0.8851983547210693,0.4651556015014648,-0.04716954749618417,-0.07303713344148655,2.953403625630078,-0.15777961909770966,0.00646181870251894,-0.13572703301906586,-0.27196065120399,0.15933045040816068,-9.981600576639176
25.29,3.4000000953674316,251.0,23.08405876159668,25.75579643249512,-79.78283548904624,40.458888541873314,284.86561404418944,-0.002171739237383008,-0.0006350007024593651,0.8861700892448425,0.463354617357254,-0.0529855396726648,-0.06042277034343128,2.921926805102222,-0.12496142089366913,0.05195252597332002,-0.1008061021566391,-0.07900522987358273,0.19101119471713893,-9.62037655055523
25.5,3.4000000953674316,252.0,22.946332931518555,28.4912052154541,-79.78283533889321,40.45888861349837,285.50873862457274,-0.004695506300777197,-0.0010979967191815376,0.8862218856811523,0.4632360935211182,-0.05773030528046065,-0.04593714450013008,2.9070018745972748,-0.1090267151594162,-0.08970992267131805,0.025877485051751137,-0.1438666480779648,-0.11933136574923993,-9.60036270081997
25.6,3.5999999046325684,254.0,22.950090408325195,28.13337707519531,-79.78283527173812,40.458888607432364,285.80001078796386,-0.005291000008583069,-0.003121048212051392,0.8861391544342041,0.4633787274360657,-0.06549468291257197,-0.06381320069370941,2.924992447441838,-0.044716749340295785,-0.01103575062006712,0.04405125230550766,-0.2047790121473372,-0.06711069131735713,-9.850037055015564
25.8,3.5999999046325684,252.0,23.105342864990234,24.865196228027344,-79.78283519301905,40.458888595640076,286.09367095184325,-0.0035490719601511955,-0.0051076002418994895,0.8864474892616272,0.4627875983715058,-0.07276813202373958,-0.08501497111970449,2.939419907416186,-0.012215016409754751,-0.05454376339912415,0.05595945939421654,-0.10653762135654687,-0.278024433106184,-9.956581510305405
25.99,3.799999952316284,249.0,23.05401039123535,26.081817626953125,-79.78283497456408,40.45888874081023,286.7173377151489,-0.009698411449790001,-0.006314027588814497,0.8869083523750305,0.4618006050586701,-0.05607228999578855,-0.10028067898815617,2.9206508088187983,0.08724764734506607,-0.1254182606935501,-0.05167364701628685,-0.2166845462098718,-0.2563386451452971,-9.695030876398087
26.09,3.799999952316284,250.0,23.08405876159668,25.27868843078613,-79.7828349471923,40.45888854098013,287.35623751831054,-0.01643151789903641,-0.0034287488088011733,0.8867396116256714,0.4619645476341248,-0.1271019622208199,-0.0834649043083303,2.939718751910774,-0.0762430801987648,-0.07655354589223863,-0.0699048563838005,-0.17125741817057133,0.006700936546549201,-9.857482899427417
26.21,3.9000000953674316,251.0,23.13038444519043,23.51339530944824,-79.78283490426925,40.45888852789721,287.6503678436279,-0.02029402181506157,-0.0023621313739567995,0.8861122131347656,0.4630202353000641,-0.08674734051974352,-0.08687112495827817,2.9367180305718525,0.15156692266464233,0.020174069330096245,0.12182720005512238,-0.10340126624330878,-0.06812019025906921,-9.806454248428343
26.4,4.0,253.0,22.993911743164066,26.98832130432129,-79.78283487258345,40.45888840250833,288.27995501708983,-0.011998087167739868,-0.005385942291468382,0.884038507938385,0.4672291278839111,-0.10385503835503916,-0.07814076767338317,2.9017982962465263,-0.22337286174297333,0.13954180479049685,0.0060573159717023355,-0.3289212293922901,0.006350916735827923,-9.536882404088976
26.59,4.199999809265137,257.0,23.045246124267567,25.73194122314453,-79.78283494172932,40.4588883427174,288.61119090270995,-0.005060674156993628,-0.009884428232908249,0.8832536339759827,0.4687640070915222,-0.028602762290524126,-0.051576602216612234,2.920262506646252,-0.060275886207818985,-0.0030105081386864185,-0.041223011910915375,-0.14801468113437294,-0.07824027702212334,-9.731711629629137
26.69,4.300000190734863,254.0,23.05776596069336,25.11965370178223,-79.78283496231279,40.45888835509851,289.19562731933587,-0.004943715408444405,-0.01273681689053774,0.8827860355377197,0.4695767164230346,0.024333160522761084,-0.09099120754437706,2.9347044335241605,0.0069578783586621284,0.05135169252753258,0.1557738333940506,-0.3324992137402296,0.02463075639680028,-9.809852065443993
26.79,4.400000095367432,253.0,23.1929874420166,22.33653259277344,-79.78283535981889,40.458888455826624,289.53807078552245,-0.008552847430109978,-0.01327532809227705,0.8828392028808594,0.4694097936153412,0.03101585200161173,-0.07043712399688229,2.953003609240388,0.02364811114966869,-0.08764266967773438,-0.1033203974366188,-0.5541632122546435,-0.035904640420339994,-9.889194688796998
27.0,4.5,253.0,22.946332931518555,26.82928466796875,-79.78283553533113,40.45888850908803,290.1569996948242,-0.017651798203587532,-0.020259300246834755,0.8836398124694824,0.4673956632614136,0.014668970599447127,-0.10540819831316237,2.8799523390265844,0.11566580086946487,-0.04766438901424408,0.07759196311235428,-0.4358381523191929,-0.1810453648120165,-9.439292959570881
27.1,4.599999904632568,257.0,23.109100341796875,24.268814086914066,-79.78283558153167,40.458888517544814,290.4447136993408,-0.019041940569877625,-0.02592204324901104,0.8838418126106262,0.4666789770126343,0.005534460170778146,-0.11796748960691003,2.869356474849299,0.0760863721370697,-0.10047926753759384,-0.05047832801938057,-0.4271860273182392,-0.23956121100112804,-9.617596784234047
27.29,4.599999904632568,257.0,23.03022003173828,26.185192108154297,-79.78283564764179,40.45888851989023,290.7307149047852,-0.017913812771439552,-0.02672283351421356,0.884196937084198,0.4660052657127381,0.000465432770868579,-0.1260626355015327,2.8514344442040915,-0.07977116852998734,0.12572400271892548,-0.04289454221725464,-0.5002171660959721,0.13181453162804244,-9.584051892757415
27.49,4.699999809265137,256.0,23.049001693725586,25.747844696044922,-79.78283562412093,40.45888853652066,291.3457203979492,-0.009878414683043957,-0.01616627909243107,0.8858796954154968,0.4635280966758728,-0.010046926778950943,-0.08134689128711126,2.923993851730512,-0.08832255005836487,0.02921961434185505,0.029737094417214394,-0.4119296549633146,-0.11424356636591255,-9.930403525829316
27.6,4.800000190734863,256.0,22.94883728027344,27.46542739868164,-79.78283564626375,40.458888604872506,291.66087924194335,-0.010530352592468262,-0.013270142488181593,0.8863412141799927,0.4627227187156677,0.0002562631337318898,-0.05554791631367628,2.928418825103895,-0.013345862738788128,0.06331253796815872,-0.031728554517030716,-0.3593464120477438,-0.047335791704244914,-9.819387120008471
27.69,5.0,252.0,22.925048828125,27.409765243530273,-79.78283577736525,40.458888568527634,292.24669467163085,-0.019388388842344284,-0.017091348767280582,0.8860260248184204,0.4629147052764893,-0.022659868106097467,-0.04916263130151552,2.9417210610530846,0.015539007261395453,-0.1618538647890091,0.044125404208898544,-0.541868198812008,-0.2556470474414528,-9.896922369003297
27.89,5.0,254.0,22.973878860473643,26.964466094970703,-79.78283565662609,40.45888865130916,292.8396454925537,-0.02124322392046452,-0.02002072893083096,0.8845248222351074,0.465579092502594,-0.019693201309118245,-0.11398262905478518,2.9039183870702163,0.015724532306194302,-7.376364374067634e-05,0.07794670015573503,-0.411416707970202,-0.08543239795602857,-9.659155869483948
28.09,5.099999904632568,254.0,22.990154266357425,26.29651641845703,-79.78283575540374,40.45888870246214,293.1384049530029,-0.017987340688705444,-0.02172513678669929,0.8841332793235779,0.4663826525211334,-0.00969114492096387,-0.09434242949554857,2.8810249591649724,-0.0792345255613327,0.007512107025831938,0.023324176669120792,-0.3980670760944486,-0.10337228598073124,-9.709519692063331
28.19,5.0,254.0,22.950090408325195,27.19506645202637,-79.78283586357185,40.45888870039826,293.4266987915039,-0.014244236052036284,-0.02263264171779156,0.8838648200035095,0.4669775664806366,0.02203768498909443,-0.07459420761241886,2.8886959889209054,-0.037209317088127136,0.018687345087528232,0.07959434390068054,-0.5009185396134853,-0.1775967318378389,-9.796371894478801
28.29,5.0,254.0,22.973878860473643,26.23290252685547,-79.78283592527168,40.4588888695472,294.00940333557133,-0.01083753164857626,-0.01866053231060505,0.8833709955215454,0.4681773781776428,0.058147335780660475,-0.07677249335661199,2.871646084714111,0.049026478081941605,0.08136674761772156,-0.05248812213540077,-0.472692933306098,-0.05170220456086098,-9.742990323901175
28.5,5.0,255.0,23.00893592834473,25.86712074279785,-79.78283625592978,40.458889098248186,294.5991021270752,-0.01161288470029831,-0.016354482620954514,0.8837836980819702,0.4674657583236694,0.052726727687993344,-0.05004219847554288,2.8597915583520983,-0.02069429494440556,-0.07592646777629852,-0.06001429259777069,-0.4322005994617939,-0.1093474460206926,-9.710540615916251
28.59,5.099999904632568,254.0,23.033977508544922,25.859169006347656,-79.7828363583187,40.458889119406535,294.88521014404296,-0.01213698647916317,-0.017485950142145157,0.8838383555412292,0.467307984828949,0.04613782922126264,-0.051395441921178384,2.8652898768634536,-0.07216619700193405,-0.030350491404533383,-0.15125413239002228,-0.3821568388491869,0.08268343915231527,-9.797090517282486
28.8,5.099999904632568,254.0,23.02896881103516,25.191219329833984,-79.78283645841745,40.45888914180858,295.1725960845947,-0.013531175442039968,-0.020166294649243355,0.8835996985435486,0.4676129817962647,0.04837135425276809,-0.06832764205457538,2.8891776024859035,-0.03380955010652542,-0.049372825771570206,0.02667764574289322,-0.519407508596778,0.04469919537194073,-9.954635556936264
28.99,5.199999809265137,251.0,23.15041732788086,22.479665756225586,-79.78283700047166,40.45888905505778,295.7680531616212,-0.014354423619806768,-0.023416485637426376,0.8841188549995422,0.4664542376995087,0.03679943851039262,-0.05949219837249613,2.8879411589241366,-0.04632006585597992,-0.0945315882563591,0.008743279613554478,-0.6339402837306262,-0.07464836899191142,-9.675748513340947
29.09,5.199999809265137,253.0,22.893747329711914,27.7039794921875,-79.7828369358218,40.45888922179328,296.07304202270507,-0.014772849157452585,-0.02034394629299641,0.8844041228294373,0.4660444259643554,0.03771473006985885,-0.09894357221458208,2.8608512194308378,-0.028284909203648567,0.08686776459217073,-0.0832236036658287,-0.6730447809398175,0.2991957757249475,-9.408536605238917
29.19,5.300000190734863,252.0,22.85368156433105,28.67409706115723,-79.78283713342975,40.458889267780656,296.64120303344725,-0.016238946467638016,-0.016055190935730934,0.8847141265869141,0.4655744731426239,0.04049580194541422,-0.08125366818952609,2.858535869885072,-0.02344563603401184,-0.009283894672989844,0.0430004931986332,-0.447985889017582,-0.03319778613746167,-9.952396073341367
29.41,5.300000190734863,252.0,22.94508171081543,26.240854263305664,-79.78283715514532,40.45888940599347,297.2431737060547,-0.011320983991026878,-0.024146977812051773,0.884163498878479,0.4664158523082733,0.03635513191690561,-0.11604021827154272,2.929541692135768,-0.11055801808834076,-0.02124262973666191,-0.0756797194480896,-0.6659695038199425,0.06748642517253757,-10.001201612949373
29.49,5.400000095367432,249.0,23.022708892822266,25.30254554748535,-79.78283713003559,40.45888951994717,297.54395877075194,-0.011068712919950485,-0.02862292528152465,0.8840401172637941,0.4664025008678436,0.060147079702657785,-0.1367535484897533,2.915958883423805,-0.02140915580093861,-0.08110934495925902,-0.048520460724830634,-0.6001418789103627,0.08775289289653301,-9.775994347929958
29.7,5.5,249.0,22.882478713989247,27.62446212768555,-79.78283718185443,40.45888954506968,297.83457385253905,-0.010175224393606186,-0.031688090413808816,0.8839581608772278,0.4663800299167633,0.06333891000912438,-0.15990100685299144,2.889479642500888,-0.013117313385009766,-0.02969408221542835,-0.09723217040300368,-0.5932488156482577,0.121670946367085,-9.627976761460305
29.89,5.599999904632568,248.0,22.86495018005371,27.9345817565918,-79.78283731626999,40.45888956329901,298.4181672210693,-0.010662914253771305,-0.031677622348070145,0.8850445747375488,0.4643048048019409,0.04850752754324639,-0.15738790257151114,2.8930471506895827,-0.014369830489158632,0.0011190770892426374,-0.041018106043338776,-0.6038634124025702,0.08605279667302966,-9.812667499780655
30.0,5.699999809265138,247.0,22.85869026184082,28.07771301269531,-79.78283738355151,40.45888964556188,298.99620257568364,-0.016373252496123314,-0.028183499351143837,0.8852609395980835,0.4639513790607453,0.020048423941297702,-0.15067383984286936,2.8572158677245643,0.026957450434565544,-0.05806633085012436,0.08918868005275726,-0.5346245949715376,-0.132343832552433,-9.633194816708565
30.09,5.800000190734862,246.0,22.913780212402344,26.88494682312012,-79.78283743421086,40.458889639153135,299.2805348510742,-0.01827225647866726,-0.028842642903327945,0.8849915266036987,0.464353621006012,0.015543163212681815,-0.14081991808069724,2.8195373878175403,0.0665094256401062,-0.05564489215612412,0.004707040265202522,-0.6157427253574134,0.1210377660021186,-9.42430713057518
30.31,5.800000190734862,250.0,22.85493278503418,28.38783264160156,-79.78283749328884,40.45888964332222,299.5613709564209,-0.019551439210772514,-0.024475306272506717,0.8848130702972412,0.4648920297622681,0.02304988658035669,-0.15070731256773118,2.7886992549381016,0.02414234913885593,0.07305659353733063,-0.0799512192606926,-0.4711864347383381,0.1425307420268655,-9.46654156923294
30.49,5.800000190734862,249.0,22.85869026184082,28.10951995849609,-79.78283759218873,40.45888971787335,300.1254674072265,-0.013337040320038795,-0.023876123130321503,0.8844069838523865,0.4659145474433899,0.010951855170346976,-0.11021840547598036,2.7667724638896827,-0.11158637702465056,-0.02702516689896584,0.02219747193157673,-0.3965499063581229,-0.08513396155089141,-9.771992513537407
30.6,5.800000190734862,249.0,22.71846008300781,30.38372802734375,-79.78283772081804,40.458889704433716,300.70399295043944,-0.005796432495117188,-0.030119981616735462,0.8839181661605835,0.4666346311569214,0.057946704861902426,-0.09537420313228112,2.845755443729081,-0.06761923432350159,-0.024542562663555145,0.011730807833373548,-0.5378721385449171,0.12287668791599572,-10.143933316469194
30.7,5.699999809265138,242.0,22.91127586364746,26.61458778381348,-79.78283780505352,40.45888968905665,300.990844833374,-0.007076356559991837,-0.03253302350640297,0.8838079571723938,0.4666637778282166,0.07468739008659228,-0.0939613281883526,2.8755779221959084,0.014287373051047325,-0.05210881307721138,0.047153592109680176,-0.4935546658560634,0.06551957714371384,-10.048930095434187
30.9,5.699999809265138,241.0,22.67338562011719,30.733606338500977,-79.78283789196918,40.45888981173833,301.26722537231444,-0.011395701207220554,-0.03270067274570465,0.8837898373603821,0.4666009843349457,0.0854655521864709,-0.10047188361447083,2.838975088414551,0.18866004049777985,-0.05708957463502884,-0.09179053455591203,-0.4198935261368752,0.13517234089784325,-9.763563167452812
31.0,5.599999904632568,240.0,22.65961456298828,31.616252899169922,-79.78283813539399,40.45888979724813,301.83716593933104,-0.012283453717827795,-0.021485401317477226,0.8841925263404846,0.4664667546749115,0.04478451152452693,-0.08288590847679339,2.8541065630590468,0.13214260339736938,0.1769266426563263,-0.07383637875318527,-0.39794264003634455,0.10830201867967844,-10.04632106781006
31.19,5.599999904632568,240.0,22.63707733154297,32.35576629638672,-79.78283824955705,40.45888977266936,302.12493144226073,-0.009379993192851543,-0.017767699435353286,0.8840979337692261,0.4668696820735931,0.030505358853533667,-0.05098774120603791,2.9025420918966534,-0.07623110711574554,0.11382408440113068,-0.13142098486423492,-0.5534762009605766,0.3250019869208336,-10.12554616212845
31.4,5.400000095367432,237.0,22.719711303710927,29.874814987182607,-79.78283852613215,40.45888979410347,302.704073059082,-0.005054978188127279,-0.02156694233417511,0.8841561675071716,0.46666619181633,0.05159282775481672,-0.028489213305714512,2.953982929888153,0.026629740372300148,0.015596332028508188,-0.03779153525829315,-0.4031479410454631,0.06774743026122451,-10.227192989587783
31.5,5.400000095367432,234.0,22.66837882995605,31.250471115112305,-79.7828386285274,40.45888976798432,303.0004483337402,-0.003986888565123081,-0.023422995582222945,0.8846163749694824,0.4657138586044312,0.0610991464807297,-0.04557831896617868,2.9703075511011168,0.09436347335577012,-0.016065718606114388,-0.14665596187114716,-0.3763782548904419,0.12890437239781022,-10.017084989547731
31.69,5.199999809265137,235.0,22.87747001647949,26.550973892211914,-79.78283879614101,40.45888971081617,303.5881367797852,-0.006385907996445893,-0.019574537873268127,0.8871208429336548,0.4610778987407684,0.02599031305642685,-0.03858588834898415,3.007236031027038,-0.03969801217317581,0.1041370928287506,-0.05169528722763062,-0.34178250912576913,-0.020951601513661447,-10.204641448259354
31.8,5.199999809265137,236.0,22.619548797607425,32.65793609619141,-79.78283922201253,40.45888960148285,304.1726704711914,-0.0012651989236474035,-0.018782654777169228,0.8876193761825562,0.4601929485797882,0.025931503616701924,0.009614318247930756,2.9646210177332772,-0.02643446438014508,-0.024401897564530373,-0.0654897391796112,-0.31007612843066457,0.15952892683446407,-9.727952454686166
31.99,5.199999809265137,238.0,22.667125701904297,30.48710060119629,-79.78283932396786,40.45888954211893,304.4701901550293,-0.002683554543182254,-0.01847158744931221,0.8864886164665222,0.4623739719390869,0.045050491937774,-0.007922197859162858,3.0012656891532035,0.17335060238838196,0.005350335966795683,-0.03533399477601051,-0.4501602857932449,0.1993207094259561,-10.12488191843033
32.1,5.199999809265137,230.0,22.873714447021484,27.012176513671875,-79.78283940535168,40.45888942921609,304.76997576904296,-0.005453549791127443,-0.016086764633655548,0.8855438828468323,0.4642452001571655,0.01815287943248544,-0.02614719218448396,3.045584664383123,0.0033567415084689856,-0.02749487012624741,0.1821231842041016,-0.5674577706679702,-0.11899244651198387,-10.306834405660627
32.3,5.199999809265137,230.0,22.913780212402344,25.92278289794922,-79.78283952697204,40.45888931484278,305.38714419555663,-0.010215982794761658,-0.02104017324745655,0.8850173950195312,0.4649700522422791,-0.029606135170811537,-0.055039453809347716,3.10804646716292,-0.10585053265094756,0.00339315296150744,-0.026895442977547646,-0.6562949931621552,-0.03780302806058899,-10.074101189374923
32.4,5.199999809265137,230.0,22.700931549072266,29.604454040527344,-79.78283957140805,40.458889311450406,305.68915377807616,-0.007888831198215485,-0.02028561383485794,0.8853360414505005,0.4644420146942138,-0.03021486153662486,-0.07778397269987122,3.0795763986334834,-0.031846076250076294,0.03932689130306244,-0.06238386034965515,-0.40409986775368456,-0.014906357112340632,-9.867080519199373
32.5,5.099999904632568,238.0,22.83489990234375,26.646394729614247,-79.78283958139517,40.45888915166177,306.3038273925781,-0.011741165071725844,-0.02247386611998081,0.8835445046424866,0.4676603972911834,-0.007786274259874583,-0.06935541849386713,3.041993159544353,0.06440743803977966,-0.062320858240127563,0.18676242232322693,-0.5726178288459778,-0.0665467593446374,-9.70462206423283
32.7,5.099999904632568,240.0,22.813615798950195,27.91072654724121,-79.78283965524015,40.45888906463507,306.9084073181152,-0.00476407166570425,-0.016685061156749725,0.8805138468742371,0.4737029373645783,-0.008524359335384875,-0.08701009267271106,2.9941917294808214,-0.02772279642522335,0.1337420642375946,0.016689598560333252,-0.4708336283639074,0.17609792601317167,-9.51858880519867
32.9,5.099999904632568,240.0,22.8424129486084,26.01820373535156,-79.78283968710446,40.458888968628244,307.2288075561524,-0.000394004222471267,-0.013942903839051723,0.8800939917564392,0.4745945930480957,0.0062786970885891046,-0.05456673431503175,3.004101215427278,0.0675952211022377,0.050949323922395706,-0.16078242659568787,-0.3277750654891133,0.2836715826205909,-9.742553536891938
32.99,5.099999904632568,239.0,22.882478713989247,26.20109558105469,-79.78283971804254,40.45888893472003,307.5299168701172,-0.0003834074886981398,-0.010991533286869526,0.8804900050163269,0.4739372432231903,0.017484849014070724,-0.03775864449743534,3.0176171254936204,0.014339515008032322,0.02307496406137944,-0.11647191643714905,-0.3141592025756836,0.2503454683721066,-9.888263812065123
33.19,5.199999809265137,232.0,22.74850845336914,28.37988090515137,-79.78283985919863,40.45888886286068,308.1553898925781,-0.004130122251808643,-0.021930789574980736,0.8825905323028564,0.4696127772331238,-0.0013597713150198536,-0.03637230490083493,3.0259337740298142,-0.0841541737318039,-0.0944862887263298,-0.13181282579898834,-0.2791235634684563,0.1788750245422125,-9.752454042434694
33.3,5.199999809265137,236.0,22.76353454589844,28.196990966796875,-79.78284000592026,40.45888878716932,308.7842312927246,-0.003966114018112421,-0.025195488706231117,0.8844706416130066,0.4658982157707214,0.0167201053868057,-0.1211952862297236,3.065530230247898,-0.0396137461066246,0.05791715160012245,0.040277715772390366,-0.5030665508285165,0.03384007079992443,-9.860311782360077
33.49,5.199999809265137,236.0,22.94132423400879,25.10375022888184,-79.78284000973464,40.4588887502206,309.0918027038574,-0.004463679157197475,-0.020184580236673355,0.885212779045105,0.464726984500885,0.006531131227739087,-0.12652042847152056,3.0800728874985324,-0.020942602306604385,0.10640088468790054,-0.050783850252628326,-0.5223034883290529,0.05075116407126189,-9.929397804737093
33.6,5.199999809265137,237.0,22.90626716613769,25.44567680358887,-79.78284019502456,40.4588885582944,309.41961489868163,-0.004583456087857485,-0.017339782789349556,0.8859589099884033,0.4634169638156891,-0.023941936800082428,-0.052522210064993184,3.0963628923959945,-0.04203556850552559,0.005598835181444882,-0.1181515008211136,-0.4306999481096864,0.17656133612617853,-9.684843272566797
33.79,5.300000190734863,235.0,22.89875602722168,25.708086013793945,-79.7828402181273,40.45888841747988,310.0292836303712,-0.005635953508317471,-0.01829497329890728,0.8883838057518005,0.4587022960186005,-0.04009162298572011,-0.08026629596262164,2.9984532726739057,0.058883968740701675,-0.059870239347219474,-0.058900438249111176,-0.6517579923570156,0.03610805957112462,-9.260060597062113
33.9,5.400000095367432,234.0,22.794836044311523,26.932659149169922,-79.78284014973543,40.45888838092673,310.3682156677246,-0.009182797744870186,-0.016070330515503883,0.8897833228111267,0.456007719039917,-0.06863842631476492,-0.118737874263031,3.0017277860199045,-0.00032827179529704154,-0.020492248237133026,0.09770072251558304,-0.6831524240970612,0.016813476746901868,-9.336085510253909
33.99,5.5,235.0,22.77605438232422,28.228797912597656,-79.78284011595412,40.45888824053061,310.9960728759765,-0.016056356951594353,-0.0289920587092638,0.8890162110328674,0.456674724817276,-0.08719805210298899,-0.18275946574070884,2.95743299058756,0.044651158154010766,-0.2472716569900513,0.13204842805862427,-0.7930210214853287,-0.1557248379662633,-9.429019986391069
34.2,5.599999904632568,236.0,22.781063079833984,27.632413864135746,-79.78283991328024,40.45888818181135,311.5818387145996,-0.02348430827260017,-0.030202016234397888,0.8867905735969543,0.4605854451656342,-0.09715433295643523,-0.2868913470252607,2.8891590753261616,0.0021861144341528416,0.13500447571277618,0.1465044617652893,-0.8238289044052363,-0.16586012749001386,-9.605135198235512
34.4,5.800000190734862,251.0,22.7497615814209,28.69795227050781,-79.7828398269675,40.458888177727616,311.91046725463866,-0.01938438415527344,-0.02189150080084801,0.886398196220398,0.4619994163513184,-0.12076039560832474,-0.2884256296465077,2.9529842832491706,-0.01223275903612375,0.15933890640735626,-0.07977522909641266,-0.8081299343705177,-0.0031977051962167025,-9.932352987527848
34.5,5.9000000953674325,247.0,22.794836044311523,27.7596435546875,-79.7828397016944,40.458888149275396,312.2091389770508,-0.015172927640378475,-0.02182961255311966,0.8854719996452332,0.4639317691326141,-0.12506757736656254,-0.2440795299588192,2.991324715400694,-0.08551395684480667,-0.0414932481944561,0.02519562654197216,-0.6630011647939682,-0.13442914151586596,-10.013110052347184
34.7,6.199999809265138,249.0,22.719711303710927,28.75361442565918,-79.78283938915672,40.45888802341443,312.85328494262694,-0.019996367394924164,-0.027114830911159515,0.883906364440918,0.4664488434791565,-0.09762078214771576,-0.2989073186043918,3.075077811690253,0.16529935598373413,-0.1277603656053543,-0.013678977265954021,-0.856693472340703,-0.09828093258664013,-10.014964789152144
34.79,6.300000190734862,249.0,22.8424129486084,25.67627716064453,-79.78283906545978,40.458888089722,313.4893208618164,-0.030865048989653587,-0.02901975810527801,0.8831963539123535,0.4670861959457398,-0.1375070410262493,-0.3717345029596135,3.0886578618645264,0.03390917554497719,-0.02457016333937645,0.15892775356769562,-0.9016206999868156,-0.18563133604824544,-9.842138636112214
34.99,6.5,253.0,22.861194610595703,25.668325424194336,-79.78283888451833,40.45888811769327,313.7985478515625,-0.033250663429498666,-0.029954230412840843,0.8831998705863953,0.4668568074703217,-0.14598681556611606,-0.3943362109763841,3.047013544758097,-0.08751403540372849,0.02056775987148285,-0.04070128872990608,-0.9137823238223792,0.07541607186198235,-9.43031865298748
35.09,6.599999904632568,255.0,22.78857421875,27.71988296508789,-79.78283862311643,40.45888818397695,314.1222973937988,-0.03064881265163422,-0.03257069736719132,0.8833136558532715,0.4666443169116974,-0.14943178938279922,-0.4127983613734402,2.992861410820325,-0.19517605006694794,-0.05149165913462639,-0.04936365410685538,-0.8461092811077834,-0.08137827666476369,-9.164476747512818
35.29,6.599999904632568,254.0,22.633319854736328,30.789268493652344,-79.78283828731017,40.45888829403491,314.71380435180663,-0.027657557278871536,-0.04252386465668678,0.883377194404602,0.4659095108509064,-0.057126688267799736,-0.405220621771976,2.880251912464653,-0.08511997759342194,-0.08124583214521408,0.027426933869719502,-0.8040118865668774,0.00911823945119977,-9.218371703624726
35.4,6.699999809265138,254.0,22.614540100097656,30.821075439453125,-79.78283793958431,40.458888434568436,315.03865252685546,-0.026017922908067703,-0.0477481484413147,0.8832149505615234,0.4658054113388062,-0.05284068662899733,-0.4339794597506281,2.9014072128396933,-0.13627596199512482,-0.03181605786085129,-0.021006494760513302,-0.8121610779315234,0.17845437219366433,-9.49966604590416
35.5,6.599999904632568,262.0,22.68715858459473,29.21481704711914,-79.78283764845018,40.45888860570128,315.6503850097656,-0.01788394153118134,-0.04729359224438666,0.8836255073547363,0.4654561579227448,0.010192604427514906,-0.4190914730308856,2.983015686983536,0.05901898816227912,0.08201432973146439,-0.016404740512371063,-0.8431286629289391,0.18101371675729752,-10.012200225591661
35.59,6.599999904632568,263.0,22.63457298278809,31.44926643371582,-79.78283755381021,40.458888633168,315.9534970397949,-0.016391554847359657,-0.043171457946300514,0.8839268088340759,0.4653397798538208,0.008062586608263825,-0.37947533964350216,3.0279559777428453,-0.012082448229193687,0.10799598693847656,-0.04045351594686508,-0.7362963053584101,0.03633966869674623,-10.172410426139832
35.8,6.699999809265138,263.0,22.619548797607425,29.84300804138184,-79.78283747360274,40.45888866246347,316.56605349731444,-0.0210211742669344,-0.03701955452561378,0.884840190410614,0.4639455676078797,-0.02434506456042327,-0.3052819477764165,3.1255086167668664,0.06037453562021256,-0.03524200618267058,0.10389325022697447,-0.8172467668354512,-0.23980469271540644,-10.355284434556964
35.89,6.699999809265138,255.0,22.75602149963379,27.15530776977539,-79.7828374181438,40.45888864381158,316.88295947265624,-0.023112744092941284,-0.03629964217543602,0.8848587870597839,0.4638676941394806,-0.050823196939233095,-0.2962966990296537,3.1823268060403405,0.0908670723438263,0.0251859687268734,0.1913263499736786,-0.7465253513306379,-0.12911137296818198,-10.334401688575745
36.09,6.699999809265138,255.0,22.59575843811035,30.892641067504893,-79.78283727653096,40.45888862360063,317.1925679321289,-0.027748800814151764,-0.035497602075338364,0.884316623210907,0.4647085964679718,-0.043633703954071436,-0.2927177954629109,3.170946690873444,0.19295015931129456,0.06411586701869965,-0.03204174339771272,-0.6996727086603642,-0.04840624786913395,-10.137992545366288
36.29,6.699999809265138,255.0,22.712200164794922,28.538917541503906,-79.78283722846467,40.45888859897369,317.8314610595703,-0.027744224295020103,-0.03398572653532028,0.8839520812034607,0.4655148983001709,-0.08603170263481978,-0.30101742006479115,3.1921103099646952,-0.11836380511522293,0.06743454188108444,0.05436833202838898,-1.051470876932144,-0.11434649563394488,-9.813134107589724
36.41,6.699999809265138,255.0,22.708444595336914,28.61843490600586,-79.78283738541094,40.45888872663846,318.44220935058587,-0.022313101217150688,-0.03397190943360329,0.8844074606895447,0.4649425745010376,-0.03758896544941317,-0.26013103556971584,3.1371335603220007,-0.11864612996578215,-0.03324277326464653,-0.05933835357427598,-0.8289725538343191,-0.017329831570386887,-9.77732342004776
36.5,6.599999904632568,254.0,22.674638748168945,28.745662689208984,-79.78283744550784,40.4588887203156,318.75263415527337,-0.0204409584403038,-0.03503038361668587,0.8841371536254883,0.4654638469219208,-0.019023412635908704,-0.2389993605020256,3.127226010516168,-0.0644550547003746,0.005465755704790354,-0.01912107691168785,-0.8263329745084048,-0.08381461042910815,-9.91654328584671
36.7,6.599999904632568,256.0,22.77229881286621,27.234825134277344,-79.7828374784445,40.458888720293324,319.3831730957031,-0.02084759809076786,-0.03828086331486702,0.8837569952011108,0.4659116268157959,0.004759992393987811,-0.25393501560843,3.15203197235663,0.09942695498466493,-0.05367165803909302,-0.06614985316991806,-0.7047765970230103,0.06805634597316385,-9.860667293071748
36.79,6.699999809265138,257.0,22.632068634033203,30.44734191894531,-79.78283750644381,40.458888813700455,319.69231997680663,-0.020282842218875885,-0.03712932765483856,0.8841130137443542,0.4653538167476654,0.01774412331815299,-0.2691495047330822,3.1426371159928577,0.1047571748495102,0.02393282949924469,-0.04842228442430496,-0.8288806794583797,0.06995780111756178,-9.951502618789672
37.0,6.699999809265138,257.0,22.86495018005371,26.30446815490723,-79.78283754786375,40.45888883398091,320.3318692321777,-0.023901771754026413,-0.03417529910802841,0.8846083879470825,0.4644662737846375,-0.0035082362212780697,-0.24988235073822784,3.21397149830842,-0.03335841745138168,-0.014174059964716434,-0.14538384974002838,-0.7495384946465493,0.1269068813044578,-9.991909217834475
37.19,6.800000190734862,255.0,22.64959716796875,29.795297622680664,-79.78283770154938,40.458888841519816,320.6426373596192,-0.02345011569559574,-0.0355067253112793,0.8847090601921082,0.4641975164413452,-0.001710509457445275,-0.2424490341497381,3.1908728688603127,0.002377666998654604,0.011528014205396177,-0.1706586629152298,-0.7650230911374093,0.19391846688464284,-9.812637094259262
37.3,6.800000190734862,254.0,22.73724174499512,27.06783866882324,-79.78283775836316,40.45888897018675,321.2852765197754,-0.025951780378818512,-0.031561702489852905,0.8845585584640503,0.4646359384059906,0.0246725084872365,-0.2594358671381036,3.2449985121015215,-0.04311361163854599,0.04439307376742363,0.02688257768750191,-0.8098650225251913,-0.12875110225751996,-10.189353318214417
37.39,6.800000190734862,253.0,22.883729934692386,25.01628112792969,-79.7828378098728,40.4588890174715,321.61218463134765,-0.02561777643859386,-0.032256733626127236,0.8844969868659973,0.4647240042686462,0.02251537117811377,-0.25806523392940434,3.263257827336828,0.01816239207983017,-0.09502310305833817,0.16645526885986328,-0.8648606438934804,-0.33810084633529186,-10.010872907638552
37.6,6.800000190734862,250.0,22.75602149963379,27.68807601928711,-79.78283788425045,40.458889110806034,321.93693743896483,-0.024210184812545776,-0.034762028604745865,0.8842827677726746,0.46502646803855896,0.04885892134121417,-0.2535348248508512,3.236673005573598,0.0010489103151485324,-0.05079672858119011,0.12252993881702424,-0.797356951162219,-0.19366880904883144,-9.850048749446868
37.99,6.5,250.0,22.7597770690918,26.908802032470703,-79.7828384649137,40.458889321613455,323.53944216918944,-0.0020765340887010093,-0.04464243724942207,0.8853816986083984,0.4627116918563843,0.18704190306608404,-0.19453695701819465,3.1231563256507857,0.06587611138820648,0.1315210461616516,-0.0623740553855896,-0.706620589569211,0.12538414757698774,-9.843558340072633
38.2,6.5,250.0,22.78356742858887,26.320371627807607,-79.7828384986894,40.458889427608746,323.8874341125488,-0.005651351064443588,-0.04041596129536629,0.8858872652053833,0.4621022343635559,0.1566178662912402,-0.14902102883499455,3.156798796147273,0.0561046376824379,0.01168585568666458,-0.15302567183971405,-0.6714216669648886,0.18990203272551293,-9.689016430377961
38.39,6.4000000953674325,242.0,22.777305603027344,25.946638107299805,-79.78283879286631,40.45888945255452,324.542696105957,-0.008167427964508533,-0.035147130489349365,0.8858948945999146,0.4624806344509125,0.08149109479355103,-0.13437245466476622,3.1738638413517006,0.01690763235092163,0.066800557076931,0.029682207852602005,-0.7645670814067126,0.1203930739313364,-9.784116715192797
38.5,6.300000190734862,243.0,22.79233169555664,27.21096992492676,-79.78283890045047,40.4588894077809,324.8613453979492,-0.009676245041191578,-0.030100760981440544,0.8850334882736206,0.464452475309372,0.06319193479854078,-0.117200481125367,3.192420070442973,0.005433814134448768,0.08362308889627458,-0.1089673787355423,-0.5955112130194903,0.21071815699338914,-9.915230001211167
38.59,6.199999809265138,243.0,22.67338562011719,28.47530174255371,-79.78283918856008,40.45888939026588,325.51873217773436,-0.008060924708843231,-0.03112059086561203,0.8842160701751709,0.4659705460071564,0.021910026122201248,-0.09059326563861217,3.2123973763883047,-0.08352905511856079,-0.042118266224861145,0.014648571610450743,-0.6297967274487019,-0.0007152241095900536,-9.92744834303856
38.7,6.099999904632568,242.0,22.68214988708496,28.14132881164551,-79.78283928027673,40.45888933315785,325.84125338745116,-0.006357434205710888,-0.03274401649832725,0.8845377564430237,0.4652746021747589,0.03187710323875163,-0.10028264382525642,3.2411472256823406,-0.06695480644702911,-0.01314985379576683,-0.11508574336767195,-0.6905612117797136,0.12398841720074415,-10.037925635576249
38.89,6.099999904632568,239.0,22.79358291625977,25.946638107299805,-79.78283949126244,40.45888927259802,326.5076161499024,-0.011500585824251177,-0.029211577028036118,0.8850246667861938,0.4644845128059387,0.037451670231279724,-0.12200482892790153,3.2664344857751777,0.017602168023586273,-0.02010081708431244,0.03605522587895394,-0.6529040466248989,-0.04724455229938032,-9.826906639337539
38.99,6.099999904632568,239.0,22.68340301513672,28.586627960205078,-79.78283970310969,40.458889206939936,326.8463116760254,-0.013376575894653795,-0.028872232884168625,0.8848773837089539,0.4647359549999237,0.009214345897336723,-0.1133486558596892,3.2461104050047056,-0.017627226188778874,-0.012906492687761784,-0.09209199994802476,-0.6782593278586865,0.14200759895145892,-9.62113551914692
39.19,6.199999809265138,239.0,22.73849296569824,26.76567077636719,-79.78283977730885,40.45888915965989,327.17045413208007,-0.012928515672683716,-0.02805344574153424,0.884985625743866,0.4645926952362061,0.004433607832836618,-0.1339528637395585,3.242383512865819,-0.062235426157712936,0.03998023271560669,-0.12931786477565765,-0.6965925416350365,0.20543711626902225,-9.714793295860293
39.29,6.199999809265138,241.0,22.78607177734375,25.978445053100586,-79.78283988792738,40.45888920208864,327.83365451049804,-0.008680768311023712,-0.02569875493645668,0.8861079812049866,0.4626845121383667,0.025772678059591863,-0.16676856644628796,3.2557402098927657,-0.04427328333258629,0.15465424954891205,-0.09257429093122482,-0.6860736199468375,0.3317380524426699,-9.768615161776543
39.5,6.199999809265138,240.0,22.863698959350586,24.80158233642578,-79.78283988478339,40.45888938931808,328.4830075378418,-0.009028326719999313,-0.03210984542965889,0.8872333765029907,0.4601136445999146,0.02741370416156616,-0.20274271378005976,3.1648439248090305,-0.06349002569913864,-0.14301864802837372,-0.010528035461902618,-0.6980715948343277,-0.03900036195293069,-9.31427656531334
39.59,6.199999809265138,240.0,22.78857421875,26.566877365112305,-79.78283985694006,40.45888940891067,328.79738818359374,-0.010980075225234032,-0.037033554166555405,0.8870016932487488,0.4601479172706604,0.04527099745064042,-0.2375150435558921,3.1023095385811335,0.054671838879585266,-0.19015486538410187,0.11372699588537215,-0.7471022522449494,-0.0835152329877019,-9.133639701604844
39.8,6.199999809265138,241.0,22.81111145019531,25.23892974853516,-79.78283982207937,40.458889428027284,329.1064206237793,-0.015635022893548012,-0.03694610297679901,0.8864371776580809,0.4611069858074188,0.0380935537577915,-0.2677352942250893,3.058827437370897,0.030187610536813736,0.02937671542167664,0.05957777053117753,-0.7547920717298985,0.049819232099689546,-9.304631583094595
39.89,6.099999904632568,247.0,22.82863998413086,25.49338722229004,-79.78283982755218,40.45888949897682,329.7460461730957,-0.017301777377724648,-0.033811651170253754,0.8852426409721375,0.4635762274265289,-0.012860029326035444,-0.2558456539781398,3.013820136443264,-0.0065261991694569605,-0.07712634652853012,0.05246975645422936,-0.7521130967885257,-0.1727788271382451,-9.313526367545126
40.1,6.099999904632568,249.0,22.66211700439453,28.037954330444336,-79.78283980037645,40.45888949622669,330.386072265625,-0.012819506227970123,-0.031837847083806985,0.8843401074409485,0.465580016374588,-0.005752422737029472,-0.2170316632914464,3.0393445129536265,0.004593941848725081,0.06360069662332535,-0.057310115545988076,-0.6583473658561707,0.08909428984858096,-9.727132675051688
40.2,6.0,250.0,22.710947036743164,26.932659149169922,-79.78283979430914,40.458889476823714,330.69198046875,-0.010607347823679449,-0.029718499630689618,0.8842922449111938,0.4658665657043457,-0.0035888801556884023,-0.1950290400652553,3.0666774316279484,-0.05125798657536506,0.06889752298593521,-0.2212309837341309,-0.6389237194508315,0.3231631106883288,-9.907609909772873
40.4,6.0,250.0,22.76228141784668,25.87507247924805,-79.7828398009808,40.45888948085874,331.0141469116212,-0.009592431597411629,-0.02839915081858635,0.8843082189559937,0.465940535068512,-0.007964543245245606,-0.17018237736224465,3.093405118871436,-0.04841973632574082,0.030492208898067474,-0.09169922024011612,-0.6533819103240968,0.3109245594218373,-9.784795576930048
40.49,6.0,247.0,22.727224349975586,27.48928260803223,-79.78283982672578,40.45888944155345,331.64119921875,-0.009810038842260838,-0.027785640209913254,0.8846696615219116,0.4652862846851349,-0.015071289339563662,-0.15847045060297354,3.074201753086504,0.06158445402979852,-0.021210988983511925,-0.18627862632274628,-0.6372719541192055,0.12034797728061675,-9.646632302999498
40.69,5.800000190734862,248.0,22.799842834472656,26.05796241760254,-79.78283981707456,40.45888939456647,331.9488698120117,-0.010414049960672857,-0.026062669232487682,0.8850578069686891,0.4646343290805817,-0.024382277769318717,-0.153055227324778,3.071646110963684,0.005009031854569912,0.04604502767324448,-0.07202879339456557,-0.5989973229914904,0.12517927575856447,-9.666540902853011
40.8,5.800000190734862,249.0,22.7597770690918,27.187114715576172,-79.78283980091334,40.458889346276216,332.25430499267577,-0.012008819729089735,-0.02411575801670552,0.8854240179061891,0.4640027284622192,-0.04013771760856591,-0.15213854072476782,3.0310374859031755,0.02774978987872601,0.0428495816886425,-0.0648903101682663,-0.6182473070919514,0.057028332799673086,-9.437574462890623
40.89,5.699999809265138,247.0,22.753517150878906,25.723989486694336,-79.78283977065827,40.4588892857718,332.868364440918,-0.013236712664365768,-0.022368019446730614,0.8859239816665649,0.4631016254425049,-0.06828788330789429,-0.14516187587575,3.004510565137592,6.214592576725407e-05,-0.0010705019813030956,-0.015690093860030174,-0.5539218318834901,0.003549666465260089,-9.68432871758938
41.0,5.599999904632568,247.0,22.66211700439453,28.32421875,-79.78283982686631,40.458889262062726,333.18575869750975,-0.013414059765636921,-0.02238023653626442,0.8858827352523804,0.4631749391555786,-0.06481064955199595,-0.1414548562744352,3.0306445791668635,-0.02898481488227844,0.007685668766498566,-0.15460564196109772,-0.648783586844802,0.2436657005734741,-9.737637782692907
41.21,5.599999904632568,247.0,22.799842834472656,26.40784072875977,-79.78283980336866,40.45888922109051,333.4897862548828,-0.014471808448433874,-0.02194381877779961,0.8856491446495056,0.4636105000972748,-0.0629050069217018,-0.15512390548955787,3.0416445271734327,-0.042004242539405816,0.01964530348777771,0.07859290391206741,-0.6885644607245922,0.01343849128112197,-9.869583127498627
41.3,5.5,247.0,22.769794464111328,25.95458984375,-79.7828397387968,40.45888915968364,334.0986882324218,-0.015410160645842554,-0.020889552310109145,0.8854225277900696,0.4640616476535797,-0.07560470969147003,-0.1546225463888224,3.025603583085013,-0.09519072622060776,-0.061023321002721786,0.055233411490917206,-0.6142233263701201,0.0018174790777266024,-9.719263492226599
41.49,5.5,249.0,22.64959716796875,27.94253349304199,-79.78283972757289,40.45888911591594,334.7090245361328,-0.01712537184357643,-0.02164890430867672,0.8849077224731445,0.4649478197097778,-0.05223636646566057,-0.15668979795941726,3.0270787522572893,-0.09532307088375093,0.09540262073278427,-0.033681124448776245,-0.5783116281777622,0.09988757385872304,-9.867910823822024
41.69,5.5,249.0,22.851177215576172,23.680383682250977,-79.78283972245707,40.4588891013534,335.01330767822265,-0.015118560753762722,-0.020808616653084755,0.8845463395118713,0.4657426476478577,-0.04097283910458915,-0.16331300077700886,3.0480717769849783,-0.08020442724227905,0.047191645950078964,0.052400235086679466,-0.6564635391533375,-0.0034597335476428273,-9.9137892472744
41.79,5.5,249.0,22.68715858459473,27.71988296508789,-79.78283972267913,40.45888909595177,335.319063293457,-0.013058399781584741,-0.01983460038900376,0.8843930959701538,0.4661383330821991,-0.014879972869571484,-0.15592306059812072,3.05057367641725,0.04618716239929199,0.000654076866339892,-0.009078327566385273,-0.5544897061586379,-0.032010508999228485,-9.810578874349595
42.0,5.5,243.0,22.603271484375,29.143251419067386,-79.78283972645134,40.45888914888829,335.91624652099614,-0.01079054456204176,-0.020447200164198875,0.8841357231140137,0.4666577875614166,0.015528568031304946,-0.1565885543375945,3.022239347178852,0.12654274702072146,-0.03666408732533455,0.1440749168395996,-0.6123081439733505,-0.0816708019003272,-9.846984808444978
42.1,5.5,244.0,22.645841598510746,28.78542137145996,-79.78283976039148,40.45888921225517,336.52159320068364,-0.00993457343429327,-0.020885713398456573,0.8834654688835144,0.4679252803325653,0.03923916856686893,-0.17328093103369724,3.0798879385429725,0.02773777395486832,-0.04844657704234123,-0.03387785702943802,-0.6114369819313288,0.2184165645763278,-10.102034507989883
42.29,5.5,242.0,22.99766731262207,21.477741241455078,-79.7828397604435,40.458889259554674,336.83234606933587,-0.009365823119878769,-0.02179188281297684,0.8835554122924805,0.4677257835865021,0.04364102549747858,-0.1802849706657602,3.1216045544419684,-0.1212288662791252,-0.06670073419809341,-0.016095265746116638,-0.6985571330040694,0.14388619970530273,-10.121679983139039
42.4,5.599999904632568,242.0,22.73724174499512,26.30446815490723,-79.7828398121822,40.45888940373797,337.12779437255864,-0.00953870452940464,-0.02562960609793663,0.8838720917701721,0.4669285714626312,0.0655743741392566,-0.18735794132757072,3.0698163707875783,-0.05382373929023744,-0.1280457228422165,0.08595851063728333,-0.6078847984224558,0.13371622888371348,-9.573680686354637
42.59,5.699999809265138,240.0,22.63832855224609,28.62638664245605,-79.78283980009817,40.458889596054775,337.73205767822265,-0.008919109590351582,-0.035935744643211365,0.8856727480888367,0.4628313779830933,0.09908211091176602,-0.2644662065851229,2.9592691483939415,0.008821848779916763,-0.01900302991271019,0.1671333909034729,-0.8307625327259303,0.052678534258157016,-9.359412977099419
42.7,5.699999809265138,241.0,22.5932559967041,28.554821014404297,-79.78283976289741,40.458889681807186,338.0293065185547,-0.009473640471696857,-0.03563808649778366,0.8862599730491638,0.4617181420326233,0.11366288756355715,-0.296794212181353,2.9616383495503515,0.02975560165941715,-0.06258180737495422,0.03266511484980583,-0.5543884031474591,-0.029150105919688942,-9.867020877599717
42.79,5.9000000953674325,241.0,22.781063079833984,26.11362648010254,-79.7828396065892,40.45888989067821,338.6351033325195,-0.008066430687904358,-0.03719638288021088,0.8870832324028015,0.4600378274917602,0.0780689734904811,-0.300920248589001,3.0654085037179226,0.04986487701535225,-0.14776092767715454,0.0410306490957737,-0.7532560081779958,-0.006427634032443166,-10.083600575923919
42.99,5.9000000953674325,240.0,22.7497615814209,26.06591415405273,-79.78283927477301,40.458890036030716,339.2356129760742,-0.01597069762647152,-0.03803073614835738,0.8853683471679688,0.4630567729473114,0.05241695163234472,-0.33938907570985233,3.0384104845086584,-0.016284091398119926,0.08898206800222397,-0.05696274340152741,-0.7950416730344296,0.286205692794174,-9.754113482236864
43.09,6.0,244.0,22.814868927001953,23.92688751220703,-79.78283919918526,40.458890090043724,339.54096423339837,-0.0170003529638052,-0.033964645117521286,0.8844950795173645,0.4650009870529175,0.022438152605004355,-0.33639657432285863,3.036091677695111,-0.10676293820142746,0.07297909259796143,0.046084556728601456,-0.8381037850677967,0.13794964956119654,-9.713538483381274
43.3,6.0,244.0,22.6571102142334,27.314342498779297,-79.78283913174347,40.45889014203957,339.8454991455078,-0.015170855447649956,-0.033498793840408325,0.8838544487953186,0.4663144648075104,0.017584333369179556,-0.3133247418956487,3.019558855286636,-0.04549449682235719,0.003569491673260927,0.18920469284057612,-0.7526812999695541,0.12739590039476753,-9.540063289403916
43.49,6.099999904632568,244.0,22.704687118530273,26.447599411010746,-79.78283901949884,40.45889034856872,340.450883972168,-0.011069160886108877,-0.03476595878601073,0.8833807110786438,0.4672338664531708,0.0719636232532388,-0.3105204427657658,3.0540070748135646,0.041864097118377686,0.005856343545019628,-0.12190389633178712,-0.7045379575341941,0.2369585787691176,-10.113449442386628
43.6,6.099999904632568,244.0,22.90376281738281,23.12375831604004,-79.782838941148,40.4588904561901,340.75405322265624,-0.008879086002707481,-0.038375623524188995,0.8832888007164001,0.4671718478202821,0.07495429347368743,-0.30562842432190795,3.077464024669497,-0.048552993685007095,0.0009095668210648,0.044205352663993835,-0.6914764472097159,0.13416602594777946,-10.125708714723588
43.7,6.300000190734862,242.0,22.76854133605957,25.57290458679199,-79.78283880986237,40.45889058967626,341.37565814208983,-0.0071854391135275355,-0.04285284876823425,0.8843790888786316,0.4647426307201386,0.1163222690324349,-0.3357017426703525,3.076442698744198,0.11459752172231676,-0.15144962072372434,-0.06967093795537949,-0.8014787265658379,0.04289672719314695,-9.694719804525377
43.9,6.300000190734862,239.0,22.767290115356445,25.5570011138916,-79.78283866240993,40.45889084412467,341.98242388916015,-0.011149121448397636,-0.04501638188958168,0.8855814933776855,0.4621630907058716,0.08766291178141038,-0.3610183846484384,3.031825615763688,-0.024209029972553253,0.003282710677012801,0.15243381261825562,-0.8878258757293225,-0.0266486579272896,-9.63581319987774
44.0,6.4000000953674325,239.0,22.64709281921387,28.006147384643555,-79.78283853081368,40.458890962901094,342.29061328125,-0.011092964559793472,-0.04560157284140587,0.8857936263084412,0.4617003798484802,0.07402503685220979,-0.3690996336552849,3.0496419277669884,0.017690211534500122,-0.09032514691352844,0.037291958928108215,-0.8715449615567923,0.20356098230928185,-9.854371011257172
44.19,6.4000000953674325,239.0,22.936317443847656,21.92304039001465,-79.78283844724301,40.45889101360903,342.59980212402337,-0.014288011938333513,-0.04535001516342163,0.8852303028106691,0.4627164304256439,0.07588330558642398,-0.3666283387798057,3.088830689011264,0.11034134030342102,-0.030318379402160645,0.04820426553487778,-0.9310275900363922,0.15268112467601894,-9.985106567144395
44.39,6.4000000953674325,243.0,22.81987571716309,24.332427978515625,-79.78283826540627,40.45889114727784,343.2183552856445,-0.01900667324662209,-0.04634406790137291,0.8837294578552246,0.4653098285198212,0.051521515974039735,-0.3614627040933279,3.0400241540074298,0.02299995347857476,-0.015590375289320947,0.039695430546998985,-0.8455169581621885,0.1986899593099952,-9.52673690021038
44.49,6.4000000953674325,247.0,22.773550033569336,24.984474182128906,-79.78283804948181,40.45889129752032,343.8388844604492,-0.017510071396827698,-0.0477299690246582,0.8826576471328735,0.4672587215900421,0.06669380767201508,-0.3762470806165204,3.0364183923864263,0.07631298154592514,0.08574957400560379,-0.06730470806360245,-0.9196031539142132,0.3848387739434839,-9.65225498557091
44.59,6.5,247.0,22.92880439758301,21.978702545166016,-79.78283801314119,40.4588913498641,344.14510546875,-0.015549116767942904,-0.044789645820856094,0.8827846646308899,0.4673793315887451,0.0803389415581898,-0.3586008667443767,3.0359904312266237,0.02191715128719807,-0.01457957271486521,0.2113950103521347,-0.895286045819521,-0.057424956746399414,-9.666177206039427
44.8,6.599999904632568,247.0,22.74850845336914,26.06591415405273,-79.78283798794152,40.45889140525047,344.44907580566405,-0.015102858655154703,-0.04421587660908699,0.8828985691070557,0.4672333598136902,0.08017044185195693,-0.3267801835314679,3.006017667422096,-0.12048114836215973,0.03407518193125725,-0.26838743686676025,-0.7925804337859154,0.3761607019230724,-9.527425117492676
45.0,6.699999809265138,245.0,22.94883728027344,21.350513458251953,-79.78283790450153,40.45889147719296,345.06752978515624,-0.01347916666418314,-0.04600345715880394,0.883256733417511,0.4664328992366791,0.09245646085902626,-0.3182297164344816,3.0369879035984035,-0.02675619535148144,0.0008789790445007384,-0.02639211714267731,-0.861371829584241,0.2588039226271212,-9.852701046466828
45.1,6.800000190734862,246.0,22.81111145019531,24.18929672241211,-79.78283787519095,40.458891591790064,345.38152514648436,-0.013806385919451714,-0.04822930321097374,0.8835265040397644,0.4656869471073151,0.10726277932114316,-0.32622597249188423,3.046118161189578,-0.014071507379412651,-0.07195234298706055,0.005254390183836222,-1.0527652312070133,0.10837726503610612,-9.639879938364027
45.29,6.9000000953674325,246.0,22.75727462768555,26.216999053955078,-79.78283787192468,40.45889169671357,345.9800969238281,-0.013960115611553192,-0.05395578220486641,0.8849066495895386,0.4624220430850983,0.10350537051125852,-0.34611991384369656,2.9047761196762343,-0.07210365682840347,0.07817012816667558,-0.0800836905837059,-1.1684956622868776,0.5082519713044167,-9.037720221877098
45.39,6.9000000953674325,246.0,22.630817413330078,27.33024787902832,-79.78283799571365,40.45889176718215,346.2889119262695,-0.01313900388777256,-0.05341851711273194,0.8854312896728516,0.46150341629982,0.1171328754878898,-0.355198017453682,2.888358770528304,0.08429767191410065,0.02652312070131302,-0.07236643135547638,-0.912386081814766,0.023577985775191337,-9.300282424092293
45.49,7.0,247.0,22.814868927001953,24.01435661315918,-79.78283797796284,40.458892021954505,346.8944264526367,-0.011557477526366707,-0.048489924520254135,0.8856795430183411,0.4616134166717529,0.12907038387747674,-0.3253022358761137,2.9688375229488595,0.033220283687114716,0.03146051988005638,-0.017680725082755092,-1.0528800559043885,0.007841577571816742,-9.945487003326416
45.69,7.0,243.0,22.78356742858887,24.93676376342773,-79.7828379947003,40.45889212045946,347.4868794555664,-0.015542034991085531,-0.04768945649266243,0.8848869800567627,0.4630976021289826,0.10177328199641594,-0.30228205190782753,2.9130833019651563,-0.04435042664408684,0.0009384582517668604,0.058159906417131424,-0.8999571671336891,0.28988448679447176,-9.515871604084973
45.89,7.099999904632568,243.0,22.648345947265625,27.139404296875,-79.78283794275501,40.4588922467065,347.7906895751953,-0.01651693321764469,-0.04875282198190689,0.8844375014305115,0.4638111591339111,0.11538198271430007,-0.3237898355078308,2.9157020907381863,0.10054316371679306,-0.02880566008388996,0.06969309598207474,-0.9080540259182454,0.2123665601760149,-9.564875364303587
46.0,7.199999809265138,243.0,22.59450721740723,29.10349273681641,-79.78283795866184,40.45889231052104,348.0851460571289,-0.016501830890774727,-0.04740096628665924,0.8840561509132385,0.4646780490875244,0.11663442168931278,-0.3290149573262868,2.9451663352754047,0.032694563269615166,0.0206406693905592,0.03225132077932358,-0.8425500078499317,0.2664808782376349,-10.036259179115296
46.19,7.199999809265138,245.0,22.799842834472656,24.642547607421875,-79.78283794514284,40.458892491296986,348.6890736694336,-0.012398336082696916,-0.04597165063023567,0.8836455941200256,0.4657288789749146,0.13573943435752034,-0.3090718279793169,3.0235713967126934,-0.045930974185466766,0.028843052685260776,-0.02133884467184544,-0.9447298090159894,0.3860817458108068,-9.931211611032486
46.29,7.199999809265138,241.0,22.74224853515625,25.453628540039066,-79.78283797535715,40.45889269827979,349.2840520019531,-0.0097427973523736,-0.05040047690272331,0.8840499520301819,0.4645649790763855,0.15970351994269166,-0.3240951239909852,2.9409594790474087,-0.0016687244642525911,-0.0720338374376297,-0.17377746105194092,-1.0540012595057489,0.366737000271678,-9.337283604741096
46.5,7.300000190734862,241.0,22.72221565246582,26.40784072875977,-79.78283798309835,40.458892783591104,349.5782872314453,-0.007988052442669868,-0.05210287123918533,0.8846413493156433,0.4632830023765564,0.1665066307769512,-0.33545981958298443,2.9016608854736585,-0.0550178587436676,-0.008852176368236542,-0.07140370458364488,-1.1413920635730028,0.08344983553513885,-9.398735502362252
46.6,7.300000190734862,242.0,22.578229904174805,28.92060089111328,-79.78283801385093,40.45889291324031,349.87268267822265,-0.008452431298792362,-0.052893325686454766,0.8848887085914612,0.4627125561237335,0.17947704397902126,-0.3465012183819045,2.8748200717083265,0.041695185005664825,0.0013653142377734186,0.020419280976057053,-1.0343799041211603,0.3619359976798296,-9.349830560088158
