time,wind_speed,wind_angle,battery_voltage,battery_current,position_x,position_y,position_z,orientation_x,orientation_y,orientation_z,orientation_w,velocity_x,velocity_y,velocity_z,angular_x,angular_y,angular_z,linear_acceleration_x,linear_acceleration_y,linear_acceleration_z
0.0,2.9000000953674316,151.0,23.59990310668945,-0.02385532110929489,-79.78283129760844,40.45891440856717,269.07770646095275,0.03551094233989716,-0.008019644767045975,0.8688938021659851,0.4936580359935761,-0.001622801594351967,-0.0001307512672451634,0.021689050128449745,-0.0005214741686359048,-0.003756065852940083,-0.006025330629199743,0.1991340918838978,0.6640060088038445,-9.783847158551218
0.1,2.9000000953674316,150.0,23.59489631652832,-0.03180709481239319,-79.78283129430916,40.45891440657898,269.07987392425537,0.03551783412694931,-0.008033623918890953,0.8688941001892091,0.4936568140983582,-0.0021660262635561783,-0.0009081328223181262,0.02208355865084661,0.0011963576544076204,-0.0001814608694985509,0.005085454788058996,0.202829367723316,0.6664160118252039,-9.7839500695467
0.3,2.799999952316284,151.0,23.59364318847656,-0.06361418962478638,-79.78283127152685,40.458914493414454,269.0922004032135,0.035505261272192,-0.008029394783079624,0.8688935637474059,0.4936587810516357,0.0010075210910532298,-0.0021185076722425185,0.022659744317535608,-0.0032745839562267065,-0.001732592936605215,0.0034062261693179607,0.2003310717456043,0.6759137903898955,-9.783441361784934
0.41,2.799999952316284,149.0,23.596147537231445,-0.007951773703098297,-79.78283124364206,40.45891458008836,269.1022146987915,0.03549811989068985,-0.008025500923395157,0.8688938617706299,0.4936588108539581,0.00543774523014765,-0.002279057616816443,0.0223925105828068,0.004126812797039747,0.0008696218719705937,-1.6232817870331928e-05,0.19793782465159893,0.6732677060365677,-9.784134256839753
0.6,2.700000047683716,152.0,23.597400665283203,-0.02385532110929489,-79.78283124041799,40.45891458714794,269.1068347740173,0.03549328446388245,-0.008025109767913818,0.8688931465148926,0.4936604201793671,0.0035835752348367467,-0.00368411579200103,0.023395101485925118,0.0032929156441241503,0.004567190073430538,0.0032311307732015852,0.19647706227377051,0.6742842444777489,-9.782979431748393
0.7,2.700000047683716,154.0,23.60115623474121,-0.007951773703098297,-79.78283121951475,40.45891462602797,269.11699402809137,0.0354890450835228,-0.008035100065171719,0.8688923120498657,0.4936620891094208,-0.002278453520699431,0.0023957194504865787,0.02363592559360549,-0.004121804144233465,0.0015851081116124988,-0.0064913434907794,0.1960108199156821,0.6795892770588399,-9.783276470303537
0.9,3.0999999046325684,156.0,23.60491180419922,-0.007951773703098297,-79.78283119804443,40.45891469603521,269.1271809387207,0.035482294857501984,-0.008033053949475287,0.8688923120498657,0.4936626255512238,-1.8776836912025966e-05,0.002517123961074277,0.01987738151459789,-0.00023611911456100645,-0.003281689016148448,-0.0033525628969073296,0.20139245102182032,0.6658745596557856,-9.785756859183312
1.0,3.2000000476837163,157.0,23.60366058349609,-0.007951773703098297,-79.78283119905987,40.45891469395684,269.1291888999939,0.035477478057146065,-0.00803388562053442,0.8688914775848389,0.4936642646789551,-0.0008633399230098787,0.0020784170570144734,0.02040491182213161,-0.001197304343804717,-0.0033704550005495553,0.0047574033960700035,0.20060110347345472,0.6665138795971871,-9.785059871077538
1.2,3.2000000476837163,157.0,23.598651885986328,-0.007951773703098297,-79.78283117372317,40.458914784697036,269.1395367431641,0.03546466305851936,-0.008025986142456532,0.8688914775848389,0.4936653673648834,0.003812510496918904,-0.0010928013790308206,0.01855247972505581,-0.00926623959094286,-0.00030583020998165017,-0.006083783227950335,0.20109608855098488,0.6728733844310045,-9.785041744709016
1.3,3.2000000476837163,157.0,23.60115623474121,-0.007951773703098297,-79.78283117320244,40.45891478746623,269.14143503189086,0.03547405079007149,-0.008017382584512234,0.8688885569572449,0.4936700165271759,0.003615780566315607,-0.0019365118326575954,0.0190121748218241,0.005492518190294504,0.0008268413366749883,0.005575780291110277,0.2025434754230082,0.6650112913548947,-9.784544731378556
1.5,3.2000000476837163,157.0,23.60491180419922,0.0,-79.78283115255573,40.45891487341388,269.15128982543945,0.0354560911655426,-0.008001730777323246,0.86888188123703,0.4936832189559937,0.0052230113719552145,-0.0023861169285685725,0.017341609649646133,-0.005296665243804455,-0.0001840376789914444,0.0013651513727381823,0.19648329321295024,0.6806223338842392,-9.783812659978867
1.6,3.2000000476837163,158.0,23.60491180419922,-0.015903547406196594,-79.78283115168645,40.45891487798822,269.1530796337128,0.03545500338077545,-0.007985336706042291,0.8688761591911316,0.4936936795711517,0.005099353268971526,-0.0035145681843534765,0.01790288060217314,0.004119140561670065,0.0005252258852124214,0.0029148720204830174,0.1971658277325332,0.6664428359270096,-9.78498210310936
1.8,3.4000000953674316,162.0,23.60115623474121,-0.007951773703098297,-79.78283113748441,40.458914943101476,269.1623626995086,0.03544100746512413,-0.007958216592669487,0.8688920140266418,0.4936672747135162,0.004101216555785056,-0.0013628303479986553,0.016330773157871847,0.0004524248652160168,-0.0003712086472660303,0.0028389510698616505,0.1965852540358901,0.6806403140723706,-9.784251201152802
1.9,3.5,160.0,23.59990310668945,-0.015903547406196594,-79.7828311199655,40.45891502508295,269.1699796962738,0.0354442335665226,-0.007954203523695469,0.868901252746582,0.4936507642269135,0.007887635978637229,-0.001580296790274399,0.014726959309399063,0.002397702541202307,0.0033442152198404074,0.0008201212040148674,0.1950517851859332,0.6731657452136278,-9.785513615012167
2.1,3.4000000953674316,159.0,23.59990310668945,0.007951773703098297,-79.78283112231892,40.45891503645788,269.1730905818939,0.035466887056827545,-0.00794266164302826,0.8688974380493164,0.4936559796333313,0.0066678381571658825,-0.0031078743200480827,0.01557819726755666,0.004328493494540453,0.003015733091160655,0.005570768844336271,0.19658273242414,0.6747179616987705,-9.783998601436618
2.21,3.5,157.0,23.59990310668945,-0.007951773703098297,-79.78283111924591,40.45891511075363,269.1819845485686,0.0354652926325798,-0.007939129136502745,0.8688997030258179,0.4936523139476776,0.009291072401692543,-0.0006824134444589048,0.017497637339283487,-0.0032154046930372715,-0.0007080836221575737,-0.0054181963205337524,0.1954178391583264,0.6806889921426773,-9.78473710477352
2.4,3.299999952316284,154.0,23.60366058349609,-0.007951773703098297,-79.78283108190739,40.4589151813022,269.1905082511902,0.03549343720078468,-0.007927784696221352,0.8688972592353821,0.4936546683311462,0.006180840059057816,-0.002540737216783325,0.01633819020876771,0.0037166667170822616,0.0007760439766570926,0.001902351970784366,0.1978178653679788,0.66602439455688,-9.784924800395967
2.5,3.4000000953674316,155.0,23.60115623474121,-0.015903547406196594,-79.78283108132061,40.458915186264896,269.1921976852417,0.03549661859869957,-0.007913289591670036,0.8688919544219971,0.493664026260376,0.004608665520182037,-0.003470791927852141,0.016988282069891548,-0.006147068459540606,-0.001749128452502191,-0.004424718674272299,0.19604469722136847,0.6760266416519881,-9.784714885354044
2.7,3.2000000476837163,161.0,23.602407455444336,0.0,-79.78283104234474,40.458915274081036,269.2002900886536,0.03551076725125313,-0.007887306623160839,0.8688887357711792,0.4936691224575043,0.005637250202715675,-0.006716909363407125,0.015815084794281283,-1.5510999219259247e-05,-0.002725623315200209,-0.0062017026357352725,0.1991692665405572,0.6653312071412802,-9.786942089796069
2.8,3.2000000476837163,162.0,23.602407455444336,-0.007951773703098297,-79.78283103723312,40.45891528096081,269.2019168186188,0.035511743277311325,-0.007891337387263775,0.8688880801200867,0.4936701059341431,0.005105484949654255,-0.0078128606461894,0.016397210174910155,0.0015960671007633214,0.0017754313303157687,0.004233330488204956,0.19894826006144287,0.666274143755436,-9.7867362678051
3.0,3.4000000953674316,159.0,23.60366058349609,0.0,-79.78283102547516,40.45891535175093,269.2096694755554,0.035501498728990555,-0.00789750088006258,0.8688871264457703,0.4936724007129669,0.004386566016963585,-0.004023486621696836,0.015355753941537919,-0.004032596945762634,-0.0011438312940299509,-0.001327314879745245,0.19564873108640315,0.6756956161558628,-9.78571885228157
3.1,3.5,159.0,23.60115623474121,0.0,-79.78283102203744,40.45891535643101,269.2112435150146,0.035501498728990555,-0.00789750088006258,0.8688871264457703,0.4936724007129669,0.004093993730018356,-0.005197296536891897,0.015896726932305497,0.007782647851854563,-0.0010700334096327424,0.004255798179656267,0.20307109527289868,0.6691028074175119,-9.785724699497225
3.3,3.5999999046325684,154.0,23.59990310668945,-0.02385532110929489,-79.78283097793658,40.45891544088215,269.2187081623077,0.035494718700647354,-0.007895108312368393,0.8688861131668091,0.4936747252941132,0.0041015909067199105,-0.00787810710874417,0.01577897318404407,0.0034962380304932594,-0.001533757196739316,0.004999540746212007,0.19844846930354834,0.6779714255779982,-9.785399009585381
3.4,3.5,153.0,23.59990310668945,-0.015903547406196594,-79.78283094364015,40.45891552051124,269.2240277576446,0.0354914665222168,-0.007892340421676636,0.8688862323760986,0.4936748445034027,0.005344840027206838,-0.0088279922856512,0.014675320825126438,2.654997479112353e-05,0.0008410128066316247,-0.003455260070040822,0.1986881320551038,0.6758688399195671,-9.78360216021538
3.6,3.5,157.0,23.602407455444336,-0.015903547406196594,-79.7828309279132,40.45891553571011,269.2271093177796,0.035490732640028,-0.007877246476709844,0.8688802719116211,0.4936856031417847,0.004296878663681672,-0.011372953432482956,0.015987548441665368,0.004101323429495096,0.0022490413393825293,0.007840346544981003,0.1959538461081684,0.6725030364096165,-9.785115419626235
3.71,3.700000047683716,157.0,23.602407455444336,-0.007951773703098297,-79.78283091891834,40.45891562528578,269.23164380073547,0.03546852618455887,-0.007890122942626476,0.8688799142837524,0.4936875402927399,0.007312020010632613,-0.008211256875501434,0.014547592657656075,0.0018827886087819934,0.0020066897850483656,-0.003861916251480579,0.1921862475201488,0.6770664227753878,-9.785366265177727
3.9,3.700000047683716,157.0,23.59990310668945,-0.007951773703098297,-79.78283090771059,40.458915681657636,269.23685110092157,0.03545461595058441,-0.007897699251770973,0.8688816428184509,0.4936855435371399,0.003455736124213768,-0.0014078938148899935,0.013650376886786927,0.008446097373962402,0.003987561911344528,0.007409497164189814,0.19221763975918293,0.6687443000078201,-9.784693250656126
4.0,3.700000047683716,161.0,23.60366058349609,0.05566241592168808,-79.78283090686311,40.45891568380162,269.2382570552826,0.03545128181576729,-0.007884997874498367,0.8688885569572449,0.493673712015152,0.002034546767397331,-0.0020705686371638573,0.014338619673353184,0.0009879531571641564,0.0005204468034207821,-0.005588690284639597,0.1963424849510193,0.6774602327495813,-9.785018355846406
4.2,3.700000047683716,160.0,23.60115623474121,-0.007951773703098297,-79.78283087293842,40.458915762193975,269.2434037971496,0.03547227382659912,-0.007866689004004002,0.8688789010047913,0.493689626455307,0.0011819203112662065,-0.004200489958962539,0.014763536640507937,0.002047864254564047,0.0047777877189219,0.004122848156839609,0.20064906891435386,0.6732959919422865,-9.785471515059472
4.3,3.700000047683716,157.0,23.60115623474121,-0.02385532110929489,-79.78283086762512,40.45891576423652,269.2448965358734,0.035476841032505035,-0.007849429734051228,0.8688696026802063,0.4937058389186859,0.0004527817642563834,-0.0053259221976050325,0.015302176895057518,0.0009413916850462557,0.0013859650352969766,-0.0020134486258029933,0.19781453976407648,0.6756581208854914,-9.786639788746834
4.5,3.700000047683716,154.0,23.60115623474121,-0.03180709481239319,-79.78283083367229,40.458915859224035,269.24739182472234,0.03546995669603348,-0.007819558493793009,0.8688769340515137,0.4936939179897308,0.0026734192687569397,-0.008405920592881273,0.01163666219357686,0.003113691695034504,-0.0005454381462186575,0.007234088610857725,0.19963863350450994,0.6783586574345828,-9.782820387482644
4.6,3.700000047683716,156.0,23.598651885986328,-0.007951773703098297,-79.78283082519184,40.45891586418955,269.2485760498047,0.03546712175011635,-0.007837345823645592,0.8688633441925049,0.493717759847641,0.0018321666882374031,-0.009065024579317894,0.01221761253714838,0.004006106406450272,0.0001178285674541257,0.00010124745313078164,0.20050347324460746,0.6742123968154192,-9.786015306115154
4.8,3.799999952316284,156.0,23.60115623474121,-0.007951773703098297,-79.7828307940394,40.45891594460486,269.24985039711004,0.035469353199005134,-0.00783288199454546,0.8688511848449707,0.49373912811279297,0.00013748681465148004,-0.008760488896687645,0.009666891742892243,-0.002868149895220995,-0.00219546863809228,0.00016341519949492067,0.20127018939703706,0.6814814360439778,-9.785272125005724
4.9,3.799999952316284,156.0,23.59990310668945,0.06361418962478638,-79.78283077525559,40.4589160420442,269.24980605125427,0.03548775613307953,-0.007816229946911335,0.8688551783561707,0.4937309622764587,0.004406978313948337,-0.010213166081824229,0.006995066887229342,0.005024686455726624,0.008224047720432281,0.008437824435532093,0.20536660250276328,0.6680756708979607,-9.787307540774345
5.1,3.799999952316284,154.0,23.59990310668945,-0.007951773703098297,-79.782830766539,40.45891604888424,269.2505105781555,0.035477206110954285,-0.007820264436304571,0.8688529133796692,0.4937357604503632,0.003507033367435448,-0.01097235516547689,0.007372841725888204,0.0047396095469594,0.0017804618692025542,0.003436897415667773,0.1991429906152189,0.6716209108382464,-9.790539296865463
5.2,3.799999952316284,156.0,23.597400665283203,0.0,-79.7828307442465,40.458916159041635,269.25071537971496,0.03548344224691391,-0.007809461560100317,0.8688504695892334,0.4937397539615631,0.004108848010518486,-0.012304365067407466,0.00613694298788357,-0.003543632570654154,0.005316364578902721,-0.0067419675178825855,0.18802140371873974,0.6848461432009936,-9.788463535308841
5.4,3.700000047683716,156.0,23.598651885986328,0.03180709481239319,-79.78283074276938,40.45891624773957,269.25049007415765,0.035473279654979706,-0.007806666661053895,0.8688469529151917,0.4937465786933899,0.0047835527791340714,-0.007892520060923816,0.0048857830538740045,0.003007146762683988,0.0003732733021024615,0.004092697985470295,0.1989267349988222,0.674544153213501,-9.784862235188484
5.5,3.700000047683716,155.0,23.596147537231445,0.07951773703098297,-79.78283073686579,40.458916254357646,269.2510174560547,0.03547530621290207,-0.007796476595103741,0.8688461184501648,0.4937481284141541,0.004228445940800716,-0.009043802075974222,0.005489408561329069,0.003296818118542433,0.002541690832003951,0.00208594324067235,0.19759291201829912,0.6726589377969504,-9.788545981049538
5.7,3.5,153.0,23.587383270263672,0.05566241592168808,-79.78283071523947,40.45891634464883,269.2509089756012,0.03549966961145401,-0.007798745296895505,0.8688467144966125,0.4937453567981721,0.0016927132180940526,-0.008924821814818802,0.005255625750460513,-0.003565578255802393,-0.0016951158177107573,0.004811120219528675,0.198092410415411,0.6843124385923147,-9.784783882498742
5.8,3.4000000953674316,153.0,23.59364318847656,0.06361418962478638,-79.78283070617081,40.45891635027176,269.2514547157288,0.03550392761826515,-0.007791793439537288,0.8688395023345947,0.4937577247619629,0.001680551572469993,-0.010435322425848293,0.005883832611183862,0.006059135776013136,0.001119213062338531,0.0035102039109915486,0.2004391355998814,0.665629415139556,-9.787226264476775
6.01,3.2000000476837163,152.0,23.596147537231445,0.07156596332788467,-79.78283070988824,40.45891645687883,269.25078666687006,0.035520706325769424,-0.007786813657730819,0.8688373565673828,0.4937603771686554,0.00516822809680461,-0.008772540738983158,0.004787140579339304,0.0009579682373441756,-0.002893964294344187,0.0046460903249681,0.1962223977595568,0.6800286953151227,-9.786399468183518
6.11,3.0999999046325684,152.0,23.597400665283203,0.07951773703098297,-79.78283070307181,40.45891646467553,269.2513252544403,0.03552432730793953,-0.00777862872928381,0.8688365817070007,0.4937617480754852,0.004458996220933999,-0.010074931964038471,0.0056346072357433006,0.0004442854260560125,0.0028703075367957354,3.937666770070791e-05,0.19741047888994212,0.6720441030710936,-9.786790062189104
6.3,2.799999952316284,154.0,23.596147537231445,0.08746951073408127,-79.78283071371104,40.458916599256156,269.25044262886047,0.03554578498005867,-0.007759543135762214,0.8688281178474426,0.4937753677368164,0.010402209126655685,-0.010986912208559066,0.0048497153901384035,0.004998324904590845,0.0008157327538356185,0.0040258364751935005,0.19609092677012088,0.6727116358280182,-9.787057864665986
6.41,2.700000047683716,149.0,23.596147537231445,0.07156596332788467,-79.78283070570912,40.45891668589867,269.2478216934204,0.03556165099143982,-0.007740257307887075,0.8688237071037292,0.4937821924686432,0.007191314943620353,-0.010283459020857404,0.002042076565815691,-0.004287667106837034,-0.002240420551970601,-0.002942003542557359,0.19655885020270944,0.6787629193067551,-9.786134004592897
6.61,2.4000000953674316,146.0,23.59239196777344,0.02385532110929489,-79.78283069025905,40.45891670693906,269.2484134483337,0.03553725779056549,-0.007736183237284422,0.8688086271286011,0.4938105046749115,0.0059103747718644035,-0.012887345464537164,0.0035511769525698672,0.00033372011967003345,-0.002477810019627213,-0.002350891707465053,0.20012466503307225,0.6642810472100974,-9.787151420116423
6.71,2.299999952316284,144.0,23.59364318847656,0.09542128443717957,-79.7828307106317,40.45891676754292,269.24852860450744,0.03553107753396033,-0.007740330416709185,0.8688057065010071,0.4938161075115204,0.002939945055472665,-0.005345913845702797,0.0065759072538925396,0.0013290771748870613,0.0012765218270942569,0.0066596982069313535,0.1995462840422988,0.6661870202422142,-9.787288829684258
6.9,2.0999999046325684,147.0,23.59489631652832,0.06361418962478638,-79.78283073118287,40.45891685347018,269.24659145355224,0.035529978573322296,-0.007712108548730613,0.8688061833381653,0.4938157796859741,0.003683969059163592,-0.0021016732096934172,0.004483846684123837,0.0023807368706911802,0.0006386309978552163,0.005410636309534311,0.19814339082688096,0.6790897786617279,-9.786481329202651
7.01,2.0999999046325684,150.0,23.597400665283203,0.08746951073408127,-79.78283073036911,40.45891685710343,269.2470883178711,0.03552190214395523,-0.007713900879025459,0.8688042759895325,0.4938196539878845,0.003030487371823749,-0.003500016621299875,0.0052521775342307024,0.002665384206920862,0.0008425288251601161,-0.001396317733451724,0.1977319478429854,0.6784736283123494,-9.786363215446473
7.2,1.8999999761581416,153.0,23.587383270263672,0.03180709481239319,-79.78283074627808,40.4589169780072,269.24712098121637,0.03550571203231812,-0.007709162309765816,0.8688043355941772,0.4938208162784576,0.009672631539315666,-0.006204077728840214,0.007722636125564394,-0.0021228380501270294,-0.0011311733396723864,-0.007463477551937103,0.19968329161405565,0.6681689339876176,-9.789189174771307
7.3,1.8999999761581416,153.0,23.579870223999023,0.0,-79.78283074464002,40.45891698809717,269.2479749965668,0.03550571203231812,-0.007709162309765816,0.8688043355941772,0.4938208162784576,0.009594091903113907,-0.007603379673433156,0.008382538849604463,0.004032705910503864,0.0008089490584097803,0.003639501053839922,0.19866710035130386,0.667520916312933,-9.788025578856468
7.5,1.7999999523162842,150.0,23.583627700805664,0.0,-79.78283073649405,40.45891707664131,269.24633682250976,0.03550143539905548,-0.007712969090789555,0.8688032031059265,0.4938230514526367,0.006408719904903522,-0.008755099614359321,0.007580345544886087,0.002662029815837741,0.003223921172320843,0.0001685843017185107,0.19743569500744346,0.6760009869933129,-9.787107565999033
7.6,1.7999999523162842,152.0,23.58487892150879,-0.02385532110929489,-79.78283073007678,40.458917085222566,269.2471488761902,0.03550143539905548,-0.007712969090789555,0.8688032031059265,0.4938230514526367,0.0056026527388851645,-0.010047734291373036,0.008219143031016752,-0.0021356220822781324,-0.0042749918065965176,0.0059446804225444785,0.19907359147444367,0.6674669026583433,-9.78760925710201
7.8,1.7999999523162842,155.0,23.596147537231445,0.07951773703098297,-79.782830727684,40.458917172164114,269.2445093441009,0.035493724048137665,-0.007713321130722761,0.8688023686408997,0.4938251376152039,0.006429176593193954,-0.010543224415232002,0.006405384602477768,-0.0030808651354163885,0.001241672202013433,-0.0044159316457808035,0.1979008227400482,0.6796199749410152,-9.785811823010443
7.91,1.7000000476837158,157.0,23.598651885986328,0.09542128443717957,-79.78283071997231,40.45891728296154,269.2420684146881,0.03548724949359894,-0.007708566728979348,0.8688026666641235,0.4938250780105591,0.009823985878296792,-0.01327969829183695,0.005061690742492128,-0.006275186780840159,-0.0014493647031486034,-0.002147676423192024,0.1974883930385113,0.6734790828824043,-9.787877644300464
8.1,1.600000023841858,157.0,23.597400665283203,0.07156596332788467,-79.78283070118148,40.458917310810975,269.243296508789,0.035483654588460915,-0.007711589336395264,0.8688023686408997,0.4938258826732636,0.009053373096655036,-0.016240939976801573,0.006647881783680439,-0.0022431823890656233,0.0002673604467418045,0.0036559167783707385,0.19889713346958168,0.6734977208822966,-9.786570791602138
8.2,1.5,157.0,23.597400665283203,-0.015903547406196594,-79.78283073066987,40.458917407872036,269.23951852798456,0.03546765074133873,-0.00771366013213992,0.8688022494316101,0.4938271641731262,0.014030999563862384,-0.013189329440394948,0.004270661756698574,-0.005566670559346676,-0.0028441259637475014,-0.005726292729377747,0.1950044775567949,0.6789153123646975,-9.786344504356384
8.4,1.5,156.0,23.602407455444336,0.0,-79.78283074014189,40.45891746633075,269.23651850700384,0.035466931760311134,-0.007725812029093505,0.8688017725944519,0.4938279092311859,0.008088953721283383,-0.0071264829412288734,0.0040778178405777325,-0.00458404840901494,-0.004205357749015093,0.0008734955918043853,0.1992298400402069,0.6682298181205988,-9.788687483668328
8.5,1.5,153.0,23.59990310668945,-0.007951773703098297,-79.78283073726003,40.45891747592764,269.237002735138,0.03546380624175072,-0.007728574797511102,0.8688012957572937,0.4938289225101471,0.007859574199908912,-0.00829539877280046,0.004873943701655454,0.0027303819078952074,0.0009496770799160004,-0.0030495356768369675,0.19834828091785311,0.6771676526963711,-9.787289414405825
8.7,1.399999976158142,147.0,23.60115623474121,-0.007951773703098297,-79.78283074611362,40.458917554450814,269.23358333587646,0.035452939569950104,-0.007730625569820405,0.8688005208969116,0.4938309490680695,0.008999748047656728,-0.0072733891591845925,0.0044383650010748074,-0.008016756735742092,0.00013325679174158722,-0.005231787916272879,0.2019489963166416,0.6670578899234534,-9.789825936555864
8.81,1.399999976158142,147.0,23.597400665283203,-0.02385532110929489,-79.78283074302445,40.458917565012435,269.2341049957276,0.03545726090669632,-0.0077162510715425014,0.8687988519668579,0.4938338696956634,0.009041878386013216,-0.00878871597342785,0.005136907570869299,0.0004017630126327276,0.002977174241095781,0.0008774494635872543,0.19943427331745625,0.6729434048384428,-9.787848992943763
9.01,1.399999976158142,142.0,23.59990310668945,-0.007951773703098297,-79.78283076251381,40.4589176201726,269.2327619838714,0.035491272807121284,-0.00771143939346075,0.8687924146652222,0.4938428103923798,0.006858026696872864,-0.004782939426085921,0.008352762559840606,-0.004503137432038784,-0.001022214419208467,-0.00595721835270524,0.2000422010198236,0.6676459736377001,-9.789407860636713
9.1,1.5,139.0,23.59990310668945,0.0,-79.78283076050191,40.45891762759324,269.23366296768194,0.03550068661570549,-0.0076942797750234595,0.8687863945960999,0.4938530623912811,0.006899865199783807,-0.006321263432069475,0.008980759014278573,0.0006515508866868912,-0.0009937232825905085,0.002230781363323331,0.19845517532899976,0.6699072381108999,-9.788144277334213
9.3,1.399999976158142,130.0,23.60115623474121,-0.007951773703098297,-79.78283068670045,40.45891767942943,269.22600067138666,0.035506051033735275,-0.007672762032598256,0.8687811493873596,0.4938620328903198,-0.001403207928348529,-0.01425545720668509,0.003262193420158611,-0.002698602853342891,-0.000786626769695431,-0.00757943093776703,0.19730857288464906,0.6702655993402005,-9.787418053150178
9.41,1.399999976158142,124.0,23.59990310668945,-0.007951773703098297,-79.78283069510783,40.45891773081183,269.22123063087463,0.03550073876976967,-0.007674221880733967,0.8687811493873596,0.4938625991344452,0.0027397827898081725,-0.011254496220000677,0.0026737553990867314,0.003350507235154509,0.005325107369571924,0.0020266363862901926,0.19933123441413045,0.6670700959861279,-9.788600944876672
9.6,1.399999976158142,113.0,23.597400665283203,-0.007951773703098297,-79.78283067165162,40.458917745117695,269.22192132949834,0.03550533577799797,-0.007681868504732847,0.8687816262245178,0.4938613176345825,0.0013924606058244259,-0.014141832749089447,0.004460814254096114,0.0012191119603812695,0.0007735216058790684,-0.002461531665176153,0.19893424501642587,0.6724372552335263,-9.788744201660156
9.7,1.399999976158142,112.0,23.59990310668945,-0.007951773703098297,-79.78283066295894,40.45891779414347,269.2162860679626,0.035500943660736084,-0.00767484726384282,0.8687788248062134,0.4938665330410004,0.003486126854005398,-0.01341759343153027,0.00357349635661952,0.004493596963584423,0.0027090506628155717,0.0060834516771137714,0.19949278201907875,0.6673126092553139,-9.789955160021783
9.9,1.399999976158142,109.0,23.597400665283203,-0.007951773703098297,-79.78283068779459,40.45891784783538,269.21002495765686,0.03549434244632721,-0.007680144160985947,0.8687795400619507,0.4938657581806183,0.008954990967489224,-0.006043019234948639,0.002458073076120097,0.00031671751639805734,0.0014174379175528884,-0.0008574581006541848,0.19678820723667745,0.6759427341073752,-9.788530193567274
10.01,1.2999999523162842,108.0,23.59113883972168,-0.015903547406196594,-79.78283068641936,40.45891785740898,269.2103601741791,0.035489577800035484,-0.007682252675294877,0.8687787652015686,0.4938673675060272,0.00840249238004973,-0.007372173036845502,0.00332737378769169,0.0021242683287709947,-0.0014813939342275262,0.003135760547593236,0.2003453791514039,0.6670690727233887,-9.789625961780553
10.2,1.2999999523162842,113.0,23.598651885986328,-0.007951773703098297,-79.78283066513877,40.45891787737462,269.20314085960393,0.03548973053693772,-0.007693350315093994,0.8687772750854492,0.4938699007034302,0.0018026323032192765,-0.005849773784471202,0.0034558134135622147,0.00481080636382103,-1.340886456091539e-06,0.005060651805251837,0.19695728313177824,0.6778849598765374,-9.788388690948489
10.31,1.2000000476837158,116.0,23.596147537231445,-0.02385532110929489,-79.78283065914104,40.458917881181655,269.2035256671905,0.03548973053693772,-0.007693350315093994,0.8687772750854492,0.4938699007034302,0.0008887638687903841,-0.007093139638369562,0.004337984850995926,-0.0006501584430225194,-0.00026994160725735133,0.0027441075071692467,0.19978894349187606,0.6681701034307479,-9.79023114860058
10.5,1.100000023841858,125.0,23.602407455444336,0.0,-79.78283062846293,40.458917924531775,269.1951037693024,0.035483136773109436,-0.007693731691688298,0.8687767982482909,0.4938711822032929,0.0019727818701958614,-0.009837830971966123,0.0021325026494902533,0.001772350980900228,0.0011288028908893464,0.003915726672858,0.1972738002240658,0.6779538108408452,-9.787506930828092
10.6,1.100000023841858,132.0,23.59990310668945,-0.007951773703098297,-79.78283061856575,40.45891793030229,269.19534838676446,0.035483136773109436,-0.007693731691688298,0.8687767982482909,0.4938711822032929,0.0007907767705724397,-0.011069798097881464,0.0030019062799833537,-0.004277953878045082,0.0006849413621239362,-0.0032777541782706976,0.1968677841871977,0.6750261830538512,-9.787656619548796
10.8,1.0,138.0,23.597400665283203,-0.015903547406196594,-79.7828306051128,40.458917954678576,269.1853638935089,0.03547438606619835,-0.007701241876929998,0.8687757849693298,0.4938734471797943,0.0010518521139170906,-0.008469467202632726,-7.12291193198859e-05,0.000628334004431963,-0.0015985607169568539,0.00563857750967145,0.1978323006816209,0.6740315716713667,-9.78815948009491
10.9,1.0,139.0,23.598651885986328,-0.007951773703098297,-79.78283060077631,40.458917986995694,269.17665207862854,0.03546706587076187,-0.007701941765844822,0.8687760829925537,0.4938734769821167,0.0045593323563139655,-0.006243420955354122,-8.650884663601324e-05,-0.0010680138366296887,-0.0018900426803156734,-0.0042068036273121825,0.19741360349580647,0.6794645851850509,-9.787639662623404
11.1,1.0,137.0,23.598651885986328,0.007951773703098297,-79.7828305907906,40.45891800045877,269.17682683944696,0.03546230494976044,-0.0077041350305080405,0.8687753677368164,0.4938750267028809,0.0033390683610275713,-0.008806716268106772,0.0016020664800695248,-0.001235396950505674,-0.001277573173865676,-0.0015625443775206804,0.19955472595989704,0.6677066385000945,-9.790019479393962
11.2,1.0,147.0,23.609920501708984,0.02385532110929489,-79.7828305643204,40.45891800634881,269.16720498085016,0.0354592502117157,-0.007710962090641259,0.8687742352485657,0.4938771426677704,0.0017288337114256262,-0.0074297014982196785,0.001258321127086768,0.00611793389543891,4.3235653720330454e-05,0.002296975580975413,0.19919884979724886,0.6717186324298382,-9.789954575300216
11.4,1.0,144.0,23.60115623474121,-0.007951773703098297,-79.78283054221271,40.458918009759046,269.15540755271905,0.0354570746421814,-0.007718379143625499,0.8687738180160522,0.4938779175281525,-0.0011650455168171602,-0.00405972758815335,-0.0010579723337020154,0.0008873164188116789,-0.002671380527317524,-0.004131423309445381,0.1981455835327506,0.6708475434780121,-9.788999724984171
11.51,0.8999999761581421,142.0,23.59990310668945,0.0,-79.78283053701747,40.45891801087824,269.1553176689148,0.035452242940664284,-0.007719871122390031,0.8687731027603149,0.4938795268535614,-0.0016689192545451975,-0.005349429952191388,-0.00033466708202839213,-0.0022801063023507595,0.0002112329239025712,0.00561458058655262,0.20018034148961306,0.6677142398804427,-9.789521881341935
11.7,0.8999999761581421,133.0,23.59364318847656,-0.007951773703098297,-79.78283051578889,40.4589180181264,269.1440585899353,0.035444360226392746,-0.007725980598479509,0.8687723875045776,0.4938812851905823,-0.0007408429363932388,-0.004012690360929196,0.0003174477617256362,0.0034227392170578237,0.0012215488823130727,0.0068444577045738714,0.19674990797415376,0.678911584764719,-9.78687777042389
11.8,0.8999999761581421,130.0,23.597400665283203,-0.015903547406196594,-79.78283051023456,40.4589180191546,269.14412558555597,0.035444360226392746,-0.007725980598479509,0.8687723875045776,0.4938812851905823,-0.002028757645746016,-0.005234668588305999,0.0013132055871871455,-0.0036938614211976533,-0.0028399885632097717,-0.006584972143173218,0.1956840701960028,0.676161931604147,-9.787756022214893
12.0,0.8999999761581421,121.0,23.60115623474121,-0.007951773703098297,-79.78283046846748,40.45891805854807,269.1318405914306,0.03543447330594063,-0.007720761466771364,0.8687717318534851,0.4938830733299256,0.0030780299636114627,-0.010021477106756393,0.0012957900620853226,-0.0025324251037091017,0.00072285725036636,0.0005505375447683036,0.20016976168379189,0.6693509486317635,-9.789786175489429
12.1,0.8999999761581421,115.0,23.59990310668945,-0.007951773703098297,-79.78283045940795,40.45891806585409,269.1320081996917,0.03543447330594063,-0.007720761466771364,0.8687717318534851,0.4938830733299256,0.0029878702747040443,-0.011396919824687707,0.0020928517731146497,0.002405817387625575,0.0012012575753033161,-0.004785624798387289,0.1968637824989856,0.6760691801458597,-9.788322032690047
12.3,0.8000000119209291,101.0,23.598651885986328,-0.015903547406196594,-79.78283044846516,40.45891808933658,269.1161443042755,0.03542380779981613,-0.007726431358605623,0.8687708377838135,0.4938854277133942,0.004922523500437677,-0.0091965017565751,-0.001789348941027841,-0.0006122107733972371,-8.654009434394538e-05,-0.006010674871504307,0.19872475024312736,0.6667198477685452,-9.791226344704633
12.41,0.699999988079071,89.0,23.60115623474121,-0.015903547406196594,-79.7828304280454,40.45891806865252,269.10092294692987,0.03542322665452957,-0.007736125960946083,0.8687703013420105,0.493886262178421,0.0018377755448496847,-0.003737412856750561,-0.004399079400629665,0.002092858543619513,0.0003342105483170599,0.004106788896024227,0.1997815796546638,0.6675405775755644,-9.789341787099838
12.6,0.6000000238418579,75.0,23.59489631652832,-0.03180709481239319,-79.78283042503283,40.45891807174894,269.10053170204156,0.03541922941803932,-0.007738405838608742,0.8687692284584045,0.4938883781433106,0.0006103049393193338,-0.004799787291672132,-0.003447687461545261,-0.0024537639692425732,0.0009565263753756881,-0.002905287547037005,0.19701721709221606,0.6750543227791787,-9.788985106945036
12.71,0.6000000238418579,72.0,23.60115623474121,-0.007951773703098297,-79.78283040095752,40.45891809637509,269.08577955245966,0.03540817275643349,-0.007737091276794672,0.8687688112258911,0.4938898980617523,0.0060695578086933395,-0.0065879706242781355,-0.0021505791227814947,-0.0024264224339276552,-0.002367562847211957,0.001522754435427487,0.19876688674092294,0.6672767950594426,-9.790439894199373
12.91,0.5,62.0,23.59489631652832,-0.04771064221858978,-79.78283035766479,40.45891810963829,269.07029593467706,0.035407427698373795,-0.007737043779343366,0.8687686920166016,0.4938901364803314,0.006222650702325154,-0.008558099789132738,-0.0012382631183125495,0.0007569460431113839,0.0015435441164299846,0.004873136989772321,0.19856091856956484,0.6793151888251305,-9.78846704363823
13.0,0.5,47.0,23.59364318847656,-0.04771064221858978,-79.78283035223836,40.458918118190745,269.0702356147766,0.035403862595558167,-0.007739374414086342,0.8687677383422852,0.4938920140266418,0.005112403249965475,-0.00954229242475623,-0.0003260136546759002,-0.00409120786935091,-0.003146838163957,-0.005893658846616745,0.19756245167925954,0.6765438278764486,-9.788938913941383
13.2,0.4000000059604645,19.0,23.60115623474121,-0.02385532110929489,-79.78283033405751,40.458918113556216,269.0511370944977,0.035396359860897064,-0.007749018259346484,0.8687665462493896,0.4938945770263672,0.0036345795172332018,-0.005244652607700122,-0.0038953670432925608,-0.0013541401131078599,-0.0027042946312576532,-0.0003610028070397675,0.1999055223539472,0.6710760965198279,-9.789844647645953
13.3,0.4000000059604645,2.0,23.597400665283203,-0.03180709481239319,-79.78283033049891,40.45891811919631,269.0507963943481,0.035396359860897064,-0.007749018259346484,0.8687665462493896,0.4938945770263672,0.00336197074028734,-0.006511988889378846,-0.0031572345187213303,-0.000987873412668705,-0.0027388676535338163,-0.002288133138790727,0.19726603439077736,0.6784530168771744,-9.787570665478707
13.5,0.4000000059604645,1.0,23.59990310668945,-0.015903547406196594,-79.7828302841381,40.45891809631315,269.03174865722656,0.035396449267864234,-0.007757643703371285,0.8687652945518494,0.4938965737819672,-0.00191673393440332,-0.0054997891052887965,-0.0041273474036530745,-0.0012414124794304367,-0.0009028569329530001,-0.004943083506077528,0.2005935934558511,0.6676606647670269,-9.789649935364725
13.6,0.4000000059604645,1.0,23.59364318847656,-0.03180709481239319,-79.78283027704973,40.458918097910036,269.03134835243225,0.035396449267864234,-0.007757643703371285,0.8687652945518494,0.4938965737819672,-0.0017483707455135825,-0.00683329403238671,-0.00342372806278207,0.0040623885579407215,0.0032654451206326485,0.002992287976667285,0.19974980369210246,0.6703628823906184,-9.788823139071463
13.8,0.4000000059604645,358.0,23.59239196777344,-0.05566241592168808,-79.78283022519012,40.458918073434646,269.01297367095947,0.035393763333559036,-0.007764295674860477,0.8687639832496643,0.4938990473747253,-0.005732872922472354,-0.005914319587569787,-0.0015275921188468288,-0.00027018607943318784,-0.0006231773877516389,-0.004748631734400989,0.1995749719440937,0.6692261105775833,-9.78957158267498
13.9,0.4000000059604645,359.0,23.598651885986328,-0.007951773703098297,-79.7828301787661,40.458918077060325,268.9917753982544,0.03539019450545311,-0.0077612842433154566,0.8687638640403748,0.4938995242118835,-0.0022108138001799135,-0.007439363627875536,-0.00481486067940792,0.004706359468400478,-0.000282167864497751,0.002916337689384818,0.19954399997368447,0.6668788920342923,-9.790197234749792
14.1,0.4000000059604645,5.0,23.59990310668945,-0.015903547406196594,-79.78283015868715,40.45891808077972,268.9909206676483,0.03538699820637703,-0.007763809058815241,0.8687632083892822,0.493900865316391,-0.003077554478573505,-0.009804050281951507,-0.0031402973283709123,0.004266878124326468,-0.0009723625844344496,0.0014268450904637575,0.19739693893119686,0.6769709669798613,-9.789903704524043
14.2,0.5,1.0,23.59364318847656,-0.007951773703098297,-79.78283011869094,40.45891808678,268.97006428718566,0.035379260778427124,-0.007764051668345928,0.8687621951103209,0.4939032196998596,-0.0002777309793801397,-0.009930622984758731,-0.002913568936081204,-0.0025512103457003828,-7.029705011518672e-05,0.001478658290579915,0.1988387526758016,0.6698750053346157,-9.790436385869981
14.4,0.5,357.0,23.60115623474121,0.007951773703098297,-79.78283006139715,40.458918076759794,268.94740498542785,0.03537895902991295,-0.0077666025608778,0.8687617778778076,0.4939038455486298,-0.0013279393275760307,-0.01025314150556716,-0.004149263508360092,0.004416242241859436,0.003240629332140088,0.0040948400273919106,0.19665408672764892,0.6797930525243283,-9.78902428328991
14.51,0.5,5.0,23.557334899902344,0.9701164364814758,-79.78283004993223,40.45891808043315,268.9470039653778,0.035381924360990524,-0.0077616660855710515,0.8687836527824402,0.4938652813434601,-0.002654744343321873,-0.01107806460245351,-0.0029627717225063892,-0.005903790704905987,0.00069750368129462,-0.011956262402236462,0.20075864939019086,0.6824484924226999,-9.79259166955948
14.7,0.5,16.0,23.583627700805664,0.2862638533115387,-79.78283001236672,40.45891807774517,268.92254603385925,0.03535901755094528,-0.00777911301702261,0.8687865734100342,0.4938614070415497,0.001900305269777643,-0.00913862298265378,-0.005992330902017324,0.004941629245877266,-0.002521245740354061,0.0067072799429297465,0.2078153433278203,0.695508102402091,-9.789765710234642
14.8,0.5,18.0,23.58613204956055,0.278312087059021,-79.78283000375063,40.458918083397656,268.92197597503656,0.035346876829862595,-0.007782178930938244,0.8687667250633241,0.4938972592353821,-5.4068414770559225e-05,-0.01071410183442578,-0.005077577795149465,-0.003919324371963739,-0.0007368940860033035,-0.014344038441777231,0.19297494554892186,0.6740255051851273,-9.788281686902048
15.0,0.5,15.0,23.5886344909668,0.2862638533115387,-79.78282994403807,40.45891803729641,268.89584720611566,0.03538849949836731,-0.007795754354447126,0.8687826991081238,0.4938659071922302,-0.005383535934980599,-0.007964192620467147,-0.006707283930317585,-0.0042367316782474535,-0.000941163336392492,-0.004409302957355976,0.19250188753008848,0.6655946972966195,-9.791291833519935
15.1,0.4000000059604645,14.0,23.58487892150879,0.2862638533115387,-79.78282993311704,40.45891803756413,268.8951665210724,0.035380836576223366,-0.00779713224619627,0.8687688708305359,0.493890792131424,-0.006065764769703887,-0.008747517801650851,-0.005812032615374011,0.0021166251972317696,0.003064576769247651,-0.007026388309895992,0.19559451643377546,0.6740378574281931,-9.788541887998582
15.3,0.4000000059604645,15.0,23.583627700805664,0.3498780429363251,-79.78282990382894,40.45891800534153,268.86784685134893,0.035366427153348916,-0.007845457643270494,0.8687865734100342,0.4938599169254303,-0.005160224399205532,-0.00511743947496216,-0.0077657049162439,-0.00905671250075102,-0.006356413476169109,-0.0066482797265052795,0.20262769360095265,0.6581667599827051,-9.787436764240264
15.4,0.4000000059604645,12.0,23.579870223999023,0.3896369338035584,-79.78282986161629,40.45891797391353,268.8440138149261,0.035387452691793435,-0.00782534945756197,0.8687718510627747,0.4938847422599793,-0.004245392228505403,-0.004976762979720527,-0.005621703958321725,0.0007927103433758018,-0.000757404079195112,-0.005836405325680971,0.1991966753639281,0.6765744526684284,-9.789878561496735
15.6,0.30000001192092896,12.0,22.401691436767575,29.715778350830078,-79.78282984550705,40.45891797304638,268.8429640579224,0.0354192852973938,-0.00782437901943922,0.8687646389007568,0.4938951432704926,-0.006285545745677644,-0.007019694836298393,-0.0032911760423015232,-0.013124779798090458,0.006911587901413441,-0.00958174094557762,0.1963015361689031,0.6540348250418901,-9.790724653601648
15.71,0.30000001192092896,14.0,23.50474739074707,1.948184609413147,-79.78282982364324,40.458917955911815,268.81663930892944,0.035339076071977615,-0.007894899696111679,0.8687891364097595,0.4938565790653229,0.00301975436796193,-0.004863601125134947,-0.0069203892861349385,0.02756721712648869,0.005495852790772915,-0.019588867202401158,0.2092613963037729,0.6987632473558187,-9.780336490273477
15.9,0.30000001192092896,16.0,23.579870223999023,0.2306014448404312,-79.78282979247672,40.45891792069588,268.7890204238892,0.03534471243619919,-0.007970314472913742,0.868796706199646,0.4938417077064514,-0.0010725426800448938,-0.002077732072349453,-0.007953281998083185,-0.0019661961123347282,0.0008152213413268327,-0.006750066764652729,0.2363920018449425,0.6699369858205318,-9.795958496332167
16.0,0.30000001192092896,25.0,22.59575843811035,18.631006240844727,-79.78282978905516,40.458917921237784,268.78821146965026,0.035350244492292404,-0.007979715242981909,0.8687862157821655,0.4938596487045288,-0.002130437197492941,-0.00211623963382941,-0.006648908138408066,-0.024715494364500046,-0.004185075405985117,-0.0044995760545134544,0.19129732456058265,0.6871973817050457,-9.784885039329527
16.2,0.20000000298023224,32.0,23.57110595703125,0.4293957948684693,-79.78282973977525,40.45891788043785,268.75954211235046,0.035327743738889694,-0.008030134253203869,0.8688159584999084,0.4938079714775085,-0.0071016817755211546,-0.005933572588560292,-0.009261726977387473,-0.037448421120643616,-0.011117646470665932,0.004132310394197702,0.13947912585921587,0.7109906523674727,-9.760082904696468
16.3,0.20000000298023224,37.0,23.58112335205078,0.2306014448404312,-79.78282973089001,40.45891788031923,268.7585858154297,0.03538032993674278,-0.007980036549270153,0.8688193559646606,0.4937990307807922,-0.004709000237963838,-0.008116854392377488,-0.009021083620136422,-0.004071353003382683,0.0015002066502347589,0.004441023338586092,0.19219129074364905,0.6629950252175332,-9.773765389323236
16.5,0.20000000298023224,61.0,23.541057586669922,1.6062582731246948,-79.78282970608878,40.458917849976494,268.73067415237426,0.035401780158281326,-0.008012407459318638,0.8688176274299622,0.4938001334667206,-0.0036540535817705905,-0.007023102837152816,-0.008831517645922058,-0.003013761015608907,0.0024120246525853872,-0.004800679162144661,0.19054469654336573,0.6537740392237902,-9.792495775222779
16.6,0.20000000298023224,70.0,23.420860290527344,3.379503965377808,-79.78282969864131,40.45891785112679,268.7298065471649,0.0353543721139431,-0.008055386133491993,0.8688181638717651,0.4938018620014191,-0.003270632773870875,-0.006368545464109383,-0.007440674287547001,-0.0008832388557493688,-0.005128196906298399,0.010605005547404293,0.16357395753264428,0.6699608132243157,-9.80060820221901
16.8,0.20000000298023224,76.0,23.3394775390625,5.558290004730225,-79.78282969546079,40.45891780214572,268.7044631290436,0.03529408574104309,-0.008076014928519726,0.8688352704048157,0.4937758445739746,0.0012181336282408313,-0.001894357423205745,-0.00425002697735092,0.019713524729013443,-0.013296783901751041,0.0116327702999115,0.1833269666321576,0.7003273775428533,-9.793262345194817
16.91,0.20000000298023224,73.0,23.284387588500977,6.393226146697997,-79.78282968195795,40.45891777248564,268.676382188797,0.03514004871249199,-0.008031579665839672,0.8688380122184753,0.4937826693058014,0.00602985572623228,2.9926165205270472e-05,-0.005868268852372704,0.02552490122616291,-0.005718215834349394,-0.012446332722902298,0.21088840233162048,0.6267409725487233,-9.808503697514537
17.0,0.30000001192092896,80.0,23.254337310791016,7.919966697692871,-79.78282968223904,40.45891777564753,268.6759306240082,0.03484077751636505,-0.007994204759597778,0.8689068555831909,0.4936833083629608,2.157864849222832e-05,-0.004084989889476943,-0.003504334559982548,-0.01240444928407669,0.027255060151219368,0.01142660342156887,0.2064355283416808,0.751079455241561,-9.81360422372818
17.2,0.30000001192092896,82.0,23.13414001464844,10.39296817779541,-79.78282965450605,40.45891775665212,268.64994109153747,0.03388141468167305,-0.00755811668932438,0.8689533472061157,0.4936750829219818,-0.003280950701589033,-0.011142549212283494,-0.004871419858896608,-0.03349423035979271,-0.08169088512659073,0.0517391711473465,0.1907181578502059,0.9405404251813888,-9.780345261096953
17.4,0.4000000059604645,80.0,22.992658615112305,13.565726280212402,-79.7828296540043,40.45891773354267,268.62152851104736,0.03281967341899872,-0.006907770875841379,0.8689744472503662,0.4937191605567932,0.008500289560289963,-0.001615139522689553,-0.007085760494743815,0.022225689142942432,0.0037029162049293522,-0.017054365947842598,0.1376563294697553,0.6126363189518452,-9.765577533245088
17.51,0.4000000059604645,78.0,22.90251159667969,14.989093780517578,-79.78282965360866,40.45891774006022,268.6212226200104,0.032139748334884644,-0.006489469669759274,0.8689765334129333,0.4937658905982971,0.005473973167664707,-0.0002591304295518266,-0.0013111425302024398,0.0008095935336314143,0.007469921838492155,0.009011055342853071,0.2668373939394951,0.5316788773611189,-9.845535868406296
17.71,0.5,78.0,22.740997314453125,18.169803619384766,-79.78282961971348,40.45891770980217,268.5950437831878,0.03111795894801617,-0.005459351930767298,0.8691385388374329,0.4935587048530578,0.005895918755414019,-0.007912538967693027,0.005840847886732976,0.010994288139045237,-0.0014135409146547318,-0.0007756664999760687,0.10971879903227093,0.5997778166458011,-9.847721557617188
17.8,0.5,83.0,22.68340301513672,20.05437469482422,-79.78282961067505,40.45891771582368,268.5957828807831,0.0306920912116766,-0.0042323218658566475,0.8692355155944824,0.4934265911579132,0.0139029024129919,-0.0075431370866241906,0.006397180435676122,0.11350139230489732,0.015492191538214684,-0.04341218248009682,0.2772464062459767,0.46923185672611,-9.839030256271364
18.01,0.6000000238418579,88.0,22.48432731628418,23.950742721557607,-79.7828296012747,40.45891770821191,268.5677851486206,0.030438696965575218,-0.003832691814750433,0.8694220185279846,0.4931168258190155,-0.011258909776838348,-0.017803457041289848,0.012718167035607277,0.04582308232784271,0.08074820786714554,0.008040884509682655,0.010846146494150164,0.6392450970411301,-9.791213480830194
18.11,0.6000000238418579,90.0,22.41796875,25.50929069519043,-79.78282956630578,40.45891767868794,268.56893957138055,0.03080105036497116,-0.006987662985920906,0.8690019249916077,0.4937998354434967,-0.06532789049351694,-0.0192189332156872,0.02891235985651605,-0.0035586140584200616,0.0076887947507202625,0.16764377057552338,0.22458380565047265,0.10774057634174823,-10.023001202344897
18.3,0.8000000119209291,99.0,22.25520133972168,29.668067932128906,-79.78282948696123,40.45891761672339,268.54324520111084,0.028627563267946243,-0.012805955484509468,0.8676173090934753,0.4962426126003266,-0.10518847196640688,-0.007065716070982359,0.10236821707283868,-0.04884786531329155,-0.0827556625008583,0.062322523444890976,0.14455110121518375,0.4029768003523351,-10.423631368875503
18.41,0.8000000119209291,113.0,22.560701370239247,20.69051551818848,-79.78282931139414,40.45891725649758,268.5438560295105,0.017196210101246834,-0.01611693203449249,0.866134762763977,0.4992545545101166,-0.129988686202172,0.004733056445075948,0.25927887531980376,0.42108008265495295,-0.15995797514915466,0.09523289650678636,-0.06255905876867474,-0.05776583114638925,-10.612681206464767
18.6,0.8999999761581421,124.0,22.541921615600586,21.175573348999023,-79.78282913434288,40.45891696765636,268.5939003276825,-0.0022591582965105768,-0.0023658277932554483,0.8657611608505249,0.5004467368125916,-0.16649789087635175,0.027560105102688984,0.21865933338109805,0.3558244109153748,0.024299632757902145,0.07702472805976868,0.015353689666371791,0.11600168706849218,-10.048966348171234
18.71,0.8999999761581421,123.0,22.53315734863281,21.98665428161621,-79.78282905448323,40.458916411003365,268.5830589580536,-0.008445627056062222,0.0021405047737061977,0.8653730750083923,0.5010524392127991,-0.15365808849875245,0.04771416119176134,0.12881953897929707,0.2614299952983856,0.057019811123609536,0.057968426495790475,-0.0009820764139294622,-0.1883268659189344,-9.442331172823906
18.9,1.100000023841858,159.0,22.48432731628418,23.115806579589844,-79.78282888826939,40.45891597689203,268.58761704444885,-0.007539822254329921,0.010975445620715618,0.86464524269104,0.5022065639495851,-0.14506982414812347,0.0620256560991357,0.08419677718421742,0.17859961092472074,0.06134238466620445,0.09731631726026536,0.12302478692494333,-0.21793098986148834,-9.531366725564004
19.0,1.2000000476837158,162.0,22.471805572509766,22.980627059936523,-79.782828863426,40.45891582615976,268.5956128883362,-0.001983198570087552,0.010781217366456984,0.8643406629562378,0.5027872920036316,-0.1398592906928712,0.06711038906320832,0.05288870722467341,-0.043211787939071655,0.08602192252874374,0.021365657448768616,0.2670741513557732,-0.02196020510047674,-9.479686110019683
19.1,1.2000000476837158,166.0,22.306535720825195,26.670249938964844,-79.78282886151881,40.4589156920967,268.6002877998352,0.0011638602009043095,0.008762765675783156,0.8639855980873108,0.5034390687942505,-0.1253955739590394,0.07093702486861007,0.04114768686815379,-0.1377302259206772,0.0967494174838066,-0.012408156879246237,0.17892194844782353,0.3957458045706153,-9.660718830227852
19.31,1.2999999523162842,165.0,22.290258407592773,26.19314384460449,-79.78282895319404,40.458915353682215,268.5991269397736,-0.0012524848571047187,0.006624021101742983,0.8630465865135193,0.5050795078277588,-0.08352030118556622,0.07594590312995,0.09085525689622384,0.11793290823698045,-0.007569675333797932,0.086647629737854,0.20644974438473584,-0.2409440775029361,-9.9704183614254
19.4,1.399999976158142,169.0,22.46805000305176,22.304725646972656,-79.78282897951597,40.45891519862775,268.58255899429315,0.0008762235520407557,0.0050448421388864535,0.8627002835273743,0.5056896209716797,-0.1104173770712605,0.07213332132388645,0.1035321892522192,-0.1734376698732376,0.1711852252483368,-0.03818776085972786,0.11234760669060052,0.0820631866157055,-9.9085735309124
19.6,1.5,166.0,22.36788558959961,24.483510971069336,-79.78282904721075,40.458914997862074,268.6017137813568,0.002771236235275865,0.010271934792399406,0.8623806238174438,0.5061487555503845,-0.06479401780075375,0.08360546598052189,0.09280193755026496,0.15525515377521515,0.023655131459236145,0.056703563779592514,0.2989995102770627,-0.04125544116832317,-9.808665080666543
19.81,1.600000023841858,154.0,22.2714786529541,26.14543342590332,-79.78282921607456,40.45891472404031,268.5984762954712,0.0005161611479707061,0.01526680029928684,0.8629160523414612,0.5051164031028748,-0.03282113728610269,0.0914223812651266,0.11452932653575565,0.013392721302807331,0.1047954112291336,-0.022817065939307213,0.14480642354115844,0.19928250152617694,-9.923151808977128
19.91,1.600000023841858,142.0,22.25770568847656,26.48735809326172,-79.78282935658069,40.45891456951187,268.5878619003296,0.0004895079764537512,0.014621699228882791,0.8637277483940125,0.5037463903427124,-0.017796137341439516,0.09791614485599903,0.13186839167383166,-0.07602004706859589,0.013110618107020857,-0.06531692296266556,0.20752548588439826,0.21539532652124765,-9.977874730825425
20.1,1.7000000476837158,121.0,22.71720886230469,18.344741821289066,-79.78282958265534,40.45891449966137,268.61441195487976,0.0009995439322665334,0.007936100475490093,0.8655560612678528,0.500748336315155,0.02502043085001316,0.1078537951157104,0.07450507851802822,-0.13142360746860504,-0.08656907826662064,-0.06296777725219728,0.3049785989150405,0.12026783388108014,-9.91891374707222
20.2,1.7999999523162842,119.0,22.300275802612305,26.98036956787109,-79.78282960585365,40.458914362964656,268.592965965271,0.005413806531578302,0.006935511715710163,0.8662189245223999,0.4995871782302856,0.020079266557735884,0.09449221022359218,-0.028557374216076237,-0.12496163696050645,-0.03938440978527069,0.01974366046488285,0.16833804957568646,-0.021502313297241928,-8.955508954524994
20.4,1.7999999523162842,112.0,22.033588409423828,32.944198608398445,-79.78282992429085,40.45891403376313,268.5814091014862,0.01531545538455248,0.003229252295568585,0.8671640157699585,0.4977768063545227,0.010256369127146696,0.12478016474578026,0.015740462421072996,-0.14554861187934875,0.0952015295624733,-0.07050348818302155,0.3611871155351401,-0.06361478725913912,-9.497537659406662
20.5,1.7999999523162842,110.0,21.838268280029297,37.0075569152832,-79.78283006199096,40.45891398978218,268.58874238014215,0.014486297965049744,0.0047657168470323094,0.8675498962402344,0.4971163868904114,0.013820422130230952,0.12897352562907574,0.13953036688873882,0.04413782060146332,-0.0006137423333711923,-0.03952018544077873,0.3088007045164705,0.20447055324912072,-10.854413287639618
20.6,1.7999999523162842,102.0,21.72808837890625,36.70538711547852,-79.78283018991691,40.45891393903636,268.61272371292114,0.013335020281374454,0.009621928445994854,0.8676304221153259,0.4969377219676971,-0.0008323492028520359,0.1292456228561493,0.34622947516604113,0.0027797294314950705,0.0796206071972847,0.007231326308101416,0.24383037278428674,0.13624090128578245,-11.629466400146484
20.81,1.8999999761581416,102.0,21.696786880493164,38.85236740112305,-79.7828306520154,40.45891365967299,268.678362493515,0.008024714887142181,0.012780537828803062,0.8662596940994263,0.4993661940097809,0.02408730428686151,0.16098409811281295,0.7193444423412833,0.03776460513472557,-0.1071637198328972,0.010152635164558887,0.3487928821519017,0.19251025635749106,-11.847659929990769
20.9,1.8999999761581416,104.0,21.666736602783203,40.4506721496582,-79.7828307740497,40.458913530478696,268.731496219635,0.003274362301453948,0.011128907091915607,0.865888774394989,0.5001022219657898,0.036463709026249916,0.14905778428761451,0.9241761917623263,0.06694499403238298,-0.07199564576148987,0.008187319152057171,0.23057762196287515,0.01569404329871759,-12.023456468582154
21.11,2.0,106.0,21.56907844543457,41.48440551757813,-79.78283105211682,40.45891350580908,268.96751153945917,0.006248068530112505,0.009152483195066452,0.8675021529197693,0.4973100423812866,0.06544464778396837,0.13764479391989115,1.4265632066990703,-0.09523186087608336,-0.013127516955137251,-0.07120631635189056,0.17407391231507066,0.1878759725019336,-12.280061527490616
21.3,2.0999999046325684,119.0,21.516490936279297,42.009220123291016,-79.78283124833486,40.458913439883155,269.0839077281952,0.008952667936682701,0.009424377232789992,0.8689459562301636,0.49473637342453003,0.09889538584081256,0.13949647259307835,1.6581695293798242,-0.004627509508281946,-0.054051872342824936,-0.06934516876935959,0.2484298839792609,0.3289222892001271,-12.328550148010256
21.4,2.0999999046325684,124.0,21.536523818969727,41.65934371948242,-79.78283158120105,40.45891346062928,269.41452134132385,0.015239836648106575,0.005336611066013575,0.8702654838562012,0.4923183023929596,0.14243774007527865,0.1348148011644755,2.1182850365062755,-0.058380819857120514,-0.07138371467590332,0.014342748560011387,0.29572041001170873,0.29235360151156786,-12.319806221723555
21.5,2.299999952316284,139.0,21.463905334472656,42.78054428100586,-79.78283172140006,40.45891351118993,269.6390024471283,0.018863193690776825,0.0010654103243723512,0.8704375624656677,0.4919162690639496,0.15547831571758122,0.12261622809824844,2.362483566356634,-0.09698710590600967,-0.0013283721636980776,0.0005416040658019483,0.21969493037089707,0.2372079076990485,-12.265705443620682
21.7,2.4000000953674316,145.0,21.21975517272949,34.184677124023445,-79.78283197806712,40.45891351171702,270.04033816337585,0.022489598020911217,-0.002257865620777011,0.8705021739006042,0.4916453957557678,0.17662420594794845,0.0928959595037956,2.6940032813945307,-0.02699485421180725,0.005271350033581257,-0.06765537708997726,0.02081465104361996,0.3542526101320982,-11.718217778205874
21.8,2.700000047683716,151.0,21.05198097229004,37.37333679199219,-79.78283206072713,40.458913542276335,270.31552160263055,0.019803820177912712,-0.002041249070316553,0.8703169822692871,0.4920894801616669,0.16681015420409748,0.07917204859337988,2.7957469929298084,0.028690461069345474,0.10333115607500076,0.04942504689097405,-0.05057507608551532,0.2616059266403318,-11.080843205451968
22.0,2.9000000953674316,158.0,21.24604797363281,32.71359634399414,-79.7828322161162,40.45891342990464,270.6616047668457,0.01773248426616192,0.0073720309883356094,0.8694171309471129,0.4937054514884949,0.10927720068741373,0.059441946900293724,2.7737652582401964,0.14214357733726501,0.16545423865318298,0.01082750502973795,0.05707519275136293,0.2600363695062697,-10.475496171712877
22.2,3.0999999046325684,165.0,21.21224403381348,34.256240844726555,-79.78283231520236,40.458913387290295,270.9604643630981,0.010591744445264341,0.01068886648863554,0.8670978546142578,0.4979106783866882,0.0740553435993469,0.060607261626644864,2.6906775062876545,0.10195496678352356,-0.02271239832043648,0.10755589604377748,0.014122992383781818,0.2702243570610881,-10.350734131336214
22.3,3.0999999046325684,168.0,21.34621238708496,31.838903427124023,-79.78283229992304,40.45891342610082,271.2317394065857,0.007245779503136873,0.0043425909243524075,0.8655917644500732,0.5006792545318604,0.060942253166471526,0.0358844030441114,2.735442192188939,0.02326032333076,-0.0939156413078308,0.10610321164131163,0.13366253499872982,0.06315964090637863,-10.23875410437584
22.4,3.299999952316284,173.0,21.28736686706543,33.04757308959961,-79.78283251068888,40.45891334462149,271.3447855758667,0.011121682822704315,-0.0017717048758640888,0.8642759323120117,0.5028919577598572,0.06976370758634268,0.007665439121960619,2.648708225234852,-0.10781644284725188,0.04984189197421074,0.06613641232252121,0.1133967433590442,0.19698465541005136,-10.064003047943118
22.61,3.4000000953674316,177.0,21.888351440429688,32.99190902709961,-79.78283248622706,40.45891343517275,271.8853768157959,0.030068499967455864,-0.006632677279412746,0.86493319272995,0.5009415745735168,0.12901481329827222,0.005897693698520584,2.7397934638316057,-0.19043096899986267,-0.00844363123178482,-0.04524734988808632,0.05713627788238228,0.22468616846948866,-10.162195340394977
22.8,3.5,179.0,21.902122497558594,31.34589195251465,-79.78283283479209,40.458913358991865,272.0245908546448,0.03404967114329338,-0.002480721566826105,0.8658375144004822,0.4991591572761536,0.16909908680817728,0.01760973577222682,2.6723606336116545,0.019965885207057,0.08213437348604202,-0.044980037957429886,0.07195473489817232,0.3702289209142328,-10.04254727482796
22.91,3.5999999046325684,180.0,22.00979995727539,29.99409103393555,-79.78283308204406,40.4589131317906,272.54337966918945,0.03041015937924385,0.0068964138627052324,0.8670678734779358,0.4972132742404938,0.12254928669077285,0.05164841432881388,2.6341171713847493,0.07361756265163423,-0.11974740773439407,-0.00813341699540615,0.2808712779544294,0.2640118000656366,-9.69582785189152
23.1,3.700000047683716,164.0,21.88083839416504,31.46516990661621,-79.78283288964812,40.45891315984749,273.0590151596069,0.019793111830949783,-0.0033138347789645195,0.8671401143074036,0.4976599812507629,0.07492768671305593,-0.021230127909882542,2.5228881051836245,0.12037735432386396,-0.1282024383544922,0.05180852860212326,0.15756203312426806,0.2961011002957821,-9.409717158079149
23.2,3.799999952316284,171.0,22.00604248046875,29.6760196685791,-79.78283275631472,40.45891233367527,273.53805196762085,0.015566925518214703,-0.009160107932984829,0.8665507435798645,0.4987621903419495,0.0033148547758502173,-0.04718019853474331,2.574043863256735,0.07023581117391586,-0.13091400265693665,-0.008935226127505302,0.03252618088619784,0.23258312556892635,-9.343248349428178
23.3,3.799999952316284,170.0,21.977245330810547,30.55071449279785,-79.78283261354655,40.45891228752605,273.7925189781189,0.01317075826227665,-0.011071709915995598,0.8661137223243713,0.4995508193969727,-0.012560544772327577,-0.08242753616455764,2.5220523751840584,0.05490628629922867,-0.012440158985555172,0.01821431145071984,-0.04836906323209405,0.3254818606004119,-9.355181931853297
23.5,3.9000000953674316,168.0,21.8132266998291,33.691665649414055,-79.78283248467966,40.45891206492382,274.4538010406494,0.012957043014466764,-0.0023883574176579714,0.8656759858131409,0.5004313588142395,-0.012515903132105736,-0.06313579689994286,2.553597871398208,0.1272086799144745,0.05827853456139565,0.02659185975790024,0.1295089927688241,0.1620736350864172,-9.782792905569076
23.61,3.9000000953674316,170.0,21.92716407775879,30.94830322265625,-79.78283235564622,40.45891202541175,274.7102001953125,0.014219610951840878,3.893254688591696e-05,0.866073727607727,0.4997140169143677,-0.022478622805358783,-0.05495930983518224,2.5758294955119716,0.09447307139635086,0.024080827832221985,0.010955162346363071,0.1416233820654452,0.2166935545764864,-10.022920510768893
23.8,3.9000000953674316,168.0,21.974742889404297,29.1114444732666,-79.78283210441967,40.45891158407363,275.36104572296136,0.013753350824117659,-0.0038179541006684303,0.8682379722595215,0.4959428310394287,-0.04090001586574417,-0.03015638885863468,2.672754199436424,-0.06254599243402481,-0.060787603259086616,-0.0022944873198866844,0.12175188462249935,0.3025296570919454,-10.0284204018116
24.0,3.799999952316284,168.0,22.053621292114254,27.87891960144043,-79.78283182830825,40.45891126158198,276.0936993408203,0.016956320032477382,-0.009026328101754187,0.8678758144378662,0.4964098930358887,-0.034667045755066794,-0.05767341427777796,2.756995615544485,-0.108733132481575,-0.04971184208989144,-0.008998582139611244,0.07840710539370775,0.32365537315607074,-9.868066359758377
24.1,3.799999952316284,169.0,21.93342399597168,29.97023582458496,-79.78283170042025,40.45891119250416,276.3684204864502,0.01586259715259075,-0.013162835501134396,0.8667117953300476,0.4983832538127899,-0.01323330739788104,-0.05074921303797436,2.747823995349564,0.08913036435842514,-0.07916871458292007,0.006372413132339716,0.09670655149966476,0.20929724704474206,-9.779930693507195
24.2,3.799999952316284,173.0,22.08617401123047,26.837236404418945,-79.7828319960435,40.45891062613117,276.8331774520874,0.013242918998003006,-0.013661022298038006,0.8664716482162476,0.4988636076450348,-0.01964597871514789,-0.029786194797375223,2.821096075499757,0.055039212107658386,-0.0621010847389698,0.005089063197374344,-0.01517014876473695,0.31428484462201595,-9.757252852320672
24.4,3.700000047683716,174.0,22.073654174804688,27.71988296508789,-79.78283200361393,40.45890991073241,277.5453289794922,0.010229931212961674,-0.011558023281395435,0.8678296208381653,0.4966222047805786,-0.08907232572684884,0.01657608740896089,2.81161541965765,0.02173147723078728,0.09179537743330002,-0.06915368884801865,-0.06835880690719932,0.2596270095929504,-9.392765495181084
24.6,3.700000047683716,176.0,21.91339111328125,30.685895919799805,-79.78283186571423,40.4589095990851,278.09988391876215,0.02298411913216114,-0.005259410943835975,0.8710407018661499,0.4906447231769562,-0.07494067697654662,0.034906276002352035,2.7555072649235925,0.13514426350593567,0.11571327596902847,-0.006298785097897053,-0.3012704043835402,0.20028248503804208,-9.421463044881822
24.7,3.5999999046325684,178.0,22.07490539550781,26.9724178314209,-79.78283181490241,40.45890931280011,278.5304430770874,0.019910024479031563,-0.0011100935516878963,0.8711972832679749,0.4905281364917755,-0.04754450587951034,0.05557363063373125,2.8039721387399905,0.0916946977376938,-0.028672091662883762,-0.03448683023452759,-0.10651951326057316,0.4013491182401777,-9.570109791755677
24.8,3.5999999046325684,173.0,21.948448181152344,30.05770492553711,-79.78283171654495,40.45890917807549,278.80896461486816,0.011757968924939629,0.004066090099513532,0.8698723912239075,0.4931199252605438,-0.07377868760938971,0.05315435238300961,2.7820663460011152,0.15022012591362,0.017790798097848892,0.10313109308481216,0.06401979373767973,0.2880577435344458,-9.591230519413946
25.0,3.5999999046325684,179.0,22.002286911010746,28.05385780334473,-79.78283194949928,40.45890872229185,279.5404261398316,-0.00014845444820821285,-0.010596681386232376,0.8652680516242981,0.5011974573135376,-0.15899177418286176,0.03856957380046768,2.837876137638235,-0.17303608357906342,-0.3014339804649353,-0.002287567825987935,-0.03504343691747636,0.21722839208319786,-9.631882701516153
25.1,3.5999999046325684,182.0,22.01605987548828,28.022050857543945,-79.78283186704941,40.45890859747812,279.8225201416016,-0.004257345572113991,-0.02107341960072517,0.8631968498229979,0.5044097304344177,-0.11890211556991122,-0.04731280931179719,2.8002638619940363,0.0378960594534874,-0.1789323091506958,0.060347195714712136,-0.2467310120165349,0.2565515203401447,-9.472237926721574
25.31,3.700000047683716,183.0,21.98600959777832,28.66614532470703,-79.78283224172134,40.45890817296072,280.5753048706054,-0.00171465624589473,-0.02218787744641304,0.8630220293998718,0.5046759843826294,-0.09688725455015842,-0.09650877733079938,2.8175963273645843,-0.1645776629447937,0.0073459502309560784,-0.0172915868461132,-0.3263885079324246,0.052090866244398064,-9.522807571291924
25.5,4.0,208.0,21.844528198242188,31.89456558227539,-79.78283248113159,40.45890817544059,281.0282257843017,0.006562338676303625,-0.01932913064956665,0.8636329770088196,0.5037078261375427,-0.026334784352563968,-0.06055495098608761,2.910762097530603,-0.0397944301366806,0.12160874903202055,0.111115500330925,-0.2997935073450208,0.13167994516901674,-9.75987182021141
25.6,4.0,200.0,21.945945739746094,28.594579696655273,-79.7828325184652,40.45890801252917,281.6122158813476,0.009224144741892816,-0.012183471582829952,0.8633132576942444,0.5044369697570801,0.03177317844717932,0.008098396123424605,2.931766313421652,0.12891608476638794,0.01586916483938694,0.05045869573950768,-0.17119523668661715,0.22343091744929552,-9.960844130516053
25.7,4.199999809265137,203.0,21.93592834472656,30.94035148620605,-79.7828326606157,40.45890818968535,282.03800285339355,0.008052295073866844,-0.015052729286253452,0.8626603484153748,0.5054956078529358,0.030659045397279882,0.005375726297940277,2.9841046168514818,-0.006877758540213108,-0.060383163392543786,0.1194930151104927,-0.2245227570645512,0.2603063098713756,-9.742109733223916
25.91,4.300000190734863,205.0,21.98600959777832,28.89674568176269,-79.78283310482145,40.4589079749865,282.7292183685302,0.0050306161865592,-0.023372044786810875,0.8605141043663025,0.5088653564453125,0.08332248837558959,-0.006198115596417021,3.066335090438525,0.0939326360821724,-0.04649488627910614,0.05821773782372475,-0.186525704227388,0.3713449351117015,-10.031632862091065
26.0,4.400000095367432,205.0,21.87958526611328,31.43336296081543,-79.78283317728561,40.458907912726715,283.0356606292725,0.0014116647653281687,-0.027264850214123733,0.859736442565918,0.5100077390670776,0.06740126638977577,-0.008901592376656022,3.0632963175927657,0.020949210971593857,-0.12648142874240875,0.05801122635602951,-0.12679097852669655,0.34439256001263857,-9.858620767593383
26.21,4.5,213.0,21.959716796875,29.23867225646973,-79.78283366784022,40.458907574614024,283.7255924987793,0.0029927610885351896,-0.03338031843304634,0.8617517948150635,0.5062218904495239,0.04084289889661756,0.006512730033815639,3.0875417050902234,-0.19300414621829987,0.011068077757954596,-0.04834999144077301,-0.2564350511133671,0.1597993240132928,-9.639293462634088
26.41,4.5,212.0,21.71431541442871,34.70949172973633,-79.78283392720714,40.458907353900145,284.42132080078125,0.01410834491252899,-0.017087889835238457,0.8645729422569275,0.5020185112953186,0.10074051113437438,0.06350313910241748,3.094442479190755,0.13017670810222626,0.1727253943681717,0.06578338146209718,-0.3762187355384231,0.44233269128948455,-9.580875100493431
26.5,4.599999904632568,213.0,21.72433280944824,33.07938003540039,-79.7828341024074,40.45890722732367,284.73090255737304,0.01273009181022644,-0.012311762198805807,0.8648711442947388,0.5016815662384033,0.06445709877040676,0.1713527055906781,3.1084999691118864,-0.013621671125292778,-0.08586571365594864,-0.07496383786201477,0.16102627085521815,0.3483263108879328,-9.917839028835296
26.6,4.599999904632568,200.0,21.970985412597656,28.690000534057607,-79.78283430546928,40.45890708133013,285.04243171691894,0.005572912283241749,-0.016944373026490208,0.8651275038719177,0.5012347102165222,0.05148652372713872,0.21223745801993013,3.1188079264356063,0.08766093105077744,-0.14809338748455048,0.0307612307369709,-0.0359056020132266,0.17213603541254996,-9.850368007421494
26.8,4.599999904632568,206.0,21.730592727661133,34.097206115722656,-79.78283477033793,40.458906987581344,285.69919860839843,0.00634893449023366,-0.020896455273032192,0.8654767870903015,0.500472903251648,0.04136655742590205,0.10908984577905316,3.127103938600064,-0.06832622736692429,0.14243055880069733,0.035836756229400635,-0.2389539411105216,0.266703620608896,-9.813042891025543
27.0,4.599999904632568,207.0,21.837017059326172,31.560590744018555,-79.78283494468931,40.45890700044124,286.04977691650384,0.01251345407217741,-0.015172474086284637,0.8649641275405884,0.5014483928680421,0.08848460663022105,0.11331278160143925,3.1451071231851024,0.1244872435927391,0.14114262163639069,-0.0033499174751341343,-0.12770861679688095,0.2524466287717223,-9.874539227485657
27.1,4.5,207.0,21.92716407775879,28.96831321716309,-79.7828353424661,40.45890678482452,286.67882240295415,0.011141221038997172,-0.008710254915058613,0.8643601536750793,0.5026743412017822,0.0804355072824183,0.19532541629206684,3.1427020278240616,0.025034172460436814,-0.0629332885146141,0.02244570292532444,-0.1295275119971484,0.1627370747923851,-9.737512652277948
27.3,4.5,202.0,21.82449531555176,30.463245391845703,-79.78283595586946,40.45890656506179,287.34433639526367,0.007444024085998534,-0.01894328184425831,0.8642992973327637,0.5025659203529358,0.0734399001585386,0.1612645682386344,3.1469399996976115,-0.00031568793929182004,-0.09925296157598497,0.11263692378997806,-0.08186142113059759,0.29510173805058004,-9.680718646645547
27.4,4.400000095367432,203.0,21.819488525390625,31.03577423095703,-79.7828364629423,40.45890637555028,287.7051285552978,0.007379595190286636,-0.02213343232870102,0.8643882870674133,0.5022834539413452,0.07117706535489343,0.15831218022613516,3.1875375745047334,-0.07675683498382567,-0.07136452943086624,-0.03381773456931113,-0.2093431842327118,0.4687970431521536,-9.91860852241516
27.5,4.400000095367432,204.0,21.90337562561035,29.087589263916016,-79.78283669691137,40.45890624747835,288.0244931030273,0.006507113575935364,-0.02157275378704071,0.8649231195449829,0.5013982653617859,0.08520810576963063,0.1543879147194024,3.204932648057265,-0.010508141480386255,0.026078220456838608,-0.07191836088895798,-0.22388879097998146,0.30356159929186105,-9.888718725442887
27.71,4.400000095367432,204.0,21.76439666748047,31.16300201416016,-79.78283734458938,40.458905926778435,288.7044247436524,0.009029777720570564,-0.016991212964057922,0.8660593032836914,0.4995709657669067,0.0651567489582032,0.1874133385749792,3.237077680165493,0.05993833765387535,0.0707000344991684,0.06330867111682892,-0.11445072225295007,0.1996609808318317,-10.062488619089127
27.9,4.300000190734863,209.0,21.776918411254886,32.816970825195305,-79.7828375987477,40.45890576999693,289.0285939025879,0.01218415331095457,-0.014967327006161213,0.8666550517082214,0.4985344409942627,0.06833918477528153,0.21014970382618967,3.2481126853547035,0.08716770261526108,0.021994637325406075,0.030200975015759468,-0.03197749050334096,0.18809906205162408,-9.946786254644396
28.0,4.300000190734863,208.0,21.71556663513184,34.081302642822266,-79.78283825048466,40.45890548099857,289.71081626892084,0.015809692442417145,-0.012231083586812021,0.8683958649635315,0.4954686462879181,0.02456794114848909,0.2240704383115492,3.2916234527258617,-0.17200052738189694,0.04255986213684082,-0.1165400817990303,-0.2402654167637229,0.2890268098935485,-10.08749014377594
28.2,4.199999809265137,211.0,21.90713119506836,28.08566474914551,-79.78283892375867,40.45890515619344,290.3890999603272,0.014702657237648962,-0.011808039620518684,0.8683231472969055,0.4956403374671936,0.03641896379065564,0.2373779006545432,3.3364816887249797,0.012260409072041513,-0.004735361784696579,0.048155732452869415,-0.18815503086894755,0.32650289408862593,-10.150752339363098
28.3,4.199999809265137,212.0,21.89210700988769,29.668067932128906,-79.78283910475784,40.45890495962664,290.72097862243646,0.009583908133208752,-0.01164325326681137,0.8674419522285461,0.497309923171997,0.0016742259428806085,0.2202811220352623,3.3049474116982283,0.07415220141410828,-0.006278807297348976,0.008408466354012491,-0.1696467660740018,0.26684521459043026,-9.566107372641564
28.5,4.099999904632568,209.0,21.89711570739746,30.36782455444336,-79.78283968975711,40.45890461491491,291.0802410888672,0.0036580269224941726,-0.011723773553967476,0.8664807081222534,0.4990595579147339,-0.04443971712455524,0.22784453848158315,3.27666007796167,0.0011123588774353266,0.002214692998677492,-0.0009933480760082603,-0.1439479791931808,0.2315203758515417,-9.547919023633005
28.6,4.0,215.0,21.855796813964844,30.176982879638672,-79.78284005512288,40.4589041548323,291.72975433349615,-0.003345556557178497,-0.015541471540927887,0.8655079007148743,0.5006430149078369,-0.1204036052136442,0.19319767446075425,3.2277467390572614,-0.0452905036509037,-0.032628126442432404,-0.04237430915236473,-0.2128630253300071,0.16097989512607455,-9.55107476592064
28.8,4.0,218.0,21.789438247680664,30.41553497314453,-79.78284075888386,40.458903647370185,292.41400611877435,0.000194897671462968,-0.010460983961820602,0.8643093705177307,0.5028518438339233,-0.1254838313024246,0.17624546880216607,3.2719985618662917,-0.08554979413747787,0.20926012098789207,0.008969408459961414,-0.2025467462092638,0.11512831404805185,-9.678791989088062
28.91,3.9000000953674316,220.0,21.783178329467773,31.39360427856445,-79.78284107893379,40.45890347020542,292.7651509094238,0.006770577747374773,-0.002845573471859097,0.8639321327209473,0.5035548210144043,-0.11472758395690867,0.19926930357231992,3.2950566573882387,-0.08827722072601317,0.16679222881793976,-0.07765477895736694,-0.2344797247834504,0.1173281188029796,-9.96555815577507
29.01,3.9000000953674316,225.0,21.70429992675781,32.268299102783196,-79.78284124585737,40.45890324392203,293.0948628234863,0.008458860218524933,0.00024383445270359522,0.8640815019607544,0.5032808780670166,-0.09759063750967303,0.2529114053969267,3.309139737431246,0.08233396708965303,-0.04861513152718544,0.025049006566405296,-0.07422123902477325,-0.037651203735731546,-10.02272755265236
29.21,3.799999952316284,222.0,21.838268280029297,29.683971405029297,-79.78284141548225,40.45890296939602,293.75793350219726,-0.002696039853617549,-0.007429387420415878,0.8659598827362059,0.5000512003898621,-0.10902850455239188,0.19501972462374945,3.306454016487377,0.07951881736516953,-0.20549947023391724,-0.10633964836597444,-0.09437529402785004,0.17972298044711352,-9.83515589118004
29.3,3.700000047683716,226.0,21.789438247680664,30.81312370300293,-79.78284152498489,40.458902779143756,294.0879906463623,-0.006518161855638027,-0.00966349057853222,0.8670415878295898,0.4980995059013367,-0.13056091960877153,0.13215718914293118,3.294921600647081,-0.021086951717734337,-0.02631035074591637,-0.007423667237162591,-0.2983274093829095,0.05475953090004623,-9.672940680384636
29.5,3.700000047683716,227.0,21.803211212158203,29.42951583862305,-79.78284174087149,40.458902534206594,294.74558151245117,-0.0010113554308190944,-0.002563245827332139,0.8674808144569397,0.4974631667137146,-0.13006865102574044,0.10389509678261223,3.280805149494692,-0.08548329770565033,0.16976675391197205,-0.029522072523832318,-0.2467126298323274,0.10797804638743401,-9.830740073919298
29.7,3.700000047683716,234.0,21.79444694519043,30.82902717590332,-79.7828419890763,40.45890239037836,295.3947228240967,0.0031030701939016576,0.0030410136096179485,0.8661320209503174,0.4997963905334473,-0.09609159731513668,0.13470233211734692,3.1662679015181148,0.0430108979344368,-0.03589262440800667,0.027820207178592682,-0.17572797998785974,0.0519857168616727,-9.487923082709315
29.8,3.5999999046325684,229.0,21.783178329467773,30.50300407409668,-79.78284204418392,40.45890225846748,295.7094105529785,0.002411381108686328,0.0017893087351694703,0.8655760884284973,0.5007686018943787,-0.09254382516628452,0.13129307496970608,3.127513076727812,0.04409470036625862,-0.09461083263158797,0.08301515132188797,-0.08162068943493067,-0.07414405577816069,-9.420585962533954
29.9,3.5999999046325684,233.0,21.735599517822266,32.84082794189453,-79.78284212439702,40.458902133319896,296.0369080352783,0.00047263450687751174,-0.00028505598311312497,0.8648344874382019,0.502056896686554,-0.1081020919258304,0.10450774366062557,3.1151687387288542,0.02430533617734909,-0.10398010164499284,0.06104196235537529,-0.10761663364246488,-0.019254294137936088,-9.515752905607224
30.1,3.700000047683716,233.0,21.80070686340332,30.08156013488769,-79.78284215787619,40.45890187743157,296.65998542785644,-0.0011640883749350903,-0.006330696400254965,0.8623951077461243,0.5061949491500854,-0.09737993086518357,0.05868885012754922,3.1223731721064643,0.08934679627418518,-0.08536805212497711,0.1279038041830063,-0.07751355947926641,-0.030053473329171538,-9.868272181749344
30.3,3.700000047683716,237.0,21.71932411193848,32.47504425048828,-79.78284252436491,40.458901718159424,297.30773056030273,-0.005953870248049498,-0.0005348976119421421,0.8587130904197693,0.5124218463897705,-0.0837318259528031,0.04465982258969114,3.1690632496431133,0.09937898814678192,0.06957197189331055,0.05676005408167839,-0.11082363042980434,0.20552783947438005,-9.924332946538923
30.4,3.700000047683716,239.0,21.776918411254886,30.2962589263916,-79.78284269381692,40.45890166115998,297.63525665283197,-0.005573122296482325,0.0020670921076089144,0.8581424355506897,0.5133773684501648,-0.0941372261509926,0.06482188785222709,3.200935381239287,-0.06632208824157715,0.028879538178443912,-0.0003200334031134844,-0.11857987063005568,0.020045552607625725,-10.004209420681
30.5,3.700000047683716,237.0,21.685518264770508,32.22058868408203,-79.78284274978323,40.45890158212831,297.95607460021967,-0.0033444804139435287,0.000520514149684459,0.8586410880088806,0.5125662684440613,-0.07122392929737037,0.07029953418475349,3.2142018453487835,0.0016122021479532125,-0.006877859123051167,0.010294456034898758,-0.016741327587515117,-0.06208146915771068,-9.992278761863707
30.71,3.700000047683716,236.0,21.731843948364254,32.832874298095696,-79.78284298045793,40.45890147182453,298.6011151123047,0.00468793511390686,-0.004875182174146175,0.8623487949371338,0.5062696933746338,-0.015148541666891712,0.04758690835886464,3.2119654710219008,-0.14647498726844788,0.01345999911427498,-0.19162660837173465,-0.20342059431597592,0.2242569462954998,-9.806781107783316
30.8,3.700000047683716,230.0,21.791942596435547,29.89071846008301,-79.7828430311974,40.4589014333876,298.9231022644043,0.008378949016332626,-0.0075463508255779735,0.86454838514328,0.5024231672286987,0.02084777509239425,0.0443857921579776,3.2325465747203768,-0.17188352346420288,-0.033902745693922036,-0.1496691107749939,-0.09924170320853593,0.41192464828491215,-9.990248608589173
31.0,3.700000047683716,227.0,21.76439666748047,32.08540725708008,-79.782843314783,40.45890141263719,299.5730389404297,0.00414641574025154,-0.010698813945055008,0.8672544360160828,0.4977331757545471,0.06456681422314414,0.021965650758630342,3.2313489649833613,0.06959383934736252,-0.05163468047976494,-0.018374236300587654,0.0005895455181598664,0.1579162282124162,-9.854044736623765
31.2,3.799999952316284,227.0,21.811975479125977,30.065656661987305,-79.78284335598369,40.45890137692275,299.8972004699707,0.0025596816558390856,-0.011089234612882136,0.867664098739624,0.4970207214355469,0.03597684045325855,-0.00014133521822160683,3.249850845828328,0.03442325443029404,-0.04328792914748192,-0.014230277389287947,-0.16046751458197833,0.1244356012903154,-9.954275368452072
31.3,3.799999952316284,226.0,21.844528198242188,29.75553894042969,-79.78284343480121,40.45890150851157,300.546259765625,0.005142552312463522,-0.010532964952290058,0.8662445545196533,0.4994828701019287,0.041136139520522086,-0.03109147932914721,3.2651171088603825,0.06935761123895645,-0.03650740161538124,0.10198839753866196,-0.2258493806608021,0.05257711704354733,-9.917105787992476
31.5,3.9000000953674316,222.0,21.78693389892578,30.646137237548828,-79.78284334985172,40.45890164981913,301.1776951599121,-0.004979497287422419,-0.01090901717543602,0.8639923334121704,0.5033622980117798,0.05306229685403818,-0.053401420219439534,3.2452699466895827,0.15855474770069122,-0.016918398439884186,0.1047324314713478,-0.17888794323429466,0.07200422152876855,-9.889718599319457
31.6,3.9000000953674316,225.0,21.883342742919922,28.56277275085449,-79.78284335488041,40.458901656600666,301.50229919433593,-0.0090394988656044,-0.010007887147367,0.8631809949874878,0.5047146081924438,0.021143004484142268,-0.07798918984275313,3.2435965508824376,0.026489945128560063,0.02658235840499401,0.04081027582287789,-0.3084359478950501,-0.08555067616514862,-9.757946916818618
31.7,3.9000000953674316,224.0,21.749372482299805,31.70372200012207,-79.78284332054533,40.45890171774076,301.808524017334,-0.007102455943822861,-0.009743329137563705,0.8625374436378479,0.5058496594429016,0.007154498283002273,-0.09443670011033913,3.2196718018393438,-0.00666273245587945,0.0762152150273323,0.04765448346734047,-0.3067537770420313,-0.0682313741510734,-9.809437497854233
31.91,3.9000000953674316,224.0,21.8282527923584,29.64421272277832,-79.7828434356585,40.458901938096076,302.43549240112304,-0.0008855258929543197,-0.007058699615299702,0.8614405989646912,0.5078085660934448,0.08164469167434654,-0.09338840239374956,3.253256150060199,0.1142156422138214,0.028180046007037163,-0.07514247298240663,-0.1898355206474662,0.19514201503247025,-10.186591093540192
32.1,4.0,229.0,21.76690101623535,29.771442413330078,-79.78284343019834,40.458902002119686,302.7628392028808,-0.0004507859994191677,-0.007303728722035884,0.8616002202033997,0.507534921169281,0.07858459979506338,-0.08657288320233447,3.2919454012323737,-0.06448278576135635,-0.0008465053979307412,-0.038574252277612686,-0.2655995749309659,0.25153417076915496,-10.17472826242447
32.21,4.0,228.0,21.95721244812012,26.495309829711914,-79.78284341087063,40.45890207344335,303.09453094482416,0.00035345187643542886,-0.01156654767692089,0.8623397946357727,0.506197988986969,0.08773853654104588,-0.10087962795077676,3.3365280548420944,-0.08142797648906708,-0.07356999814510345,-0.033764246851205826,-0.26189693525433544,-0.0031416906975209715,-10.218851351737976
32.41,4.099999904632568,229.0,21.894611358642575,26.996273040771484,-79.78284403504253,40.45890195699032,304.1003483581543,-0.003109387354925275,-0.02786773070693016,0.8609794974327087,0.5078662633895874,0.14515620656475292,-0.1149446886940258,3.312853832934234,-0.18164679408073425,-0.05564524605870247,-0.09629037976264954,-0.3405809063091874,0.4996002117544413,-9.757648708820344
32.51,4.099999904632568,230.0,21.9209041595459,26.209047317504893,-79.78284409556953,40.4589019913038,304.43047607421875,-0.0003803936997428536,-0.033340249210596085,0.8605313301086426,0.5083051919937134,0.12442358378958368,-0.13642074475166646,3.2791161811135607,-0.15374362468719482,0.045161668211221695,-0.02951457910239696,-0.4137027865648271,0.3009484237991273,-9.53456047475338
32.7,4.099999904632568,238.0,21.885847091674805,28.825180053710927,-79.78284417106174,40.458902012550176,304.75668991088867,0.0022611564490944147,-0.03495636209845543,0.8608150482177734,0.5077109336853027,0.15959421935034812,-0.13647467621145812,3.2354951443304785,0.01572401262819767,0.05783428996801376,-0.008179234340786934,-0.25584698567166925,0.1941228087991476,-9.509441421031953
32.8,4.099999904632568,239.0,21.804462432861328,29.84300804138184,-79.78284426969888,40.45890218999193,305.4112156677246,0.003994661383330822,-0.027538014575839043,0.8627555370330809,0.5048551559448242,0.13708227819917995,-0.09760218090890302,3.181232869917754,0.031085159629583362,0.12932264804840088,0.007465059868991375,-0.33515483636409044,0.04015631994232535,-9.52252515077591
33.0,4.199999809265137,240.0,21.905879974365234,27.656269073486328,-79.78284452348474,40.45890220027211,306.07713973999023,0.003188328118994832,-0.020124798640608788,0.8643597960472107,0.5024610161781311,0.08799126729580832,-0.01933339142398708,3.1852863313167323,0.01829257607460022,0.055969182401895516,-0.005988100543618202,-0.2423223575949669,0.13519387509673836,-9.636811319589617
33.1,4.199999809265137,240.0,21.74060821533203,31.329988479614247,-79.78284461682333,40.45890214766556,306.3940495300293,0.0015067552449181676,-0.0193560142070055,0.8644260764122009,0.5023849606513977,0.06286135887582624,-0.0017011649855966685,3.1573733831589808,0.056680362671613686,-0.058411568403244025,0.05431538075208664,-0.17741577878594395,0.12269124895334245,-9.595879640579225
33.2,4.199999809265137,232.0,21.818235397338867,28.25265312194824,-79.78284476639668,40.458902227618324,306.73847091674804,-0.0009190255077555776,-0.018699606880545616,0.8642446994781494,0.5027233362197876,0.059766773040534925,-0.011828124693681243,3.1987576322949267,0.05177861079573631,-0.04954495653510094,0.05488162860274315,-0.2236690453067422,0.058414259953424336,-9.820560071468352
33.41,4.199999809265137,234.0,21.902122497558594,26.7497673034668,-79.78284499696177,40.45890218013255,307.38611114501947,-0.0013201219262555242,-0.020337169989943504,0.8636787533760071,0.5036305785179138,0.022533816283022524,-0.02207922697002925,3.215601192930511,-0.013644871301949024,-0.047348786145448685,-0.004532853607088327,-0.33057153292000296,0.12242130858823658,-9.755219775438313
33.51,4.199999809265137,234.0,21.783178329467773,29.88276672363281,-79.78284507867869,40.4589021157332,307.7070149230957,-0.0008207975188270211,-0.021336451172828674,0.8629759550094604,0.5047935843467712,0.02549760536681102,-0.017196818303891984,3.207504040685761,-0.037782639265060425,-0.03296968340873718,0.10945326834917067,-0.2557254914939404,0.1353542623948306,-9.782923883199693
33.7,4.099999904632568,233.0,21.76064109802246,32.11721420288086,-79.7828453698087,40.45890204717068,308.35226333618164,-0.00453575374558568,-0.01828454062342644,0.8623016476631165,0.5060445070266724,0.03219643006161858,-0.0086001956258158,3.244156206754697,0.058795325458049774,0.0627264454960823,0.02395143732428551,-0.2778523422405124,-0.0455638660909608,-10.028419232368467
33.9,4.0,236.0,21.890853881835934,27.401813507080078,-79.78284576447525,40.458901866209885,309.00252807617187,0.0004257691034581512,-0.01898892782628536,0.864175021648407,0.5028329491615295,0.02259221925765699,0.030953588862708582,3.2987029614564567,0.0005596622941084206,-0.016986263915896416,-0.01281997561454773,-0.2374191749095917,0.07103185697458685,-10.126044344902038
34.01,4.099999904632568,233.0,21.884593963623047,27.696027755737305,-79.78284588863811,40.458901777930755,309.3330868530273,0.004074088763445616,-0.019732914865016937,0.8649283051490784,0.5014908313751221,0.03551074512339697,0.035901707219743825,3.3157007080222987,-0.018275992944836617,0.04144490882754327,-0.062270313501358025,-0.3292890558019281,0.11233458749949933,-9.968762429952623
34.1,4.099999904632568,235.0,21.928415298461914,25.978445053100586,-79.78284600803089,40.45890168492272,309.66411102294916,0.002979327458888293,-0.01931266486644745,0.8652267456054688,0.5009999275207521,0.04375728498578022,0.044306277297017936,3.305830944813661,0.08463459461927414,0.0009413294610567393,-0.03819207102060318,-0.3677018273994327,0.2992253589816392,-9.691871041059494
34.3,4.099999904632568,235.0,21.82574844360352,28.371929168701172,-79.78284634612815,40.45890154831511,310.30124557495117,-0.0035795946605503563,-0.022517506033182144,0.8646420240402222,0.5018709897994995,-0.007922943483544824,0.02472376110333324,3.2383176637384747,-0.042405225336551666,-0.08802325278520584,0.01134521048516035,-0.3879785460233688,0.11500134724192322,-9.601547931432725
34.51,4.099999904632568,236.0,21.91965103149414,26.312419891357425,-79.7828465761184,40.458901451874965,310.9386242675781,-0.006940254010260104,-0.015703681856393814,0.8643810153007507,0.5025442242622375,-0.01761867164204419,0.0020710767724222427,3.2145917444583385,0.07561559975147247,0.0022488895338028674,-0.02663667127490044,-0.3665536535158754,0.12095274383202195,-9.703329829573633
34.6,4.099999904632568,241.0,21.837017059326172,27.78349876403809,-79.78284667781939,40.45890135008969,311.25960815429687,-0.007048595696687698,-0.011276678182184694,0.8636632561683655,0.5038939118385315,-0.04891373040757127,0.025665256804989836,3.2130079274313617,-0.053217507898807526,0.03932828083634377,0.06397241353988647,-0.26295663345605136,-0.02350683018565178,-9.807390387654305
34.71,4.099999904632568,242.0,21.928415298461914,26.28856468200684,-79.78284687025891,40.45890126494853,311.57521713256835,-0.005506696179509163,-0.010922841727733612,0.8631408214569092,0.5048152804374695,-0.05556905634749605,0.045438576495850716,3.2036439402882824,-0.056118089705705636,-0.00495093734934926,-0.029603663831949237,-0.3772757659479976,0.04250087982974947,-9.689646760225298
34.9,4.199999809265137,243.0,21.7844295501709,29.73168182373047,-79.782847154134,40.45890111124055,312.20245635986333,-0.004111161921173334,-0.01621883548796177,0.8621611595153809,0.5063579082489014,-0.029972768711723163,0.020683409301916304,3.1588781508386408,-0.08043210953474045,-0.04788670316338538,0.02475181221961975,-0.2671611652337015,0.04807821907103062,-9.68845685184002
35.0,4.199999809265137,243.0,21.87708282470703,27.266632080078125,-79.78284722907527,40.458901030249685,312.518671875,-0.0028183646500110626,-0.020371761173009872,0.8619483113288879,0.5065789818763733,-0.01501418964224056,-0.0077897642454978,3.1679186117876887,-0.05294254794716835,-0.08066898584365845,0.044853292405605316,-0.33812109231948856,0.0570581444632262,-9.856422214508056
35.2,4.199999809265137,245.0,21.81072425842285,29.548791885375977,-79.78284750115587,40.4589008961241,313.148367767334,-0.0024445042945444584,-0.02075501903891564,0.8616398572921753,0.5070899128913879,0.012133346798175723,-0.04305843362033671,3.149188695159595,0.05269542336463928,-0.031848154962062836,0.03437978029251098,-0.5069453378766775,0.0071913534868508575,-9.680436810851097
35.4,4.300000190734863,247.0,21.61415100097656,32.562515258789055,-79.78284755775886,40.45890081382243,313.46290100097656,-0.0029740098398178816,-0.019984938204288483,0.8621165752410889,0.5063069462776184,-0.008866836473658352,-0.033126887491442,3.1548389746032326,0.036260396242141724,0.012754346244037151,-0.0024755916092544803,-0.3615682078152895,-0.13260703034698965,-9.876012725830078
35.5,4.400000095367432,248.0,21.804462432861328,26.86904335021973,-79.78284773030849,40.45890065618639,314.0972470092773,-0.001461931155063212,-0.019732056185603145,0.8628348708152771,0.5050986409187317,-0.023313770368996636,-0.05508577233157454,3.2532704869826663,0.08159270137548448,0.06449086219072342,0.033235277980566025,-0.4625956324115396,-0.014094024683581662,-10.324837982654573
35.6,4.5,248.0,21.849536895751953,27.86301612854004,-79.7828477485062,40.45890055564533,314.42331970214843,-0.003164846450090409,-0.016924355179071426,0.8638903498649597,0.5033857226371765,-0.03585119031246714,-0.05686141783970245,3.263894711142953,0.14496715366840365,0.0011970025952905414,-0.043672677129507065,-0.4387588730826974,-0.051750846086069946,-10.0264990067482
35.9,4.900000095367432,249.0,21.88083839416504,26.360130310058594,-79.78284775933378,40.45890029323097,315.3554562377929,-0.013382582925260069,-0.01960594765841961,0.864000141620636,0.5029317736625671,-0.09118561663829372,-0.09993561805296064,3.208523964544723,0.02889804728329182,-0.08670260012149811,-0.006557686720043421,-0.6074396791309119,0.0270624991832301,-9.676221553087236
36.11,5.0,249.0,21.8570499420166,27.61651039123535,-79.78284768030265,40.45890013287457,315.9887646484375,-0.01784644089639187,-0.025787092745304108,0.8622868657112122,0.5054483413696289,-0.10742708727905703,-0.16950609864659733,3.113935208523108,-0.055453136563301086,-0.11890224367380142,0.03082958050072193,-0.6908551074564457,0.06788661226630212,-9.295891749858855
36.21,5.199999809265137,255.0,21.72808837890625,30.53481101989746,-79.78284764732804,40.45890014143818,316.28944671630865,-0.015580653212964538,-0.025283057242631912,0.8613814711570741,0.5070898532867432,-0.0956431745732719,-0.203726455439763,3.084329268248593,-0.10586525499820708,0.07565280050039291,0.02892812341451645,-0.7669216089695693,-0.023685279898345468,-9.471512287259102
36.4,5.300000190734863,257.0,21.71431541442871,31.886613845825195,-79.78284751889542,40.45890013885847,316.9011944580078,-0.014769004657864569,-0.025863830000162125,0.8610959053039551,0.5075696706771851,-0.05605008688659125,-0.17765849323283656,3.060718621666875,-0.007256262004375458,-0.16715435683727264,0.036790337413549416,-0.6112444623559714,-0.15607978222891689,-9.527355535626413
36.5,5.5,258.0,21.74436378479004,28.34012222290039,-79.78284744156208,40.458900098541775,317.20722091674804,-0.013448657467961313,-0.028423838317394257,0.8621242046356201,0.5057204365730286,-0.08777399364256072,-0.23661866690714395,3.0519146355543767,-0.13218095898628235,0.004594209138303995,-0.0811319500207901,-0.9924186035245658,-0.06878863664343954,-9.6100398427248
36.7,5.599999904632568,258.0,21.793193817138672,29.365901947021484,-79.78284722223356,40.45889999150583,317.805350189209,-0.00971562508493662,-0.021987754851579663,0.8649867177009583,0.5012188553810121,-0.05267677349343449,-0.2433411836822814,3.0223515983593736,0.10282684862613678,-0.05572834238409996,-0.031643036752939224,-0.7695141182094812,0.24615681543946266,-9.578241514563564
36.9,5.800000190734862,256.0,21.804462432861328,28.7218074798584,-79.78284719395877,40.45889983482522,318.4252308654785,-0.02473708800971508,-0.03259538859128952,0.8642003536224365,0.5014812946319579,-0.13533272867899745,-0.22202955472664032,3.0043440273964888,-0.14746814966201782,-0.2341896295547485,-0.18538616597652435,-0.4595646185427905,0.07279054869432003,-9.60968550145626
37.0,5.9000000953674325,257.0,21.74436378479004,29.61240577697754,-79.78284708098327,40.45889978903028,318.7254475402832,-0.031082252040505413,-0.039268307387828834,0.8629966378211975,0.50272136926651,-0.11459534106492912,-0.2989242185421105,2.978849563448616,0.004650636110454798,-0.1084921658039093,0.18832944333553314,-0.8023829253762961,-0.07602528777904809,-9.592040943503381
37.11,6.0,258.0,21.500215530395508,34.78900909423828,-79.78284698852731,40.458899750131714,319.0249851989746,-0.033540766686201096,-0.0398135706782341,0.8618597984313965,0.504467785358429,-0.11831812729275,-0.3331586630522446,2.9831699266271268,-0.039803795516490936,0.06927735358476639,-0.01801690459251404,-0.8127641451358796,0.05392488654702903,-9.7848704212904
37.3,6.0,258.0,21.56532096862793,33.826847076416016,-79.78284717039784,40.45889956157135,319.64874542236333,-0.02247922122478485,-0.03805161640048027,0.8604916334152222,0.5075441598892212,-0.10111511123805482,-0.2651127953669893,3.0903247549854918,-0.030231790617108345,0.14003291726112366,0.06704822927713394,-0.7579280796647072,-0.08590877244248987,-10.166807624101642
37.5,6.0,268.0,21.534019470214844,33.98588180541992,-79.78284723804765,40.45889936264921,319.97968948364263,-0.01586131565272808,-0.03751916438341141,0.8598745465278625,0.5088778138160706,-0.0941329167377939,-0.20032413518373754,3.154330631631478,-0.11657541245222093,0.06907861679792404,0.087684266269207,-0.6207398289442063,-0.028749845735728738,-10.116369541883467
37.6,6.0,265.0,21.61540412902832,31.52878379821777,-79.7828473396587,40.45889912062454,320.6140812683105,-0.013903869315981865,-0.03489946201443672,0.8594927787780762,0.5097655057907104,-0.05183747433613365,-0.13029889563493047,3.199411648446935,0.05650950223207474,0.052776899188756936,-0.06312773376703262,-0.5907441242784262,-0.03630170747637749,-10.076206187009813
37.8,6.0,266.0,21.67424964904785,30.11336708068848,-79.78284753791957,40.458898874498956,321.2608898925781,-0.01836169883608818,-0.026393113657832142,0.8612904548645021,0.50709468126297,-0.10472176321922136,-0.0990489606411808,3.2414908469669235,0.0981803461909294,0.020919950678944588,-0.010199050419032574,-0.6989781325310469,-0.2043423347733915,-10.025854643583296
37.9,6.0,267.0,21.68927383422852,30.94830322265625,-79.78284776002243,40.45889872386022,321.58758819580083,-0.01896719075739384,-0.02523202635347843,0.8622297048568726,0.5055330991744995,-0.12967158306594515,-0.07336668616457166,3.229078209623955,0.04921145364642143,-0.037063736468553536,-0.06896904110908507,-0.4897733811289072,-0.15743852896615865,-9.76764744758606
38.0,6.0,265.0,21.67424964904785,31.974082946777344,-79.78284783003622,40.45889857175073,321.9097508239746,-0.01885095611214637,-0.02506672404706478,0.8629008531570435,0.5043992400169373,-0.13742883210299753,-0.07179267658618013,3.216930614952124,0.11352984607219695,-0.05155134201049805,-0.031741272658109665,-0.6233492951095104,-0.07802378386259079,-9.723936002254488
38.21,6.0,263.0,21.596622467041016,31.75143241882324,-79.78284792337199,40.458898372869385,322.5500553894043,-0.02447057142853737,-0.02830746583640576,0.8631207346916199,0.5036095380783081,-0.14264796908581442,-0.09644951002784223,3.229483689575777,-0.009449505247175694,-0.06502800434827805,-0.025613907724618912,-0.6911246640980244,-0.01984170405194164,-9.933207850456238
38.4,6.0,263.0,21.758136749267575,30.80517196655273,-79.7828479889305,40.45889824048936,322.87462509155273,-0.02498605847358704,-0.03095361031591892,0.8624184131622314,0.5046307444572449,-0.14192866203111293,-0.11470718132002093,3.2604101275730835,-0.0875077173113823,0.015377495437860487,-0.04260649532079697,-0.6330084568262101,0.10541521176695824,-10.052853577136991
38.5,6.0,263.0,21.620410919189453,32.109264373779304,-79.78284814949444,40.45889828523868,323.49469650268554,-0.021813472732901573,-0.02795902825891972,0.8610991835594177,0.5071989297866821,-0.07707660583698857,-0.13547407375329826,3.2395093524847325,0.04863226786255837,0.05268751084804535,-0.05913029611110687,-0.7092280092090368,0.04735078889876605,-9.932058287858963
38.7,6.099999904632568,266.0,21.731843948364254,28.212894439697266,-79.78284823177778,40.45889820596011,323.8205860900879,-0.01947782374918461,-0.027245081961154938,0.8604058027267456,0.5085078477859497,-0.06737561522269145,-0.12259149953348285,3.2719591613433923,-0.03009113296866417,-0.05233735218644142,0.012028823606669905,-0.6605785171687604,0.07474059054628016,-10.037109364271164
38.8,6.099999904632568,266.0,21.75062561035156,29.19891357421875,-79.78284839650749,40.45889816424675,324.4545735168457,-0.016694923862814903,-0.028312576934695244,0.8587197065353394,0.5113904476165771,-0.011802260761489129,-0.12524451417497612,3.2578129427586395,-0.047960013151168816,-0.049899734556674964,-0.031471896916627884,-0.6787179688364268,0.05584558725357056,-9.841479070186617
39.0,6.199999809265138,265.0,21.95721244812012,24.435800552368164,-79.78284841864891,40.45889826225855,324.7550381469726,-0.018665347248315808,-0.030273338779807087,0.857762336730957,0.5128148198127747,0.0171721761029253,-0.15002201612436844,3.2190540527191227,0.026323521509766586,-0.06418823450803758,0.07292318344116211,-0.7230381824076176,0.06578437835443765,-9.79018437087536
39.1,6.199999809265138,265.0,21.7744140625,28.89674568176269,-79.78284857349549,40.458898244420645,325.39345062255865,-0.019092684611678123,-0.03715232387185097,0.857649564743042,0.5125353336334229,0.03069452764584618,-0.1882276539886412,3.1334084898966035,0.049922388046979904,-0.0181255079805851,-0.0984615683555603,-0.8067844169586897,-0.014100962541997431,-9.293832945227622
39.3,6.300000190734862,267.0,21.6817626953125,31.011919021606445,-79.78284870506786,40.45889829980444,326.0049656677246,-0.013269351795315742,-0.03343458101153374,0.8610352873802185,0.5072715878486633,0.04357979000821777,-0.2036306774561092,3.072764772676874,0.0784275159239769,0.08424400538206099,0.06585776805877687,-0.8552703331410886,-0.2910607273131609,-9.359603011608122
39.41,6.300000190734862,268.0,21.649208068847656,31.2584228515625,-79.78284870835661,40.45889847247431,326.3204640197754,-0.01467164698988199,-0.02654157020151615,0.8622663617134094,0.5055462121963501,0.059945344267832365,-0.20256741791675706,3.1023297536274432,0.1803063005208969,0.031874895095825195,0.08162188529968263,-0.7940580251812935,-0.16835334369912744,-9.894453674554823
39.5,6.4000000953674325,268.0,21.63167953491211,31.958179473876953,-79.78284873559419,40.45889848153281,326.63180435180664,-0.02155798301100731,-0.0222556795924902,0.8629737496376038,0.5042978525161743,0.0340540998317106,-0.17959420864879727,3.1100592179684066,0.2633654475212097,-0.02383011020720005,-0.08341731876134872,-0.7655350148677826,-0.0441530928388238,-9.874017655849457
39.71,6.4000000953674325,269.0,21.811975479125977,27.41771697998047,-79.78284889543009,40.4588985792247,327.25282562255865,-0.025849802419543263,-0.02785762026906013,0.8636369109153748,0.5026800632476807,-0.03703808179561136,-0.19594089686041627,3.0834796230000014,-0.06193575635552406,-0.11787619441747665,-0.03677421063184738,-0.7017003768682479,-0.0240835392381996,-9.631128410696984
39.8,6.4000000953674325,262.0,21.640443801879886,32.912391662597656,-79.78284891148876,40.45889860396973,327.5607518005371,-0.025279652327299118,-0.03273801878094673,0.8631646037101746,0.5032256841659546,-0.01012957532703801,-0.2297401140685917,3.0616103444277187,0.016635948792099953,-0.08055061846971512,-0.008771495893597603,-0.6549345653504134,-0.04229499388486147,-9.689423396587372
40.0,6.5,266.0,21.637939453125,29.469274520874023,-79.78284893149952,40.458898762310035,328.1740826416016,-0.02071281708776951,-0.03881425783038138,0.8615400195121765,0.5057798624038696,0.023399782187798868,-0.2833370391848738,3.078987066283956,-0.021667325869202614,-0.05133705586194992,0.08818091452121735,-0.880381858572364,-0.02435661562951282,-9.790628759264944
40.2,6.599999904632568,266.0,21.5991268157959,31.27432632446289,-79.7828489696799,40.458898953150594,328.7805966186524,-0.019448507577180862,-0.037108831107616425,0.8609016537666321,0.5070435404777527,0.052844191620086384,-0.2918142188760566,3.0906120157537584,0.032795246690511703,-0.059876319020986564,0.07215984910726547,-0.9006798098981381,-0.1107671499811113,-9.866078306436538
40.31,6.699999809265138,266.0,21.66172981262207,30.821075439453125,-79.78284895010479,40.45889899587307,329.0910595703125,-0.023955516517162326,-0.03722501173615456,0.8601214289665222,0.5081650018692017,0.05847615453526226,-0.3077183726553559,3.0854312686705594,0.15457949042320251,-0.0300939679145813,0.18051040172576904,-1.0611434872448444,-0.09968461152166128,-9.72738235116005
40.41,6.9000000953674325,268.0,21.730592727661133,28.849035263061523,-79.78284895374493,40.45889914264064,329.3920849609375,-0.02746000327169895,-0.03678780421614647,0.8597595691680908,0.508631706237793,0.046630754821560316,-0.332607755661094,3.0686902979098223,0.14394983649253845,-0.043627504259347916,-0.06145773455500603,-1.0923315853625537,-0.018167445212602617,-9.680764839649203
40.61,6.9000000953674325,271.0,21.561565399169922,33.07938003540039,-79.78284887311722,40.45889924792458,330.00538146972656,-0.02311838231980801,-0.049314241856336594,0.8613290786743164,0.5051197409629822,0.004766681586533178,-0.36354705329337605,3.016456452280822,-0.1050134226679802,-0.046831458806991584,0.05148811638355255,-0.9475399077683688,-0.34228398095816376,-9.56172371506691
40.8,7.0,272.0,21.669240951538086,29.61240577697754,-79.78284873174887,40.45889958999003,330.5878399658203,-0.029527345672249794,-0.04674094915390015,0.8623913526535034,0.503214418888092,0.06552024981639311,-0.4143043980124797,3.006593902110505,0.31420236825942993,0.1951432079076767,-0.10750974714756012,-1.045740751773119,-0.09162888424471022,-9.598828976154328
40.9,7.0,272.0,21.63919258117676,32.27624893188477,-79.78284865438461,40.4588998531226,330.8983029174805,-0.03510783240199089,-0.036459807306528084,0.8621357679367065,0.5041429996490479,0.003164632374487969,-0.4000163020938817,3.0290678365334,0.09312396496534348,0.13155126571655273,0.14096395671367645,-0.9093230909854174,-0.20402740739285946,-9.906810010671617
41.01,7.0,280.0,21.596622467041016,32.093360900878906,-79.78284861773335,40.45889989386225,331.20378387451166,-0.03876100108027458,-0.034196101129055016,0.8613184094429016,0.5054295063018799,-0.050147757619415784,-0.3422358650958238,3.0381305868796864,-0.06302895396947861,-0.05422118306159973,0.12882430851459506,-0.8913680458813906,-0.4134683863073588,-9.848921406269074
41.2,7.099999904632568,280.0,21.597875595092773,31.775287628173828,-79.78284857562333,40.45890009663196,331.79757965087884,-0.030529366806149483,-0.03843976557254791,0.8605095148086548,0.5070639848709106,-0.031925280927607345,-0.3386972522700628,3.005113047719332,-0.07923627644777298,0.023870624601840973,0.02423124760389328,-0.893874893411994,-0.2428172878548503,-9.71923776447773
41.31,7.199999809265138,280.0,21.364994049072266,36.458885192871094,-79.7828485570939,40.45890014617033,332.09880340576166,-0.02581559494137764,-0.040135964751243584,0.8602911829948425,0.5075645446777344,-0.004175591382509239,-0.3326117176990696,2.9836134978942983,-0.16032850742340088,0.009657721035182476,0.10945218801498413,-1.01712601326406,-0.05977069064509124,-9.587894098162652
41.41,7.300000190734862,272.0,21.58284950256348,31.926372528076172,-79.78284853491593,40.45890028972372,332.38861358642583,-0.023099806159734733,-0.042147457599639886,0.8599851131439209,0.5080509185791016,0.02630016012851204,-0.3206454934679317,2.9869708223495937,0.017987491562962532,-0.03212708607316017,0.15932589769363406,-0.9017853721976279,-0.18394331797957425,-9.78445585370064
41.6,7.300000190734862,273.0,21.417579650878906,36.57815933227539,-79.78284849258104,40.458900352239006,332.9902600097656,-0.02285354770720005,-0.04607932642102242,0.8598015904426575,0.5080311894416809,0.03208487226126379,-0.3283394660980325,3.0091732535753506,0.02744372375309468,-0.035338286310434334,-0.08902376145124435,-1.1661642312258482,-0.08252802198752761,-9.909359396696091
41.7,7.300000190734862,274.0,21.401302337646484,34.598167419433594,-79.7828485160492,40.45890054981172,333.28622711181634,-0.025550024583935738,-0.04386601969599724,0.8596644401550293,0.5083305835723877,0.05338356212505837,-0.34156333528774496,3.032328879944482,0.15472091734409332,0.06882814317941666,-0.0015523459296673534,-1.1456296869367362,-0.13462967360392214,-9.967484228610992
41.9,7.300000190734862,274.0,21.437612533569336,34.41527938842773,-79.78284861748037,40.45890060653099,333.8876446533203,-0.029271727427840236,-0.039181683212518685,0.8601627945899963,0.5076690912246704,-0.022446819294119555,-0.2862955010797472,3.0638956885973654,-0.0700780525803566,-0.002863522619009018,-0.007186343427747487,-0.8856879144161941,-0.08269151561893523,-9.990293047428132
42.1,7.300000190734862,277.0,21.43886375427246,35.472862243652344,-79.78284864002656,40.4589006125063,334.50502288818365,-0.02601352520287037,-0.0391661524772644,0.8603314161300659,0.5075620412826538,-0.016290294028370386,-0.2940329609699671,3.070822198447023,-0.011516941711306572,-0.0012162365019321446,-0.056984852999448776,-0.8823607756197454,-0.023550318852067,-9.912568348646165
42.2,7.400000095367432,278.0,21.42008399963379,33.620101928710945,-79.78284890153256,40.45890064377736,334.80138671875,-0.026334043592214584,-0.03715008497238159,0.8602740168571472,0.5077943801879883,-0.011699404751473748,-0.2560330778679999,3.059041384165776,0.009854329749941826,-0.032490745186805725,-0.09716583043336867,-0.8543471308797599,-0.2936920474469662,-9.745867738723756
42.31,7.400000095367432,278.0,21.427595138549805,34.184677124023445,-79.78284891995236,40.458900633765545,335.10923278808593,-0.026161305606365204,-0.037307839840650565,0.8605303168296814,0.5073571801185608,-0.026074006873042288,-0.2564166977880729,3.070118987024176,0.00885511003434658,-0.03468934074044228,-0.06628561019897461,-0.8343432945013046,-0.2394505524449051,-9.862126758098604
42.5,7.5,278.0,21.33995246887207,35.6637077331543,-79.78284885170663,40.458900744170265,335.71832550048833,-0.03122086077928543,-0.04144416004419327,0.860427975654602,0.5069235563278198,-0.037378951544928464,-0.3038702183303068,3.0726928115413465,0.009160046465694904,-0.11408600211143495,-0.11566580086946487,-1.019786277115345,-0.1034399126842618,-9.80756580412388
42.7,7.599999904632567,276.0,20.834123611450195,33.127090454101555,-79.78284881538144,40.45890082849769,336.33110321044916,-0.035660505294799805,-0.04704207926988602,0.8599380254745483,0.5069734454154968,-0.0702559022830627,-0.3463464991826207,3.0547387354716276,-0.07511040568351746,0.05973478406667709,-0.11443369090557096,-1.1339394948631525,-0.2519731504842639,-9.76346376478672
42.81,7.5,283.0,20.831619262695312,33.993831634521484,-79.78284880717081,40.45890080313001,336.63690460205083,-0.03287586569786072,-0.04536130279302597,0.8598154187202454,0.5075225234031677,-0.07785651284830912,-0.3425298593656049,3.0219603573754625,-0.0319148562848568,0.03963667154312134,0.15699969232082367,-1.0940174838155508,-0.410713361017406,-9.433163908123973
42.91,7.5,284.0,20.907995223999023,32.64998245239258,-79.78284874197772,40.45890091310852,336.93780792236333,-0.030445124953985214,-0.043173633515834815,0.8596200346946716,0.5081955194473267,-0.06812593316666099,-0.3250143829427949,3.0095194112018566,0.010140101425349712,0.03690013661980629,-0.034431885927915566,-0.811100612282753,-0.13285460511222486,-9.573657882213594
43.11,7.599999904632567,284.0,20.7802848815918,35.9976806640625,-79.78284873192597,40.45890083830016,337.5434979248047,-0.032718416303396225,-0.03809010237455368,0.8600946664810181,0.5076572895050049,-0.07978112396968744,-0.2965029923201351,3.0232784289084798,0.09740863740444183,-0.024157267063856125,-0.0444566011428833,-0.9964333017915488,-0.2210787653177977,-9.972391211986542
43.2,7.599999904632567,281.0,21.31365966796875,36.29984664916992,-79.7828487442405,40.45890091654062,337.8499249267578,-0.0316653810441494,-0.033833567053079605,0.861219584941864,0.5061160326004028,-0.08359737757816174,-0.28813143706398303,3.076287590767743,0.05255057290196419,0.036213554441928864,0.040113501250743866,-1.1931017690151928,-0.4761409632861615,-10.122866967916488
43.4,7.599999904632567,278.0,21.36624526977539,35.36949157714844,-79.78284878233656,40.45890094023896,338.462633972168,-0.03407621756196022,-0.03473478928208351,0.8618978261947632,0.5047419667243958,-0.08385078393598729,-0.24422525455411626,3.1739049555744887,-0.003429061034694314,-0.1824816465377808,0.08856889605522156,-0.8183553989231587,-0.18011236846446993,-10.424821861982348
43.6,7.599999904632567,279.0,21.554052352905273,31.34589195251465,-79.78284881074627,40.458900920098316,338.78358734130865,-0.035074125975370414,-0.04371287673711777,0.8613066673278809,0.5049850940704346,-0.08061249677370139,-0.2695656546432605,3.2186399026290093,-0.07052014023065567,-0.16296152770519254,0.020244229584932327,-0.8758869577199221,0.11272030273452402,-10.264537986516954
43.71,7.599999904632567,279.0,21.441368103027344,34.168773651123054,-79.78284906100308,40.45890087156263,339.44288146972656,-0.03889273852109909,-0.04621796682476997,0.8593186736106873,0.5078610777854919,-0.04959196335756805,-0.3352429497029717,3.244670813072299,-0.015455580316483974,0.11984264105558395,-0.04942090064287186,-1.0993799652904273,0.07771460319869221,-9.880313937664033
43.9,7.599999904632567,289.0,21.6279239654541,28.85698699951172,-79.78284927461985,40.45890086737477,340.09685791015625,-0.0368681401014328,-0.03817782178521156,0.8584621548652649,0.5101235508918762,-0.08852085559747225,-0.2924502627523121,3.227869568369608,0.01611805334687233,0.12923386693000793,-0.0787653923034668,-1.1623500193655492,-0.3613573791459203,-9.754269018173217
44.0,7.5,286.0,21.74812126159668,27.012176513671875,-79.78284934577765,40.45890081950359,340.41866577148437,-0.03301164880394936,-0.03699403628706932,0.8587114214897156,0.5100553035736084,-0.10440545135666933,-0.25828889974939856,3.1803114103167163,-0.0705651342868805,0.035593803972005844,-0.02584882639348507,-0.9495232833176852,-0.2365378533303737,-9.238539335131646
44.11,7.5,286.0,21.730592727661133,27.544944763183594,-79.78284941307892,40.45890076653849,340.73328674316406,-0.03185422345995903,-0.03846731036901474,0.8589266538619995,0.5096573233604431,-0.08562774980997714,-0.22605859429234995,3.090441639582893,-0.0017013908363878727,-0.001115385559387505,-0.14487163722515106,-0.756653532832861,-0.22969354122877125,-8.994994032382966
44.3,7.5,286.0,21.954710006713867,23.04424095153809,-79.78284975142074,40.45890065145853,341.3614453125,-0.039676472544670105,-0.04303008317947389,0.8586007952690125,0.5092926621437073,-0.0868959008860544,-0.21348725079087394,2.8251805628242703,0.03583921492099762,-0.03317994251847267,0.025296138599514958,-1.0524369100481272,-0.03563668719492853,-7.980161808729173
44.5,7.5,280.0,21.83075523376465,26.081817626953125,-79.78284992743338,40.45890065602642,341.91577423095697,-0.04319506883621217,-0.044561289250850684,0.8587906360626221,0.5085540413856506,-0.10527660335944,-0.20730431381761505,2.4703619329598507,0.03977985307574272,0.04907356575131416,-0.08086935430765152,-0.8203446947783232,-0.5866041494160891,-7.961944808363914
44.6,7.5,285.0,21.890853881835934,23.64062309265137,-79.78284999970992,40.458900594639424,342.156481628418,-0.038441631942987435,-0.044009845703840256,0.8593017458915709,0.5081199407577515,-0.10621589507860016,-0.1895185563279708,2.3260752278015,-0.1545676738023758,0.05604471638798714,-0.06347502768039702,-1.030384428575635,-0.01740457086358219,-8.188540202379228
44.71,7.5,285.0,21.83325958251953,25.25483322143555,-79.78285009015048,40.45890064056749,342.3998593139648,-0.03620205819606781,-0.04174702987074852,0.8596482872962952,0.5078892707824707,-0.04984369280465847,-0.16245658201783647,2.1793515436418494,0.16819250583648682,-0.07762035727500917,0.03614808991551399,-0.9290648259222508,-0.4365820643305779,-8.13999603331089
44.91,7.5,286.0,21.918399810791016,23.37026405334473,-79.78285024792041,40.458900665615246,342.83993804931634,-0.03523411974310875,-0.03395889699459076,0.8593196272850037,0.5090925097465515,-0.0578505290070592,-0.12942927244272934,1.937137940320944,0.01618053950369358,-0.05825423821806908,0.09443236887454988,-0.9096671265363694,-0.4403296179324389,-8.518509106636047
45.1,7.5,284.0,21.9497013092041,22.60689353942871,-79.78285030604127,40.458900632760724,343.02792633056634,-0.03564820066094398,-0.030492253601551056,0.8588109612464905,0.5101404786109924,-0.055796420336035664,-0.11627686170320088,1.821900447710613,-0.0010796996066346765,0.03710530325770378,0.09591402113437653,-0.9964058929681778,0.09171283747069538,-8.455922849178313
45.22,7.5,280.0,21.942188262939453,22.821590423583984,-79.7828504387886,40.458900736584646,343.43638122558593,-0.039982009679079056,-0.03375696763396263,0.8581687211990356,0.510694146156311,-0.05030737408953856,-0.10461941218471177,1.6477102555765242,-0.045198190957307816,-0.16810795664787292,-0.060490824282169335,-0.910817127674818,-0.3578958640247584,-8.539029909968377
45.4,7.400000095367432,279.0,21.87708282470703,25.962541580200195,-79.78285054125135,40.45890086289489,343.83042419433593,-0.038082707673311234,-0.04409700632095337,0.8585385680198669,0.5094279050827026,-0.004660319407637784,-0.1275344212881626,1.4787922596396827,0.1292751133441925,-0.05902848020195961,0.11052775382995604,-1.0246594197303058,-0.15057912373915314,-8.566087900400161
45.5,7.400000095367432,279.0,21.75438117980957,28.29241180419922,-79.78285060008618,40.45890086095716,343.9741848754883,-0.03975392505526544,-0.044034671038389206,0.8588776588439941,0.5087334513664246,-0.012846327021231993,-0.10945441570264663,1.3864674514150643,-0.07776228338479996,0.05167567357420921,-0.10088542848825456,-1.0121986377239227,0.15240917433053255,-8.734436255693439
45.7,7.300000190734862,287.0,21.7456169128418,26.81338119506836,-79.78285067023208,40.45890086095716,344.1099041748047,-0.04076549410820007,-0.041448164731264114,0.8595020771026611,0.5078154802322388,0.002464951677965069,-0.10035019280972696,1.3291288348132373,0.09750784188508987,0.10007376223802568,-0.08506271988153458,-0.8651331241428852,-0.2631597511097789,-9.150283216238023
45.8,7.300000190734862,284.0,21.962221145629886,21.175573348999023,-79.78285083907129,40.45890103964314,344.47375,-0.03811931610107422,-0.03464236482977867,0.8609893321990967,0.5060083270072937,0.01581169695131573,-0.06854111054947384,1.311515676580027,0.039760589599609375,0.07343649119138718,-0.02165193483233452,-0.9023448776453734,-0.21287462839856744,-9.22650225698948
46.0,7.300000190734862,284.0,21.87332534790039,20.8813591003418,-79.78285097748541,40.45890123646329,344.80330169677734,-0.042150892317295074,-0.03688814491033554,0.8606672286987305,0.5060777068138123,0.031054044793468325,-0.049675408516149655,1.170382814208377,0.04475373774766922,-0.07891078293323517,-0.027593746781349186,-0.925758298560977,-0.00424694236367941,-8.828830781579018
46.1,7.300000190734862,284.0,22.272729873657227,17.756311416625977,-79.7828510620793,40.45890125733715,344.9125012207031,-0.03364226222038269,-0.0363113135099411,0.8619541525840759,0.5045639276504517,0.009528705897660264,-0.06869921263407147,0.9734990980343212,-0.17251087725162506,0.3005038201808929,-0.2369682788848877,-0.9635634713619948,-0.2241075133904815,-7.911220797300339
46.2,7.199999809265138,281.0,21.937179565429688,22.60689353942871,-79.78285115370322,40.45890145037953,345.04866302490234,-0.02262227050960064,-0.033175915479660034,0.8734671473503113,0.4852244853973389,-0.004156223014624356,-0.04262936524821029,0.7903092125634319,-0.2299898415803909,0.15054021775722504,-0.8847314715385437,-0.7521473760902883,-0.2993280141614378,-7.685812972784044
46.41,7.099999904632568,273.0,21.83325958251953,25.42977333068848,-79.78285120382431,40.45890170598445,345.13592041015625,-0.023460064083337784,-0.034848690032958984,0.9156633019447328,0.3997449278831482,-0.03277473428837327,-0.04605306355471271,0.4734672551090494,0.03549306467175484,-0.08377765119075775,-1.1659321784973145,-0.7334204254299402,-0.3314417447894812,-8.300965787172318
46.6,7.0,276.0,21.842023849487305,25.68422889709473,-79.78285117376177,40.4589016889968,345.1798123168945,-0.02749262936413288,-0.03632979467511177,0.9374712705612184,0.3450681269168854,-0.08918568862000825,-0.06019753864316842,0.3838343403154298,-0.05955420434474945,-0.06138632073998451,-1.3924551010131836,-0.8571559870988131,-0.5831762923300267,-8.675661213397982
46.7,6.9000000953674325,278.0,21.790691375732425,25.79555511474609,-79.7828509478923,40.45890198814868,345.15664947509765,-0.030400032177567482,-0.027271786704659462,0.9771066904067992,0.20879358053207397,-0.16936311376462668,-0.07889584266723795,0.2643105578897468,0.01838411204516888,0.08744551241397858,-1.4415137767791748,-0.6345710521191359,-0.6718199354410171,-9.296785204410554
