time,wind_speed,wind_angle,battery_voltage,battery_current,position_x,position_y,position_z,orientation_x,orientation_y,orientation_z,orientation_w,velocity_x,velocity_y,velocity_z,angular_x,angular_y,angular_z,linear_acceleration_x,linear_acceleration_y,linear_acceleration_z
0.0,0.5,131.0,23.12036895751953,-0.007951773703098297,-79.78271886243255,40.458982790224105,272.6862881710529,0.012211207300424576,0.007300866302102805,-0.7429812550544739,0.6691610217094421,-0.002134101345893657,-0.013215316773412963,0.001540330742554766,0.005741345230489968,0.002331902272999287,0.0030914130620658398,0.05066938527859748,-0.2763084945827723,-9.812870982885359
0.1,0.5,130.0,23.11911582946777,-0.015903547406196594,-79.7827189811515,40.4589828784227,272.6665490051508,0.012209567241370678,0.007302766200155021,-0.7429841160774231,0.669157862663269,-0.002542033376452024,-0.011281756894600542,0.0012048501675622904,0.002171526895835996,-0.001300499658100307,0.0019379761070013046,0.049686486599966884,-0.2737298359349369,-9.811737792491911
0.3,0.6000000238418579,127.0,23.11661148071289,-0.02385532110929489,-79.7827189941438,40.458982881999724,272.6667002072334,0.012208661995828152,0.007303363643586636,-0.7429872155189514,0.6691544055938721,-0.002968838515692641,-0.011638186787482787,0.0017837604741651534,-0.00267714518122375,-6.317326915450394e-05,0.0002914879005402326,0.049236652990803126,-0.2763175577670336,-9.812593824863434
0.39,0.6000000238418579,124.0,23.112855911254893,-0.05566241592168808,-79.78271911082714,40.45898297172489,272.64402455890183,0.012206391431391241,0.007304664701223373,-0.7429865002632141,0.6691552996635437,-0.0029440831542378505,-0.010157875095918568,-0.0015719524268106204,-0.0007600701646879315,-0.00024590655812062323,-0.00014427740825340152,0.051109927296638484,-0.2780653636157513,-9.813242865800856
0.6,0.699999988079071,123.0,23.11536026000977,-0.04771064221858978,-79.78271923811195,40.45898305358211,272.6225073119402,0.01220894418656826,0.007302847225219011,-0.7429893016815186,0.6691520810127258,-0.002863117991302048,-0.0115858348109055,-0.0016752790910372509,-0.002621768042445183,0.0025747779291123147,-0.004149226471781732,0.050268220603466036,-0.2671248028613627,-9.811609153747561
0.7,0.699999988079071,124.0,23.10659599304199,-0.09542128443717957,-79.78271926539453,40.4589830608682,272.6222633501291,0.012207899242639542,0.007303524762392044,-0.7429934144020081,0.6691476106643677,-0.003192909570680499,-0.012356291197824543,-0.0007008497666233218,-0.003488157875835895,-0.002414705464616418,-0.005611251574009657,0.049612820819020284,-0.2674214942380786,-9.811313284635542
0.9,0.699999988079071,126.0,23.10409164428711,-0.10337305814027786,-79.78271939563675,40.45898311995997,272.6002368708849,0.012212755158543587,0.007305572740733622,-0.7429928183555603,0.6691481471061707,0.0017589578453481671,-0.012780880857116546,-0.0010868954189776957,0.003301238175481558,0.0021716312039643526,0.004777796100825071,0.05132711481302977,-0.27662205152213576,-9.812980910539627
1.0,0.699999988079071,126.0,23.102840423583984,-0.08746951073408127,-79.7827195166905,40.45898320906142,272.5783811365962,0.012207232415676115,0.0073037692345678815,-0.7429974675178528,0.66914302110672,-0.0020861605264449155,-0.011470905804263257,-0.0009872404860880356,0.0010586811695247886,0.003186154179275036,-0.0030200504697859287,0.0498660463700071,-0.27125503845512866,-9.812587977647784
1.19,0.699999988079071,128.0,23.09031867980957,-0.09542128443717957,-79.78271953004787,40.45898321226701,272.5783094396591,0.012207232415676115,0.0073037692345678815,-0.7429974675178528,0.66914302110672,-0.002486775815293557,-0.011881547849716472,-0.0003995670960180902,0.0010195705108344557,-0.00023731697001494467,0.00415131077170372,0.049815399432554835,-0.2776724672690034,-9.814539778232575
1.3,0.699999988079071,128.0,23.11410903930664,-0.02385532110929489,-79.78271968868192,40.458983291601406,272.55584345811604,0.012212221510708332,0.007300459314137697,-0.7430008053779602,0.6691393852233887,-0.0015985317574250596,-0.016220142449848398,-0.00033985663800456127,0.0061821965500712395,-0.00021055583783891047,0.005991047248244286,0.05163021528627724,-0.279811250846833,-9.813735201358796
1.5,0.699999988079071,129.0,23.11911582946777,-0.015903547406196594,-79.78271970756975,40.45898329493689,272.555828892231,0.012210375629365444,0.007299931719899178,-0.743000864982605,0.6691393256187439,-0.002317283079791127,-0.016567576752641602,0.00021200504454158245,-0.0031769738998264074,0.00025867379736155266,-0.006407094188034535,0.05036485497839749,-0.26582471100613475,-9.81101975440979
1.6,0.699999988079071,130.0,23.11536026000977,-0.015903547406196594,-79.78271987362456,40.4589833721081,272.5305112940967,0.012214405462145805,0.007297132629901171,-0.7430030703544617,0.6691367626190186,-0.0017753694690094586,-0.019730248532218428,-0.0036055134434239923,-0.004095504991710186,0.0004086958942934871,-0.004659772384911776,0.050011299429461364,-0.26978148529306056,-9.811710895299912
1.79,0.699999988079071,133.0,23.11160469055176,0.007951773703098297,-79.78271989682676,40.45898337529866,272.5301569072306,0.01221532467752695,0.007299221120774745,-0.7430068254470825,0.6691326498985289,-0.0013123881942543505,-0.0203003538731732,-0.0033325124011832448,0.006578356958925724,0.0003949646488763392,0.0012937349965795875,0.049287743037566535,-0.2754727995581925,-9.811981036663056
1.91,0.699999988079071,133.0,23.12287330627441,-0.02385532110929489,-79.78272001319756,40.458983476000746,272.50417767705017,0.012205030769109726,0.007299305871129036,-0.7430064678192139,0.6691331267356873,-0.005565539938720393,-0.01592832404354927,-0.006083753711439749,0.0012791716726496814,0.00020480179227888584,-0.0016865170327946546,0.04859166399110109,-0.2706482801958919,-9.811785739660264
2.1,0.6000000238418579,137.0,23.11786460876465,-0.007951773703098297,-79.78272010529028,40.45898351662124,272.481793050725,0.01220637746155262,0.007310518529266119,-0.7430102229118347,0.6691288948059082,0.00019028761280262527,-0.01008938485863058,-0.004938283339424802,0.005021138582378626,-0.00034538470208644867,0.002708659740164876,0.05133377972524614,-0.278271843418479,-9.813378521203996
2.2,0.5,136.0,23.11410903930664,-0.007951773703098297,-79.78272012961158,40.458983518821995,272.48088497908407,0.01220673881471157,0.007312233094125986,-0.7430128455162048,0.6691259741783142,0.00020561466510454404,-0.010881211327497652,-0.0041064255741133605,0.003498993581160903,0.000901829160284251,0.008331676945090294,0.05198588588275015,-0.2777431637607515,-9.81300897717476
2.4,0.5,137.0,23.12036895751953,-0.015903547406196594,-79.7827202943277,40.45898361710754,272.45787589119374,0.012208227068185806,0.007296846713870764,-0.7430126667022705,0.6691263318061829,-0.006449063362621657,-0.01892657377318061,-0.003553632185484991,-0.00513267843052745,-0.0015120081370696425,-0.005907877814024687,0.04962230884004384,-0.26884777631610635,-9.811322640180588
2.5,0.5,137.0,23.12287330627441,0.0,-79.78272041012261,40.45898370462658,272.43225173333286,0.012201347388327122,0.007299542892724275,-0.7430153489112854,0.6691233515739441,-0.008324479481584934,-0.014572341443685775,-0.00635030517848161,-0.002497856738045812,-0.0007010133704170585,0.0011903835693374276,0.04988967734389008,-0.2755828003026545,-9.813300168514251
2.7,0.5,135.0,23.12412452697754,-0.007951773703098297,-79.78272042643285,40.45898371348864,272.43164780417084,0.012201347388327122,0.007299542892724275,-0.7430153489112854,0.6691233515739441,-0.008243877610748072,-0.015054199080103631,-0.0060061802369641365,0.0002028664603130892,-0.00031029872479848564,-0.003925199620425701,0.05017242219764738,-0.2678276381827891,-9.812048864364623
2.8,0.5,134.0,23.12036895751953,-0.007951773703098297,-79.78272056491204,40.45898377999212,272.4076702153086,0.012203061021864414,0.007301790639758109,-0.7430180907249451,0.6691203117370605,-0.006051415403467582,-0.015049857098882515,-0.004438073498460282,-0.003723378758877516,0.0007493589073419571,-0.005880450364202261,0.05042609542608261,-0.27855318585410715,-9.811654762029649
3.0,0.6000000238418579,134.0,23.11911582946777,-0.015903547406196594,-79.78272058207187,40.45898378671568,272.40724856460093,0.0122027937322855,0.007302504498511553,-0.7430180907249451,0.6691202521324158,-0.005496955087218464,-0.01560379256566439,-0.00422735318084339,0.005515919998288155,0.0026046296115964647,0.009205694310367107,0.050092470659874384,-0.2779737998731435,-9.81234473347664
3.11,0.6000000238418579,133.0,23.121620178222656,-0.007951773703098297,-79.78272069722661,40.458983854964735,272.38375925326346,0.01220200676470995,0.007305902428925037,-0.7430204749107361,0.6691175699234009,-0.004887672975872455,-0.013287166601441623,-0.003513782190281592,0.0026050226297229533,0.0025663652922958136,-9.393694199388848e-05,0.049433845770545305,-0.2742939643375576,-9.812106167078019
3.3,0.6000000238418579,127.0,23.12412452697754,-0.015903547406196594,-79.78272071220236,40.45898386106565,272.38344604575644,0.012200819328427315,0.0073064519092440605,-0.7430235147476196,0.6691142916679382,-0.0055470103854327706,-0.013579406944951293,-0.00294786279254961,-0.003801084589213133,9.063999459613116e-05,-0.0009067652863450347,0.05097011032048613,-0.27595751546323305,-9.813090838193897
3.4,0.6000000238418579,126.0,23.11661148071289,-0.02385532110929489,-79.78272081983162,40.458983904563226,272.3597210278511,0.012202131561934948,0.007313670124858619,-0.7430232167243958,0.6691145300865173,-0.0009548439220234905,-0.010464448844483713,-0.0022188361044747766,0.002450624480843544,-0.0002433985937386751,0.006333984900265932,0.051471755742095414,-0.2784952070564032,-9.81286630511284
3.6,0.699999988079071,124.0,23.121620178222656,0.0,-79.78272093852914,40.45898397889494,272.33403796756267,0.012201134115457537,0.0073087215423583984,-0.7430256605148315,0.6691118478775024,-0.004637732087901833,-0.012030381056460187,-0.0057855083784350645,-0.002812952734529972,-0.003699900582432747,-0.0045890505425632,0.049554229890927684,-0.26605008462443946,-9.81113202095032
3.7,0.699999988079071,121.0,23.12287330627441,0.0,-79.7827209664821,40.45898398957878,272.33298630321025,0.012200101278722286,0.007309363223612306,-0.7430286407470703,0.669108510017395,-0.004918205530367821,-0.01284574124420277,-0.004791881203739258,-0.002059125807136297,-0.0010027854004874823,-0.002062477171421051,0.04965609935112298,-0.2717016378231347,-9.81260551929474
3.89,0.8000000119209291,124.0,23.12036895751953,-0.007951773703098297,-79.78272102641888,40.458984019475714,272.3055067142248,0.012198409996926785,0.007320412900298835,-0.7430276274681091,0.6691095232963562,0.0005836871317498695,-0.005590511886062771,-0.009954017043833302,0.001643170602619648,-0.0011898948578163981,0.0008287093369290233,0.04953938344493509,-0.2723864015936852,-9.811765859127043
4.0,0.8999999761581421,122.0,23.11160469055176,0.0,-79.78272108600638,40.458984058404326,272.2798676123619,0.012195954099297523,0.007330240681767464,-0.7430309653282166,0.6691057682037354,0.0027791846695118683,0.0005120674794067874,-0.01064011320513671,0.0003937513683922589,-0.0007606036379002035,-0.004975902382284403,0.04942761939950288,-0.26790586296468977,-9.810409305095671
4.2,1.100000023841858,122.0,23.11911582946777,-0.015903547406196594,-79.78272108589043,40.458984056029664,272.2788128634691,0.012195954099297523,0.007330240681767464,-0.7430309653282166,0.6691057682037354,0.003180268470368763,9.53180921926121e-05,-0.010292711292124878,0.007727004587650298,0.0006290933233685791,0.0025044113863259554,0.051034571304917335,-0.2784638696350157,-9.813220646381376
4.3,1.2000000476837158,121.0,23.11786460876465,-0.015903547406196594,-79.78272119762289,40.45898411208656,272.25276955270766,0.012198423966765405,0.00732390396296978,-0.7430341243743896,0.6691023111343384,0.0019112862132482148,-0.004973339621168494,-0.010976385397682049,0.004996489267796278,0.0011780407512560491,0.004418720491230489,0.0502908877003938,-0.27418663138523697,-9.813095515966417
4.5,1.2999999523162842,126.0,23.12036895751953,-0.015903547406196594,-79.78272120361784,40.45898411147893,272.2516872217655,0.012197840958833694,0.007324181962758302,-0.7430341839790344,0.6691023111343384,0.0012144986416425018,-0.005199034298534022,-0.010517914209939971,-0.0017151897773146634,-0.0026096522342413664,0.0012709631118923426,0.050763255930505694,-0.2764072577096522,-9.813232340812682
4.6,1.399999976158142,122.0,23.11536026000977,-0.015903547406196594,-79.78272134658815,40.458984191111774,272.22550489807134,0.012200877070426941,0.007313473615795373,-0.7430366277694702,0.6690996289253235,-0.0024205249990591816,-0.012579988291486105,-0.011242855779041588,0.0020984662696719174,-0.00010967881826218218,0.0046438765712082395,0.05056343647185713,-0.2788370681740344,-9.813346946239472
4.79,1.5,119.0,23.11786460876465,0.007951773703098297,-79.78272136106497,40.45898419490244,272.22440292739867,0.012200520373880865,0.007314753718674183,-0.7430408000946045,0.669094979763031,-0.002984704874449709,-0.012948044836435295,-0.010816651708827393,-0.0037647630088031288,-0.003239941783249378,-0.00630538584664464,0.05002314917743207,-0.2650918904319406,-9.811508581638336
4.9,1.7000000476837158,117.0,23.13038444519043,0.039758868515491486,-79.78272147160915,40.45898425485841,272.1978534390926,0.012200115248560905,0.007314042653888464,-0.7430403232574463,0.669095516204834,-0.002368128386237784,-0.013718468927971676,-0.011379839910277452,-0.003931830171495676,-0.0028427806682884693,-0.003455126658082009,0.04962731551844627,-0.2709264066629112,-9.811264168024064
5.1,2.0,113.0,23.11911582946777,-0.015903547406196594,-79.78272155826066,40.45898431237315,272.17333664798736,0.012201106175780295,0.007314273621886969,-0.7430428862571716,0.6690926551818848,-0.001669469278015278,-0.01394915924136799,-0.011870603772512605,0.0015361326513811946,0.001935897278599441,4.018564141006209e-05,0.04903961552772671,-0.2716400410607457,-9.81272597193718
5.2,1.8999999761581416,116.0,23.11786460876465,0.0,-79.7827215909588,40.458984318949646,272.171023332119,0.012201214209198952,0.007315314374864101,-0.7430460453033447,0.6690890789031982,-0.0021786142884898697,-0.01464347994757445,-0.01127823796771625,-1.7326530723948966e-05,-0.0005129813216626643,-0.005222105886787176,0.04940947475843132,-0.26699442822486164,-9.810588229894641
5.4,2.200000047683716,118.0,23.11786460876465,0.09542128443717957,-79.78272165286774,40.458984410610405,272.1486080815792,0.012192022055387495,0.007311620283871889,-0.7430466413497925,0.6690886616706848,-0.007928835141961394,-0.011652418876088694,-0.00881895590889685,0.005628436338156462,0.0012185403611510992,0.0027697442565113306,0.05256968925241382,-0.27727251771837474,-9.812783274650574
5.5,2.200000047683716,108.0,23.11786460876465,0.07156596332788467,-79.78272172663974,40.45898445868125,272.12328022027015,0.012193921953439713,0.007319789845496415,-0.7430493831634521,0.6690854430198669,-0.0024957601727685326,-0.008842545807364327,-0.009942351938413684,0.004018979612737894,-0.0010388511000201106,0.00828202161937952,0.05071476058568807,-0.2764023606665433,-9.8128686439991
5.69,2.5999999046325684,103.0,23.11410903930664,0.039758868515491486,-79.78272173674245,40.458984462373145,272.1223098864555,0.012193921953439713,0.007319789845496415,-0.7430493831634521,0.6690854430198669,-0.003242307830202119,-0.009196025351991226,-0.009571711953351592,-0.0009160061017610133,-0.0007647027377970518,0.0003053582040593028,0.04977260512299836,-0.2748204330168665,-9.812248839139937
5.8,2.5999999046325684,101.0,23.11410903930664,0.07156596332788467,-79.7827218291623,40.45898450899042,272.0967377951145,0.012199669145047665,0.007323936559259891,-0.7430527210235596,0.6690816879272461,0.0012301152454132892,-0.010608925964478638,-0.01044871452079446,0.003002136712893844,-3.1308238249039284e-05,0.004014313220977783,0.050427922680974006,-0.2784702650271356,-9.812831221818923
6.0,2.5999999046325684,86.0,23.11911582946777,0.08746951073408127,-79.78272184174388,40.45898450941018,272.0956994524002,0.012202974408864977,0.007322561461478472,-0.7430554628372192,0.669078528881073,0.000662959562832911,-0.010878202041123377,-0.010069935979602629,-0.0018150807591155167,-0.0015076824929565193,-0.005240253172814846,0.05025810674764216,-0.2671838962845504,-9.811817314624788
6.1,2.5,84.0,23.11536026000977,0.11927660554647446,-79.78272192448475,40.458984570698426,272.069680475235,0.012187762185931206,0.007312778383493422,-0.7430540323257446,0.6690805554389954,-6.657001927000121e-05,-0.011873084622223402,-0.012923513047031874,-0.004695688374340534,-0.0003432566591072828,-0.005177121609449387,0.04982970227021724,-0.2703932319581509,-9.81101741552353
6.29,2.700000047683716,84.0,23.11536026000977,0.06361418962478638,-79.78272193851464,40.458984571831,272.06839408779143,0.012189989909529686,0.0073215155862271794,-0.7430636286735535,0.6690697073936462,0.0003451704025057305,-0.01229322259317302,-0.012700326426599663,0.007910765707492828,0.0013065381208434699,0.001320853247307241,0.0511072503682226,-0.2752942036651075,-9.81239501953125
6.4,2.700000047683716,84.0,23.10784721374512,0.06361418962478638,-79.78272199035426,40.45898463626685,272.0440807869434,0.012175485491752623,0.007319007534533739,-0.7430559396743774,0.669078528881073,-0.0007663212615374432,-0.009692779938514315,-0.012412012224437696,0.0008451296016573906,-8.716854063095525e-05,-0.0010384843917563558,0.05011525652837009,-0.2712954390607775,-9.811889820098877
6.6,2.5999999046325684,89.0,23.109100341796875,0.05566241592168808,-79.78272207085169,40.458984682992565,272.0208122959137,0.012176578864455223,0.007312051486223936,-0.7430543303489685,0.6690804362297058,0.0029593632593659922,-0.013782912446464108,-0.01228531799120541,-0.003433119505643845,-0.002149746287614107,0.0014690030366182327,0.05090532043017447,-0.2778506611660123,-9.813240526914598
6.7,2.5,83.0,23.09657859802246,0.09542128443717957,-79.78272210455398,40.458984681119226,272.01837044262885,0.01216724794358015,0.0072918240912258625,-0.7430583238601685,0.6690763831138611,0.0025036972472988524,-0.014562743814149704,-0.011689621150699941,-0.001032870612107217,-0.0009210568387061355,0.0038698134012520313,0.04947551175020636,-0.2776578126847744,-9.813109549283984
6.9,2.5999999046325684,72.0,23.11410903930664,0.05566241592168808,-79.78272212832223,40.45898475123733,271.9928799202442,0.012157689779996872,0.0072974804788827905,-0.7430715560913086,0.6690617203712463,0.0009011011310933844,-0.010777190984505502,-0.015465503921816785,0.0019427693914622066,0.002565819537267089,-0.0008869844023138285,0.050464211963117116,-0.2703173826076091,-9.81154249548912
7.01,2.5,63.0,23.1103515625,0.07156596332788467,-79.78272218252476,40.458984798998976,271.9709103932381,0.012148809619247913,0.0072965635918080815,-0.7430672645568848,0.6690667867660522,0.00325583349879213,-0.011080071328839286,-0.011112223716790843,0.0005292601999826728,-0.001938996370881796,0.003577239578589797,0.049542800411582,-0.2710482114739716,-9.811668795347217
7.19,2.0,68.0,23.109100341796875,0.07156596332788467,-79.78272219597632,40.45898479764203,271.9698030581474,0.012148809619247913,0.0072965635918080815,-0.7430672645568848,0.6690667867660522,0.0026233678518070643,-0.01133395400510689,-0.010775377839894679,-0.004769545514136553,-0.0020079901441931725,-0.0015367473242804408,0.04982807144522667,-0.27588477244600657,-9.812089794874193
7.31,1.8999999761581416,69.0,23.109100341796875,0.06361418962478638,-79.7827222456498,40.458984862579214,271.94826414489745,0.01214772928506136,0.007296117488294841,-0.7430712580680847,0.6690623164176941,0.0009694897733812405,-0.011797095693476013,-0.007790815595470295,-0.008615974336862564,0.001114132348448038,-0.0018769807647913688,0.04984972441568971,-0.27289123557507994,-9.81161383152008
7.5,1.7999999523162842,71.0,23.109100341796875,0.05566241592168808,-79.78272225971692,40.45898486287445,271.94748392009734,0.012146761640906334,0.00729608302935958,-0.7430713176727295,0.6690623164176941,0.00139922840821743,-0.012133658919222363,-0.0075853101925249045,0.001167309004813433,0.007021351251751185,0.0009217765764333307,0.05160647010896356,-0.2769400486908853,-9.812915421724322
7.6,1.7000000476837158,71.0,23.112855911254893,0.05566241592168808,-79.78272229865699,40.45898496632264,271.926028632164,0.012139920145273209,0.007289418019354343,-0.7430744171142578,0.6690590381622314,-0.006279522326074975,-0.013083571008640422,-0.005919679794507977,0.0014279474271461368,0.0005740480846725402,0.004061847925186157,0.05097022909205407,-0.2770589298941195,-9.813120074272156
7.8,1.7000000476837158,70.0,23.1103515625,0.06361418962478638,-79.78272231317105,40.45898497381163,271.92546828889846,0.012139490805566313,0.007290280889719725,-0.7430766820907593,0.6690565347671509,-0.007430578164447488,-0.01327535244726275,-0.005525992946784641,-0.005441752728074789,-0.0008772994042374194,-0.0046013789251446715,0.05001364288385958,-0.2686023394390941,-9.811360062360764
7.9,1.600000023841858,73.0,23.11661148071289,0.07951773703098297,-79.7827222884703,40.458985036336585,271.9042968978882,0.012132818810641766,0.007298775017261504,-0.7430769801139832,0.6690561771392822,-0.006669733117554318,-0.005953574928769793,-0.004223408593893499,-0.006585600785911083,-0.002863401314243675,-0.008126955479383469,0.04985586856026203,-0.2667999900318682,-9.811465312242511
8.1,1.5,68.0,23.109100341796875,0.09542128443717957,-79.78272230457674,40.458985096388105,271.8838272919655,0.01213538646697998,0.0072991945780813685,-0.7430795431137085,0.6690532565116882,-0.00481195484866731,-0.007484379483890182,-0.003892453471681996,0.006727266125380993,-0.0011697699083015325,0.00798090919852257,0.05135532306041569,-0.278494604062289,-9.812896710634233
8.21,1.5,71.0,23.10158729553223,0.07156596332788467,-79.78272232151663,40.45898510764951,271.88311704301844,0.012136301025748251,0.007301148492842913,-0.743083119392395,0.6690492033958435,-0.005352965110294288,-0.008221924904098867,-0.0035292077660985647,0.004470290616154671,0.00036749287392012786,0.005540228914469481,0.04932214111089707,-0.26661629609763626,-9.80992749452591
8.4,1.399999976158142,79.0,23.1103515625,0.02385532110929489,-79.7827223491386,40.458985186835754,271.8629703154564,0.012137839570641521,0.007295125164091587,-0.7430827617645264,0.6690497398376465,-0.007720315101062047,-0.012621319115266616,-0.0031173723196994663,-0.0021679657511413093,-0.002987248590216041,-0.005035710986703634,0.04952728701755405,-0.2672196008451283,-9.810059641599656
8.5,1.399999976158142,82.0,23.11536026000977,-0.02385532110929489,-79.78272231977245,40.458985223390776,271.8426411976814,0.012137928046286106,0.007310790475457906,-0.7430857419967651,0.6690462231636047,-0.0005767913327079283,-0.005357795072643375,-0.0027296693718658555,-0.003764016553759575,-0.0029577126260846853,-0.006675900891423225,0.04909087459556759,-0.2693474208936095,-9.811095768213272
8.69,1.2999999523162842,86.0,23.11911582946777,0.0,-79.78272232621784,40.45898522423779,271.8423692216873,0.012137928046286106,0.007310790475457906,-0.7430857419967651,0.6690462231636047,-1.3656842501575524e-05,-0.005712002465904787,-0.0026993877301263146,0.005476571153849363,0.0009074537083506584,0.0043919621966779215,0.050757162035442886,-0.2762211883440614,-9.811785739660264
8.79,1.399999976158142,81.0,23.11410903930664,-0.007951773703098297,-79.78272229770691,40.45898531018733,271.8224306931496,0.012130350805819036,0.007308593951165677,-0.7430898547172546,0.6690418720245361,-0.0048693320030525926,-0.004294894999686931,-0.00269284061658705,0.007817499339580536,0.0005255432915873827,0.004305555019527675,0.05146196622401476,-0.2753346956335008,-9.812006764411926
8.99,1.2999999523162842,81.0,23.11160469055176,0.007951773703098297,-79.78272230221066,40.45898531545518,271.8221836915016,0.012130292132496834,0.007308789063245058,-0.7430898547172546,0.6690418720245361,-0.005878258718902825,-0.004563547572827645,-0.0024992689941131557,-0.0058534839190542715,-0.003568067448213697,-0.0023569094482809305,0.04968022825196386,-0.2716329330392182,-9.810542621612552
9.1,1.2999999523162842,77.0,23.10659599304199,-0.015903547406196594,-79.78272229365146,40.458985375904994,271.8030170431137,0.012133003212511541,0.0073091681115329266,-0.7430935502052307,0.6690376996994019,-0.004992350922386852,-0.0066151164495263926,-0.002202419990216964,-0.0023857851047068834,0.00045111597864888603,-0.0029914232436567545,0.05018463282845915,-0.2733382186666131,-9.811638389825822
9.3,1.2000000476837158,77.0,23.112855911254893,-0.02385532110929489,-79.78272230097737,40.45898538067043,271.8028062810899,0.012134222313761713,0.0073108584620058545,-0.7430976629257202,0.6690331101417542,-0.0044600761404154825,-0.0069217571439300326,-0.002136351649361953,0.0038768018130213022,0.0008955617668107152,0.004516368731856346,0.05073014607187362,-0.27427222000435003,-9.812372800111767
9.4,1.2000000476837158,76.0,23.11410903930664,-0.007951773703098297,-79.78272224231749,40.45898544122758,271.78387685918807,0.01212872378528118,0.007315759081393479,-0.743097722530365,0.6690330505371094,-0.0044197508374763505,-0.002466731487288047,-0.001993615667081561,0.005398717243224382,0.0023872465826570988,0.00229135830886662,0.05149881281889975,-0.274937541782856,-9.812551724910737
9.6,1.2000000476837158,80.0,23.11661148071289,-0.015903547406196594,-79.78272225981529,40.458985527510976,271.76544752025603,0.012132558971643448,0.007302575744688511,-0.7430998682975769,0.6690307855606079,-0.010122116982459422,-0.012501201568651605,-0.0020199220279634605,-0.007462987676262855,-0.0017900202656164765,-0.0029214834794402122,0.05063372183125466,-0.2709329116903246,-9.812181011438373
9.7,1.2000000476837158,81.0,23.121620178222656,0.007951773703098297,-79.78272227333431,40.458985537554994,271.7652663221359,0.012132558971643448,0.007302575744688511,-0.7430998682975769,0.6690307855606079,-0.00952761514202725,-0.012700621625193129,-0.0020227975206921173,0.005222359672188761,0.0020349309779703613,0.0013905975501984358,0.051896167667582635,-0.2753656493313611,-9.811949461698534
9.9,1.2000000476837158,81.0,23.11911582946777,-0.007951773703098297,-79.78272221440383,40.45898558799406,271.7468934884071,0.012129573151469229,0.007311212830245496,-0.7431035041809082,0.6690266132354736,-0.006742796755878474,-0.007828205674274316,-0.0019248913072905066,0.0023743375204503536,0.004833823535591364,0.002753937384113669,0.05161630074027927,-0.27739991392940283,-9.812359936237337
10.0,1.100000023841858,81.0,23.11661148071289,-0.007951773703098297,-79.78272217746164,40.45898564215724,271.72781165742873,0.012130903080105782,0.007313387468457222,-0.7431065440177917,0.6690232753753662,-0.005458048043513959,-0.008519540483166206,-0.0043463299201553784,0.003930274862796068,0.00011959968105657026,0.002483788877725601,0.05159227690659464,-0.27742480114102364,-9.812047694921494
10.19,1.100000023841858,85.0,23.12287330627441,-0.007951773703098297,-79.7827221868142,40.458985648425625,271.72740551137923,0.012130903080105782,0.007313387468457222,-0.7431065440177917,0.6690232753753662,-0.006503221631236365,-0.008793578251001213,-0.004083648711949968,-0.005773937795311213,0.0011166578624397516,-0.008772806264460087,0.04857022572308778,-0.26660679437220103,-9.810435032844543
10.3,1.0,86.0,23.121620178222656,-0.015903547406196594,-79.78272212216848,40.45898568365911,271.7098996272087,0.012132325209677221,0.007322425954043865,-0.7431099414825441,0.6690192818641663,-0.002464157997952345,-0.005853333851177708,-0.003336770017127613,-0.002341624582186341,0.0012214465532451868,-0.009209903888404371,0.04904640377964824,-0.26538231432437903,-9.810797560214997
10.5,1.0,88.0,23.11536026000977,0.0,-79.78272212893359,40.4589856863451,271.70957806015014,0.012131928466260431,0.007322501856833694,-0.7431099414825441,0.6690192818641663,-0.002156838094323766,-0.006234039299696259,-0.0032021173897797644,0.0015029138885438444,-0.0023474227637052536,0.004555144347250462,0.051282223728485406,-0.2788545001856983,-9.812641772031784
10.6,1.0,89.0,23.12036895751953,-0.007951773703098297,-79.78272205162128,40.45898572920608,271.69258769655227,0.012129482813179493,0.007326744962483645,-0.7431129813194275,0.6690159440040588,-0.002377665024096541,-0.003934184158713097,-0.002590601617638495,0.001465533976443112,-0.0015530834207311273,0.002800727263092995,0.05036958300042898,-0.27900342145934703,-9.812212586402893
10.8,1.0,89.0,23.102840423583984,-0.04771064221858978,-79.7827220560358,40.458985731813705,271.69233974123,0.01213163323700428,0.007334000431001186,-0.7431191205978394,0.6690090894699097,-0.0025872970223734,-0.004253474752974082,-0.0024684601358543642,-0.001268021296709776,-0.0004425777879077941,-0.0033973108511418104,0.0492117475066334,-0.2672131689079106,-9.81076481580734
10.9,0.8999999761581421,89.0,23.11661148071289,-0.007951773703098297,-79.78272200266213,40.45898575466501,271.6804955830574,0.01217255461961031,0.007334434427320956,-0.7431063652038574,0.6690224409103394,0.0011767934085612304,-0.00591275439265895,0.004511837598507452,0.0013217115774750714,0.0005756063037551942,-0.002416579052805901,0.048945923033170406,-0.2690013388171792,-9.811126173734666
11.11,0.8999999761581421,87.0,23.11911582946777,-0.015903547406196594,-79.78272191822803,40.45898577954531,271.66595681810384,0.012162930332124232,0.0073283822275698185,-0.7430931329727173,0.6690373420715332,0.002521771712034343,-0.00413752316463923,0.005323222216223549,-0.0008442483376711607,-0.004467618186026812,0.000299732229905203,0.04895588157232851,-0.27735209466889504,-9.81194478392601
11.2,0.8000000119209291,86.0,23.12036895751953,-0.015903547406196594,-79.78272192935813,40.45898577571815,271.6670218338966,0.012152527458965778,0.007326511666178703,-0.7430918216705322,0.6690390706062317,0.0019262900035021254,-0.004808521696330607,0.00548845413751217,-0.004556775093078613,-0.0019066585227847101,-0.0010954904137179255,0.04904246604535729,-0.2765314196795225,-9.811223237514495
11.4,0.8000000119209291,83.0,23.109100341796875,-0.03180709481239319,-79.78272187642789,40.45898584031396,271.652709924221,0.01214097160845995,0.007322475314140321,-0.7431022524833679,0.6690276861190796,-0.004213974905825368,-0.009709924083120136,0.0060071602747756025,0.004931348375976086,0.002837573643773794,0.0005012668552808464,0.04997561770956963,-0.273777618650347,-9.811098107099532
11.5,0.8000000119209291,82.0,23.121620178222656,-0.007951773703098297,-79.78272180647028,40.45898585767735,271.63970472717284,0.0121287414804101,0.0073390211910009375,-0.743086576461792,0.6690452098846436,0.0005809791858856402,-0.00917961422413155,0.006947449351747487,0.0069166263565421104,-5.305779723130399e-06,0.00266485009342432,0.05145584035199136,-0.2755784148909152,-9.811824331283571
11.69,0.699999988079071,81.0,23.11786460876465,-0.007951773703098297,-79.7827218174356,40.458985858290326,271.64040239954,0.01213062833994627,0.007329948712140322,-0.7430903911590576,0.6690409779548645,-0.0003934329931720304,-0.009313808618042051,0.0071021481689895905,-0.006012243684381247,-0.0038893180899322033,-0.002792480867356062,0.05080742524936795,-0.27086596107110383,-9.809857912659645
11.8,0.699999988079071,81.0,23.11661148071289,-0.007951773703098297,-79.782721742788,40.45898586864031,271.6277552475929,0.012129767797887324,0.00735061801970005,-0.7430893182754517,0.6690419316291809,0.0027743588157596107,-0.008836347678388291,0.007758441525407637,-0.005643224809318781,0.00048150063958019024,-0.004896986298263073,0.04974093879573047,-0.2690857397206128,-9.811579917669297
12.0,0.699999988079071,81.0,23.129133224487305,0.02385532110929489,-79.78272175376736,40.458985866609176,271.62851395511626,0.012129263021051884,0.007350292522460222,-0.7430893182754517,0.6690419316291809,0.0033055519782217244,-0.009162619254976715,0.007633618792550816,0.004505571909248829,0.0014912221813574431,0.0032420263160020113,0.05061849622987211,-0.27828768571838736,-9.81147115945816
12.1,0.699999988079071,81.0,23.11661148071289,-0.007951773703098297,-79.7827216995195,40.45898590683139,271.61660083436965,0.012133794836699964,0.007354334928095341,-0.7431020736694336,0.6690277457237244,-8.381258556664176e-05,-0.011960908156028035,0.007651771672269981,0.002844904782250524,5.314376539899968e-05,0.007086371071636677,0.049815061390399935,-0.27952798979356885,-9.811381112337113
12.29,0.699999988079071,79.0,23.11661148071289,-0.015903547406196594,-79.78272171353183,40.458985908231284,271.6173700919151,0.012125703506171705,0.007350634317845106,-0.7431005835533142,0.6690295338630676,-0.0009715176994478258,-0.012045073525146714,0.007845223386126926,-0.00742962770164013,-0.0005004521226510408,-0.0056949956342577926,0.050151376789435737,-0.2655775930546224,-9.810201144218444
12.41,0.699999988079071,79.0,23.11911582946777,-0.015903547406196594,-79.78272161486757,40.458985914943035,271.60787805223464,0.012111741118133068,0.007357240188866855,-0.7430899739265442,0.6690415143966675,0.0011968204422940876,-0.008034845899190115,0.010941438386908165,-0.006311189848929644,-0.0004775509878527373,-0.007931960746645927,0.04903223341796548,-0.2678790023177862,-9.809822244644163
12.6,0.699999988079071,75.0,23.11661148071289,-0.015903547406196594,-79.78272150369202,40.45898593499135,271.59737040901183,0.012095962651073931,0.007355007342994212,-0.7430964112281799,0.6690346598625183,0.0007101237652584353,-0.004862430828366087,0.013145735144455968,0.003812088398262858,0.0018846899038180707,0.006015780847519636,0.0504136335477233,-0.27867833454161883,-9.81218335032463
12.7,0.699999988079071,76.0,23.109100341796875,-0.007951773703098297,-79.78272151564221,40.45898593511802,271.6000134577751,0.012101465836167336,0.00735674425959587,-0.7430960536003113,0.6690348982810974,0.00017057722683503778,-0.0052123978799268715,0.013258295542980022,0.006575967185199261,0.0008360459469258785,0.005064351949840784,0.05018687578383833,-0.2772576073184609,-9.811331995725633
12.9,0.699999988079071,77.0,23.109100341796875,-0.015903547406196594,-79.78272145317808,40.45898594919103,271.58984305763244,0.012111779302358627,0.00735337333753705,-0.7430790662765503,0.6690536141395569,-0.0004511869315886667,-0.009983631546253105,0.015243227638998796,-0.004544087685644628,0.0011167724151164293,-0.005811274982988834,0.050886691566556695,-0.2712136876769364,-9.809849726557733
13.01,0.699999988079071,78.0,23.1103515625,-0.007951773703098297,-79.78272134367748,40.458985948381574,271.5812204709053,0.012118965387344359,0.007362789008766413,-0.743088960647583,0.6690424084663391,0.0011386146937244904,-0.004653468868351125,0.015895332775048232,-0.003260825527831912,-0.0014996279496699572,0.0006238313508220018,0.050571700232103466,-0.27488129887729884,-9.809957315325738
13.19,0.699999988079071,79.0,23.121620178222656,0.007951773703098297,-79.78272134958809,40.45898594732199,271.5828040471077,0.012116975151002407,0.007366006728261709,-0.7430874705314636,0.6690441370010376,0.0013503272628402124,-0.004915897528883727,0.015919618882841616,-0.00052167649846524,0.0005972116487100718,0.0003730727476067841,0.04930317420512438,-0.27106293914839624,-9.810477132797242
13.3,0.699999988079071,82.0,23.11536026000977,-0.015903547406196594,-79.78272129064075,40.458985972173295,271.5705957045555,0.012116814032196999,0.007359626702964306,-0.7430905699729919,0.6690407991409302,-0.0026444634933927647,-0.009886428771162241,0.010235628479395643,0.0007379658054560423,0.003787552239373327,-0.0039045752491801977,0.05055435044690967,-0.2779739095084369,-9.81244062781334
13.5,0.699999988079071,82.0,23.10659599304199,-0.02385532110929489,-79.78272130210291,40.45898597527153,271.57162454032897,0.012117523699998856,0.007359979208558799,-0.7430905103683472,0.6690407395362854,-0.0027094340169913924,-0.010101050890085384,0.010303515716474063,0.00020078077795915306,-6.184991798363626e-05,0.004462664946913719,0.05121007913723588,-0.2793984374217689,-9.812417238950733
13.6,0.699999988079071,81.0,23.10784721374512,-0.007951773703098297,-79.78272124494505,40.45898597714056,271.561807059288,0.012121181935071943,0.007360316812992095,-0.7430940866470337,0.6690366864204407,-0.0015285156032991466,-0.013165025241663351,0.009648629930437712,0.002452214946970344,0.002607714151963592,0.006697190459817648,0.05194108616095037,-0.28029680728912354,-9.811427890062332
13.8,0.699999988079071,80.0,23.11160469055176,-0.05566241592168808,-79.7827212603333,40.45898597985769,271.5627795090675,0.01212163921445608,0.007360916119068861,-0.7430987358093262,0.6690315008163452,-0.0024599609157085075,-0.01334170630293877,0.00987008323281629,-0.0043624360114336005,-0.0011721245246008039,-0.0072672548703849316,0.05016932043246925,-0.26779257316142324,-9.810595246553422
13.91,0.8000000119209291,80.0,23.10409164428711,-0.039758868515491486,-79.78272114463292,40.45898595155924,271.55322995090484,0.012116341851651669,0.0073666549287736425,-0.7430949211120605,0.669035792350769,0.0011877769773537346,-0.0077950574241001935,0.009508977670281877,8.929155592340976e-05,-0.0027714264579117307,-0.0038125438150018454,0.0504703012900427,-0.2715838347002864,-9.809801194667816
14.1,0.8000000119209291,78.0,23.112855911254893,-0.03180709481239319,-79.78272106116543,40.45898595500852,271.5446857442856,0.012097585946321487,0.007362059783190489,-0.7431021928787231,0.669028103351593,-0.001715466565113222,-0.008212948617087977,0.009073296853032363,-0.004440729506313801,-0.00153701554518193,-0.00024925239267759025,0.0502289620321244,-0.2762309824302793,-9.81045023560524
14.3,0.8000000119209291,79.0,23.11536026000977,-0.02385532110929489,-79.7827210708047,40.45898595691835,271.5455938210487,0.012109045870602131,0.007357432972639798,-0.7431067228317261,0.6690229773521423,-0.0016544918935516733,-0.008395525490065253,0.00904249716503623,0.0017201061127707364,0.0011404063552618027,-0.00041424654773436487,0.04949321328196675,-0.2708894230239093,-9.809668462872503
14.4,0.8000000119209291,75.0,23.112855911254893,-0.03180709481239319,-79.7827210105162,40.458985941833,271.53710445070266,0.012128780595958231,0.0073702805675566205,-0.7431095242500305,0.6690192818641663,-0.0009514643828063275,-0.01180481865959437,0.008920146794851577,0.0010089469142258167,0.004234406165778637,-0.001449190080165863,0.04991585277020932,-0.26922974567860364,-9.809594787955282
14.6,0.8999999761581421,74.0,23.109100341796875,-0.04771064221858978,-79.782720931309,40.45898593723826,271.52823218011855,0.012129733338952065,0.007360465824604034,-0.7431070804595947,0.6690220832824707,-0.003288354488177278,-0.014036854519927908,0.008653499468111529,-0.00204406026750803,-0.0018416831735521555,0.005682188086211681,0.0514134343340993,-0.2788760435208678,-9.81111564874649
14.7,1.0,74.0,23.112855911254893,-0.015903547406196594,-79.78272096391295,40.45898594571813,271.5299597015381,0.012140344828367232,0.007359864190220833,-0.7431134581565857,0.6690148115158081,-0.0035806674237890343,-0.014410788448239571,0.008714390768182513,-0.00046023420873098075,0.0009038278949446976,0.004570894874632359,0.0521543861925602,-0.27905283043161033,-9.812409052848816
14.9,1.0,69.0,23.05526161193848,1.0257788896560671,-79.7827208315622,40.45898591504717,271.52367975616454,0.012144560925662521,0.007371809799224137,-0.7431125044822693,0.6690157055854797,-0.0030501384630811147,-0.008728572821424177,0.011897027360283195,0.0016009246464818714,-0.002423822181299329,-0.004404040053486824,0.04985975147690624,-0.2673672795854509,-9.808856869339943
15.0,1.0,68.0,23.09657859802246,0.278312087059021,-79.78272074738742,40.45898588881851,271.5169491996765,0.012140984646975994,0.0073984437622129934,-0.7431073784828186,0.6690211892127991,-0.00136179161838915,-0.009019481863996905,0.011067187564565338,-0.0024227295070886608,-0.002011869102716446,0.01063220016658306,0.05001910180784762,-0.256920534465462,-9.810155535936355
15.19,1.100000023841858,66.0,23.102840423583984,0.3021674156188965,-79.78272075761838,40.45898589119745,271.51805015707015,0.012138902209699154,0.007399550173431634,-0.7431476712226868,0.6689765453338623,-0.002838751269514918,-0.009207470966028726,0.01095077563705958,0.007157045416533947,0.0010421390179544687,-0.003439385443925857,0.04211458444129676,-0.29702567299827937,-9.810962451696398
15.3,1.2000000476837158,66.0,23.09282302856445,0.3021674156188965,-79.78272066988923,40.45898586219693,271.5135897626877,0.012134773656725885,0.007423299364745617,-0.7431554794311523,0.668967604637146,-0.0017802860022846363,-0.008861907625474657,0.013360013999260513,0.00573293911293149,0.005102579481899738,-0.0012575543951243162,0.051195826549082994,-0.283960160985589,-9.811864092350007
15.5,1.2000000476837158,64.0,23.09783172607422,0.2862638533115387,-79.78272067997366,40.45898586434186,271.51492824459075,0.0121395206078887,0.007440411485731602,-0.7430734634399414,0.6690583825111389,-0.001975433066432016,-0.008796049875486961,0.01335239306403142,-0.0013670960906893015,-0.0039143851026892645,-0.005708908662199974,0.04911290672142059,-0.2701719513908029,-9.810575366020203
15.6,1.2000000476837158,63.0,23.09783172607422,0.3180709481239319,-79.7827205921008,40.45898582857697,271.50900044345855,0.01211986131966114,0.007456021849066019,-0.7430776357650757,0.6690539121627808,-0.0008458253281650644,-0.00830961595977746,0.011892209454097613,0.0011965949088335035,0.0007061712094582617,-0.002327972091734409,0.051429674061946574,-0.2790244531631469,-9.810088877677918
15.79,1.2999999523162842,58.0,23.09407615661621,0.3816851377487183,-79.78272060178398,40.45898582991997,271.51019277477263,0.012118863873183727,0.007468160707503556,-0.7431274056434631,0.6689985394477844,-0.0005958405384678348,-0.008117053225290011,0.011936848718641231,0.0021586932707577944,0.0013670368352904914,-0.00022359863214660439,0.04945290860719979,-0.2673621449992061,-9.810860710144043
15.9,1.2999999523162842,57.0,23.09407615661621,0.40554046630859375,-79.78272048299513,40.45898578992964,271.5046166410446,0.012110615149140358,0.007492425385862589,-0.7431251406669617,0.6690009236335754,-0.0008550342776804956,-0.00446384874932438,0.01095197960728712,-0.0067355711944401256,1.7383150407113135e-05,-0.003381213173270225,0.050099615226499736,-0.2562738689593971,-9.80824583530426
16.1,1.2999999523162842,53.0,23.04023742675781,0.9065022468566896,-79.78272037641574,40.45898574911482,271.4987896313667,0.012171736918389795,0.00750944297760725,-0.7431043386459351,0.669022798538208,-0.0010785341821515806,-0.0034539201222346786,0.010910495789170171,-0.0001114217666327022,0.00435696030035615,-0.01238312292844057,0.03891513421665877,-0.2414373997785151,-9.807997328639033
16.19,1.2999999523162842,53.0,23.09282302856445,0.2942156493663788,-79.7827203835923,40.458985748237744,271.50092103385924,0.012341770343482494,0.0075591118074953565,-0.7430704832077026,0.6690567135810852,0.0019155343889386747,-0.004300284857951508,0.010032147311501855,0.011244016699492931,0.007751647848635913,0.02026120200753212,0.037686017509549856,-0.2895630909316242,-9.801092351675036
16.39,1.399999976158142,53.0,22.6571102142334,5.542386531829834,-79.78272030340867,40.458985719083685,271.49556168222426,0.012299290858209131,0.0075912512838840485,-0.7430837750434875,0.6690423488616943,-0.0026996942483102204,-0.0041653603851050415,0.010386032991979963,-0.00010691108036553487,0.004304361529648304,0.0012652422301471233,0.0513458807207644,-0.28971241420134897,-9.821685075759886
16.5,1.5,49.0,23.05526161193848,0.7077078819274902,-79.78272022582297,40.458985655824435,271.49182232522963,0.012400279752910135,0.007681625895202159,-0.7431337237358093,0.6689839959144592,0.0011868206579679539,-0.0042304309189064495,0.00930636090306511,-0.012451285496354105,0.005142365116626024,-0.020899025723338127,0.051410711724311116,-0.2563480372354389,-9.813217138051987
16.7,1.5,48.0,23.09407615661621,0.2465049922466278,-79.78272023181721,40.45898565393394,271.4927309384346,0.012397186830639841,0.0076804193668067455,-0.7431035041809082,0.6690176725387573,0.002986664941559785,-0.003841875361341794,0.009115250884203232,0.007729214150458573,0.01419254206120968,-0.003606203943490982,0.06050646223593504,-0.27846993612125515,-9.817473911046985
16.8,1.600000023841858,50.0,23.09031867980957,0.4373475611209869,-79.78272013577588,40.45898558248789,271.4897682299614,0.012412989512085916,0.007636778987944126,-0.7431152462959291,0.6690047383308411,0.007030581934502529,-0.00296304871497906,0.009108642102346794,0.008687903173267841,0.0005791632574982941,0.0071287970058619985,0.038349301898852,-0.2751708639599383,-9.800576042532919
17.0,1.7999999523162842,46.0,22.886234283447266,4.15082597732544,-79.78272013890792,40.458985577198575,271.4906761279106,0.012380946427583694,0.007583145517855883,-0.7431560158729553,0.668960690498352,0.004893630038345428,-0.0014863542281975627,0.009539468006007443,-0.0069853453896939754,-0.003839189652353525,0.006342854350805283,0.05503211164847017,-0.25636598087847234,-9.809283716082572
17.1,1.7999999523162842,43.0,22.863698959350586,4.9778103828430185,-79.78272002976641,40.458985509952214,271.4875427117348,0.0123978266492486,0.007566391956061125,-0.7431687116622925,0.6689465045928955,0.006825442325940763,0.0016229171949948106,0.00923025379948231,-0.010576213710010052,0.018085256218910217,-0.0004936230252496898,0.04403814480174333,-0.2524769063852728,-9.805973022580147
17.29,1.7999999523162842,47.0,22.751012802124023,7.220210552215576,-79.78272002821619,40.45898550304507,271.48848386907576,0.012418389320373535,0.007588444743305446,-0.7431622147560121,0.6689530611038208,0.009710579277318623,0.0034467457356573304,0.009823938746772651,-0.003826597472652793,-0.01791139505803585,0.0103717353194952,0.0625367479864508,-0.3306925337389112,-9.813042891025543
17.4,2.0999999046325684,48.0,22.6859073638916,8.285748481750487,-79.78271998874804,40.458985471358545,271.48496951961516,0.01303239818662405,0.008045958355069159,-0.7431367635726929,0.6689643263816833,0.002858443729039921,-0.0053844413789746045,0.009054286365768357,-0.018225787207484245,-0.1008049100637436,0.005062405951321125,0.054421694311313336,-0.28829512221738696,-9.822179750204088
17.6,2.0999999046325684,44.0,22.539417266845703,10.62356948852539,-79.78271989914259,40.45898542664465,271.4806100358963,0.013510903343558313,0.008373118005692959,-0.7431511282920837,0.6689348220825195,0.006604653651855703,-0.004027410169428728,0.010248097465266856,0.06831347197294235,0.016717227175831798,-0.028096936643123627,0.04057593989185989,-0.3862757637351752,-9.823887137174607
17.69,2.0999999046325684,53.0,22.475563049316406,12.182117462158205,-79.78271990437965,40.45898541686472,271.48272695446013,0.014509791508316994,0.009160380810499193,-0.7431606650352478,0.668893039226532,0.014052908539602027,0.0005286062760593352,0.011446656635568757,0.14767836034297946,0.07685214281082152,-0.0018315833294764161,0.03832541054114698,-0.38490700364112856,-9.789612513184547
17.89,2.200000047683716,50.0,22.300275802612305,15.171984672546387,-79.78271981695372,40.45898534256843,271.4782167305946,0.0150673296302557,0.009716151282191277,-0.7430587410926819,0.6689860820770264,0.018549807479744176,-0.0003396219692345919,0.010419079467218964,0.0617654025554657,0.006303866859525442,0.049892574548721313,-0.11474779735319315,-0.4353250591456889,-9.71913309931755
18.0,2.0,59.0,22.206371307373047,16.571496963500973,-79.782719771576,40.458985291562534,271.4733129968643,0.01648884266614914,0.010938272811472416,-0.743053138256073,0.6689398288726807,0.012493462121432241,-0.0022326950379273573,0.01280508039106721,0.06681639701128006,0.06858500838279724,-0.05613525584340096,0.05198372058570385,-0.44728488095104696,-9.88357902288437
18.19,2.0,58.0,22.034839630126953,19.95895195007324,-79.78271977630533,40.45898527747773,271.47463586235045,0.017772357910871506,0.011928109452128409,-0.7427498698234558,0.6692268252372742,0.023788011142762258,-0.003590438682190531,0.012337557145711454,0.06021990627050401,0.05014127865433693,-0.06835413724184036,0.11579056603834036,-0.3800576884299517,-9.823666112422943
18.3,2.0,56.0,21.95345687866211,21.597017288208008,-79.78271973559791,40.45898520438058,271.4715937604904,0.018973032012581825,0.013142394833266735,-0.7423113584518433,0.6696575284004211,0.006173490220458468,-0.0028583929256789944,0.02973291574063552,-0.03869515657424927,0.06631442904472351,-0.04777876287698746,0.05901194589212538,-0.4399161832407117,-9.999334012269976
18.5,1.8999999761581416,53.0,21.735599517822266,25.24688148498535,-79.7827197403536,40.45898519656523,271.4751300444603,0.018099598586559296,0.011747701093554495,-0.7424792051315308,0.6695215106010437,0.011087057972707516,0.0002218051231087977,0.03837217398098864,-0.08118432015180588,-0.004923640284687282,-0.0690905749797821,0.22068124601617456,-0.16985989708453414,-9.875735567808153
18.6,1.8999999761581416,57.0,21.6279239654541,26.996273040771484,-79.78271971317152,40.45898509578908,271.4761412372589,0.004680515732616186,0.011969909071922302,-0.7401124238967896,0.6723604202270508,0.06067413422884894,0.024557695253678367,0.09247911208246863,-0.13915428519248962,-0.05893088132143021,-0.1672949492931366,0.10592939215712248,0.1264966808538884,-10.243680968284608
18.79,1.8999999761581416,55.0,21.685518264770508,24.952667236328125,-79.78271967490045,40.45898501963986,271.48805799388884,-0.002768505830317736,0.014784249477088453,-0.7376943230628967,0.6749672889709473,0.08442133332352612,0.05870368788996391,0.15897000729789704,-0.13846196234226227,-0.1962532848119736,-0.08635306358337402,0.10133249393664301,0.2805293254740536,-10.463308235406878
18.91,1.8999999761581416,50.0,21.90713119506836,21.191476821899414,-79.78271970662773,40.4589847988326,271.5137587418556,-0.010830593295395374,0.009581015445291996,-0.7359605431556702,0.6768701076507568,0.12387490834702312,0.08407838638085394,0.30035239790945983,-0.2321987748146057,0.048637110739946365,-0.013581862673163414,-0.05542774887755513,-0.07300182960927487,-10.418409805297852
19.1,1.7999999523162842,46.0,21.67550277709961,24.58688545227051,-79.78271919227113,40.458984513851405,271.50871249341964,-0.012337707914412022,-0.0009301765239797534,-0.7356353998184204,0.6772647500038147,0.14414216009471156,0.11483593439630645,0.24158303769193545,-0.02688492089509964,0.2661071121692657,-0.02301952429115772,0.002741786828264594,-0.00605263564735651,-9.8384794485569
19.2,1.7999999523162842,49.0,21.783178329467773,23.27484130859375,-79.78271889805926,40.45898424349394,271.5494078030586,-0.0008823811076581477,-0.012613443657755852,-0.7345461249351501,0.6784409880638123,0.1366182506264585,0.14386930825503896,0.16645903921194433,0.010795935057103634,0.13130418956279755,0.002765045501291752,0.04683407776057722,0.2865612583234906,-9.40908331990242
19.4,1.8999999761581416,44.0,21.70304679870605,25.01628112792969,-79.7827184269634,40.458984063493965,271.53670056962966,0.0032514482736587524,-0.014026724733412266,-0.7337368130683899,0.6792812347412109,0.13032936004181234,0.1494018099698658,0.08937571368016964,-0.055609457194805145,0.00772880995646119,-0.057740069925785065,0.0395829867431894,0.10175797023810447,-9.388708112239838
19.5,1.8999999761581416,47.0,21.577842712402344,26.59868431091309,-79.78271804484214,40.458983646409735,271.5590306749344,0.0013356144772842526,-0.013641352765262129,-0.7322378754615784,0.680911123752594,0.1363722146838712,0.1244213882118614,0.05977346301828504,-0.1574285328388214,-0.12184664607048035,-0.1021317094564438,-0.0018715201411396265,0.2517763734050095,-9.598306235074995
19.7,2.0,47.0,21.57909393310547,26.344226837158203,-79.78271792229351,40.45898350290036,271.5654193987846,0.0012727577704936266,-0.010623985901474951,-0.7317046523094177,0.6815378665924072,0.15062631310222513,0.11068376734695078,0.05984654254726129,0.059620372951030724,-0.04505766928195954,0.07738127559423448,0.0463470046967268,0.09126486766152084,-9.818279657363894
19.81,2.0,48.0,21.61415100097656,25.88302421569824,-79.78271749526421,40.45898318757565,271.5827599992752,-0.002360475016757846,-0.008255576714873314,-0.7328616976737976,0.6803234815597534,0.13027168500341432,0.11679878865627401,0.05691516241226625,-0.2007867842912674,-0.09495528042316437,-0.016978872939944267,0.034993625949136915,-0.00408429840579629,-9.649998545050623
20.0,2.0,52.0,21.62166404724121,25.843265533447266,-79.78271737951891,40.45898305969805,271.58918532037734,-0.0060525438748300076,-0.01194703672081232,-0.7343376278877258,0.6786523461341858,0.14212997792463616,0.10519181600960197,0.06598889502122919,0.00579854566603899,-0.0017956015653908255,0.14759570360183716,0.11237129705026748,0.09624906169250608,-9.906335216760636
20.1,2.0,53.0,21.56782531738281,26.95651435852051,-79.78271704646745,40.45898275250861,271.6137493481636,-0.009733032435178757,-0.016438011080026627,-0.7373092174530029,0.6752853393554688,0.08915257985925898,0.11422861034714447,0.09163659271770196,-0.14610598981380465,-0.0030432362109422684,-0.01881985925137997,0.09130226243287326,0.4166636703908443,-9.801429151296617
20.29,2.0,56.0,21.457645416259766,28.43554306030273,-79.78271692910533,40.45898266473942,271.6235852470398,-0.010290483944118023,-0.01757041923701763,-0.7385702729225159,0.6738690137863159,0.08619439505070572,0.10601723125912783,0.09229254270939494,0.037812989205122,-0.0007988305878825487,0.06012169644236565,0.06811503283213824,0.01640980873256922,-9.823563201427461
20.4,2.0999999046325684,60.0,21.50397109985352,27.11554908752441,-79.78271655240391,40.45898240940289,271.646737300396,-0.004883902613073586,-0.017902085557579994,-0.7409145832061768,0.6713428497314453,0.05505648764175138,0.09144021967260264,0.13998741367826534,0.06672931462526321,0.030741399154067036,0.03163328766822815,0.08949904507957401,0.03299965232145041,-10.094042533636092
20.5,2.0999999046325684,65.0,21.451385498046875,27.20301818847656,-79.78271649298223,40.458982284368034,271.6623487701416,-0.002027035690844059,-0.019841017201542854,-0.7420856356620789,0.6700083613395691,0.03962551602049349,0.07063679237644592,0.17487130864108358,-0.034264761954545975,0.02409990318119526,0.07643728703260423,0.06665300964843482,0.02169102304615081,-10.094587494134904
20.7,2.0999999046325684,71.0,21.526508331298828,26.59073257446289,-79.78271642637849,40.45898225355213,271.68070837163924,-0.0007906061946414411,-0.01998003572225571,-0.7428244352340698,0.6691876053810121,0.025552914483424824,0.05539503472602288,0.18077381373446952,0.08431866765022278,-0.020698469132184986,0.08288947492837906,0.12150583561509848,0.08474462835118175,-9.951102669239043
20.89,2.200000047683716,77.0,21.363740921020508,30.192886352539066,-79.78271637317162,40.45898212634872,271.70428045892714,-0.0029514618217945108,-0.015479349531233309,-0.7429752349853516,0.6691333651542664,0.010411631385397356,0.01842744164109024,0.16614530249821935,0.08383317291736603,-0.012899436056613922,0.057663965970277786,-0.015664124283939602,-0.053534831581637264,-9.89735272407532
21.0,2.299999952316284,79.0,21.403806686401367,28.586627960205078,-79.78271636253852,40.45898213108622,271.72200115823745,-0.0041500478982925415,-0.01500475499778986,-0.7428812384605408,0.669242262840271,-0.005192939805853874,0.0015603493716331446,0.19437224619456225,-0.016508307307958603,-0.022512312978506088,0.012833859771490095,-0.03475460273679346,0.0688409052696079,-10.03622175693512
21.2,2.4000000953674316,81.0,22.191347122192386,11.490313529968262,-79.78271627756818,40.458981941193606,271.75487121248244,-0.005893089342862368,-0.015884576365351673,-0.7414367794990541,0.6708089113235474,-0.004617147502438976,-0.0013171933062472337,0.2663326063555214,0.00535303819924593,-0.0001727822673274204,-0.0486329048871994,0.05590882854536176,-0.0668262471165508,-10.159182854890824
21.3,2.5,80.0,21.610395431518555,26.550973892211914,-79.78271628961306,40.45898196698963,271.782114528656,-0.007007859647274017,-0.015481381677091122,-0.7404294013977051,0.6719193458557129,-0.035007177918009884,-0.013526256092386002,0.2671469921304958,-0.04697750136256218,-0.05566426366567612,-0.058973558247089386,0.058064902522601186,0.3074093595519662,-9.787155513167383
21.4,2.4000000953674316,76.0,21.388782501220703,28.554821014404297,-79.7827165678082,40.458982018677226,271.79437740945815,-0.0009148293756879867,-0.0007628754829056561,-0.7397558093070984,0.6728744506835938,-0.03536572122917955,-0.03947373414593714,0.049825355747407436,0.2660925686359405,-0.15654584765434265,0.010261286981403828,0.08710193334147334,0.2486897561699152,-9.178546902537347
21.6,2.5,78.0,21.17968940734864,34.494796752929695,-79.78271647596634,40.45898186221454,271.82883664274215,0.0015056548872962596,0.0123039111495018,-0.7393979430198669,0.6731546521186829,-0.01793550648204513,-0.016626341059342808,0.1300815780103945,-0.09244180470705032,-0.0340680368244648,0.07528122514486313,-0.11138879123143852,-0.07640514666214586,-10.16806360602379
21.8,2.5999999046325684,73.0,20.945556640625,36.62586975097656,-79.78271648594836,40.45898186617698,271.8469566335678,-0.000932023744098842,0.00793330743908882,-0.7390766143798828,0.6735740303993225,-0.002799507112895373,-0.00633139834737485,0.24984591008082616,-0.1997629553079605,0.04964647069573402,-0.10973906517028807,-0.041023014346137636,0.2682308402471245,-10.799597979784012
21.9,2.5999999046325684,70.0,20.90924644470215,37.62779235839844,-79.78271654745821,40.458981986255324,271.8830094566345,-0.003371079917997122,-5.3605472203344115e-06,-0.738438606262207,0.6743122935295105,-0.0038909177760273533,-0.016163179058219214,0.4261858738194517,-0.11583776026964188,0.05572820454835892,-0.060867346823215485,-0.043735619913786654,0.2371710519678891,-11.373976989984513
22.1,2.5999999046325684,66.0,20.71267509460449,41.40488815307617,-79.78271655870569,40.458981855138866,271.9854851295948,-0.005254813935607672,-0.009275329299271108,-0.7370629310607909,0.6757400035858154,0.026183927474095387,0.007424941025773686,0.7893807550635384,0.06305789947509766,-0.010450836271047592,-0.024531109258532524,0.1573240514472127,0.18753162631765008,-11.814896811246872
22.19,2.799999952316284,67.0,20.686382293701172,41.48440551757813,-79.78271655842417,40.45898183787102,272.19051566028594,-0.003841011552140117,-0.0068897060118615645,-0.7359941005706787,0.676941990852356,0.025152696189640767,0.004966617580796139,1.2738123044936105,-0.01894324645400048,-0.0017821744550019505,-0.030364641919732094,0.019061701472383,0.2490499081090093,-12.219244637489322
22.4,2.9000000953674316,67.0,20.67636489868164,41.55596923828125,-79.78271659864839,40.458981774677255,272.3193026562929,-0.0025338912382721897,-0.006097085308283567,-0.7361907958984375,0.676741898059845,0.02840198326867136,-0.00119088213923931,1.5142235233740804,0.07600319385528563,-0.0015832247445359824,0.06675489991903305,0.041531703835353255,0.12674985615536571,-12.399252340793607
22.5,2.9000000953674316,64.0,20.596233367919922,42.12849807739258,-79.78271660346302,40.45898177229829,272.4835433173701,-0.004224651027470827,-0.006349700968712568,-0.7370481491088867,0.6757972240447998,0.02292891477949956,0.008825664252144963,1.7659855181734987,-0.06020263954997063,-0.01731807366013527,-0.07116040587425232,0.09781984308734536,0.07184961749240756,-12.329200358390805
22.7,3.0,62.0,20.57119369506836,42.23187255859375,-79.78271661976306,40.4589817213289,272.8621333172321,-0.0131020350381732,-0.005972783081233501,-0.7390942573547363,0.6734480857849121,0.03875659458647712,0.010735050713264272,2.240283152681954,0.03171943873167038,-0.07204756140708922,0.07026288658380507,0.05070718661416322,0.3295232002437115,-12.302816551923751
22.8,2.9000000953674316,62.0,20.10668182373047,38.79670333862305,-79.78271658981211,40.45898173691344,273.0988149871826,-0.013874998316168785,-0.004857776220887899,-0.7396356463432312,0.6728469729423523,0.042504125566061285,0.009511038731772078,2.489149815828784,0.07083267718553543,-0.03870143741369248,-0.030357003211975094,0.06687352733686566,0.16379739426076412,-12.344359849691394
22.9,3.0,64.0,20.065364837646484,39.79067611694336,-79.78271654950863,40.45898176355219,273.5864629974365,-0.010503637604415415,-0.0052544185891747475,-0.7405111193656921,0.6719414591789246,0.01914183623420278,0.030279053688299886,2.837897745882464,0.028900790959596637,0.06447608023881912,0.029272630810737613,-0.007183076022192836,0.18668942626565696,-11.615864607095721
23.1,3.0,68.0,20.210601806640625,36.80876159667969,-79.78271646060449,40.45898179872234,274.10689415836333,0.0002805007970891893,-0.006849585566669703,-0.7414889335632324,0.6709302067756653,-0.0256162407637349,0.05920531760946812,3.0808170863295743,-0.08439376950263977,0.06900066882371902,0.014842187985777857,0.04571826912928373,0.14325859246775507,-11.24295608997345
23.2,3.0999999046325684,69.0,20.286977767944336,35.74322509765625,-79.78271638595203,40.45898185482325,274.42039444351195,0.0013682669959962368,-0.009757401421666144,-0.7417958378791809,0.67055344581604,-0.04291289637885157,0.08799996720170508,3.1843600309826297,-0.0582326203584671,0.03944424167275429,0.029044857248663906,0.04015377092175186,-0.06922438211739064,-10.91747083067894
23.4,3.0,71.0,20.625030517578125,30.328065872192386,-79.78271638159995,40.45898187937826,274.6633045902252,7.931797154014929e-05,-0.011440623551607132,-0.7415971159934998,0.6707479357719421,-0.0368314478717979,0.09459593625305764,3.1799013107362253,0.020517412573099136,0.02285186573863029,-0.051770105957984924,0.11641344068571925,0.07470865469891579,-10.508736423254014
23.59,3.0999999046325684,75.0,20.91300392150879,34.78105926513672,-79.78271636300529,40.45898198581196,275.2408025493622,-0.0009576123557053506,-0.009143948554992676,-0.7401953339576721,0.6723290681838989,-0.031889180027580746,0.05917946909519917,3.0980314005697585,-0.02657455764710903,-0.09343329071998596,0.02317795343697071,-0.010853831243002788,0.122722348831594,-9.70462791144848
23.7,3.0999999046325684,76.0,21.021930694580078,32.96010208129883,-79.78271634142772,40.45898205878672,275.55190875434874,0.0007853876450099051,-0.00765557587146759,-0.7398027181625366,0.6727798581123352,-0.04207194156009672,0.04540701544341228,3.1310037722752866,-0.03586331009864807,-0.00678609823808074,-0.014300718903541563,0.03192441331688315,0.11948286345228555,-10.03896994829178
23.8,3.0,75.0,20.9843692779541,33.52467727661133,-79.78271636754519,40.45898224722257,276.1556849708557,0.002799193607643247,-0.005188557785004377,-0.7393371462821959,0.6733096837997437,-0.06720459802146908,0.02499846434913719,3.145925779354444,0.02319185994565487,-0.06261888891458511,0.015457504428923132,0.04646057772450149,-0.12304665002971887,-9.999080243110658
24.0,3.0,76.0,21.1208438873291,30.67794418334961,-79.78271640144806,40.45898239148341,276.7881527175903,0.0023287360090762377,-0.007763969246298075,-0.7388805747032166,0.6737876534461975,-0.06779558438596041,0.011712672951460236,3.134341509888118,0.026233628392219543,0.03566399961709976,0.05437174811959267,0.10208726897835732,0.032683087263721974,-9.747673943638805
24.19,2.9000000953674316,81.0,21.139623641967773,28.57072448730469,-79.78271642990043,40.458982471882756,277.1000929107666,0.003424515714868903,-0.009573996067047121,-0.7390065193176271,0.6736215949058533,-0.0655728485691904,0.0060531806094228854,3.100483185931416,0.008647809736430645,0.04462395235896111,0.07533643394708632,0.04458813025150448,0.02770849317312241,-9.561362357139588
24.3,2.9000000953674316,84.0,21.198471069335934,29.62830924987793,-79.78271647442621,40.45898255084679,277.4086318244934,0.0055991513654589644,-0.00995001941919327,-0.7393753528594971,0.6731966733932495,-0.058119243686111675,0.0064278115344108475,3.069299102894753,-0.02843031845986843,-0.06475776433944702,-0.09186878800392152,0.11193145852535964,0.06206178048625589,-9.540717008113864
24.4,3.0,84.0,21.085786819458008,31.616252899169922,-79.78271662190755,40.458982725797924,277.95991327667235,0.00747657334432006,-0.0016339771682396533,-0.7401559352874756,0.6723917722702026,-0.07765893548917333,-0.008130253297996827,2.9139065506207813,0.10439862310886383,-0.00797092355787754,0.0047162193804979324,0.038675996800884606,0.2684013414010405,-9.232187504768373
24.6,2.9000000953674316,86.0,21.153396606445312,31.186857223510746,-79.78271660662635,40.45898290077482,278.4097900619507,0.005680663045495749,0.0039645303040742865,-0.740199863910675,0.6723513007164001,-0.07791328900429341,-0.04785234921904093,2.7501831373383965,0.008018376305699348,-0.024707714095711708,-0.0097879096865654,0.00937968308106065,-0.04727469286881388,-9.472882289886478
24.7,3.0,81.0,21.03445243835449,31.592397689819336,-79.78271667245575,40.45898293697128,278.6833963623047,0.006873535923659802,0.0034345241729170084,-0.7398539185523987,0.6727237701416016,-0.06983070069306574,-0.054333619723254116,2.7229711995211887,-0.08050138503313065,-0.006268608849495649,-0.17509976029396054,-0.021156715443357826,0.16692961977794768,-9.538469338417054
24.9,2.9000000953674316,81.0,21.077022552490234,31.26637458801269,-79.7827168823602,40.45898319149943,279.1055259933472,0.007415457163006067,0.002684840932488441,-0.7396512627601624,0.6729441285133362,-0.06195623242649845,-0.052969998886675335,2.729110452390865,-0.05757032707333565,-0.015100575052201746,-0.17562562227249146,0.08109868839383126,0.1836941717751324,-9.477807984352113
25.09,2.9000000953674316,84.0,21.077022552490234,30.60637855529785,-79.78271710692125,40.458983203454345,279.8632979621887,0.007467018906027078,9.943722398020328e-05,-0.7390634417533875,0.6735944151878357,-0.016862549418756374,-0.048416659253794375,2.732068868237055,-0.05363278090953827,0.0008528846665285528,0.09002310782670975,-0.006551576731726527,-0.0454525360185653,-9.449197558164595
25.21,2.9000000953674316,87.0,21.129608154296875,30.01794624328613,-79.78271719291266,40.45898318743394,280.13533975982665,0.005685046315193175,-0.0022426811046898365,-0.7387920022010803,0.6739057898521423,-0.0010991957944205604,-0.04762066235996607,2.7138532679541703,-0.08693551272153854,-0.02294389344751835,0.07942596822977066,0.05556187852285803,-0.0512168810935691,-9.586448666453363
25.4,2.9000000953674316,91.0,21.03695678710937,32.109264373779304,-79.78271733664877,40.458983207383476,280.8492155303955,0.0032489784061908718,-0.0027818353846669197,-0.7378496527671814,0.6749515533447266,0.038880358235627716,-0.046267928061779234,2.7277366891167247,0.011965066194534302,-0.01293722540140152,-0.052003081887960434,0.08163747277110815,0.11830512458458545,-9.540946218967438
25.5,2.9000000953674316,93.0,21.01817512512207,33.11913681030273,-79.78271751226599,40.458983130011504,281.5261364212036,0.00375503464601934,0.0021885887254029512,-0.7375633120536804,0.6752641201019287,0.03955134862368784,-0.054347570872744486,2.7341322890819906,0.0537499375641346,-0.004074037075042725,-0.09003889560699463,0.04386695842724294,0.10411603353917599,-9.609400157332422
25.7,3.0,93.0,20.97810935974121,32.80902099609375,-79.78271760270424,40.45898308606197,281.7996254196167,0.0040409346111118785,0.00414561852812767,-0.7380117774009705,0.6747630834579468,0.04048461323219402,-0.06397983738134512,2.740372205241248,0.0420805923640728,-0.001224151928909123,-0.05094548314809799,0.06961518625728788,0.0429617409221828,-9.803908955454826
25.8,3.0,95.0,21.168420791625977,29.397708892822266,-79.78271769069649,40.45898303288431,282.07396986389165,0.0039989124052226535,0.005124484654515982,-0.7385649681091309,0.6741510629653931,0.04350302022552953,-0.06615534842656587,2.7490152498321394,0.043233875185251236,-0.014107588678598404,-0.04760458692908287,0.07202882551588119,0.03028872326016426,-9.890023823976515
26.0,2.9000000953674316,99.0,21.065753936767575,31.68781852722168,-79.78271795876174,40.45898294000617,282.7571401824951,0.0044474839232862,0.004315092228353024,-0.7395555377006531,0.6730670928955078,0.06359797873851795,-0.06835215896426097,2.8030234719335847,0.022487640380859368,0.05038061738014221,0.08899552375078201,-0.006194483160506935,-0.07427239302545786,-9.675205307006836
26.1,2.799999952316284,103.0,21.021930694580078,30.773365020751953,-79.78271789656485,40.458982730329325,283.13003828430175,0.004317170009016991,0.0028009233064949512,-0.7396928668022156,0.6729250550270081,0.09757368459758876,-0.03350805885678305,2.830728036088217,-0.005719638895243406,-0.011561528779566288,0.08167878538370132,0.06475907822605223,-0.12680499357171354,-9.614256269931793
26.2,2.700000047683716,105.0,21.069509506225586,30.646137237548828,-79.78271799376584,40.45898249990316,283.69476416015624,-5.5027550843078636e-05,9.644002420827746e-05,-0.7394922375679016,0.6731650829315186,0.11178077012133973,-0.026283841869894443,2.8202241242660375,-0.09754510223865508,-0.013784163631498814,-0.05671301856637001,0.06313334670849145,0.05558637287467719,-9.798780947327614
26.4,2.700000047683716,109.0,21.155900955200195,29.47722625732422,-79.78271800427262,40.458982292764155,284.3358288040161,-0.001341446884907782,0.0008135586394928398,-0.7388577461242676,0.673859715461731,0.14147265773416828,-0.004635313143644529,2.836764717803741,-0.0588819868862629,0.003935829270631075,-0.1048978865146637,0.015866791976150128,0.2268779424391687,-9.642470839619637
26.49,2.700000047683716,115.0,21.013166427612305,31.46516990661621,-79.78271816057891,40.45898218493486,284.68192961120604,-0.0007440756307914852,0.002137691946700216,-0.7386114597320557,0.6741276383399963,0.13604645386569364,-0.013643038773537036,2.84657640572568,0.07510431855916977,0.0027197196613997217,0.14948169887065887,0.023220371436327696,-0.13265597336925564,-9.599773301482204
26.71,2.700000047683716,114.0,21.0382080078125,30.53481101989746,-79.78271817323724,40.45898207182484,284.96598436737065,-0.0004579178639687598,0.002148074796423316,-0.7384173274040222,0.674340546131134,0.1270174702659113,-0.005597629354726991,2.8373542174480444,0.07272712886333466,0.08630618453025818,0.12734022736549375,0.023822956702206285,-0.11478150106966495,-9.657123962044716
26.9,2.700000047683716,115.0,21.015670776367188,31.67191505432129,-79.78271826695855,40.45898202555431,285.5984287490845,-4.7153611376415945e-05,0.00021854756050743165,-0.738692581653595,0.6740425229072571,0.09688026189056899,0.008359089118823076,2.830533081721371,-0.12227515876293182,-0.05228492245078087,-0.12420163303613665,0.03984864676371217,-0.002038302831351757,-9.610610530972481
27.0,2.5999999046325684,114.0,21.02443504333496,31.695770263671875,-79.78271847016832,40.45898184450119,286.21906378173827,0.0006844219751656053,-0.002423092257231474,-0.7385042309761047,0.6742441654205322,0.1120962043921164,0.01604898606590848,2.843001608788089,0.011477199383080006,0.02233817987143993,0.04348056763410568,0.07035804759711027,-0.030366902360692626,-9.700327869057656
27.1,2.5999999046325684,118.0,20.918010711669922,33.11118698120117,-79.78271846857348,40.458981751705714,286.5032797088623,0.0007304167374968529,-0.0027407736051827678,-0.7381816506385803,0.6745960712432861,0.1082761737662282,0.02826392634279488,2.8482538144362413,0.03699531778693199,0.02452878281474113,0.09358885884284973,0.009604919655248524,-0.034340094532817604,-9.813383198976515
27.3,2.700000047683716,119.0,20.930532455444336,33.413352966308594,-79.78271846980904,40.45898167343304,287.1170149078369,0.0006062440806999803,-0.0013941657962277536,-0.7376676797866821,0.6751623153686523,0.09316376184497377,0.02526551231357445,2.902950640634502,0.05133157595992088,-0.010320164263248444,0.1076372042298317,0.03232246252242476,0.03907184416428208,-9.920428175926213
27.5,2.5999999046325684,120.0,20.881702423095703,33.34178924560547,-79.78271845722308,40.45898160015017,287.40828993225097,-0.0003215765755157918,-0.0008201077580451965,-0.737641453742981,0.6751921772956848,0.0867236759959803,0.029837764857106867,2.924556313987781,0.04681377112865448,0.024078156799077988,0.12474508583545685,0.034898942168802016,-0.08455716113559902,-9.9747137260437
27.6,2.700000047683716,120.0,20.894222259521484,33.01576614379883,-79.7827185053467,40.4589816050004,287.7275009384155,-0.0012473842361941936,-0.0002579795545898378,-0.7378062605857849,0.6750114560127258,0.07342468354823989,0.026259940803401747,2.954311537950411,0.03658118844032288,0.0447482131421566,0.11266525089740753,-0.07154009878635408,0.009093726826831698,-10.009940861463546
27.71,2.799999952316284,120.0,20.974353790283203,31.56854248046875,-79.78271846205676,40.45898147994514,288.32372572326665,0.0013442743802443149,-0.001142908469773829,-0.7381474375724792,0.6746371984481812,0.07141681710532972,0.027931259710449432,3.0080081259173297,0.01288178563117981,0.030551297590136525,0.1150062382221222,0.006522443436551839,-0.03749834929592906,-10.010451908111571
27.9,2.799999952316284,120.0,20.99814224243164,31.234567642211914,-79.7827184819532,40.45898144038529,288.9360361328125,0.0018913559615612032,-0.0011370789725333452,-0.7383114099502563,0.6744564175605774,0.0588121358678422,0.04627749844044792,3.041113618940221,-0.033031243830919266,-0.031780995428562164,0.007120439317077398,0.054020981881767516,0.08016093204729259,-10.045818207263947
27.99,2.799999952316284,118.0,20.936792373657227,32.268299102783196,-79.782718490996,40.45898150562951,289.24145033264165,0.0008199164876714349,0.0005826514097861948,-0.7384446263313293,0.6743134260177612,0.039464047296558336,0.04794275706337491,3.0219535946754137,-0.11188527196645737,-0.04453377053141594,-0.006569951772689818,-0.013772020116448402,0.16154082583263518,-9.83690888643265
28.2,2.799999952316284,117.0,20.930532455444336,31.75143241882324,-79.78271845516444,40.45898145636381,289.54341413879393,-0.0011851891176775098,0.00014738489699084312,-0.738476037979126,0.6742786765098572,0.045216217859214425,0.03481707754893542,3.022195209162422,-0.04714928939938545,0.0007602957193739713,0.06054342910647392,-0.02173140994738788,-0.0006344777159392834,-9.80667761206627
28.4,2.700000047683716,115.0,21.013166427612305,30.431438446044922,-79.7827184148372,40.458981390113685,290.1532125701904,-0.00023602040892001241,-0.0005657199653796853,-0.738128662109375,0.674659788608551,0.06554582307999983,0.039892442286255235,3.0010762358931187,0.11381875723600388,0.12756209075450894,0.0604497455060482,0.01119492833968252,0.0804914093669504,-9.752068710923195
28.5,2.700000047683716,114.0,21.02443504333496,30.34396934509277,-79.78271845392344,40.45898136278251,290.7661390533447,0.002229423262178898,-0.002397543052211404,-0.7370340824127197,0.6758476495742798,0.05688154933898301,0.05645683528189953,2.9795604912396985,0.15947754681110382,0.06965024769306183,0.092996783554554,0.06963247208856048,-0.06506385063752533,-9.66963875770569
28.6,2.700000047683716,115.0,21.053232192993164,30.0736083984375,-79.78271840163265,40.45898131663651,291.0627908935547,0.0016394645208492875,-0.00257766037248075,-0.7367385029792786,0.6761709451675415,0.051900442837462264,0.0671958701278186,2.9490575138693624,0.058613426983356476,0.037358399480581284,0.09778877347707747,0.09082183144055307,-0.03606018777703866,-9.560177126526833
28.8,2.700000047683716,114.0,20.93929672241211,31.26637458801269,-79.78271834915584,40.45898127314215,291.3564844360352,-0.0010468066902831195,-0.004371220245957375,-0.7369575500488281,0.6759241819381714,0.04641104001953573,0.06431256274026076,2.9250407966996805,-0.06245682016015053,-0.07767262309789658,0.06383676081895827,0.03909617863129825,-0.033603363633155824,-9.875886425971986
28.9,2.799999952316284,113.0,20.983118057250977,31.210712432861328,-79.78271824476107,40.45898128030801,291.96859075927733,-0.003372268518432975,-0.007334606256335974,-0.7384442687034607,0.6742662787437439,0.07297617164031484,0.06835800946869404,2.9496545706166684,-0.035496946424245834,-0.0591990202665329,-0.13439007103443146,0.08342116590589285,0.18706467133015395,-9.800446819067002
29.1,2.9000000953674316,116.0,20.933034896850586,31.878662109375,-79.78271817699155,40.45898130328278,292.57458021545415,0.002283810870721936,-0.0007743415771983564,-0.739366352558136,0.6732990741729736,0.0178772414368304,0.06453475118079348,2.9218261374307595,0.033026572316884995,0.04869936406612396,0.032085340470075614,-0.05402934157289565,0.10217433767393233,-9.569269546866416
29.29,2.799999952316284,118.0,21.099557876586914,28.95240974426269,-79.78271812333854,40.45898129547494,292.8658628692627,0.003218048252165317,-0.0010150582529604435,-0.7393009066581726,0.6733668446540833,0.004117018430124307,0.05300888539156935,2.9083427420156633,0.13226257264614105,0.09196247160434724,0.0814264565706253,0.014306190675124527,-0.09268622528761626,-9.671104069948193
29.4,2.799999952316284,120.0,20.881702423095703,32.72949981689453,-79.78271814122552,40.4589813708802,293.1747007598877,0.0032923268154263496,-0.0026696017012000084,-0.7392063140869141,0.6734657883644104,-0.003383131711351832,0.052719505185543934,2.9122663442813925,0.1371532827615738,0.05706273019313812,0.1207866445183754,0.06621611757203938,-0.23833009801805025,-9.716228787302972
29.6,2.799999952316284,122.0,20.941801071166992,31.560590744018555,-79.78271816872244,40.45898145754256,293.77571585083007,0.004237407818436623,-0.0017052639741450546,-0.7385889291763306,0.6741406321525574,-0.021440987760207163,0.05588956608532725,2.9170290850741334,-0.17523060739040375,-0.07954130321741104,-0.1743295043706894,0.07391932169906795,0.06935864880681038,-9.759623898267746
29.7,2.9000000953674316,123.0,20.928028106689453,30.69384765625,-79.78271813757206,40.458981464100795,294.06746199035643,0.002519496716558933,-0.0005288938409648836,-0.7378069162368774,0.6750069856643677,-0.0298549838282499,0.04837811615107141,2.919999238178745,-0.09860401600599288,-0.11719400435686113,-0.025819053873419758,0.027825432918034496,0.003923854005988688,-9.794095573425293
29.9,2.9000000953674316,125.0,20.826610565185547,33.993831634521484,-79.78271816666502,40.4589815631024,294.66635038757323,0.0010078763589262962,0.002510980702936649,-0.7364317178726196,0.6765065193176271,-0.03416167252023314,0.02814881180436897,2.9335882513158538,0.019998587667942047,-0.007785072550177573,0.02526384778320789,0.004834313448518515,0.04252754861488939,-9.774742459058762
30.0,2.9000000953674316,127.0,20.968093872070312,31.16300201416016,-79.78271813333797,40.45898158256241,294.95986273193364,0.000380173500161618,0.0014848916325718164,-0.7359129190444946,0.6770745515823364,-0.036406994175629925,0.019557351953907055,2.938850484600614,0.050092894583940506,0.07141187787055969,0.05744127556681632,-0.02705244014505297,-0.06417200407013297,-9.842041572332384
30.2,3.0999999046325684,129.0,20.89297103881836,32.379623413085945,-79.7827181263701,40.458981704188794,295.568331741333,0.004895911552011968,-0.0020176013931632038,-0.7356709837913513,0.6773183941841125,-0.018606476779383624,0.03981483773817633,2.967728485700512,0.17131191492080688,0.07861550897359848,0.06228429451584816,0.07943732997402549,0.02519948948174715,-9.808803659677508
30.3,3.0999999046325684,130.0,20.855409622192386,33.11118698120117,-79.78271808867457,40.458981720198466,295.86449530029296,0.0076351468451321125,-0.0005162046290934086,-0.7357608079910278,0.6771983504295349,-0.028483433828404407,0.05678600821565642,2.9528027409171003,0.1817919909954071,0.05633220449090004,0.03448925539851189,0.11735219288617373,-0.05157589556649327,-9.73865636765957
30.39,3.0999999046325684,136.0,20.794057846069336,33.28612518310547,-79.7827182485166,40.458981819792655,296.46523191833495,0.005616947077214718,0.002272596349939704,-0.7360144257545471,0.6769387125968933,-0.05140001325601898,0.031756011561182164,2.9660539997480897,0.07905533909797667,-0.01748622953891754,0.035359933972358704,0.08712960711680354,-0.0271380059234798,-9.90568266749382
30.6,3.0,139.0,20.902986526489254,31.186857223510746,-79.78271826716812,40.458981986530155,297.0693369140625,0.0034523457288742065,0.0011563380248844626,-0.737038254737854,0.6758412718772888,-0.05883064235623331,0.02130315098596418,2.9969746807408035,-0.032965220510959625,0.017363127321004868,0.0009861098369583488,0.002173958234488964,0.05952575169503689,-9.88945898294449
30.8,3.0999999046325684,137.0,20.963085174560547,31.60830116271973,-79.78271825153041,40.45898201156075,297.3687811126709,0.002895058831200004,-0.0012526650680229068,-0.737827718257904,0.6749817728996277,-0.05557976196660178,0.017911045939888032,2.9845677672427526,-0.039523880928754807,0.052765071392059326,-0.040304236114025116,0.08619509414769709,0.055853681992739435,-9.744165614247322
30.9,3.0999999046325684,139.0,20.946807861328125,31.26637458801269,-79.7827182862743,40.45898220159401,297.95663359069823,0.002888445742428303,-0.003534135641530156,-0.7396562695503235,0.6729694604873657,-0.05757955684018073,0.02605705780130694,2.9280013334850814,-0.004274982493370771,0.026277020573616028,0.04776335135102272,-0.04908590446226298,0.12044650286436084,-9.54851719379425
31.1,3.2000000476837163,142.0,20.797813415527344,32.013843536376946,-79.78271834119927,40.458982247981545,298.2630224456787,0.005722393747419119,-0.00016138204955495894,-0.7399184107780457,0.6726722717285156,-0.035644739636974364,0.022797251443294145,2.924541790231179,0.3535215258598328,0.05804666131734847,0.10618551075458528,0.05677561888005585,-0.21343859234824772,-9.672413261532784
31.3,3.2000000476837163,145.0,20.887962341308594,32.4989013671875,-79.78271833986057,40.458982348519385,298.848303817749,0.010822375304996969,0.0070224725641310215,-0.7381211519241333,0.6745448112487793,-0.10423701514727624,0.007567203392895114,2.930570066152676,0.05779372900724411,0.020253455266356468,-0.08448365330696106,0.004128431179560722,-0.14124435458332302,-9.813100193738938
31.4,3.2000000476837163,144.0,20.871685028076172,32.33191299438477,-79.78271843700941,40.45898250196327,299.1449690093994,0.011952403001487257,0.007763468194752932,-0.7368597388267517,0.6758953928947449,-0.11846587588216242,-0.0019783740996680774,2.9160502818124696,0.03913145884871483,0.005946604069322348,0.07975345104932785,0.05807227092795075,-0.247296492587775,-9.673514292240144
31.5,3.0999999046325684,142.0,20.93178367614746,30.51890754699707,-79.78271861717913,40.45898270197291,299.73749639892577,0.009922193363308908,0.007885230705142021,-0.7358678579330444,0.6770066022872925,-0.10286829748552552,-0.013143508413732706,2.918573875088259,0.08422090858221054,0.001973091624677181,0.10065006464719772,0.08873705238103867,-0.3205297074839473,-9.786787138581277
31.69,3.0999999046325684,144.0,20.79656219482422,32.96010208129883,-79.78271863930193,40.45898272268574,300.0294161071777,0.010150274261832236,0.008034197613596916,-0.7359648346900941,0.6768960952758789,-0.0879972564980218,-0.01586752380327295,2.9163906410295493,0.011018875986337662,-0.027511820197105408,0.031712956726551056,0.00279004919808358,-0.20302526772022247,-9.813232340812682
31.81,3.0999999046325684,144.0,20.837879180908203,32.435287475585945,-79.78271866193509,40.458982727734586,300.32169439697265,0.010380499064922331,0.008076788857579231,-0.7360842823982239,0.6767621636390686,-0.07923623518512274,-0.01416066892761704,2.9260985131626285,-0.0978206917643547,-0.07015286386013031,-0.09854139387607573,0.06298086228780449,-0.23621170660480856,-10.052931929826736
31.9,3.0999999046325684,146.0,20.855409622192386,32.419384002685554,-79.78271871372536,40.45898281790849,300.9170274963379,0.005803089123219253,0.005544989835470915,-0.7359570264816284,0.6769806742668152,-0.05497166769801141,0.001435621885436042,2.9810932736326547,-0.14023634791374207,-0.04933169111609459,-0.08112434297800064,0.03805887115420774,-0.10967129040509464,-10.041088979244233
32.11,3.0999999046325684,143.0,20.96183204650879,30.375776290893555,-79.78271886227742,40.458982827122654,301.5074377288818,0.004177174530923367,0.004554762970656157,-0.7359009385108948,0.6770610213279724,-0.013559227813122823,-0.010534459717566756,3.022848067724607,-0.000674148031976074,0.05244135856628418,-0.0690685585141182,-0.056670410111546526,-0.17128318246454002,-10.062652341127396
32.21,3.0,143.0,20.948060989379886,30.510955810546875,-79.78271886942184,40.45898281073511,301.8096132507324,0.006717232521623373,0.003201645566150546,-0.7358359098434448,0.6771190762519836,-0.021044110807910715,-0.005868836292407469,3.0203347315444886,-0.0015676093753427267,0.06256626546382904,0.08859464526176453,-0.08773176069371402,-0.15457109095528726,-9.801588780283929
32.4,3.0,143.0,20.96934509277344,29.93842887878418,-79.78271888141822,40.45898287256763,302.3951311340332,0.011746675707399843,0.00409858301281929,-0.7361245155334473,0.6767318248748779,-0.01803022558930144,0.024331953188923568,2.9486914280205587,0.16185598075389862,0.028235759586095813,0.10867652297019956,0.05369372966699303,-0.34492377955466513,-9.565232044458387
32.6,2.799999952316284,143.0,20.74147224426269,34.51865005493164,-79.78271891451459,40.4589829678956,302.6885118713379,0.013911030255258085,0.006583787035197021,-0.7359483242034912,0.6768627762794495,-0.03688909150071313,0.035694955508473465,2.918430073850292,-0.04817529767751694,-0.0927908942103386,-0.06883729249238968,0.09333173048682512,-0.20881030188873406,-9.51817306816578
32.7,2.799999952316284,143.0,20.80657958984375,32.74540328979492,-79.78271891710291,40.45898289554133,303.2733221282959,0.010941507294774055,0.0061988988891243935,-0.7356371879577637,0.6772591471672058,-0.04507828022207532,0.02550500313307471,2.950497982328748,-0.20694883167743688,-0.028692634776234623,-0.09425366669893263,0.03676118442323058,-0.09041667421348393,-9.999469667673113
32.8,2.9000000953674316,147.0,20.804075241088867,33.0078125,-79.78271900008481,40.458982916664255,303.57234671020507,0.006679164245724678,0.0033908644691109657,-0.7354558706283569,0.6775313019752502,-0.019405175366018542,0.01965992189676915,2.989514665064965,-0.1741364449262619,-0.06422470510005951,-0.013101678341627121,0.06474031231831759,-0.21519633846357467,-10.101474344730377
33.0,2.799999952316284,147.0,20.940547943115234,30.200838088989247,-79.7827189917969,40.458982933008855,304.1660471191406,0.002968097105622292,9.523253538645804e-05,-0.7353997826576233,0.6776270866394043,0.021544530699648644,0.023327012594687013,3.027432091534373,0.0206176396459341,0.07912937551736833,-0.007773334160447121,0.03638668853323907,-0.006688922345638276,-9.954140882492066
33.1,2.799999952316284,152.0,20.84914779663086,31.85480690002441,-79.7827189797262,40.45898289981186,304.4682531585693,0.0047312816604971894,-0.00011465518036857249,-0.7350700497627258,0.6779747009277344,0.0259513754787911,0.030363557097741762,3.017464306421625,0.08156822621822357,-0.012209789827466013,0.11798175424337387,0.06529368275776506,-0.2463731076009572,-9.781513534784315
33.3,2.799999952316284,152.0,20.975605010986328,29.33409309387207,-79.78271896349573,40.458982871884864,304.76974966430663,0.0056565473787486545,0.00029991750488989055,-0.7347761392593384,0.6782860159873962,0.007911392301963778,0.03711713180635113,3.009121642247727,0.13311761617660522,0.06931717693805695,0.006995411589741707,0.07839055046439171,-0.061392785925418136,-9.715386203527453
33.5,2.799999952316284,152.0,20.78404235839844,32.78516387939453,-79.78271895566563,40.4589828301554,305.3604402770996,0.007631282787770033,0.002559713087975979,-0.7359055876731873,0.6770364046096802,0.009219429190850007,0.03641781898416042,2.9349951160075216,-0.008651099167764187,-0.018773753196001053,0.026504594832658768,0.03922936267219484,-0.2283509108796716,-9.463470026850699
33.6,2.5999999046325684,152.0,20.831619262695312,32.17287826538086,-79.782718977091,40.45898281838836,305.951668762207,0.009139103814959526,0.00160982517991215,-0.7388412356376648,0.6738156676292419,-0.004342109125282508,0.034953888825783486,2.9345980320449843,-0.0028300175908952947,0.038568098098039634,0.03116630017757416,0.0414115298492834,0.09651470800861717,-9.774209777712825
33.7,2.5999999046325684,152.0,20.855409622192386,31.34589195251465,-79.78271897048836,40.458982771513426,306.2455835571289,0.0070829521864652625,0.00023464973492082206,-0.7398490905761719,0.6727355718612671,0.014634964865942584,0.035279450833019754,2.941763223301121,0.09986456483602524,0.06477712094783783,0.07003217190504074,0.13424580389633775,-0.09806504242122174,-9.89154643893242
33.8,2.700000047683716,149.0,20.85791206359864,32.053600311279304,-79.78271905816901,40.458982901933176,306.5485162963867,0.003558702534064651,-0.001507588429376483,-0.7400147914886475,0.6725795865058899,0.012833371937583393,0.023248191902556056,2.9595659311761304,0.03272341564297676,-0.03008531965315342,0.07681399583816527,0.058080767663195726,-0.35520245376974346,-9.870784145593644
34.0,2.700000047683716,148.0,20.817846298217773,32.84877777099609,-79.78271909143547,40.45898296046886,307.144597076416,-0.002000689739361405,-0.004987772554159164,-0.738393247127533,0.6743489503860474,0.027228592073949755,0.011458318866196816,2.9692592860642497,-0.06404365599155426,-0.031391702592372894,-0.02903509140014648,-0.0017856163205578926,0.07573790626600385,-9.74926964879036
34.1,2.700000047683716,147.0,20.86918067932129,31.385652542114247,-79.78271909874327,40.45898295353381,307.44177725219726,-0.0023647076450288296,-0.004242741037160158,-0.7371816039085388,0.6756772398948669,0.03227459501877426,0.0038163111808587795,2.9739486877272583,0.04247627407312393,-0.008590537123382092,-0.04098612442612648,0.050999730122275655,-0.1074779541324824,-9.880720903873444
34.3,2.700000047683716,145.0,20.876693725585934,29.827104568481445,-79.78271910868648,40.458982958572996,307.73957159423827,-0.0014774363953620195,-0.00259760650806129,-0.7362836599349976,0.6766664385795593,0.007300457333037896,-0.0002045107162814601,2.9817762282200406,-0.06838259845972061,-0.042260244488716125,-0.15652047097682953,-0.04287560412660242,0.026671416386961938,-9.884839682579043
34.5,2.700000047683716,142.0,20.880449295043945,31.66396331787109,-79.78271914508427,40.458983007173096,308.33693792724614,-0.0008013489423319697,0.002399015938863159,-0.7358803153038025,0.6771069765090942,-0.016069451240318153,0.000605451537573189,2.983842299742458,0.02561745978891849,-0.031177641823887825,-0.037593189626932144,0.01288190487306565,0.11177486278116704,-9.743329462409019
34.6,2.799999952316284,141.0,20.906742095947266,30.11336708068848,-79.78271923028538,40.458983113982526,308.6318941345215,-0.00046358926920220256,0.004501415882259607,-0.7360894083976746,0.6768692135810852,-0.01057248447781192,-0.013769620346083956,2.9722562593570965,0.2100141942501068,0.0958942398428917,0.08032836765050888,0.023000849601812662,-0.04204740084707737,-9.78362905740738
34.8,2.700000047683716,134.0,20.78529357910156,31.329988479614247,-79.78271921215156,40.458983130246615,309.2255640258789,0.004757177084684372,0.0041618961840868,-0.7354660630226135,0.6775321364402771,-0.03709142447876502,-0.002670404720402945,2.957026169636458,-0.09783458709716797,0.00942027661949396,-0.055111732333898544,-0.09237721821293236,-0.02954976310953498,-9.646818244457243
34.91,2.799999952316284,133.0,20.836627960205078,31.306133270263672,-79.78271939950525,40.4589832989401,309.82185842895507,0.007878506556153297,-0.00019684281141962856,-0.7341704368591309,0.6789195537567139,-0.03781342402131183,0.0007903930583587158,2.9517822196349197,-0.006612858735024929,0.05519720166921616,-0.01251957006752491,0.02641994271660224,0.03618839940056205,-9.829874686002732
35.0,2.799999952316284,128.0,20.9555721282959,29.93842887878418,-79.78271954034456,40.45898343118271,310.1218233337402,0.007709430530667305,-0.0019380816956982017,-0.7336490750312805,0.679482102394104,-0.03869369878797182,0.0076837702849383216,2.963360794265545,-0.02303421497344971,0.002292673336341977,0.014634191058576109,0.008156146353576333,-0.0570364960609004,-9.804860297441484
35.2,2.799999952316284,125.0,20.821603775024414,33.32588577270508,-79.78271957259503,40.45898343146827,310.4179010620117,0.005025476682931185,-0.0014574583619832993,-0.733235776424408,0.6799543499946594,-0.028764481639296343,0.010725314500915784,2.9614318927517784,-0.11591406166553495,-0.10102051496505736,-0.19725240767002106,0.0525229617767036,0.11515969715081155,-9.769083523750306
35.4,2.799999952316284,124.0,20.876693725585934,30.956254959106445,-79.78271967021398,40.45898350307857,311.01642706298827,-0.003467540722340345,0.001787316403351724,-0.7326209545135498,0.6806257367134094,-0.016458676278139642,-0.025018127647486347,3.0249013176035016,-0.08010058850049973,-0.07327709347009659,0.032039422541856766,-0.05517387921921909,0.05755783929023892,-10.154714412689213
35.5,2.799999952316284,121.0,20.914255142211914,30.375776290893555,-79.78271984382694,40.45898364488532,311.61544897460936,-0.005106877535581589,0.002948286710307002,-0.731521487236023,0.6817929148674011,-0.0003807470480502321,-0.06154321075835351,3.0722096110809125,-0.005807898472994566,0.0054919421672821045,0.03790396451950073,-0.08527058539912105,-0.04025839953683317,-10.075843659639359
35.6,2.799999952316284,120.0,20.945556640625,29.246623992919922,-79.78271986606114,40.45898366347145,311.923275970459,-0.004270528443157673,0.0022013355046510696,-0.7311429381370544,0.682207465171814,-0.01902242110644335,-0.05193978189649876,3.082702713383014,-0.014334211125969887,0.05162609741091728,0.013943669386208056,-0.06372198773548007,0.029300415907055143,-9.969862875938416
35.8,2.799999952316284,119.0,20.96934509277344,29.588550567626953,-79.78271992688019,40.45898374801681,312.52225592041015,9.686817065812647e-05,0.003299732925370336,-0.7318934202194214,0.6814111471176147,-0.03529065666082247,-0.016504450485067417,3.0660926964035218,-0.1395045518875122,-0.04447923600673676,-0.020997092127799988,-0.009336694625671951,-0.16595625936985015,-9.940330928564073
35.99,2.700000047683716,118.0,20.850400924682614,31.26637458801269,-79.78271992682221,40.45898377265985,312.8282251586914,0.0015801771078258753,0.004770111292600632,-0.7324275374412537,0.6808264851570129,-0.04144877506725382,-0.014334495433827341,3.053795007350492,0.08316385000944138,0.0003343878488522023,-0.018575912341475487,0.03568130419123918,-0.02285835569724441,-9.788959379196168
36.1,2.700000047683716,116.0,20.747732162475586,31.838903427124023,-79.7827201138291,40.4589839344419,313.12718298339837,0.0017990813357755546,0.005005304235965014,-0.7333282828330994,0.6798539161682129,-0.05405605108018675,-0.02811605486662144,3.0370610291881,0.05173727124929428,0.022155990824103355,-0.051201507449150085,0.0033647654007654642,-0.08382404820062221,-9.73771145761013
36.29,2.700000047683716,116.0,20.847896575927734,30.76541328430176,-79.78272013231881,40.45898399366467,313.7369737854004,0.0017601726576685905,0.003983897622674704,-0.7352790236473083,0.6777506470680237,-0.04590027401506227,-0.01856679806816324,3.0641484277836364,0.1975728273391724,0.09666866064071657,0.07991679757833481,0.08801848439499736,-0.05545386034995318,-9.943977252244947
36.4,2.700000047683716,117.0,20.87919807434082,30.66999244689941,-79.78272021048427,40.45898410563352,314.04168798828124,0.0021745625417679553,0.0036775276530534033,-0.7359039783477783,0.6770725250244141,-0.04648735999977372,-0.011275300119608265,3.072898883779004,0.08606278896331787,0.0320948101580143,0.026075340807437897,0.039971159636043016,-0.2319536362588405,-9.919167516231537
36.5,2.5999999046325684,117.0,21.020679473876953,28.03000259399414,-79.78272029691054,40.45898423058788,314.6543970336914,-0.00044569771853275597,0.0026846101973205805,-0.7367147207260132,0.6761983036994934,-0.04303512751254098,-0.0019040053055733167,3.0702548347296985,0.10512009263038637,0.04442829638719559,0.04385263845324516,0.06886711267288774,-0.1338186465203762,-9.807068206071854
36.7,2.5999999046325684,116.0,21.03695678710937,25.57290458679199,-79.78272025646245,40.458984285155786,315.2657098999024,0.0003361885028425604,0.0028437646105885506,-0.7374936938285828,0.6753479242324829,-0.05090847901171795,0.008325764535072071,3.0464735743709097,-0.05015002191066742,0.043701965361833565,-0.06931119412183763,4.9614538438618185e-05,0.2911453292146325,-9.67352715611458
36.79,2.4000000953674316,117.0,21.21725082397461,23.529298782348643,-79.78272034503698,40.45898443107953,315.57118322753905,0.0011198208667337894,0.003619756316766143,-0.7379216551780701,0.6748757362365723,-0.035398573276143326,0.014584782645135543,3.0017542759131586,0.11845739930868147,0.0266872588545084,0.07886271178722383,0.07813114422373474,-0.22103666536509992,-9.365578866004943
37.0,2.4000000953674316,116.0,21.25356101989746,22.583038330078125,-79.782720310412,40.458984460891664,315.8667307128906,0.003021385753527284,0.003879485186189413,-0.7383724451065063,0.6743752360343933,-0.042805183095483264,0.018624144086818083,2.902755198919332,0.09487278014421464,0.08194809406995772,0.0020783618092536926,0.027429944153409453,-0.07830741950310767,-8.967771735191345
37.19,2.299999952316284,114.0,21.38252258300781,21.95484733581543,-79.78272035716776,40.45898461604248,316.45752432250976,0.006132069975137711,0.00020056990615557882,-0.7378708720207214,0.6749140024185181,-0.05354190149223673,0.03113867898048148,2.694011847989489,0.03998583927750588,0.04168179631233215,-0.021448776125907898,0.07363750417716801,-0.1869133746251464,-8.488324025273322
37.3,2.299999952316284,116.0,21.26107215881348,23.12375831604004,-79.78272032335374,40.45898464020351,316.71912100219726,0.004449896980077028,-0.0018401729175820949,-0.7373918294906616,0.6754480600357056,-0.048647497750847785,0.04688232994831305,2.533242119928956,-0.058528028428554535,-0.06389856338500978,-0.025335099548101425,0.06319032051600516,-0.03403250358067453,-8.26483350276947
37.4,2.200000047683716,116.0,21.294878005981445,22.69436264038086,-79.7827203565961,40.45898477774724,317.20724966430663,0.002471173647791147,0.0010953268501907587,-0.7365733981132507,0.6763522028923035,-0.03273520267627217,0.02660112951095171,2.249416459673376,-0.030690731480717662,0.013864666223526001,-0.026917964220047,0.005098118234309368,0.13355384987778962,-8.347485650181769
37.6,2.200000047683716,116.0,21.228519439697266,23.86327362060547,-79.78272036880031,40.458984922331226,317.64484503173827,0.0002069082693196833,0.0017059736419469118,-0.736151397228241,0.6768147349357605,-0.013575699237168877,0.016121095055362064,1.9866909292260124,0.08907521516084671,0.03111070580780506,0.039639536291360855,-0.0009326200472423807,-0.12604466367512945,-8.47261723458767
37.8,2.0999999046325684,117.0,21.26608085632324,23.69628715515137,-79.78272034690413,40.4589849323001,317.83755209350585,0.001217542216181755,0.0027392436750233173,-0.7357732057571411,0.677221417427063,-0.007999312471864554,0.017213989295960568,1.8639826164608149,0.07765945047140121,0.061788208782672875,-0.046241238713264465,-0.010411935914307831,-0.043124307221733035,-8.534267352819443
37.9,2.0,116.0,21.198471069335934,24.14953804016113,-79.78272040244255,40.45898507374721,318.04677679443364,0.0037006735801696773,0.0036435916554182772,-0.7353332638740541,0.6776858568191528,-0.023060215486797705,0.013459057456013336,1.767344561313453,-0.0032429168932139874,0.034194443374872215,-0.004139857366681099,-0.028449170943349606,-0.09823448376730083,-8.53616945207119
38.0,1.8999999761581416,115.0,21.31866836547852,22.46376037597656,-79.78272049191341,40.45898525012615,318.430974029541,0.007967475801706314,0.00046022672904655343,-0.7346408367156982,0.6784092783927917,-0.028318198918692056,0.013289510204123998,1.5966799396700175,-0.017320703715085983,0.04964292794466019,0.03810224309563637,0.057158680027350785,0.003944006343372167,-8.695068122148514
38.2,1.8999999761581416,113.0,21.21975517272949,23.55315399169922,-79.78272048498769,40.45898525127054,318.5850000610352,0.0074698468670248985,-0.0005393960163928568,-0.7348577380180359,0.678179919719696,-0.01601189070379579,0.021122368579454074,1.4852711235960707,-0.02492116205394268,0.01751832477748394,-0.002943330910056829,0.14859638772904873,0.10873553490266204,-8.713569297194482
38.29,2.0,112.0,21.268585205078125,22.805686950683594,-79.78272052944766,40.458985425284475,318.9341249694824,0.0039093471132218855,0.004113301169127226,-0.7362747788429259,0.6766589879989624,0.013779849404526595,0.003555734270876817,1.3733621450403852,0.113589845597744,-0.0849548876285553,0.05226396769285202,0.05883890485391021,-0.019696683967486025,-8.959182760119438
38.49,2.0,112.0,21.1020622253418,25.93868637084961,-79.78272053563198,40.458985401677396,319.06744482421874,0.001850780448876321,0.007493984419852495,-0.7367959022521973,0.6760711669921875,0.024830718195655733,-0.00606945152624482,1.29185283262882,0.10278742015361786,-0.04742152988910675,0.07559066265821457,0.0009400998009368775,-0.07138298227451742,-8.995034962892534
38.7,1.8999999761581416,110.0,21.165916442871094,25.70013236999512,-79.7827206206047,40.45898555264678,319.41196920776366,-0.0029322393238544464,0.00450653675943613,-0.7357603311538696,0.6772207021713257,0.012792787577119857,-0.02404532140561229,1.253925256442634,-0.113184854388237,0.0884251669049263,-0.08034994453191757,-0.06454171712044626,0.28763657955452804,-9.230173138976095
38.8,1.8999999761581416,109.0,21.168420791625977,23.69628715515137,-79.78272062975559,40.45898552094201,319.5345010986328,-0.004166290629655123,0.000554934493266046,-0.7342463731765747,0.6788700819015503,0.01799770907023656,-0.01227383637931333,1.2008862880315585,-0.19201771914958954,0.03221694380044937,-0.12371368706226347,-0.010504436125047506,0.4022649383917451,-9.236378204226494
38.9,1.7999999523162842,106.0,22.07615852355957,10.416823387145996,-79.78272073603702,40.458985772645676,319.87540533447265,-0.0031637779902666807,-0.0017072746995836494,-0.7305968999862671,0.6827996373176575,0.028567502422696563,-0.01089684002402808,1.108522641329938,0.0040285843424499035,0.037275541573762894,-0.07233483344316483,-0.07319134335033596,0.13493263246491552,-8.537582139372827
39.1,1.7999999523162842,107.0,21.343708038330078,22.209304809570312,-79.78272088295348,40.45898594422591,320.1169786682129,0.0006810699123889207,0.0005667800433002412,-0.6938101053237915,0.7201574444770813,-0.012758912663199543,-0.02530780180700774,0.7255350259719806,0.10267996788024902,0.04710202291607857,-0.7445355057716371,-0.05317665764596313,-0.21650187553837896,-7.975313297510147
39.3,1.7000000476837158,106.0,21.244796752929688,23.86327362060547,-79.78272091213023,40.458985968114256,320.1826067199707,0.0005482012056745589,0.0013274732045829294,-0.6634359955787659,0.7482316493988037,-0.029728212877552406,-0.02412497614411815,0.5938864212472583,-0.015640443190932274,0.028856636956334118,-0.9188109040260316,-0.11020898756571117,-0.03610124847851694,-8.334157506823539
39.39,1.7999999523162842,105.0,21.25356101989746,23.17146873474121,-79.7827210794022,40.458986054451344,320.22062017822265,0.00023806127137504515,0.0019943094812333584,-0.6312837600708008,0.7755492925643921,-0.04325327120686162,-0.03633263055746157,0.5017797103401584,-0.060585219413042075,0.01969101279973984,-0.8909300565719604,-0.07733803337439896,0.158425721693784,-8.714013685584069
39.6,1.7000000476837158,95.0,21.332439422607425,27.012176513671875,-79.78272126717188,40.45898615469395,320.2897844543457,0.002874528290703893,0.003958160988986492,-0.5742435455322266,0.8186699151992798,-0.02109285269644228,-0.0370170110438869,0.35929974515889684,0.17717154324054718,0.0021073136013001204,-0.491666853427887,0.010379703138023616,-0.045835300236940386,-9.070142447948458
39.7,1.7000000476837158,90.0,21.067005157470703,27.44157218933105,-79.78272130767304,40.458986160130344,320.322258972168,0.0052928966470062715,0.0068117883056402215,-0.5545043349266052,0.8321362137794495,-0.028273250223343805,-0.03279368060158605,0.29021348494714544,-0.054646871984004974,-0.022390704602003098,-0.4253475069999695,0.01833044548518956,0.3438361243531108,-9.089182151556017
39.79,1.5,95.0,21.14087677001953,25.75579643249512,-79.78272133965156,40.45898617682384,320.3489122619629,-0.0015543870395049453,0.004412959329783917,-0.5398226976394653,0.841765820980072,-0.015065577520023271,0.00021823385496262492,0.2519049909364483,-0.04855634272098541,-0.14077109098434448,-0.2612437307834625,0.4324452688917518,0.2101547594927252,-9.640076404809953
40.01,1.5,98.0,21.103315353393555,26.29651641845703,-79.78272127484563,40.45898635574922,320.3612489929199,-0.05190150067210197,0.019944753497838967,-0.5252563953399658,0.8491255640983582,-0.02367323023932576,0.1407740190359189,0.23557434226701002,0.12550143897533414,-0.6091513633728027,-0.03698233887553215,0.14070493980310858,0.13321848465129735,-9.696914849281312
40.2,1.600000023841858,87.0,20.92552375793457,29.18301010131836,-79.78272069862537,40.458986778561844,320.4058923950195,-0.087506964802742,0.060390491038560874,-0.5242161750793457,0.8449219465255737,-0.054060483322324285,0.3759917837526282,0.29977941076178943,0.12147831916809082,-0.3683044910430908,0.05932861566543578,-0.24069721536710856,-0.1707284096069634,-9.844392153024677
40.31,1.7999999523162842,80.0,20.880449295043945,31.13914680480957,-79.78272018330253,40.45898703441903,320.4293527832031,-0.09511636942625046,0.07338711619377136,-0.5271298885345459,0.8412498235702515,-0.06332162837955221,0.5519883969458967,0.3677460642372696,0.124785378575325,-0.17814816534519196,0.09462019801139833,-0.2722130864672363,-0.16210488114506008,-10.071973972320556
40.4,2.0,83.0,20.881702423095703,29.92252540588379,-79.78271868250106,40.45898777836956,320.47253515625,-0.10230936110019684,0.08271286636590958,-0.5354753136634827,0.8342407941818237,-0.07888563917496742,0.9538742473018984,0.6053782686877826,-0.11722055822610855,-0.12656858563423154,0.06671400368213654,-0.2445983680151403,-0.17646449161693456,-10.582108454704283
40.6,2.200000047683716,81.0,21.043216705322266,27.62446212768555,-79.7827178547027,40.45898830512528,320.47800161743163,-0.10422059148550034,0.08482480049133301,-0.540667712688446,0.8304344415664673,-0.06927094784995716,1.138208036561797,0.7060624854094858,0.14898209273815155,0.0668061152100563,0.09915690124034884,-0.12292376713827255,-0.11938516013324264,-10.486439820528027
40.8,2.4000000953674316,75.0,21.026939392089844,27.966388702392567,-79.78271461381328,40.458989527858364,320.5562410583496,-0.11108271777629852,0.08337223529815674,-0.5488570928573608,0.8242971301078796,-0.08979881234873642,1.6073969664098768,0.8521620854958141,-0.1015286147594452,0.016976727172732353,-0.03208480402827263,-0.2771180050447583,-0.1406752469111234,-10.119053413867947
40.91,2.5999999046325684,74.0,21.147136688232425,25.843265533447266,-79.78271312267671,40.45899050777882,320.52630712890624,-0.1130927801132202,0.07987993955612183,-0.550057053565979,0.8235694169998169,-0.14709821943350027,1.79661189202828,0.906740543172628,-0.10261673480272293,-0.06429672241210938,-0.004231326747685671,-0.29223040798678995,-0.15405816223472354,-10.149686976671221
41.1,3.0,74.0,21.119590759277344,24.69025802612305,-79.78270894920891,40.458992726939066,320.5492639770508,-0.11488168686628344,0.07520092278718947,-0.5493083000183105,0.8242617249488831,-0.2112709989083265,2.2265045457140924,0.9798237590776788,-0.007475347258150578,-0.04148648679256439,-0.08751624822616577,-0.17839823892340065,0.07779100986197593,-9.874011808633805
41.2,3.2000000476837163,73.0,21.17968940734864,25.06399154663086,-79.78270629155963,40.45899377524385,320.5821428527832,-0.11798429489135742,0.07970520108938217,-0.5491055846214294,0.8235350251197815,-0.2197751400354417,2.461536535774634,1.0247620360136096,0.06705835461616516,-0.1811855137348175,-0.053599514067173004,-0.1942722965218127,0.092105468865484,-9.853209754228592
41.39,3.700000047683716,69.0,21.067005157470703,26.821332931518555,-79.7827005805085,40.458996571767415,320.55802252197265,-0.12990443408489227,0.09569954127073288,-0.5478618741035461,0.8208616375923157,-0.2750639801738609,2.890364806726581,1.1146332072194032,0.2269777655601501,-0.08659318089485167,-0.07534715533256531,-0.4087083873152733,-0.13771811809390785,-9.682016728520392
41.5,4.0,64.0,21.029443740844727,27.05193519592285,-79.78269372919513,40.45899973995387,320.55064108276366,-0.14351502060890198,0.11022981256246568,-0.5458362698554993,0.8181172013282776,-0.33799167318403434,3.344510481225529,1.3073184488196141,-0.044057834893465035,-0.1769191026687622,-0.02163972705602646,-0.7420748162269593,-0.06313183922320605,-9.681612101197244
41.7,4.599999904632568,61.0,21.000646591186523,27.680124282836914,-79.78268981360957,40.459001288093255,320.5594949951172,-0.1476675271987915,0.11550360172986986,-0.5460167527198792,0.8165285587310791,-0.3353283718301546,3.5853460193166984,1.4337248988996276,-0.11113560944795607,-0.10614580661058426,-0.07351120561361313,-0.8658321587741376,0.015997826708480718,-9.767942731976511
41.8,4.800000190734863,60.0,21.18219375610352,24.45965576171875,-79.78268558877754,40.45900292265883,320.56525900268554,-0.15016834437847135,0.11776932328939438,-0.5462036728858948,0.8156232833862305,-0.33712027570181063,3.840781303075355,1.558498747147643,-0.10763616114854813,-0.10111578553915024,-0.11979752779006958,-0.8828892908245326,-0.013607293087989093,-9.880316276550293
41.99,5.199999809265137,55.0,21.113330841064453,26.821332931518555,-79.78267625132527,40.45900700631485,320.535279296875,-0.15071897208690646,0.1208738163113594,-0.5454069375991821,0.8156008124351501,-0.3343215276791453,4.364380587802895,1.7327235619221364,0.035808905959129333,-0.014133922755718231,-0.02966457977890968,-0.9916720602661372,-0.019811159202363343,-9.762605978250503
42.1,5.400000095367432,54.0,20.881702423095703,29.96228408813477,-79.782671171452,40.45900951319594,320.5025186767578,-0.1485542058944702,0.12398239225149155,-0.5448658466339111,0.8158929944038391,-0.3794608487645224,4.617693812693373,1.7901946122370902,0.08868347853422165,0.02199907787144184,0.03882068768143654,-1.0441056510061026,-0.15172515973448755,-9.701631798148156
42.29,5.9000000953674325,56.0,20.95807647705078,29.310237884521484,-79.78266005389501,40.45901364433452,320.48286154174804,-0.14098642766475675,0.12638460099697113,-0.5477666258811951,0.8149242997169495,-0.34824238184954953,5.1432680799442485,1.9588159628647848,0.007999180816113949,0.013122587464749813,-0.0032623461447656155,-1.1689126418530942,-0.4273584836348892,-10.071086364984511
42.4,6.099999904632568,56.0,20.9167594909668,28.849035263061523,-79.78264784693825,40.45901895798718,320.45348455810546,-0.13337795436382294,0.11929036676883698,-0.5492031574249268,0.8163064122200012,-0.3802280796583301,5.639108062414842,2.1070686498201185,0.0011419652728363876,0.1467619687318802,-0.02668660506606102,-1.0897455080598593,-0.06987605430185795,-10.321745975017546
42.5,6.699999809265138,57.0,21.019428253173828,27.028079986572266,-79.78264140702638,40.459022145495155,320.4360819091797,-0.13014188408851626,0.1171618029475212,-0.5480033159255981,0.8179417252540588,-0.4375434712811036,5.870870973847401,2.152193690535692,-0.045536357909440994,-0.017939426004886627,0.030003769323229783,-1.3172385227680208,-0.3696642991527915,-10.338752017021179
42.7,6.9000000953674325,56.0,20.986873626708984,28.18903923034668,-79.78262756533046,40.45902713318757,320.43980505371087,-0.12258932739496232,0.1184542551636696,-0.5478348731994629,0.8190344572067261,-0.3461678027281105,6.291294713417512,2.3023292409797698,0.13674548268318176,0.0722881332039833,-0.185061514377594,-1.4391231483221054,-0.3248683049529791,-10.430132303237917
42.9,7.400000095367432,57.0,21.009410858154297,26.19314384460449,-79.78262034652457,40.45903075284149,320.40838720703124,-0.1172216609120369,0.1188136637210846,-0.5451476573944092,0.8215574622154236,-0.4126777792261309,6.496771159681352,2.3522367292195563,0.03452276811003685,0.16014426946640015,-0.03622952476143837,-1.260962288081646,-0.16804740641266108,-10.400920783281329
43.01,7.599999904632567,57.0,21.040712356567386,27.72783470153809,-79.78261283825809,40.459033432141254,320.41929342651366,-0.11309856921434402,0.11893931776285173,-0.5441122651100159,0.8228025436401367,-0.3273045846984461,6.704243459370012,2.4040975606740176,0.016406400129199028,0.2289935499429703,-0.3497148156166077,-1.3777560353279117,-0.1485780238173902,-10.245400049686431
43.09,8.0,58.0,20.78404235839844,32.84877777099609,-79.78259737170049,40.4590402610616,320.3878259887695,-0.10814116895198822,0.11802250891923904,-0.5408271551132202,0.825761616230011,-0.2817547420446629,7.0677822702654325,2.4234440291021935,-0.038859676569700234,-0.02416982315480709,0.1428816169500351,-1.6938367791473867,-0.4129444392398,-10.063510712385176
43.3,8.199999809265138,59.0,21.039459228515625,26.3521785736084,-79.78258103987001,40.45904744126479,320.3448572387695,-0.1149331107735634,0.11226694285869596,-0.5363938212394714,0.8285337686538696,-0.2945841671620644,7.434798534749834,2.509497163656852,-0.16608622670173645,-0.18722735345363611,0.06067866086959839,-1.6344879788160325,-0.5583015060424805,-10.181865373849867
43.5,8.699999809265138,60.0,20.902986526489254,28.642290115356445,-79.78257256317073,40.45905044751244,320.3569650878906,-0.12126398831605913,0.1089426577091217,-0.5342517495155334,0.8294586539268494,-0.18233126026357205,7.572035995984986,2.595662519122546,-0.1328457146883011,-0.07275797426700592,-0.008480874821543694,-1.6938005264103413,-0.14169614335522054,-9.914780935049057
43.6,8.899999618530273,61.0,20.743976593017575,32.673839569091804,-79.78256387425994,40.45905464591885,320.3099375,-0.12506061792373654,0.10843926668167114,-0.5298362970352173,0.8317898511886597,-0.1838929691113148,7.737827035392335,2.6799650439805043,0.015624609775841238,-0.1190483570098877,0.2529934048652649,-1.6960525815188885,-0.5801824448257685,-9.861165475845338
43.79,9.300000190734863,61.0,20.835376739501953,31.06758117675781,-79.7825460737918,40.45906102425846,320.32814886474614,-0.12427079677581787,0.10955721139907837,-0.5254729986190796,0.8345251083374023,-0.04530713472237194,7.983848446795488,2.8669462660196032,0.002716725459322333,0.015140768140554428,0.0802527442574501,-1.8609396775066849,-0.6544123359024525,-9.892699509859083
43.9,9.399999618530273,61.0,20.800317764282227,31.099388122558594,-79.7825279791352,40.45906916078575,320.27244665527337,-0.08883245289325714,0.09051665663719176,-0.5221936106681824,0.8433442115783691,0.02060499671448812,8.26877444805156,2.7328174580889386,0.029948499053716663,0.5590775012969971,-0.033253446221351624,-1.8703553026914599,-0.5937863574922085,-10.376571807861328
44.0,9.699999809265137,61.0,21.029443740844727,26.3521785736084,-79.7825184376343,40.45907407556782,320.19997885131835,-0.0675804391503334,0.07374580949544908,-0.5209674239158629,0.8476954698562622,-0.026264706442026844,8.491663934154634,2.359647589188094,0.09220195561647417,0.5700699090957642,-0.03579621762037277,-1.8845777776837351,-0.2829507853835821,-10.521675142049787
44.2,9.899999618530273,62.0,21.199722290039066,24.141586303710927,-79.78250909218784,40.45907757626953,320.22379400634765,-0.05052150040864945,0.06499022990465164,-0.5234320759773254,0.8480817675590515,0.06143386875447152,8.615466244731923,1.962962589934405,0.06408090144395827,0.44374534487724304,-0.19621483981609344,-1.5083885340392589,-0.1888800125196576,-10.391256505250931
44.4,10.199999809265137,72.0,21.15464973449707,24.28471755981445,-79.78248977914217,40.4590853868194,320.2052469482422,-0.032977133989334106,0.06111956387758255,-0.5290386676788329,0.8457512259483337,-0.031259789444995974,8.705149420466135,1.4756563214611949,-0.023807637393474586,0.1702566146850586,0.2419009357690811,-1.8964490872621536,-0.8727213482558728,-9.810574196577072
44.51,10.199999809265137,75.0,21.204730987548828,23.720142364501953,-79.78247059296916,40.45909284274128,320.2220163574218,-0.0207937490195036,0.04249381273984909,-0.5347915291786194,0.8436586856842041,-0.13858693089554125,8.622312772744365,1.2522733177443126,-0.01996567845344544,0.2298185080289841,0.15698932111263275,-1.814825318902731,-0.5962767597287894,-10.333207687139513
44.6,10.399999618530273,76.0,21.155900955200195,23.92688751220703,-79.78246141734587,40.45909627765664,320.258236907959,-0.010683640837669373,0.03251608833670616,-0.5367472767829895,0.8430486917495728,-0.1561397577662612,8.556374876849109,1.0674739341885082,-0.02241690270602703,0.3446629047393799,0.12530295550823212,-1.6495688250660898,-0.7041449515521526,-10.211261665821077
44.8,10.399999618530273,75.0,20.880449295043945,30.145174026489247,-79.78245236778571,40.459099677883856,320.2976274719238,-0.0006937512662261722,0.02003244869410992,-0.5383247137069702,0.8424990773200989,-0.19883410179268016,8.466058137725671,0.8534687696800856,-0.1354735791683197,0.2803740501403809,0.033299919217824936,-1.6702192904055118,-0.31176447540521623,-10.395584614276887
44.89,10.399999618530273,87.0,21.19095802307129,22.686410903930664,-79.78243387579191,40.459106961799314,320.32876303100585,0.016558658331632614,0.00266131735406816,-0.5383331179618835,0.8425652980804443,-0.2631543977876873,8.214655937050109,0.5178959644263772,0.025788512080907815,0.2521205842494965,0.05315316841006279,-1.9170973598957064,-0.5581131160631776,-10.634800053834917
45.1,10.399999618530273,93.0,21.218503952026367,23.00448226928711,-79.7824245905886,40.459110742273396,320.34017279052733,0.029818188399076462,0.003404994960874319,-0.5368515253067017,0.8431428670883179,-0.27225540093244666,8.081732697967235,0.3115720488138716,0.19646881520748136,0.2631619572639465,-0.00404129922389984,-1.3484111988544465,-0.22511235740035773,-10.446884576082232
45.3,10.399999618530273,93.0,21.204730987548828,24.05411529541016,-79.78240798295286,40.459117121351596,320.44999029541015,0.03740207850933075,0.01321652252227068,-0.5354816317558289,0.8436146974563599,-0.23645255698004225,7.7131087749457725,0.11656169056033144,0.07074146717786789,-0.22112014889717105,0.17477136850357056,-1.5687141117453576,-0.6024455722421408,-9.952826428413392
45.4,10.300000190734863,93.0,21.183446884155273,24.05411529541016,-79.78239927632218,40.459120656466624,320.45835592651366,0.03469722718000412,0.01953268237411976,-0.533681333065033,0.8447479009628296,-0.20358428206563825,7.5556575541678965,0.10930093379775713,0.07037404179573059,-0.039609551429748535,-0.04894149303436279,-1.6011617732048036,-0.4533069283515215,-9.873553386926652
45.6,10.199999809265137,94.0,21.18219375610352,23.091951370239247,-79.78238300684862,40.45912684649922,320.5395288696289,0.024673378095030785,0.019843460991978645,-0.5308196544647217,0.8468931913375854,-0.11599771234409255,7.272740036863967,0.18916513475308075,-0.19410572946071625,-0.08909603953361511,0.037814367562532425,-1.4395230978727342,-0.6881505509465933,-9.624475448727608
45.7,10.100000381469727,93.0,21.24354362487793,23.688335418701172,-79.78236795950826,40.45913256065426,320.6200151672363,-0.002848359290510416,0.008335215970873833,-0.5274174809455872,0.8495606780052185,-0.0714924098297002,6.989759793685106,0.3536311858114797,-0.19733311235904694,-0.08567692339420319,-0.12757763266563416,-1.478919882774353,-0.2366253971122205,-9.377308380603793
45.9,9.800000190734863,93.0,21.286113739013672,22.92496490478516,-79.78235969137755,40.45913547219017,320.6481905212402,-0.009884389117360115,0.006560847628861666,-0.5253199338912964,0.8508221507072449,-0.003894783462877076,6.948317150753348,0.3955165556938324,0.027993611991405487,-0.12731137871742249,0.15052740275859833,-1.3795411902666093,-0.5134919901564717,-9.454710897803306
46.0,9.699999809265137,93.0,21.269838333129886,23.33050537109375,-79.7823524284237,40.459138241916115,320.675602935791,-0.011899572797119616,0.007215455640107394,-0.5239878296852112,0.8516120910644531,-0.007494171826032169,6.833530170573738,0.4144536959152027,-0.04899946972727776,-0.08602159470319748,-0.07730238884687424,-1.4170488859713075,-0.4462463423609734,-9.276371405124666
46.2,9.399999618530273,89.0,21.321170806884766,21.34256172180176,-79.7823379155586,40.459143457503295,320.80483724975585,-0.010192319750785828,0.015117027796804903,-0.523155152797699,0.852042555809021,0.008654707102546805,6.656493888147838,0.3901366728649455,0.06539670377969742,-0.0957259088754654,-0.02691439725458622,-1.3521980018913746,-0.33808129470795395,-9.110100565552713
46.3,9.300000190734863,89.0,21.332439422607425,21.50954818725586,-79.7823309464672,40.45914615319812,320.8213472595215,-0.010697877965867521,0.02060178108513356,-0.523969292640686,0.8514208197593689,0.000819538357615121,6.572538809832097,0.35745846032910683,0.1604299545288086,-0.12269057333469392,0.18856525421142573,-1.2424644751846792,-0.4384626750648022,-9.202514639496805
