time,wind_speed,wind_angle,battery_voltage,battery_current,position_x,position_y,position_z,orientation_x,orientation_y,orientation_z,orientation_w,velocity_x,velocity_y,velocity_z,angular_x,angular_y,angular_z,linear_acceleration_x,linear_acceleration_y,linear_acceleration_z
0.0,1.100000023841858,60.0,22.84366607666016,0.0,-79.78275280309177,40.458986984535386,268.92785541772844,0.018434450030326843,0.0038607092574238773,-0.7582170367240906,0.6517302393913269,-0.0053342961844050326,-0.010513926800014041,-0.004268260163084813,-0.0022006449289619927,-0.00276401499286294,0.0046076704747974855,0.17599676918238402,-0.3292704908922315,-9.806049036383632
0.11,1.100000023841858,61.0,22.83615303039551,-0.007951773703098297,-79.78275294402492,40.4589870185072,268.9177440261841,0.018437815830111504,0.003859599819406867,-0.7582162022590637,0.6517310738563538,-0.0038968278269866908,-0.011944044337393607,-0.005577002506206442,-0.005729732103645802,-0.0018046536715701227,0.0016908561810851095,0.17749939396977427,-0.31882385540753605,-9.805294745564463
0.3,1.100000023841858,60.0,22.84366607666016,0.0,-79.78275295717431,40.458987023602745,268.91719763040544,0.018438298255205158,0.0038600263651460405,-0.7582169771194458,0.6517301797866821,-0.0037107270010577173,-0.01210660317783582,-0.005175992518976958,0.0013159182853996756,0.003023867961019277,-0.0011343815131112929,0.17702529441565276,-0.3213053040951491,-9.806415656805036
0.41,1.100000023841858,58.0,22.84491729736328,0.007951773703098297,-79.782753076125,40.45898709135018,268.906739757061,0.018432952463626855,0.0038560184184461828,-0.7582165002822876,0.6517308950424194,-0.008882907779106539,-0.01105682472630284,-0.006757506170167423,0.003237000200897455,0.005057242698967457,0.0020373705774545674,0.17582186434417965,-0.327642626054585,-9.806155455708504
0.6,1.100000023841858,58.0,22.83489990234375,0.0,-79.78275320800356,40.4589871096497,268.8967705821991,0.0184383075684309,0.003856519935652613,-0.7582157254219055,0.6517316699028015,-0.006017752855161065,-0.012394039367086204,-0.00810251189804588,-0.006144516635686159,-0.001730991411022842,-0.0019706261809915304,0.17603881431743504,-0.3241456256434321,-9.805146226286887
0.71,1.100000023841858,59.0,22.831144332885746,-0.015903547406196594,-79.78275322139956,40.458987116666336,268.8959682440758,0.0184383075684309,0.003856519935652613,-0.7582157254219055,0.6517316699028015,-0.005384147402090213,-0.012677454732649156,-0.007845116386385412,0.0017416458576917648,-0.00016375153791159391,0.003947502933442593,0.17704864673316478,-0.3268877505138517,-9.805717499256136
0.9,1.100000023841858,57.0,22.8424129486084,0.0,-79.78275323498272,40.458987123797314,268.89520154953004,0.018437903374433517,0.003856502240523696,-0.7582155466079712,0.6517318487167358,-0.006238641985808893,-0.012786401997257977,-0.00744343186127543,-0.0064079649746418,-0.002594605553895235,-0.0056022643111646175,0.17827488094568253,-0.32852712705731396,-9.805204698443411
1.0,1.100000023841858,57.0,22.831144332885746,0.0,-79.78275331881792,40.45898714802893,268.88736002206804,0.018434461206197742,0.0038615898229181775,-0.758215069770813,0.6517325043678284,-0.0053150054459380714,-0.007722148636923248,-0.005182497355190031,-0.003878921270370483,0.0023101179394871,-0.005664016120135784,0.17624120106920602,-0.3183137954771519,-9.8058139783144
1.2,1.100000023841858,56.0,22.83489990234375,-0.007951773703098297,-79.78275342993173,40.45898719253428,268.8771322822571,0.018433263525366783,0.003859598655253649,-0.7582145929336548,0.6517331004142761,-0.006832673527749161,-0.007702221836750992,-0.0064671595551244855,-0.005587591789662838,0.00025821616873145103,-0.004419382195919752,0.17524063283577562,-0.3167369110509753,-9.804182020425797
1.3,1.100000023841858,56.0,22.837404251098643,0.007951773703098297,-79.78275343760015,40.45898719955871,268.8765059566498,0.018433073535561558,0.003859937191009522,-0.7582148313522339,0.6517328023910522,-0.0062242787839084926,-0.0077687779240621785,-0.0061600055397532105,0.003226242959499359,0.0015394745860248804,0.0017598010599613192,0.1785331451520324,-0.3310885364189744,-9.806787539720538
1.5,1.100000023841858,56.0,22.8424129486084,0.007951773703098297,-79.78275354123066,40.45898724456138,268.8661901211739,0.01843230053782463,0.00385928014293313,-0.7582141160964966,0.6517336964607239,-0.0077468611055032405,-0.00730072742346632,-0.007489379680782958,-0.001429661177098751,0.004297844599932432,0.004012920428067446,0.17749661654233936,-0.3310876227915287,-9.805877712965012
1.61,1.100000023841858,56.0,22.83865737915039,-0.007951773703098297,-79.78275366807004,40.45898726654285,268.8558018064499,0.018438015133142468,0.0038588680326938633,-0.7582132816314697,0.651734471321106,-0.00476234278772708,-0.009941208290355514,-0.008300121031738055,-0.0008899563690647483,-3.0783125112066045e-05,0.0058569437824189646,0.17611669192090632,-0.31660216927528384,-9.804725226759912
1.8,1.100000023841858,57.0,22.837404251098643,0.0,-79.78275367865176,40.458987272466906,268.85498534202577,0.018438644707202908,0.0038598978426307435,-0.7582125663757324,0.6517353057861328,-0.0051246279481961645,-0.010136948762343306,-0.008062602777399862,-0.0008007358410395683,0.0016541305230930448,-0.0025714840739965443,0.17637113716453315,-0.31761709973216057,-9.804154538512226
1.91,1.100000023841858,56.0,22.837404251098643,-0.007951773703098297,-79.78275377782164,40.45898729033701,268.84792171478273,0.018441539257764816,0.0038596373051404953,-0.7582125663757324,0.6517351865768433,-0.003499198535458269,-0.011072795985412337,-0.005945251226915458,0.00018365855794399977,-0.00014839926734566686,0.0012535942951217296,0.1760056496411562,-0.3298217006027699,-9.805706974267961
2.1,1.100000023841858,56.0,22.837404251098643,-0.015903547406196594,-79.78275387001672,40.45898734996878,268.8388789153099,0.01843400672078133,0.003854037029668689,-0.7582121491432191,0.6517359614372253,-0.010844478848812018,-0.01048092665276455,-0.007386238638983655,0.00025801785523071885,-0.002549739321693778,0.0017651510424911976,0.17626537565141914,-0.32760388825088743,-9.805494720339775
2.2,1.100000023841858,55.0,22.8424129486084,-0.007951773703098297,-79.78275388029644,40.458987361158,268.83817140817644,0.01843400672078133,0.003854037029668689,-0.7582121491432191,0.6517359614372253,-0.010681655700431558,-0.01072954818868961,-0.007122600642561152,0.006613852921873331,0.0011949902400374413,-0.0014080024557188153,0.17678141070529818,-0.3205006906762719,-9.804878423810006
2.4,1.100000023841858,56.0,22.833648681640625,0.0,-79.78275389072284,40.4589873725187,268.8374950146675,0.018433189019560814,0.0038539897650480283,-0.7582111358642578,0.6517371535301208,-0.011100762417493252,-0.010901520856853034,-0.006733756531968675,-0.0016142958775162695,-0.0038446965627372265,0.002986638806760311,0.1769181076437235,-0.3219243415072561,-9.80493455708027
2.5,1.100000023841858,56.0,22.833648681640625,0.0,-79.78275399183734,40.45898734527957,268.8280427908897,0.01844388246536255,0.003863540943711996,-0.7582095265388489,0.651738703250885,-0.0001574981541299663,-0.010731646165506441,-0.007448530618797472,-0.003892454784363508,-0.005249676294624806,-0.0003351368650328368,0.17627306839451196,-0.3269092755764723,-9.805491212010383
2.7,1.100000023841858,56.0,22.84366607666016,0.0,-79.78275406247514,40.4589873991655,268.8185769176484,0.018436742946505547,0.00385893858037889,-0.7582095265388489,0.6517389416694641,-0.006581092411713151,-0.00968489035870192,-0.008299548078381198,-0.005720624700188637,-0.002785396762192249,-0.00015457946574315431,0.1758112114481628,-0.32530056037008764,-9.805692356228828
2.81,1.100000023841858,56.0,22.85368156433105,0.007951773703098297,-79.78275407255997,40.45898740630345,268.8177642083168,0.018437162041664124,0.003859980031847954,-0.758208692073822,0.6517398357391357,-0.006078155800510264,-0.009974694767091705,-0.00804207030127315,0.003118098480626941,0.0012925229966640472,0.005971537437289953,0.17627297703176736,-0.32441573046147826,-9.805422214865683
3.0,1.100000023841858,56.0,22.83865737915039,0.0,-79.78275413586054,40.458987438595436,268.8106366848946,0.018435891717672348,0.0038604983128607273,-0.758208692073822,0.6517398953437805,-0.0070746811837188485,-0.008907550208623109,-0.0060791491197918,0.0019938477780669928,0.0022293732035905127,0.001889436854980886,0.17694734372198584,-0.32516351625323303,-9.80521873176098
3.11,1.100000023841858,56.0,22.83865737915039,-0.02385532110929489,-79.78275420308391,40.45898742943979,268.8041424012184,0.018443090841174133,0.0038651460781693454,-0.7582085132598877,0.6517398357391357,-0.0011931848324178687,-0.009327518326504615,-0.003913742087359824,-0.00550119299441576,-0.002486597979441285,-0.0029069378506392236,0.17564613724127412,-0.3240509738400579,-9.804562674164773
3.3,1.100000023841858,57.0,22.83615303039551,0.14313192665576935,-79.78275422475343,40.45898743380103,268.8033861374855,0.01844261400401593,0.0038650310598313813,-0.7582094073295593,0.6517388224601746,-0.0012396319157797814,-0.009650459694454508,-0.0032903498264384786,-0.003718785010278225,-0.00028407707577571273,-0.001929147518239916,0.17495614752173425,-0.3228486401215196,-9.804997707009317
3.41,1.0,57.0,22.8424129486084,0.07951773703098297,-79.7827542629362,40.458987461021906,268.7967863535881,0.018438298255205158,0.0038640550337731843,-0.7582096457481384,0.651738703250885,-0.003485223045100416,-0.007834345724500705,-0.002633938862295641,0.003993912599980831,6.328208837658167e-05,0.000955449999310076,0.17798177098855378,-0.3269233088940382,-9.804762648940088
3.6,1.0,59.0,22.83615303039551,0.039758868515491486,-79.78275432665397,40.458987453275256,268.7901644563675,0.018444215878844258,0.0038677884731441736,-0.7582100033760071,0.6517381072044373,0.002520329690873525,-0.00876359594653538,-0.0015034176298009516,0.005490533076226711,0.0025361112784594297,0.004741710145026445,0.17741585187613965,-0.3283776576071978,-9.804962038993835
3.7,1.0,60.0,22.837404251098643,0.04771064221858978,-79.78275433726415,40.45898745269448,268.79001180887224,0.018444215878844258,0.0038677884731441736,-0.7582100033760071,0.6517381072044373,0.0016415920383181552,-0.008846022995104508,-0.0011094868871959448,-0.0032352441921830177,-0.002203574636951089,-0.0014378728810697794,0.176750658005476,-0.32008279748260976,-9.80417558848858
3.8,1.0,62.0,22.837404251098643,0.10337305814027786,-79.78275434808396,40.458987452145095,268.7898875927925,0.01844447292387485,0.0038681579753756523,-0.7582118511199951,0.6517359018325806,0.002369201436669876,-0.009165000402201893,-0.0008974139799549332,0.002911062678322196,-0.000738095142878592,0.006049307063221932,0.1767195946723223,-0.3300072400644421,-9.8062531042099
4.0,1.0,63.0,22.833648681640625,0.12722837924957275,-79.78275443308334,40.45898750028787,268.7771352386475,0.018443204462528232,0.003864078316837549,-0.7582119107246399,0.6517358422279358,-0.002238472779735229,-0.0107694167442563,-0.00038409477707747433,-0.001267090905457735,-0.001960646826773882,-0.007000174839049578,0.17764201121404768,-0.33044307690113783,-9.804967886209488
4.2,1.0,63.0,22.831144332885746,0.03180709481239319,-79.78275444543239,40.458987503436816,268.77709619760515,0.018443204462528232,0.003864078316837549,-0.7582119107246399,0.6517358422279358,-0.0015204144948009533,-0.011007946567689,-9.77012128179536e-05,0.002915818011388182,0.003045519348233939,0.006029477342963219,0.17780259037390353,-0.3303953490033746,-9.805943786501883
4.31,1.0,63.0,22.829893112182607,0.06361418962478638,-79.78275445800979,40.458987506635694,268.7770876741409,0.018443530425429344,0.003864439204335213,-0.7582114338874817,0.6517364382743835,-0.002337523814444796,-0.011177983614316591,0.00017674549681060613,-0.0044671185314655295,0.001173236989416182,-0.0047061420045793065,0.17653319640085102,-0.3171055414527655,-9.80319384098053
4.5,1.0,64.0,22.8323974609375,0.04771064221858978,-79.78275448185039,40.458987520907826,268.77072738170625,0.018440356478095055,0.0038677582051604986,-0.7582103610038757,0.6517378091812134,-0.00195295735985613,-0.008184380684924754,0.00013318420612183678,-0.006338140927255154,-0.001845345250330865,-0.006849624216556549,0.1761117035150528,-0.3174312679097057,-9.803320725560187
4.6,1.0,66.0,22.831144332885746,0.039758868515491486,-79.78275451305656,40.458987532694465,268.7647924280167,0.018441960215568542,0.0038674874231219287,-0.7582100629806519,0.6517381072044373,-0.00022885905221225162,-0.009219914828349166,-0.00011714716273546664,0.004763845354318619,0.0021277472842484717,0.003762634936720133,0.1761892156675458,-0.3307935443893075,-9.80506611943245
4.8,1.0,66.0,22.83865737915039,0.07156596332788467,-79.78275453472646,40.45898753638448,268.76479159355165,0.01844145730137825,0.003867515129968525,-0.7582091689109802,0.6517391800880432,-0.00026610603283975745,-0.00960299939723266,0.0003584833962750938,0.0014467728324234483,0.00015179684851318598,0.0013794340193271635,0.1779093934223056,-0.33068281274288897,-9.805605817437172
4.9,1.0,66.0,22.83489990234375,0.07951773703098297,-79.7827545216467,40.458987648425534,268.7536155438424,0.018423480913043026,0.003858942538499832,-0.7582065463066101,0.6517427563667297,-0.01637832239095218,-0.006116058894699819,-0.00683958958859603,0.0051281373016536244,0.0019117930205538867,0.0065412758849561214,0.17708663536235691,-0.3171237774565816,-9.804142844080923
5.1,1.0,66.0,22.829893112182607,0.06361418962478638,-79.78275447807006,40.45898773071726,268.7392487382889,0.018406745046377185,0.00385729712434113,-0.7582051157951355,0.6517449021339417,-0.027457332843705096,0.0013107192643195562,-0.0196062199061084,-0.0006202958174981178,0.0002007648581638932,-0.005073852837085724,0.17581833774223926,-0.3174038590863347,-9.803799612522123
5.2,1.0,64.0,22.833648681640625,0.06361418962478638,-79.78275447133456,40.45898775528784,268.73738591432567,0.018406745046377185,0.00385729712434113,-0.7582051157951355,0.6517449021339417,-0.026912590718882544,0.0011170533187493618,-0.019486256953216874,0.0035349770914763212,-0.0014908656012266874,0.006441499572247267,0.17649544531479475,-0.3304525786265731,-9.80524329006672
5.4,1.0,64.0,22.826135635375977,0.05566241592168808,-79.78275449294405,40.45898782998993,268.72354023218156,0.01841035857796669,0.00385315646417439,-0.7582019567489624,0.6517484784126282,-0.027336162128894986,-0.0037052663287600266,-0.02543954991893166,0.008237655274569988,0.0017115988302975893,0.005293798167258501,0.1773140372335911,-0.3296041841804981,-9.8054707467556
5.5,1.0,63.0,22.831144332885746,0.05566241592168808,-79.78275449178288,40.45898785594859,268.72109548807146,0.018409637734293938,0.003853008383885026,-0.758201003074646,0.6517496705055237,-0.02822856595295617,-0.003944553035189853,-0.025205704794159685,-0.002714947098866105,-0.0013290990609675644,-0.008213989436626434,0.17537435134872795,-0.3175790197402239,-9.804135242700575
5.7,1.0,64.0,22.83489990234375,0.05566241592168808,-79.78275448973531,40.458987863665975,268.706012711525,0.01841824129223824,0.003862556535750628,-0.7581993937492371,0.6517511010169983,-0.0178522662565421,-0.003116205433319816,-0.030787347885587308,-0.0013886548113077881,-0.002663042396306992,-0.0051316763274371615,0.17623559139668946,-0.3197735894098878,-9.804144013524057
5.8,1.0,66.0,22.829893112182607,0.07951773703098297,-79.78275448955195,40.45898788047784,268.70299355745317,0.01841811090707779,0.0038630326744169,-0.7581989765167236,0.6517515778541565,-0.017148336510312803,-0.0033406565826444357,-0.030674572288763406,0.004127197898924351,0.0013711587525904179,0.002031204290688038,0.1776014461554587,-0.3276140843331814,-9.805304101109504
6.0,1.0,65.0,22.83615303039551,0.09542128443717957,-79.78275450369719,40.45898794989196,268.69149242401124,0.018430829048156745,0.0038690229412168256,-0.7581902146339417,0.651761531829834,-0.019743619145562642,-0.006234686414752307,-0.030545520438160764,0.0020509541500359774,-0.00043979374459013343,0.0007642720593139527,0.1776811692863703,-0.3260436683893204,-9.80625076532364
6.21,0.8999999761581421,64.0,22.833648681640625,0.07951773703098297,-79.7827544883187,40.45898796768664,268.6827745294571,0.01844213716685772,0.0038860768545418978,-0.7581775784492493,0.6517757177352905,-0.01322029626287924,-0.004626432467013632,-0.027110104915808758,0.004547359421849251,-0.0007780242594890295,0.004819995723664761,0.17789886843413116,-0.3241858617961407,-9.80596776008606
6.3,0.8999999761581421,64.0,22.83990859985352,0.03180709481239319,-79.78275449060764,40.45898798111095,268.68011777162553,0.018440039828419685,0.0038887269329279657,-0.7581642866134644,0.6517912149429321,-0.013781013400421288,-0.00467830605750224,-0.02677464633480317,-0.004723339341580868,-0.0007216667872853577,-0.0031921847257763147,0.1756724131666124,-0.3246363532170653,-9.805521032810212
6.5,0.8999999761581421,64.0,22.8424129486084,0.0,-79.78275449408616,40.45898803343543,268.6718696808815,0.018438003957271576,0.003906489815562964,-0.7581737041473389,0.6517802476882935,-0.01521092529597996,-0.007218056289034367,-0.024865928667178558,-0.006141279358416796,-0.003156509716063738,0.0005518202669918537,0.1752916680648923,-0.3253646604716778,-9.804907659888267
6.6,0.8999999761581421,63.0,22.83865737915039,0.0,-79.78275446151103,40.45898803716543,268.66840945243837,0.01844185777008533,0.003928886260837317,-0.7581758499145508,0.6517775654792786,-0.01041412369408096,-0.005026968621017428,-0.020624169259039947,0.0012696832418441772,0.00293306028470397,0.002494679298251868,0.17564381662756207,-0.32295151457190513,-9.804558581113817
6.8,0.8999999761581421,63.0,22.84366607666016,0.015903547406196594,-79.78275446854832,40.458988058363225,268.6643838739395,0.018450478091835976,0.003945340402424336,-0.7581790089607239,0.6517733931541443,-0.010313900312915668,-0.0051996219478702,-0.0202925670888986,0.004724905826151371,0.0007938385242596269,0.0011570793576538565,0.17611084470525384,-0.32188070666044954,-9.803754004240037
6.91,0.8000000119209291,61.0,22.84366607666016,0.007951773703098297,-79.78275445081277,40.45898807840724,268.66105030536653,0.01844383962452412,0.003944206051528454,-0.7581661939620972,0.6517886519432068,-0.010137630401879807,-0.006356490532643752,-0.017980745033812712,-0.0015179342590272429,-0.0012462493032217026,-0.0026314426213502893,0.17641334675252435,-0.32744703669101,-9.803886736035349
7.1,0.8000000119209291,61.0,22.841161727905273,-0.007951773703098297,-79.78275442942703,40.45898807525345,268.6567469096184,0.018454769626259804,0.003947115037590265,-0.758161723613739,0.6517934203147888,-0.0027591518792201442,-0.00680557685992406,-0.014819228251656538,-0.0022238742094486947,-0.0020372474100440736,0.0001413788995705545,0.1762707843258977,-0.32794185731559994,-9.805509923100473
7.2,0.8000000119209291,56.0,22.83615303039551,-0.015903547406196594,-79.78275443659855,40.45898807891422,268.6552706217766,0.018454769626259804,0.003947115037590265,-0.758161723613739,0.6517934203147888,-0.002536887598792432,-0.0070004594315164,-0.014679011284492132,0.002759520662948489,-0.0012054379330947995,-0.0010754187824204564,0.17585749581456184,-0.318844466842711,-9.804421756267546
7.4,0.8000000119209291,57.0,22.841161727905273,0.015903547406196594,-79.78275438545023,40.45898809052989,268.6537732934952,0.018451724201440808,0.003949631005525589,-0.7581619024276733,0.6517933011054993,-0.0020193412860689077,-0.004315396150898461,-0.010100132609498151,0.001988935749977827,0.003998884931206703,-0.003206239780411124,0.1773908915743232,-0.3191258275508881,-9.80391246378422
7.5,0.699999988079071,56.0,22.83865737915039,0.0,-79.78275438985554,40.45898809319897,268.65276883602144,0.018451714888215058,0.003949355334043503,-0.7581618428230286,0.651793360710144,-0.002006038131665134,-0.004331426207464687,-0.00995094134219852,-0.0010541992960497737,0.0005012655165046453,0.0019275601953268047,0.1761423465795815,-0.33022270996123554,-9.80446327149868
7.7,0.699999988079071,54.0,22.8424129486084,-0.015903547406196594,-79.782754325494,40.458988123176425,268.65268550872804,0.018447065725922585,0.003948757890611887,-0.7581626772880554,0.6517925262451172,-0.004856755188213187,-0.0028428147183533173,-0.0063435372874972645,-0.0006356979138217866,-0.0014194122049957516,0.0021065231412649155,0.17685207065194847,-0.3297541652619839,-9.805579504966737
7.8,0.699999988079071,53.0,22.84366607666016,0.0,-79.78275432781216,40.45898812803176,268.65207903146745,0.01844765618443489,0.003949231002479793,-0.7581623196601868,0.6517929434776306,-0.004973416820371267,-0.002877261403566748,-0.006047302005861114,0.0032583836000412703,0.002503761555999517,-0.0026207738555967808,0.17650947863236072,-0.31841794900596143,-9.803916556835173
8.0,0.699999988079071,51.0,22.83990859985352,0.007951773703098297,-79.78275423346577,40.458988154228756,268.65266715049745,0.0184420756995678,0.0039510573260486135,-0.7581630349159241,0.6517922878265381,-0.0069888120872126725,0.000880857959680775,-0.0039784491242611415,0.000450003397418186,-0.0014214636757969856,-0.003204676555469632,0.17634478814899926,-0.31712823595851664,-9.80365635573864
8.11,0.699999988079071,49.0,22.841161727905273,-0.007951773703098297,-79.78275417802651,40.45898817145714,268.65593390226365,0.01844372041523457,0.0039477916434407226,-0.7581637501716614,0.6517913937568665,-0.007478637440326789,-0.002624264006634055,0.0009308975698374902,0.0018026988254860048,-0.001171979820355773,0.002066772896796465,0.17630214001983405,-0.3301558324322105,-9.804199562072757
8.3,0.699999988079071,48.0,22.83615303039551,0.007951773703098297,-79.78275418178539,40.45898818554839,268.65620295763017,0.01844283565878868,0.003947104793041945,-0.7581638693809509,0.6517913341522217,-0.0073244208733608375,-0.0026916231058049913,0.0013028812816427836,-0.0009902995079755783,0.0004605456488206983,0.006061413791030645,0.17723170112818482,-0.3307341586053372,-9.804554488062859
8.41,0.699999988079071,48.0,22.83615303039551,0.0,-79.78275409451052,40.45898819057389,268.6576454496384,0.01844273693859577,0.0039509315975010395,-0.7581639885902405,0.6517911553382874,-0.005383549008679725,-0.0010575323451005613,0.0011795078945768542,-0.001098316628485918,-0.0009499393636360763,-0.005145268980413675,0.17734373012557628,-0.3164070184528828,-9.803559876680373
8.6,0.6000000238418579,48.0,22.841161727905273,0.0,-79.78275401755644,40.45898820262408,268.6602049922943,0.01844574324786663,0.003951278980821371,-0.7581632137298584,0.6517919301986694,-0.003328949015104121,-0.003248747517249341,0.0012724185206303765,-0.0038831809069961314,-0.003456621896475553,-0.003499428974464536,0.1755008887499571,-0.31565777085721497,-9.803231847882273
8.7,0.6000000238418579,49.0,22.83990859985352,-0.015903547406196594,-79.7827540209304,40.45898820573841,268.660345659256,0.01844574324786663,0.003951278980821371,-0.7581632137298584,0.6517919301986694,-0.002670656960783467,-0.0033772134778750147,0.0013962073700746738,0.0033048756886273627,0.0006234513130038978,0.0034380380529910326,0.17817986369132996,-0.32920522134751085,-9.804838662743569
8.9,0.6000000238418579,50.0,22.84366607666016,0.007951773703098297,-79.7827539461058,40.45898822916165,268.6632932877541,0.018444865942001343,0.003949577920138836,-0.7581622004508972,0.6517931818962097,-0.004066485538830494,-0.004886514605084736,0.0015533961688073195,0.002787951845675707,-0.00039829924935474986,0.003293226007372141,0.17721233222633606,-0.32977437470108273,-9.80607944190502
9.0,0.6000000238418579,51.0,22.84366607666016,0.007951773703098297,-79.78275395110454,40.458988233755576,268.6634635782242,0.018444236367940903,0.003948913421481848,-0.7581612467765808,0.6517943143844604,-0.004711954270108408,-0.0049110533629369724,0.0017026695341786937,-0.0018961115274578333,0.0004102429375052452,-0.0031177483033388853,0.17685797268524767,-0.3160293248668313,-9.802909081578257
9.21,0.6000000238418579,50.0,22.83865737915039,-0.015903547406196594,-79.78275384590563,40.45898824710797,268.6669880604744,0.018442396074533463,0.003952613566070795,-0.7581614851951599,0.6517940759658813,-0.003383236465817139,-0.002733623706365261,0.0018508007512200626,-0.003417871193960309,-0.004065136890858412,-0.003250428941100836,0.17549010794609787,-0.3159482312947512,-9.804205409288409
9.3,0.6000000238418579,50.0,22.83990859985352,-0.007951773703098297,-79.7827538486697,40.45898825020808,268.66717676877977,0.01844165287911892,0.003952169790863991,-0.7581608891487122,0.6517947912216187,-0.002667249958328091,-0.0028602402500556927,0.0017696925133619274,0.005164347589015961,-0.002914179116487503,0.002270764205604792,0.17686389299109578,-0.3308907178044319,-9.804099574685095
9.5,0.6000000238418579,48.0,22.831144332885746,-0.007951773703098297,-79.78275375940876,40.458988281607965,268.67145268678667,0.01844119839370251,0.003950132057070732,-0.7581611275672913,0.65179443359375,-0.00479136466255833,-0.004892576393623481,0.0016219233859059155,0.0031735943630337715,0.0014425009721890092,0.00429401732981205,0.17731228306889535,-0.32955261904746297,-9.80380136668682
9.6,0.6000000238418579,46.0,22.841161727905273,-0.007951773703098297,-79.78275362920112,40.4589882885457,268.6759784078598,0.018439076840877533,0.003954780753701925,-0.7581614255905151,0.6517941355705261,-0.0041213688257709605,-0.0019255590518034405,0.0016431060705311734,-0.0025740996934473515,-0.002800279296934605,-0.005534454248845577,0.17479553181678056,-0.321432517580688,-9.803379197716714
9.8,0.6000000238418579,46.0,22.8424129486084,0.007951773703098297,-79.78275363258106,40.45898829560153,268.67634157896043,0.018439143896102902,0.003954411018639803,-0.7581614255905151,0.6517941355705261,-0.004029848314454884,-0.0020049507660473338,0.0019874106345001414,-0.0045283250510692605,-0.004921691492199898,-0.0017587610054761171,0.1749623967334628,-0.32445249482989313,-9.804484321475028
9.9,0.6000000238418579,45.0,22.837404251098643,0.007951773703098297,-79.78275348820667,40.45898830744022,268.68323414087297,0.018434716388583183,0.003957910928875208,-0.758162796497345,0.6517927050590515,-0.0036660551612920883,0.0017269750283462042,0.0043257129936792,-0.0018344323616474867,-0.00011672783875837922,0.00036774421459995216,0.1771715844422579,-0.3239647639542818,-9.804576707482338
10.1,0.6000000238418579,43.0,22.837404251098643,-0.02385532110929489,-79.78275335700853,40.458988334547854,268.68791429758073,0.01843108236789704,0.003956840839236975,-0.7581629157066345,0.6517926454544067,-0.005712407248798071,0.0017034862359117061,0.0032814506814168487,-0.001005898928269744,0.003344148863106966,0.002428608480840921,0.1760787032917142,-0.3204226668924093,-9.803679744601249
10.2,0.6000000238418579,42.0,22.83990859985352,-0.015903547406196594,-79.78275335407247,40.45898833940667,268.688275680542,0.01843108236789704,0.003956840839236975,-0.7581629157066345,0.6517926454544067,-0.005775018853606984,0.0017129772290242484,0.0035237872965467798,-0.00030808040173724294,-0.0018849237821996208,0.003051290521398187,0.17652248868718745,-0.32842556823045016,-9.805150319337846
10.4,0.6000000238418579,43.0,22.8424129486084,-0.007951773703098297,-79.78275323488293,40.458988374111435,268.6933749175072,0.018431583419442173,0.0039543304592371,-0.7581649422645569,0.6517903208732605,-0.006616222426267688,-0.0011760317999456467,0.00312239275095356,-0.0003639021306298673,0.00241757370531559,0.0026729744859039783,0.17763135831803084,-0.3299008207395673,-9.805264924764634
10.5,0.6000000238418579,43.0,22.841161727905273,-0.007951773703098297,-79.78275323527065,40.45898838027839,268.6937097167969,0.01843126676976681,0.003953749313950539,-0.7581661343574524,0.6517888903617859,-0.007076706761604969,-0.001302350711636683,0.0032465282857865787,-0.0032399846240878105,-0.00011551595525816084,-0.006454160436987878,0.17581550549715758,-0.3160027200356126,-9.80364290714264
10.7,0.6000000238418579,42.0,22.83489990234375,-0.015903547406196594,-79.78275311367156,40.45898835561789,268.7013665890694,0.01843896880745888,0.003961581736803055,-0.7581667304039001,0.6517881155014038,0.0025688387026208915,-0.0018331443400206435,0.006632810364572831,-0.002339573111385107,-0.000602434272877872,-0.006260864902287722,0.17622923254966738,-0.3172287715226412,-9.803031288385393
10.8,0.6000000238418579,43.0,22.8323974609375,-0.015903547406196594,-79.78275311657048,40.458988353120034,268.7020190215111,0.018438257277011868,0.003960969392210245,-0.758167028427124,0.6517876982688904,0.00336977466232355,-0.00196989229599126,0.006681205362143781,0.0071457591839134684,0.00041346647776663303,0.0035976306535303593,0.17626886570826172,-0.3296889322623611,-9.804418247938155
11.0,0.6000000238418579,41.0,22.841161727905273,0.007951773703098297,-79.7827529488695,40.458988390776774,268.7072853302956,0.018430696800351143,0.003962365444749594,-0.75816810131073,0.6517866849899292,-0.0010320253879069364,0.002029205103379104,0.005285164483309974,0.00118456338532269,-0.002198345959186554,0.00649509858340025,0.17779624979943034,-0.3257151645049453,-9.804445145130158
11.11,0.6000000238418579,42.0,22.82863998413086,-0.08746951073408127,-79.78275281861514,40.45898841416538,268.71399943590166,0.01843248680233956,0.003960652276873589,-0.7581685185432434,0.6517861485481262,-0.0009488533179865564,-0.0012625905469849095,0.007766505375795261,-0.006108648143708706,-0.0052352724596858025,-0.0019196677021682265,0.17593228535726668,-0.32550071787089113,-9.804602435231208
11.3,0.6000000238418579,43.0,22.82238006591797,-0.08746951073408127,-79.78275282218075,40.45898841518793,268.7155859923363,0.01843169331550598,0.003960031550377607,-0.758168637752533,0.6517860293388367,-0.0005458416507449501,-0.0014487107537177154,0.00817200845280835,-0.00013544200919568541,-0.0007449386175721884,6.0252175899222486e-05,0.17520677380263805,-0.3281685831025243,-9.804588401913644
11.4,0.5,45.0,22.826135635375977,-0.09542128443717957,-79.7827526554267,40.45898842274697,268.7232579445839,0.018430456519126892,0.003964838571846485,-0.7581701278686523,0.6517842411994934,0.002241946515828464,0.0008083882646950477,0.009589986883642264,0.0033135788980871443,-0.0016476231394335628,0.002444504993036389,0.17642425546422602,-0.3180548003688455,-9.803834111094476
11.6,0.5,45.0,22.829893112182607,-0.007951773703098297,-79.78275252866504,40.45898848737632,268.7277334189415,0.01842719316482544,0.003954010549932718,-0.7581697702407837,0.6517848372459412,-0.0053048743859837036,-0.00587538303251939,0.006830920097706771,-0.0012198500335216524,0.0006988547975197432,-0.002630964852869511,0.175514922067523,-0.3162929246574641,-9.803576833605767
11.7,0.5,46.0,22.83489990234375,-0.04771064221858978,-79.78275253477155,40.458988492500055,268.7284253692627,0.01842719316482544,0.003954010549932718,-0.7581697702407837,0.6517848372459412,-0.0047142299791494225,-0.005819385672936682,0.00687880921288796,-8.102762512862682e-05,0.0016784509643912315,0.0022393905092030764,0.1786364581435919,-0.32953928008675576,-9.804184944033622
11.9,0.5,44.0,22.837404251098643,-0.039758868515491486,-79.78275236118772,40.458988537144705,268.7318543052673,0.01842031069099903,0.0039577982388436786,-0.7581691145896912,0.6517857909202576,-0.006605214786820111,-0.0009951936792982712,0.002458675056219605,0.0030354938935488467,0.0010414778953418136,0.00751082506030798,0.1764437522739172,-0.32845052853226664,-9.804122378826145
12.0,0.5,44.0,22.83990859985352,-0.007951773703098297,-79.7827523611531,40.458988543506756,268.73213414907457,0.018419407308101654,0.003956869710236789,-0.7581708431243896,0.65178382396698,-0.007376942804620127,-0.0009515136469172034,0.002729806036905332,-0.0035872946027666326,-0.0010654021752998233,-0.005317009519785643,0.17494041485711934,-0.32104568772017955,-9.803648169636727
12.2,0.5,43.0,22.82863998413086,-0.02385532110929489,-79.78275217233525,40.4589885777432,268.73694358825685,0.018415037542581558,0.003962788730859757,-0.7581712007522583,0.6517835259437561,-0.00606181456696275,0.0036755758782660037,0.002361685308236168,-0.003832260612398386,-0.0005661740433424711,-0.004385692067444325,0.1761059476621449,-0.3245881867781282,-9.8044141548872
12.31,0.5,42.0,22.83489990234375,-0.007951773703098297,-79.7827521671365,40.458988582255,268.73720674276353,0.018415477126836777,0.003963034600019455,-0.7581707239151001,0.6517840623855591,-0.005593124085183593,0.003611429969230292,0.002436832831313323,0.001827518688514829,0.002266147639602423,0.0016802996397018433,0.1756554014235735,-0.3233631950989366,-9.804109514951707
12.5,0.5,41.0,22.837404251098643,-0.03180709481239319,-79.78275199229074,40.45898863547856,268.740033493042,0.01841222308576107,0.0039624543860554695,-0.7581706047058105,0.6517843008041382,-0.00750307813417631,0.003642231922481282,-0.0006835788924480003,0.0016143725952133534,0.0001253373920917511,-0.0006975360447540879,0.17566305762156845,-0.31790390565991405,-9.803747572302818
12.6,0.4000000059604645,41.0,22.826135635375977,-0.007951773703098297,-79.7827518454491,40.458988642115436,268.7449673867226,0.018419375643134117,0.003965949174016714,-0.7581705451011658,0.6517840027809143,-0.00021035147477799432,0.0005196025257537783,0.0002516575316808716,-0.0005862474790774286,-0.0005986262112855911,0.0034321695566177373,0.1770242894254625,-0.3295984100550413,-9.804384918808935
12.8,0.4000000059604645,43.0,22.82738876342773,0.2862638533115387,-79.78275184419333,40.45898864250728,268.745057926178,0.018419526517391205,0.003972776234149933,-0.758175253868103,0.6517785787582397,-0.0010436274291404498,0.0007176655408365785,0.0007288884028731925,-0.0020573819056153297,-0.002624616026878357,-0.007925758138298988,0.17549087539315225,-0.3355141477659345,-9.803333589434622
12.9,0.4000000059604645,49.0,22.816120147705078,0.2942156493663788,-79.78275169092385,40.45898870135644,268.74954532146455,0.018426166847348213,0.003983133472502232,-0.7581210136413574,0.6518414616584778,-0.005335939284198085,-0.0008025190534473017,0.0008863829889482787,-0.008032217621803284,-0.001595190493389964,0.0017039468511939047,0.1806952079571784,-0.30558979740366343,-9.805509923100473
13.1,0.4000000059604645,50.0,22.82488441467285,0.3021674156188965,-79.78275151844716,40.45898878600002,268.7526373124123,0.0184104423969984,0.003982690162956715,-0.7581234574317932,0.6518389582633972,-0.012834431728481891,-0.0006868367866626384,-0.0019210104060859961,-0.002754541113972664,0.002618509577587247,-0.002263020956888795,0.17739228028804066,-0.31783048655837776,-9.805603478550912
13.21,0.4000000059604645,57.0,22.82863998413086,0.278312087059021,-79.78275151653328,40.45898879749439,268.7524942612648,0.01839057356119156,0.0039672707207500935,-0.7581452131271362,0.6518142819404602,-0.01303136089840679,-0.00046614164031232117,-0.0017779615937066496,0.0028024581260979176,-0.0006516491994261743,0.004094939213246107,0.17602602353319527,-0.3328515084832907,-9.803418958783151
13.4,0.4000000059604645,62.0,22.81862449645996,0.326022744178772,-79.78275136885118,40.45898881938917,268.7552363729477,0.01840599812567234,0.00402559246867895,-0.7581579089164734,0.6517987847328186,-0.004458646816392729,-0.0016554199515062015,-0.003866666651711139,0.0022441509645432234,-0.0005586970364674926,0.0010269922204315662,0.17733505066484215,-0.32914477575570344,-9.802271735072138
13.5,0.4000000059604645,68.0,22.814868927001953,0.3578298389911652,-79.78275136984553,40.458988823745045,268.75486557245256,0.018404068425297737,0.004025438334792852,-0.7581281661987305,0.6518335342407227,-0.0044017145247897405,-0.0014172482331438025,-0.0037247754178228545,-0.005059775430709125,-0.008235982619225979,0.0015831401105970144,0.17416193118318915,-0.3215469402819872,-9.801304020881654
13.7,0.4000000059604645,71.0,22.814868927001953,0.40554046630859375,-79.78275121862625,40.45898888101826,268.7602352356911,0.01841355673968792,0.004049013368785381,-0.7581314444541931,0.6518291831016539,-0.00616515514154599,-0.0025896078124564557,-0.0019597225936917725,-0.0009653166634961963,0.003982629626989365,0.006776049733161925,0.17670963613316418,-0.32496971759945154,-9.805672475695607
13.8,0.4000000059604645,76.0,22.814868927001953,2.07541298866272,-79.78275122046563,40.458988886844345,268.76006947517396,0.01842314563691616,0.0040531670674681655,-0.7581740021705627,0.6517793536186218,-0.006470355958284907,-0.0024839915755631016,-0.0016647834121139055,-0.0013775776606053116,-0.0015256963670253756,-0.004057155456393957,0.17392064217478034,-0.3190827774256468,-9.804314167499543
14.0,0.4000000059604645,78.0,22.804851531982425,0.5327688455581665,-79.78275106218503,40.45898893999893,268.7639835929871,0.01879969984292984,0.004312538076192141,-0.7581086754798889,0.6518430113792419,-0.007861315616909954,-0.0003563617556903197,-0.0007325017292494157,-0.023850910365581512,-0.005882771220058203,-0.021748986095190048,0.17431207671761514,-0.28863892022520304,-9.787062542438509
14.1,0.4000000059604645,86.0,22.82488441467285,0.2465049922466278,-79.78275091035859,40.45898900712452,268.76767228603364,0.01883248053491116,0.0042625474743545055,-0.7581254839897156,0.6518228054046631,-0.010437160145502174,0.0006971702761156126,-0.0050637954815979215,-0.006893477402627468,-0.00449974462389946,0.00405201967805624,0.17883840635418893,-0.2819641956500709,-9.789892010092737
14.3,0.4000000059604645,90.0,22.69091415405273,1.892522215843201,-79.7827509099208,40.45898901545517,268.76728408098217,0.01879237964749336,0.004317667800933123,-0.7580508589744568,0.6519104242324829,-0.008519744862235166,-0.0008673200491882058,-0.002868317009845684,-0.006887275725603104,0.0021668740082532167,-0.018654949963092804,0.1646338932774961,-0.2827771961688996,-9.818713520765305
14.4,0.5,97.0,22.79358291625977,0.4691546559333801,-79.78275071836373,40.45898906263445,268.7737122631073,0.01891997456550598,0.004423449281603098,-0.7580478191375732,0.6519094705581665,-0.012092632281045934,0.005387534794415609,-0.0019041063901730714,-0.032204605638980865,0.002391786780208349,0.004241798538714647,0.17525360634550452,-0.32157416637986896,-9.798335389494897
14.6,0.5,98.0,22.82238006591797,0.2624085247516632,-79.78275054756024,40.458989105231865,268.7796437597275,0.018929462879896164,0.004407373256981373,-0.7580443024635315,0.6519135236740112,-0.006863386572478807,0.004606677632713253,-0.0016330476217176193,0.00531237293034792,0.024822860956192017,-0.0017178553389385345,0.19779299642890694,-0.32400748517364264,-9.81260668873787
14.71,0.5,101.0,22.80109596252441,1.1450554132461548,-79.7827505402294,40.458989112263,268.779572532177,0.01880371384322644,0.004431956447660923,-0.7580558657646179,0.6519034504890442,-0.009825615061552906,0.005847474329256138,-0.0010821330994138759,-0.01788497529923916,0.0033384147100150585,-0.014715412631630898,0.17703419314697386,-0.2885438298806548,-9.816700909137728
14.8,0.5,104.0,22.70343589782715,3.2602272033691406,-79.78275053235397,40.4589891192834,268.77952335834505,0.018781967461109158,0.0044199125841259965,-0.7580623030662537,0.6518967747688293,-0.009502831619708349,0.005643459878189606,-0.0012968443932508365,-0.02108336985111237,-0.008757723495364191,0.012291156686842442,0.17015852535143494,-0.3210795284807682,-9.794234737157822
15.0,0.6000000238418579,106.0,22.602020263671875,5.2402191162109375,-79.78275026746128,40.45898916911431,268.79040800094606,0.018837152048945427,0.004434832837432623,-0.7580691576004028,0.651887059211731,0.002216241926455916,-0.002791081390765493,-0.0010684066299953042,-0.0053042140789330006,-0.038192346692085266,-0.005153760779649018,0.1872533171251416,-0.3910673376917839,-9.808016624450683
15.2,0.6000000238418579,105.0,22.52313995361328,7.538281440734862,-79.78275027075986,40.458989167732135,268.7904558634758,0.01931942626833916,0.004694354720413685,-0.7581703066825867,0.6517535448074341,0.0011265142000145265,-0.007255697296626791,-0.0007300554508424576,0.006011948920786382,0.13611984252929688,-0.07443453371524811,0.1681042705848813,-0.2414035772904753,-9.855210671424867
15.3,0.6000000238418579,104.0,22.47430992126465,8.754902839660645,-79.7827502756424,40.45898916468006,268.7905824637413,0.019930431619286537,0.005117432679980993,-0.7580971717834473,0.6518170237541199,0.009031476639782305,0.00327776680251852,0.0027614423394075045,0.009025334380567074,0.023560894653201103,-0.07966918498277664,0.2359035217948258,-0.4081379183381796,-9.801531477570537
15.5,0.6000000238418579,107.0,22.34660148620605,11.068869590759276,-79.78275006337428,40.4589892292442,268.7918649172783,0.020724998787045482,0.005997980944812298,-0.7581467628479004,0.651727020740509,0.0002805182044905325,0.001330327688362182,-0.0017860530122964665,0.015690328553318974,-0.015956724062561992,0.007754269987344742,-0.033058001138269906,-0.16184129962697627,-9.687551118135454
15.61,0.6000000238418579,116.0,22.286502838134766,12.43657398223877,-79.7827498747697,40.458989252176025,268.7981121993065,0.02149965614080429,0.006607708521187306,-0.758204460144043,0.651628851890564,0.011382299324418086,0.0074229812041846565,0.0001989359859944692,0.07158651202917099,0.06778418272733687,-0.10844754427671432,0.12102640047669412,-0.4436589859798551,-9.797446612715722
15.8,0.6000000238418579,119.0,22.15253257751465,15.688850402832033,-79.78274986763003,40.4589892486414,268.7983955001831,0.022199638187885284,0.00710388459265232,-0.7583986520767212,0.6513742208480835,0.015160243980533622,0.000908940548368824,0.006973692565218534,0.1035069301724434,0.039873979985713966,-0.08148658275604248,0.27752142637968064,-0.2041553883254528,-9.901686680316926
15.9,0.6000000238418579,121.0,22.073654174804688,16.953182220458984,-79.78274970896925,40.45898927851688,268.80430470466615,0.02323492243885994,0.007303082384169102,-0.7589333057403564,0.6507127285003662,0.007609771262683355,0.004218912280988265,0.01009071580742736,-0.008179966360330582,-0.0020892124157398943,-0.013610868714749813,0.2370520976744593,-0.3336163973808289,-9.847071347236634
16.1,0.6000000238418579,123.0,21.92716407775879,20.40425109863281,-79.78274958917933,40.45898928990603,268.8080986595154,0.023219084367156032,0.007257358171045779,-0.7603490948677063,0.6490589380264282,0.007243562217414523,0.007010527982501731,0.013774565113835652,-0.06216906011104584,-0.06082472950220107,0.08312620222568512,0.31514475077390675,-0.5888688491284848,-9.826049437522887
16.21,0.699999988079071,125.0,21.83952140808105,22.54327964782715,-79.78274958603535,40.45898927906599,268.8107429599762,0.01848665811121464,0.007844338193535805,-0.7630156874656677,0.6460679769515991,0.010691673630462148,0.01150533510842854,0.0460769734320319,-0.1277005672454834,-0.14923565089702606,0.12929819524288175,0.05003336353227497,-0.3689787131175399,-10.06209451675415
16.3,0.699999988079071,127.0,21.759389877319336,23.942790985107425,-79.78274958624756,40.45898926176271,268.81684534311296,0.010399017482995987,0.004869386553764343,-0.7672117352485657,0.6412912011146545,0.023503286009751684,-0.0017705976641657056,0.08127628030932764,-0.270750105381012,-0.02208824083209037,0.17205603420734406,-0.006256877062842251,-0.22409709803760053,-10.143984771966931
16.51,0.699999988079071,133.0,21.96347427368164,17.81992530822754,-79.78274936195898,40.45898913247019,268.86774878263475,-0.009598657488822935,-0.005913774017244577,-0.7728567719459534,0.6344804763793945,0.031321136864933374,-0.0060862692174486225,0.3432657111221458,-0.008731602691113949,0.03316061198711395,-0.0051985937170684355,-0.04639349919743836,0.02330627982504666,-10.967190874814987
16.7,0.699999988079071,135.0,21.93467712402344,19.99871063232422,-79.78274935833505,40.45898911423079,268.9029695248604,-0.009235008619725704,-0.004395647905766964,-0.7728648185729979,0.6344882845878601,0.024218967016716424,0.0068589152475997785,0.3477516241846204,0.0760047510266304,0.023236189037561417,0.041760697960853584,0.04705269967205823,0.1016987763158977,-10.027459119558335
16.8,0.699999988079071,144.0,21.922155380249023,19.6885929107666,-79.78274933685907,40.45898910410197,268.93534605264665,-0.006912125740200281,-0.0010304347379133103,-0.7727246880531311,0.6347029805183411,0.0023215458663976038,0.026029103559640245,0.2988727638811273,0.10440284013748168,0.017759939655661583,-0.05587305873632431,0.03986582295969129,0.02498188626486808,-9.521757411360742
17.0,0.8000000119209291,148.0,21.8570499420166,21.326658248901367,-79.78274899657917,40.458989264345654,268.9525259590149,-0.0012807234888896346,0.0036823686677962533,-0.7716551423072815,0.6360291838645935,-0.015208656302928997,0.06039082235205585,0.1404635322853263,0.10691314935684204,0.029645394533872608,-0.0528205968439579,0.09830030148848892,0.06668780514970422,-9.28177598655224
17.1,1.0,153.0,21.850788116455078,20.8734073638916,-79.7827488930921,40.458989255644624,268.9778478598595,0.0009688842692412436,0.0038140800315886736,-0.7710191607475281,0.6367999315261841,-0.003914584931249428,0.05698844400417205,0.0989081237375518,0.0744592472910881,0.056154120713472366,0.004934417083859444,0.020911385917570444,-0.05179558642208577,-9.501590949296954
17.3,1.0,155.0,21.75563240051269,22.980627059936523,-79.78274873198829,40.45898923458881,268.99562524318696,0.003599175019189716,-0.004107391927391291,-0.7704823017120361,0.6374381184577942,0.0007365800334848612,0.07949339556262555,0.06878246320799619,-0.08195810765028,0.06459016352891922,0.06199986115098,0.1046938480809331,-0.14183400973677635,-9.585480367541312
17.41,1.100000023841858,160.0,21.79820251464844,22.71026611328125,-79.78274850899486,40.458989480479815,269.04744945526124,0.00355075323022902,-0.0056685106828808784,-0.7704242467880249,0.6374965906143188,-0.03563535401340455,0.08519727517856228,0.1035447091776916,0.057428423315286636,-0.045191138982772834,-0.03793645277619362,0.19143714610487225,0.17600857324898245,-9.714084613323212
17.6,1.2000000476837158,163.0,21.816984176635746,21.50954818725586,-79.78274820899615,40.458989461739066,269.08060215473176,0.004638903774321079,-0.0043155928142368785,-0.7706503868103027,0.6372267007827759,-0.028712455378253805,0.08738645543316634,0.13375949415744004,0.08840754628181458,0.025135619565844536,0.012210976332426071,0.11132993535138667,-0.09850420486181977,-9.969534262418748
17.7,1.100000023841858,166.0,21.783178329467773,22.105932235717773,-79.7827481023029,40.458989478065966,269.0945674037933,0.005270039662718773,-0.00669661071151495,-0.7709289193153381,0.6368642449378967,-0.03730947817596311,0.08847126145703749,0.14218804389009765,-0.040907155722379684,0.033892132341861725,0.0037797631230205297,0.08714379575103523,-0.04699709630571306,-9.862005136013034
17.8,1.2000000476837158,173.0,21.769405364990234,22.185449600219727,-79.78274799472003,40.45898949588883,269.10903011322023,0.005489672999829054,-0.008052462711930275,-0.7711532711982727,0.6365750432014465,-0.04312740056441863,0.0905341666520404,0.14759018855415465,-0.08222256600856781,-0.017629943788051602,0.04636156186461449,0.17419843973591925,-0.007552615483291447,-9.87881354212761
18.01,1.2000000476837158,177.0,21.759389877319336,22.956771850585927,-79.78274744027884,40.45898950562903,269.18378125190736,0.00763159478083253,-0.0065357163548469535,-0.7710549831390381,0.6366893649101257,-0.03806005500841572,0.08502053026823045,0.18906380952020413,0.027822671458125114,0.022198177874088287,0.009839714504778385,0.13657507879659533,-0.0747714802902192,-9.95341231942177
18.2,1.2999999523162842,175.0,22.356616973876953,6.289853096008301,-79.78274733818209,40.45898952722645,269.2038197374344,0.00800920557230711,-0.007733584381639955,-0.7708380818367004,0.6369339227676392,-0.042063449114103375,0.08432187024134673,0.2093605595448868,-0.04678373411297798,0.030105171725153927,-0.09464690089225768,0.1705868704430759,0.06550284405704589,-9.947540545463562
18.31,1.2999999523162842,174.0,21.739356994628906,24.96857070922852,-79.78274724011763,40.45898954966177,269.223351225853,0.008370057679712772,-0.008131192997097969,-0.7704600095748901,0.6373816132545471,-0.0384492297115763,0.07619136246121308,0.13956284751581638,0.040614333003759384,0.02339743636548519,0.01264153327792883,0.17721196677535772,-0.05268049855716528,-9.121508483290674
18.5,1.399999976158142,173.0,21.564069747924805,26.36808204650879,-79.78274695299633,40.45898954027154,269.253150806427,0.005435059778392315,-0.003394757863134145,-0.7704328894615173,0.6374889612197876,-0.03645635748322644,0.07789351709329856,0.039078739994654735,0.019988052546978,-0.039056096225976944,-0.10217764973640442,0.1176717614941299,0.033977530617266896,-9.699523876905443
18.6,1.399999976158142,175.0,21.481433868408203,28.91264915466309,-79.7827466971175,40.45898958931072,269.29995916843416,0.0046371244825422755,-0.003918467089533806,-0.7705854773521423,0.6373078227043152,-0.05131597983927826,0.07492412860201904,0.14721358591799796,-0.004995178431272507,0.02771506831049919,-0.01588662527501583,0.0536806419538334,-0.002066058833152056,-10.267863882780077
18.8,1.399999976158142,174.0,21.421335220336914,29.055782318115234,-79.78274650431732,40.45898965034077,269.35533605575563,0.005463933106511831,-0.005122322589159012,-0.7705051898956299,0.6373898386955261,-0.036725954658393116,0.08496145261009291,0.4391286831626185,0.03707151114940643,0.005142743699252605,0.0971122980117798,0.1638901822641492,-0.3812675869837404,-11.372036883831026
18.91,1.399999976158142,177.0,21.401302337646484,29.771442413330078,-79.78274620432144,40.45898973610566,269.4593654727936,0.006173634435981512,-0.003617946524173021,-0.7702223658561707,0.6377353072166443,-0.04714500874253802,0.09139770939154307,0.767723756636222,0.03762587532401085,0.015140405856072903,0.050511471927165985,0.16440747812390327,0.1625964127108455,-11.610897982120516
19.1,1.399999976158142,178.0,21.256065368652344,33.0078125,-79.78274607551623,40.45898978308579,269.5549336528778,0.00770354364067316,-0.0027150597888976336,-0.7701630592346191,0.6377948522567749,-0.05447473796558795,0.0907718409698126,0.9679381760271966,0.06942379474639893,-0.030440064147114764,0.1188327968120575,0.18228128347545866,-0.2683462679386139,-11.888550678491592
19.2,1.5,180.0,21.226015090942386,33.381546020507805,-79.78274597353688,40.45898981899615,269.66324506759645,0.008822890929877758,-0.0031555215828120713,-0.7698721289634705,0.638129472732544,-0.06253253704350256,0.09934707223026704,1.1942883467803231,0.053831834346055984,-0.00251110945828259,0.03724050149321556,0.2733196903020144,-0.13090107777155938,-12.006294890642168
19.3,1.600000023841858,184.0,21.24104118347168,32.912391662597656,-79.78274586728423,40.4589898552291,269.794285402298,0.008209444582462309,-0.0030372347682714467,-0.7694185376167297,0.6386850476264954,-0.0650763013509702,0.10935922166815697,1.4220895262249509,0.006516489665955305,-0.048394978046417236,0.08717995136976242,0.24453359182924034,-0.2458117748983205,-12.10383580327034
19.5,1.7000000476837158,183.0,21.153396606445312,34.64587783813477,-79.78274561687188,40.4589899528818,270.1275888538361,0.005462229251861572,-0.00024141493486240503,-0.7685714960098267,0.6397407054901123,-0.06767808907943296,0.1156355076473158,1.8713265900955531,0.07490622997283937,-0.05375779047608376,0.048630829900503166,0.22438098035752774,-0.16006495205685498,-12.149113132953644
19.7,2.0,187.0,20.93929672241211,39.51236343383789,-79.7827453654961,40.458990045171646,270.54478655815126,0.00918853934854269,0.00599648104980588,-0.7679504156112671,0.6404154300689697,-0.08860819767421843,0.13422956857996712,2.33210739118618,0.016313852742314342,-0.04285258799791336,-0.04992757737636566,0.2567762726917863,-0.12788687464781107,-12.097167638540268
19.81,2.200000047683716,191.0,21.18094253540039,33.92226791381836,-79.7827452068701,40.458990064552744,270.790317401886,0.011078131385147572,0.006074928678572178,-0.7680331468582153,0.6402854919433594,-0.08709737785604374,0.1449227512924535,2.5820919153801016,0.1042344495654106,0.02285357192158699,0.07492873817682266,0.17587684644386173,-0.1827109441906214,-12.280564388036726
20.0,2.4000000953674316,193.0,21.256065368652344,31.91046905517578,-79.78274486277334,40.45899011098216,271.34671793937684,0.01122500840574503,0.005651713814586401,-0.7680804133415222,0.6402301192283629,-0.08518420734295681,0.1911592231022014,2.9731676772230164,-0.0665326863527298,-0.05179349705576897,-0.08509236574172974,0.2851516042649746,-0.06687668848782778,-11.650121104717257
20.11,2.5999999046325684,195.0,21.36749649047852,30.336017608642567,-79.7827447072506,40.45899012241103,271.6424687957764,0.009887972846627235,0.0036638977471739054,-0.7684998512268066,0.6397630572319031,-0.06993818914298007,0.18954682011313725,3.0852062336705925,-0.08983887732028961,0.009029659442603588,-0.0057696346193552035,0.1600903874449432,-0.09983694976195694,-11.216371139287947
20.3,2.700000047683716,194.0,21.57909393310547,25.67627716064453,-79.78274429702464,40.45899002477928,272.276524887085,0.016036303713917732,0.0027140674646943808,-0.7687721252441406,0.6393160223960876,-0.03609821491936758,0.2216600468793464,3.2201699400781743,0.030555235221982002,0.03750238195061684,-0.0849643275141716,0.21871495530009272,0.055892803519964215,-10.352235696315766
20.41,3.0999999046325684,198.0,21.45013236999512,27.958436965942386,-79.78274389792422,40.4589899344438,272.9075392341614,0.02207241952419281,0.003798092249780893,-0.7682580351829529,0.6397484540939331,-0.050226606416368176,0.2548112249088416,3.1163581662636943,-0.13475920259952545,-0.022036589682102203,-0.10650849342346193,0.18908890429884195,-0.1989342998340726,-9.674643389582632
20.6,3.2000000476837163,199.0,21.461400985717773,27.370006561279297,-79.78274374353565,40.45898996478035,273.1990717506409,0.020501423627138138,0.006588234566152096,-0.7681881189346313,0.6398620009422302,-0.028696238468962614,0.2509451761043115,3.066877502169081,0.026851190254092216,-0.05557963252067566,0.10553028434515,0.1979308628104627,-0.3069607684761286,-9.526857352852822
20.7,3.299999952316284,204.0,21.497711181640625,26.19314384460449,-79.78274355520902,40.4589898443123,273.5044878578186,0.02067989856004715,0.006867698393762112,-0.7682129740715027,0.6398233771324158,-0.010559282632251246,0.2244945424880848,3.0358626286916732,0.06261387467384337,0.07927654683589935,0.015624604187905787,0.06795767877716571,-0.014148105718195438,-9.459984501600266
20.9,3.4000000953674316,207.0,21.43260383605957,27.457475662231445,-79.78274338412723,40.45898972682439,273.8032730674744,0.0212696585804224,0.0005747795803472402,-0.7677610516548157,0.6403830051422119,0.0018684007275502554,0.2153847419895984,2.9878043993840566,-0.1444895565509796,0.13070927560329434,-0.04277684912085533,0.2048985146172345,-0.14976420460268855,-9.409180383682251
21.0,3.5,214.0,21.443872451782227,27.20301818847656,-79.78274320843978,40.458989545896884,274.3565925216675,0.02169916406273842,-0.010530860163271429,-0.7667016386985779,0.6415504813194275,0.07550032318446458,0.25777018300655385,2.8915190869777545,-0.0975104719400406,-0.05252128839492798,-0.010142098180949688,0.2565577878244221,0.1145685345120728,-9.581979639530182
21.2,3.5999999046325684,220.0,21.401302337646484,27.9266300201416,-79.78274319094686,40.45898937166286,274.8309453582764,0.01601109281182289,-0.012199199758470058,-0.7663796544075012,0.6420724987983704,0.12625865930346994,0.21483428335012875,2.8211662046828616,-0.019859304651618004,0.0011969805927947164,-0.0723072737455368,0.2633459849283099,0.1517584249097854,-9.864166266918184
21.31,3.2000000476837163,223.0,21.34746551513672,28.06976127624512,-79.78274312877403,40.45898920566181,275.11430488586427,0.01425865013152361,-0.013055403716862202,-0.7664689421653748,0.6419904828071594,0.1486675266483719,0.18956573508411864,2.834576036395013,-0.0770215094089508,-0.015362287871539591,0.03246564418077469,0.22024977631866927,0.011053384607657792,-9.870162001848225
21.51,3.2000000476837163,229.0,21.39754676818848,26.95651435852051,-79.78274348518181,40.4589891969259,275.5629309272766,0.01000128872692585,-0.015620780177414416,-0.7669040560722351,0.6414936780929565,0.1814987885512625,0.13378545904973638,2.743261421349233,0.06123946979641914,-0.0056422101333737365,0.09456108510494232,0.3375533276796341,-0.243957750722766,-9.72304371714592
21.6,3.0999999046325684,244.0,21.31866836547852,29.23072052001953,-79.78274366664425,40.45898913394846,275.86686883926393,0.007945682853460312,-0.014572637155652046,-0.7672151923179626,0.6411750912666321,0.14380711165451318,0.09746714728645924,2.726895053812949,-0.10567647218704224,-0.034165777266025536,-0.06467131525278091,0.256821990609169,0.3109647224843502,-9.733944681286813
21.8,3.0999999046325684,251.0,21.467660903930664,26.224950790405273,-79.7827437615978,40.45898888452765,276.41238723754884,0.007265583612024784,-0.0166432186961174,-0.7672260403633118,0.6411197185516357,0.16783161580898862,0.06099166571626105,2.7317447570744413,0.10397108644247056,0.07562750577926636,0.020763598382472992,0.25559645075351,0.06149566037580372,-9.850870867967606
21.9,2.700000047683716,263.0,21.40631103515625,27.71988296508789,-79.78274346636286,40.45898843135648,276.7926219558716,0.006350548937916757,-0.020453449338674545,-0.7671622037887573,0.6410956382751465,0.1760934960090825,0.07659373513257893,2.7451370371090316,-0.14600391685962674,0.0473390519618988,-0.022719837725162503,0.2342555936984718,-0.10447110570967197,-9.761731234788897
22.1,2.700000047683716,269.0,21.431352615356445,27.38591003417969,-79.78274337628551,40.45898803116785,277.4365419006348,0.003473150543868541,-0.027181759476661682,-0.7674378156661987,0.6405375003814697,0.19692703382863566,0.09237399871523204,2.7611986383102107,-0.01380376610904932,-0.0721844956278801,0.027444437146186832,0.250154246147722,0.010947559140622615,-9.808978491425515
22.2,2.5,274.0,21.38627815246582,27.696027755737305,-79.78274344566552,40.45898793598133,277.71345458984376,0.0037717910017818213,-0.0259480644017458,-0.7674175500869751,0.6406114101409912,0.19594104294339293,0.08078806402914389,2.7655883420877365,0.12599775195121765,0.015907905995845798,-0.03516729921102524,0.3224009626731277,0.06571228858083487,-9.856780064105989
22.4,2.5999999046325684,280.0,21.41883087158203,25.89097595214844,-79.78274343056327,40.458987548774985,278.3656552886963,0.0054057897068560115,-0.020753497257828712,-0.7673367857933044,0.6408857107162476,0.14114203742999315,0.04824534223473437,2.821879513896004,0.03903704136610031,-0.010183241218328476,0.011935843154788016,0.1823867709003389,0.18800945347175,-9.91628133058548
22.5,2.5,279.0,21.38252258300781,27.21096992492676,-79.7827435365798,40.45898749763704,278.64878498077394,0.0060758995823562145,-0.02207970060408116,-0.7672306895256042,0.6409623622894287,0.13183896059637368,0.02140479087750314,2.832299654481913,0.03687636181712151,0.05514244735240936,0.04884207993745804,0.31783114437013865,-0.3023213317617774,-9.913237270116808
22.7,2.5999999046325684,282.0,21.37125396728516,27.139404296875,-79.78274376416553,40.45898736144515,279.29547344207765,0.0044496837072074405,-0.02541099302470684,-0.7673718929290771,0.6406832337379456,0.10523770236281006,0.009625495577760265,2.845278160955821,-0.0284307524561882,-0.01010857243090868,0.017693476751446724,0.2699066705256701,-0.10377006109803916,-9.73469897210598
22.81,2.5999999046325684,281.0,21.358732223510746,27.55289649963379,-79.78274393948546,40.458986959024905,279.95443855285646,0.009740499779582024,-0.00991604384034872,-0.7674897909164429,0.6409105658531189,0.09081230166579222,-0.01500270343398279,2.890749778525912,0.16486088931560516,-0.09941953420639038,0.02257492020726204,0.2657574497535825,0.38619236782193184,-9.77208080649376
23.0,2.700000047683716,284.0,21.457645416259766,25.779651641845703,-79.78274409212142,40.45898694694064,280.2450393295288,0.009884363040328026,-0.008245982229709625,-0.767815887928009,0.6405411958694458,0.03372023709187112,-0.05066621763183125,2.9240359233456803,0.005527601577341557,0.07581700384616852,0.05557262152433395,0.21199707096442585,-0.2377499080449343,-10.086425950527193
23.1,2.9000000953674316,279.0,21.468914031982425,24.761823654174805,-79.78274415168364,40.45898684752171,280.5954621887207,0.007651047781109809,-0.01271835993975401,-0.7679035067558289,0.6403936743736267,0.00887854665759388,-0.04968182547463141,2.9736144305079804,-0.19225870072841644,0.03780018910765648,-0.10573723167181016,0.15518623631447553,0.3072767373919487,-10.052181147336961
23.31,2.9000000953674316,276.0,21.50897979736328,24.077970504760746,-79.78274447024903,40.45898684080351,281.19152103424074,0.00017949631728697568,-0.021940654143691063,-0.7678670287132263,0.6402333974838257,0.06461487456302714,-0.04003473028423316,2.978648402283536,-0.0012241764925420284,-0.08580415695905685,0.0489380806684494,0.26365289065986874,-0.09167210795916618,-9.810290021896364
23.4,2.799999952316284,270.0,21.53902816772461,23.942790985107425,-79.78274470353107,40.45898674251313,281.5244268035889,-0.0022358363494277,-0.022526893764734268,-0.76784747838974,0.6402325630187988,0.08075965630361381,-0.05892672874209881,2.9748801594828462,0.08859094232320787,-0.09414391964673996,0.056557290256023414,0.2842364967428148,-0.004184939037077129,-9.75917307794094
23.6,2.9000000953674316,271.0,21.54403686523437,23.266889572143555,-79.7827451015022,40.458986699426454,282.16522441864015,0.0022500334307551393,-0.016892168670892715,-0.7676613926887512,0.6406290531158447,0.0409837563192819,-0.0906717511869797,2.9657291745063947,0.10905006527900696,-0.022256411612033844,0.10164984315633774,0.2676310255564749,-0.07889707465656103,-9.672779297232626
23.7,2.9000000953674316,262.0,21.496458053588867,24.21315193176269,-79.78274529530655,40.45898677304989,282.46071372985836,0.004937984049320221,-0.012101837433874607,-0.7673481106758118,0.6410976648330688,-0.0023053782484554405,-0.0897104820252371,2.9487757383737985,0.03685828298330307,-0.04303896427154541,0.05939349159598351,0.27061961056664585,-0.1326882244180888,-9.614843915104867
23.9,3.0999999046325684,267.0,21.408815383911133,26.216999053955078,-79.7827456498388,40.45898673724341,283.1095985031128,0.006181658245623112,-0.0066074859350919715,-0.7666982412338257,0.6419438719749451,-0.05245192327983922,-0.10733411353342764,2.933610557063848,0.024502558633685112,0.014687083661556244,-0.046274833381175995,0.17823376771062613,-0.11880781154148284,-9.556745980381967
24.01,3.0999999046325684,265.0,21.467660903930664,24.92881202697754,-79.78274582730063,40.45898681842536,283.40165172576906,0.00602693110704422,-0.005546705797314644,-0.7660430669784546,0.642737090587616,-0.07051626201496441,-0.10084197191637548,2.914802464398248,0.04004944115877152,-0.059607941657304764,-0.0308636911213398,0.2966962920315564,0.042176427883096036,-9.580361714959144
24.2,3.2000000476837163,264.0,21.38001823425293,27.03603172302246,-79.78274629752728,40.45898701104906,284.0462907409668,0.00398682150989771,-0.003959701396524906,-0.764306902885437,0.6448282599449158,-0.08252046638416237,-0.0822623352097505,2.9218894929061863,-0.019163943827152245,-0.025228984653949738,-0.09463945031166077,0.3192981011420489,0.07618720083497467,-9.61029595077038
24.31,3.0999999046325684,260.0,21.361236572265625,26.84518814086914,-79.78274641924338,40.45898709600477,284.3377240753174,0.004087676759809257,-0.004459378309547901,-0.7637962698936462,0.6454291343688965,-0.08885108027701125,-0.07093691538002284,2.9106306505422066,-0.08475831151008606,-0.05640537664294242,-0.06022820249199867,0.4009072514623404,0.055504630627110606,-9.688276757597924
24.5,3.0999999046325684,258.0,21.321170806884766,27.98229217529297,-79.78274675117387,40.45898734745671,284.9745763397217,0.005244288593530655,-0.007213697303086518,-0.7630500197410583,0.6462779641151428,-0.09591950770014147,-0.031106615020404783,2.9136648769983187,-0.04146552830934525,0.013538506813347341,-0.046584904193878174,0.3696154749020935,0.05305996458046139,-9.614347486495973
24.6,3.0999999046325684,256.0,21.337448120117188,27.24277687072754,-79.78274691901541,40.45898749522641,285.61494766235353,0.009251857176423071,-0.01028477493673563,-0.7623911499977112,0.6469686031341553,-0.10084900513434278,0.011636029645305558,2.9606885016852003,-0.13237400352954865,0.046928472816944115,-0.09524163603782654,0.2884995920397341,0.21236846052110198,-9.727695177197457
24.81,3.0999999046325684,259.0,21.37250518798828,25.81941032409668,-79.78274695309894,40.45898758711261,285.91065536499025,0.011314366944134235,-0.011473608203232288,-0.7627021074295044,0.6465492844581604,-0.0998628438110479,0.040719101162459234,2.9514476431107,0.05889352411031722,0.05635699257254601,0.06361055374145508,0.3785651500895621,0.07774186584167182,-9.696348254084588
24.9,3.2000000476837163,262.0,21.32743263244629,26.86109161376953,-79.78274701684097,40.458987616085494,286.2462247467041,0.012132084928452969,-0.011793590150773524,-0.7632956504821777,0.6458277106285095,-0.09188811068592556,0.06436177081285946,2.975950956480078,-0.058923713862895966,0.008488074876368046,-0.057264696806669235,0.3248139989376068,0.031756027210503815,-9.759392348527909
25.11,3.5,262.0,21.342456817626953,27.012176513671875,-79.78274703195937,40.45898778075429,286.8676885223389,0.01024267729371786,-0.007753298617899419,-0.7650836110115051,0.6438029408454895,-0.0925954527894309,0.07240369556216701,2.999521316369873,0.08698693662881851,-0.012497169896960258,0.13105584681034088,0.32848298057913783,-0.3189515074342489,-9.880035610198977
25.2,3.5999999046325684,266.0,21.37125396728516,26.550973892211914,-79.78274702537557,40.458987863985094,287.16755615234376,0.008338705636560917,-0.008006269112229347,-0.7656256556510925,0.6431824564933777,-0.11366013719037442,0.07101965496185628,2.9971881905946662,-0.06340646743774414,-0.007551016751676799,0.06612519174814224,0.3884960246086121,-0.12620373534969986,-9.828371951580046
25.4,3.700000047683716,268.0,21.37125396728516,26.06591415405273,-79.78274707892245,40.45898807805378,287.789500579834,0.012586638331413269,-0.012234303168952463,-0.7653723955154419,0.6433483362197876,-0.1077171203461178,0.07705921611783671,2.9755645712140715,-0.01155728381127119,-0.0181458480656147,0.04860832169651985,0.3977420074492693,-0.000618544053286314,-9.657981163859368
25.5,3.5999999046325684,268.0,21.281105041503906,27.05988693237305,-79.78274705429548,40.45898816366998,288.08619247436525,0.016161289066076282,-0.011386312544345856,-0.7650349140167236,0.6436854004859924,-0.0951839176339524,0.1067827064196453,2.9549550494380266,0.15015839040279388,0.04920237883925438,0.016358429566025734,0.3860829152539373,-0.20962381403893232,-9.659576869010925
25.7,3.700000047683716,269.0,21.297382354736328,28.212894439697266,-79.7827469853561,40.45898830708595,288.7004178619385,0.014516708441078663,-0.00916792917996645,-0.7640614509582521,0.6449151039123535,-0.1151046492689862,0.12031541638398913,2.9563073911829663,0.09895237535238266,0.04040114581584929,-0.09102384001016617,0.37364895734936,0.1069394712522626,-9.77625805735588
25.81,3.700000047683716,274.0,21.377513885498047,25.79555511474609,-79.78274695290499,40.458988374768985,288.99705825805665,0.01360675971955061,-0.007024326361715794,-0.7636588215827942,0.645438551902771,-0.09854255010517084,0.11202351054273546,2.970189680505982,0.0015662212390452626,-0.0277177095413208,-0.07944789528846741,0.3660077062994242,-0.06628007149323821,-9.94689618229866
26.0,3.799999952316284,275.0,21.415075302124023,25.14350891113281,-79.78274683907415,40.4589885020736,289.6164449310303,0.014081722125411034,-0.0035603211726993322,-0.7635361552238464,0.6456018090248108,-0.1109699863785314,0.11015687904157878,3.0182633115771367,-0.008193622343242168,-0.007086057681590319,0.0392267070710659,0.25597549650818113,0.1556083321943879,-9.941833662986756
26.1,3.799999952316284,277.0,21.342456817626953,26.686153411865234,-79.78274664705751,40.458988614531435,290.2267831420898,0.013329909183084965,-0.01029773335903883,-0.7639210820198059,0.645089864730835,-0.09114498671262987,0.13594811804844467,3.007189204587477,-0.16240763664245605,0.05096084997057915,0.03637578338384628,0.2872739790938795,0.019875768651254483,-9.837741529941557
26.31,3.799999952316284,276.0,21.336196899414066,26.63049125671387,-79.78274656767356,40.45898864445629,290.5279515838623,0.014463258907198906,-0.014318280853331087,-0.7641927599906921,0.6446669101715088,-0.07297017580191609,0.15958622918389556,3.006392711365382,-0.07604572921991347,0.033818650990724564,0.005946534220129252,0.3291079382970929,0.1407224723137915,-9.749774848222733
26.41,3.799999952316284,274.0,21.312406539916992,27.32229423522949,-79.78274647873322,40.45898864928372,290.8371385192871,0.015627268701791763,-0.017809443175792694,-0.7640586495399475,0.6447115540504456,-0.04473733825729392,0.18252703642417056,2.9932987526893315,0.004031868651509285,0.11736270040273665,-0.008358259685337543,0.3498571484908461,-0.08329361437819899,-9.756542415618897
26.61,3.799999952316284,274.0,21.37250518798828,26.86904335021973,-79.78274634876432,40.458988729670985,291.44317756652833,0.018243608996272087,-0.01871541701257229,-0.7634100317955017,0.6453852653503418,-0.04747510880848644,0.2019615677502808,2.9770166987068123,0.05501337721943855,-0.1012439876794815,-0.04655127972364426,0.3925131713971496,0.05894615557976068,-9.72978964984417
26.71,3.5,277.0,21.40005111694336,25.71603775024414,-79.78274629625254,40.45898876163019,291.7409909820557,0.01934534683823585,-0.014039840549230577,-0.7631651163101196,0.6457614302635193,-0.04299121459119365,0.1878183687910556,2.9650977337649835,0.08236777037382126,-0.08361336588859558,0.09975256770849228,0.40906784489750864,-0.28126746335998176,-9.72742152750492
26.9,3.5,276.0,21.311155319213867,27.79940223693848,-79.78274623994534,40.45898877074935,292.34760223388673,0.01719682291150093,-0.008430707268416882,-0.7628351449966431,0.6463094353675842,-0.06308746129653114,0.13776218449276872,2.9549029462969445,0.0070024779997766035,-0.015880338847637177,-0.0823105126619339,0.38107590794563295,-0.010897675082087518,-9.743961546421053
27.0,3.5,276.0,21.34621238708496,26.5748291015625,-79.78274614067708,40.4589887937429,292.95343910217287,0.015956759452819824,-0.01205355767160654,-0.7626728415489197,0.6464751958847046,-0.05362236317295798,0.1228415795372074,2.9585699195260515,-0.031166369095444683,0.05211230739951134,-0.002650732407346368,0.33844356626272204,-0.15769337620586155,-9.799059274792672
27.2,3.5,275.0,21.34621238708496,26.07386589050293,-79.78274611787155,40.458988798888896,293.249669418335,0.0152256703004241,-0.014540238305926325,-0.7625468373298645,0.6465904712677002,-0.0388926219350665,0.13501399216641252,2.964335564955386,-0.09606251120567323,0.0029203640297055244,-0.06472975760698317,0.3764449862390757,0.1381861511617899,-9.83959392786026
27.31,3.4000000953674316,275.0,21.312406539916992,27.44952392578125,-79.7827460981004,40.45898880148955,293.54720626831056,0.014243844896554947,-0.015889192000031468,-0.7625388503074646,0.6465904712677002,-0.005732912097416044,0.14336529770518086,2.9774747959650387,-0.011167068965733051,-0.00010942269000224768,0.045723021030426025,0.4065581833943725,-0.17597454976290464,-9.880281193256376
27.5,3.4000000953674316,275.0,21.358732223510746,25.41386985778809,-79.7827460869032,40.45898873493669,294.1497987365723,0.015248589217662813,-0.014398328959941862,-0.7624471187591553,0.6467106342315674,0.013136020271305749,0.13177095036293662,2.9873298564429835,0.17318284511566162,-0.008760019205510616,0.09650832414627077,0.390141431093216,-0.08077023932710291,-9.84806186556816
27.6,3.299999952316284,275.0,21.29112243652344,26.94856262207031,-79.78274612291783,40.458988701520155,294.4543470001221,0.01654701866209507,-0.013573719188570976,-0.7622380256652832,0.6469430327415466,0.0072256816970129685,0.1261961100372528,2.9779691732685403,0.07222525775432588,0.05690525844693184,-0.07608743757009506,0.3563964917510748,-0.0031009885948151353,-9.759047362804411
27.8,3.299999952316284,275.0,21.408815383911133,25.366159439086914,-79.78274613236455,40.45898866406257,295.0507596588135,0.014822510071098803,-0.010999783873558044,-0.7621904611587524,0.6470897197723389,-0.001678617130243091,0.11818138575809213,2.997850823512674,-0.008349980227649212,-0.0035956613719463353,0.039350561797618866,0.3109183102101088,0.09329828258603813,-9.925497711896897
27.91,3.299999952316284,275.0,21.26608085632324,28.34012222290039,-79.78274622246437,40.458988636273524,295.6529916381836,0.010227386839687824,-0.0112271960824728,-0.7621785998344421,0.6471886038780212,0.02011106060481901,0.09435866707995023,3.0003069345693127,-0.02883395738899708,-0.048834003508090966,0.0228348970413208,0.3693355759978295,0.030379688576795162,-9.861067242622378
28.1,3.299999952316284,276.0,21.302391052246094,27.28253555297852,-79.78274626726937,40.45898856663826,295.9564393615723,0.011063283309340477,-0.01172071509063244,-0.7622533440589905,0.6470780968666077,0.029672177035566457,0.08676767360662534,3.0001847328933837,0.11134295910596848,0.015719125047326088,0.10002811253070833,0.2606093235500157,0.08113110389560461,-9.827170933485034
28.21,3.4000000953674316,277.0,21.31991958618164,26.185192108154297,-79.78274627886714,40.4589885336702,296.25661407470704,0.013645353727042677,-0.011522169224917887,-0.7625407576560974,0.6466935873031616,0.04899467549343384,0.09082339095916103,2.999090729497401,0.09977426379919052,0.022716974839568138,0.027866154909133908,0.3640807563811541,-0.2011800691857934,-9.841984269618989
28.41,3.299999952316284,277.0,21.32367515563965,27.370006561279297,-79.78274632827922,40.458988440771655,296.8586114501953,0.013310909271240234,-0.013124982826411724,-0.7630252242088318,0.6460984349250793,0.009614353492316059,0.11182988196007099,2.9950628291721317,-0.07465637475252151,0.0045954477973282355,-0.004410252906382085,0.3205429002642632,0.1322987541742623,-9.805909287929538
28.5,3.299999952316284,277.0,21.331188201904297,26.48735809326172,-79.78274638343325,40.45898832578107,297.46382461547853,0.008940410800278187,-0.015559135936200619,-0.7625500559806824,0.6466804146766663,0.048483607747517685,0.10913909551821012,2.9963546511714734,0.040740098804235465,-0.01482020691037178,-0.031088918447494507,0.32751818999648097,-0.10129754768684507,-9.801450201272964
28.7,3.4000000953674316,277.0,21.29237365722656,27.25072860717773,-79.78274639323485,40.458988290199215,297.7634423828125,0.00920820329338312,-0.013366292230784893,-0.7620986104011536,0.6472575664520264,0.05932521315178771,0.10707902927218484,2.991481723397516,-0.022059915587306026,-0.12365886569023132,-0.0357600674033165,0.3663813433796168,-0.11416369705460964,-9.779971624016762
28.81,3.4000000953674316,274.0,21.218503952026367,28.37988090515137,-79.78274639980462,40.45898826076954,298.0629113769532,0.009484842419624329,-0.011591524817049505,-0.7619522213935852,0.6474601626396179,0.0389435416301491,0.09527336019990504,2.9937835156008306,0.006530655547976494,-0.05410144478082657,0.08783316612243652,0.3116852821782232,-0.17328914288431407,-9.79893882215023
29.0,3.4000000953674316,274.0,21.272340774536133,27.370006561279297,-79.78274655880234,40.458988186300935,298.6667741394043,0.013873024843633177,-0.013613849878311155,-0.7617309689521791,0.647601842880249,0.03841614518940562,0.08592400353363353,2.972002559091334,0.055409736931324005,0.028064658865332603,-0.06778712570667267,0.4133929937705398,-0.11015277206897736,-9.669529999494555
29.1,3.4000000953674316,272.0,21.357481002807614,25.596759796142567,-79.78274664382428,40.4589881248184,298.96917282104494,0.01503151748329401,-0.01154862716794014,-0.7618152499198914,0.6475170850753784,0.015557339341005894,0.09682016804300704,2.9585887825364114,0.091403067111969,-0.013488801196217535,0.040413089096546166,0.2882759543135762,0.14978008344769478,-9.610303552150727
29.3,3.4000000953674316,270.0,21.17718505859375,29.055782318115234,-79.78274669498404,40.458988069693866,299.5564015960693,0.0131023982539773,-0.008858369663357735,-0.7618903517723083,0.6475129127502441,0.0072194403192112015,0.07988625070649202,2.9230119574316933,-0.04065252095460892,0.018659159541130062,-0.0246540829539299,0.3224366306886077,-0.015056781303137541,-9.685586453676224
29.41,3.4000000953674316,266.0,21.35372543334961,27.696027755737305,-79.78274676834354,40.458987992354366,300.15692459106447,0.011167433112859726,-0.013340218923985958,-0.7609126567840576,0.648621141910553,0.02842665198287844,0.08130628387512623,2.932476061268628,0.02317234128713608,0.04100111871957779,0.11804821342229845,0.3180899202078581,-0.08216850958764553,-9.81454913377762
29.6,3.4000000953674316,262.0,21.258569717407227,27.544944763183594,-79.78274682233456,40.45898794636377,300.4579919433594,0.011613130569458008,-0.013622608035802841,-0.7604148387908936,0.6491909623146057,0.02219135129032246,0.07799497377858232,2.9287968739120442,-0.01858737878501416,-0.05793291330337525,-0.010976304300129414,0.3313325845822692,0.08059966508299113,-9.586988364458085
29.7,3.4000000953674316,259.0,21.26608085632324,27.57675170898437,-79.78274685341606,40.45898792031708,300.74986968994136,0.012243518605828285,-0.012594462372362614,-0.7603327035903931,0.6492964029312134,0.04433193478370609,0.07910661627219859,2.9097613534373044,0.14735284447669986,0.10066091269254683,0.04943152517080307,0.34676028035581113,-0.25581904694437985,-9.655490249991418
29.91,3.4000000953674316,258.0,21.304895401000977,26.86904335021973,-79.78274685132547,40.45898784555031,301.3428109741211,0.01208731159567833,-0.008529866114258766,-0.7610905170440674,0.6484769582748413,-0.004347873552286958,0.08839031355216982,2.9156019968310383,0.08562926948070526,0.003558062482625246,0.011674725450575352,0.23558959940448404,0.16147411275655033,-9.704909162521364
30.0,3.4000000953674316,256.0,21.27985382080078,27.07579040527344,-79.78274693290756,40.458987778042,301.9293283081055,0.015660280361771584,-0.005787230096757412,-0.7614192962646484,0.648044764995575,-0.015542556854756681,0.08255165048296725,2.9020229319796718,0.03310664370656013,0.0018633009167388077,-0.021757902577519417,0.25546163588762283,-0.06133579384535553,-9.712549134492876
30.21,3.4000000953674316,257.0,21.17092514038086,28.60253143310547,-79.78274693252807,40.458987760413706,302.2192338562012,0.016252892091870308,-0.005837897304445504,-0.761562168598175,0.6478618383407593,-0.029631607807364232,0.08810719512453669,2.898728781582556,0.0002815314510371536,-0.039776913821697235,0.015290183946490288,0.3471872732788325,-0.09406812334433197,-9.784961637854575
30.31,3.4000000953674316,256.0,21.272340774536133,27.44157218933105,-79.782746928148,40.458987739997724,302.5105470275879,0.01498257555067539,-0.00811590254306793,-0.7619357109069824,0.6474285721778871,-0.023396798274189223,0.09503550339264293,2.925330045939924,0.07191863656044006,0.09484636783599854,0.101507730782032,0.2399639562517405,-0.08315416742116212,-9.97307182788849
30.5,3.299999952316284,255.0,21.1208438873291,30.852882385253906,-79.78274701703,40.45898774266895,303.104384765625,0.016581892967224118,-0.010576048865914343,-0.7621106505393982,0.647148072719574,-0.011504146758740879,0.11171520569420282,2.9480474851755423,-0.031594499945640564,-0.06946272403001785,-0.025078309699892998,0.4355025952309369,-0.009610666371881965,-9.936037902832034
30.6,3.4000000953674316,255.0,21.31365966796875,25.11170196533203,-79.78274708670793,40.45898776551033,303.3943780517578,0.01839667558670044,-0.008896974846720695,-0.7619040608406067,0.6473675966262817,0.004882483203234036,0.10496315151920647,2.959739131480588,0.2201458364725113,0.03321962431073189,0.12185781449079515,0.3364337320625782,-0.13942367780953646,-10.013733365535735
30.8,3.4000000953674316,259.0,21.272340774536133,26.805429458618164,-79.78274711691947,40.45898769285065,303.986823425293,0.019489804282784462,-0.007139625027775765,-0.7606715559959412,0.6488050818443298,0.01090303370414435,0.1068999656184294,2.942098436622381,-0.005094293970614672,-0.07450845092535019,-0.002516214968636632,0.3323395847529173,-0.08847978402860462,-9.654775720238684
30.91,3.4000000953674316,262.0,21.15464973449707,29.64421272277832,-79.78274719117285,40.45898777484985,304.26743255615236,0.01723635941743851,-0.005519790574908257,-0.7604994773864746,0.6490862369537354,-0.006399510477687782,0.09461775694213592,2.9141653836845545,-0.02166437171399593,-0.11309219151735304,-0.0431501679122448,0.44597959969192746,-0.0050129538809414965,-9.716397771835329
31.1,3.4000000953674316,263.0,21.16716957092285,29.898670196533203,-79.7827473096002,40.458987685686395,304.85541473388673,0.00679958611726761,-0.010947540402412416,-0.7617847919464111,0.6477020978927612,0.011504809328700941,0.0696906993799439,2.9506741563616847,-0.24789617955684665,0.018511906266212463,-0.04637518152594566,0.23115216571837666,0.06072342591360212,-9.932993842363356
31.2,3.4000000953674316,261.0,21.169673919677734,28.87289047241211,-79.78274733251114,40.45898761736086,305.44657836914064,0.004399922676384449,-0.020058069378137592,-0.7625657320022583,0.6465847492218018,0.0606388684694112,0.09588154786515972,2.9546065621429323,0.042843785136938095,0.04719895124435425,-0.003731599310413003,0.3723148420080543,-0.2556148877553642,-9.903804541826249
31.4,3.4000000953674316,262.0,21.24730110168457,27.33819961547852,-79.7827473910319,40.45898761324733,305.7344125366211,0.00825614295899868,-0.01629008911550045,-0.7622730135917664,0.6469979882240295,0.0668054887297588,0.10598378505325773,2.9266367192978215,0.13813458383083346,0.037958476692438126,-0.11153391003608704,0.3728113071620465,0.18926234733313324,-9.637714714407922
31.5,3.299999952316284,260.0,21.29988670349121,26.40784072875977,-79.78274739495171,40.45898760448432,306.02618728637697,0.014768523164093494,-0.008768539875745773,-0.761549711227417,0.6478790044784546,0.021897512615415785,0.10322360081299968,2.908404947020852,0.11239229142665864,-0.0548286996781826,-0.08667326718568802,0.2904867865517736,0.08526026140898467,-9.626234875917437
31.7,3.299999952316284,261.0,21.174680709838867,28.316267013549805,-79.78274744880078,40.458987632734974,306.59795318603517,0.021948976442217827,-0.0036639517638832326,-0.7601487636566162,0.6493680477142334,-0.06075213712104335,0.0940893612881832,2.8554420525500364,0.1478039175271988,-0.012302381917834282,-0.03496473655104637,0.4114878247305751,0.0778547445125878,-9.613961570262907
31.8,3.4000000953674316,261.0,21.108322143554688,30.01794624328613,-79.78274745053228,40.4589876150125,306.88381134033204,0.02247314527630806,-0.0018543335609138008,-0.7588829994201659,0.6508365869522095,-0.04395458467130965,0.10092885567213804,2.8589253279868565,0.03577366843819618,-0.0005000592791475357,0.021034447476267808,0.3296760683879256,-0.21790210096165533,-9.780420690178873
32.0,3.299999952316284,260.0,21.199722290039066,28.729759216308594,-79.78274747896663,40.45898762977712,307.4684251403809,0.013917626813054085,-0.011435410939157007,-0.7581909894943237,0.6517837047576904,-0.033760453085016726,0.09640971895219078,2.9530772246730734,-0.17159150540828705,0.0009417783003300427,0.06681505590677261,0.3466401566192508,-0.4603708034008742,-10.189891262054443
32.11,3.299999952316284,256.0,21.192211151123047,26.702056884765625,-79.78274751106638,40.4589875425431,308.0563691711426,0.014598284848034382,-0.0128728449344635,-0.7584949731826782,0.6513882279396057,0.02776116202725971,0.11819052248609672,2.975203758698659,0.15315891802310946,0.03655538335442543,0.07611499726772307,0.4172931597009301,0.208041575755924,-10.001913803815842
32.3,3.299999952316284,254.0,21.193462371826172,28.17313575744629,-79.78274752116451,40.45898753116441,308.3545068359375,0.017337538301944733,-0.011207150295376778,-0.7586320638656616,0.6511921882629395,-0.010879404298872368,0.10714452542168508,2.9763515418841604,-0.10394630581140518,0.0037685446441173545,-0.1002957597374916,0.3206476750597358,-0.06991476469673216,-9.803284472823144
32.42,3.2000000476837163,246.0,21.194713592529297,27.7039794921875,-79.78274759546078,40.458987668585756,308.63217864990236,0.019115770235657692,-0.009110662154853344,-0.7590556740760803,0.6506813764572144,-0.03420635618459307,0.09949914584544026,2.9331630610783965,0.07326515018939972,-0.05455818027257919,0.017416492104530334,0.32737168069928885,0.0377504191081971,-9.644140219688415
32.6,3.0999999046325684,244.0,21.174680709838867,28.690000534057607,-79.78274774974463,40.45898772277845,309.21186767578126,0.01750597171485424,-0.005674006883054972,-0.7594267725944519,0.6503325700759888,-0.05730854175591446,0.052743958857702285,2.913506750158959,-0.04669777676463127,-0.03150967508554458,-0.01646362990140915,0.27052698701620104,0.16133125796914102,-9.709638390541077
32.7,3.0,237.0,21.056989669799805,30.66204071044922,-79.78274786602657,40.45898769641774,309.79204879760744,0.009434448555111885,-0.005530109629034996,-0.7597424387931824,0.6501321792602539,-0.01318734345693643,0.032464914194335344,2.9069191373967143,-0.1636558324098587,-0.14054834842681885,-0.06735966354608536,0.2193836940452457,-0.1850907244160772,-9.667622637748721
32.9,3.0,236.0,21.133363723754886,28.95240974426269,-79.7827479251285,40.45898772601624,310.08528457641603,0.005219741724431515,-0.0030605806969106197,-0.7601602673530579,0.6497074365615845,0.011953261498862758,0.023439958822331325,2.9454186125082904,0.07279332727193832,-0.016699369996786118,0.08662291616201401,0.1841669557057321,0.04864231092855335,-10.01049400806427
33.0,2.9000000953674316,235.0,21.20097541809082,27.696027755737305,-79.78274796531659,40.458987701866214,310.38119064331056,0.002288229996338487,-0.0023480323143303394,-0.7604058980941772,0.6494399309158325,0.01137307686286352,0.009245279939755286,2.9751653988602498,-0.1011035367846489,-0.02349209226667881,-0.01713847741484642,0.14755898203700782,0.034017218593508015,-10.065205235481264
33.2,2.9000000953674316,232.0,21.089542388916016,29.723730087280273,-79.7827481397792,40.458987664010884,310.9649842834473,0.006179119925945997,-0.006473961751908064,-0.7604556083679199,0.6493282318115234,0.0383386809081582,0.011500996758848836,2.9450296953208057,0.0390247143805027,0.06386164575815201,-0.03420426324009895,0.295038460213691,-0.09457558857277036,-9.69033029973507
33.31,2.799999952316284,225.0,21.10581970214844,28.30831527709961,-79.78274816370626,40.458987637839385,311.25904403686525,0.010642817243933678,-0.00883234478533268,-0.7604795694351196,0.6492146849632263,0.022541071704179842,0.03653027107886495,2.9431487667349576,0.0973283052444458,0.16779494285583496,-0.03890371322631836,0.18777406649664044,0.2199942895397544,-9.767056294083595
33.5,2.799999952316284,226.0,21.172178268432614,28.093616485595703,-79.78274823025356,40.45898772808897,311.8245881652832,0.01885391399264336,-0.011924433521926405,-0.7607057690620422,0.6487134695053101,-0.01951275603998996,0.06932918878819558,2.932608807636424,0.01780431903898716,-0.023243902251124385,-0.01591196283698082,0.3343328640237451,0.13533174147829413,-9.861768908500672
33.6,2.700000047683716,227.0,21.142127990722656,27.74374008178711,-79.78274829208979,40.45898784383535,312.40022598266603,0.009199601598083971,-0.00402282876893878,-0.7606642246246338,0.6490678787231445,-0.045175233032650114,0.0642305076685695,2.9467041015294453,-0.016229957342147827,-0.18028263747692108,-0.05175567790865898,0.34057527836412194,-0.3766361536458135,-9.866848969459534
33.8,2.700000047683716,229.0,21.39379119873047,23.219179153442386,-79.78274832947827,40.45898784468853,312.6954721069336,0.00650387816131115,0.002196907764300704,-0.7597767114639282,0.6501479148864746,-0.014959846888737787,0.0253283695867648,2.9568748855138933,0.055448561906814575,-0.036159370094537735,-0.017281562089920044,0.1222920394409448,-0.14804357003420593,-9.896784374713896
33.9,2.5,227.0,21.378765106201172,23.15556526184082,-79.78274847561896,40.458987946499036,312.97981582641603,0.006200489588081837,0.003886109683662653,-0.7585136890411377,0.6516160368919373,-0.04632196253799363,-0.006138436871298253,2.9149251156894795,-0.060639601200819016,-0.04338459298014642,-0.01233535259962082,0.1955687886849046,-0.1756876159273088,-9.568459122776986
34.1,2.5,231.0,21.433856964111328,21.70834350585937,-79.78274869717113,40.458988105314376,313.5619958496094,0.01078059431165457,-0.0012146423105150461,-0.7565805912017822,0.6538106203079224,-0.04181162586376018,0.00901506967460232,2.7528696365945504,-0.035366322845220566,0.0558151975274086,-0.09413331001996994,0.14922277070581913,0.02618372205644846,-8.716574181318283
34.2,2.5,226.0,21.46014976501465,21.42207908630371,-79.78274871490085,40.458988086880396,314.0835870361328,0.008502456359565258,-0.01179429516196251,-0.7550276517868042,0.6555318236351013,0.004695234785598321,0.054923009854491736,2.464011589840725,-0.015592630952596663,0.02036689035594464,-0.055400699377059937,0.16598385091871026,0.031334817549213766,-8.494593409895897
34.4,2.5999999046325684,228.0,21.463905334472656,21.08015251159668,-79.78274883552842,40.45898816318581,314.3283456420898,0.007369919680058956,-0.013261034153401852,-0.7547264099121094,0.6558641791343689,0.03189927872893955,0.05959202978683693,2.3245323920785332,0.031721189618110664,0.02547922357916832,-0.012133006006479263,0.16324185395613314,0.002610964514315129,-8.249194539785385
34.51,2.5,221.0,21.415075302124023,22.86134910583496,-79.78274884896663,40.45898814970406,314.5527528381348,0.00658450135961175,-0.011788352392613888,-0.7545495629310608,0.6561042666435242,0.02454944299752848,0.05406368656733741,2.1649629641063592,-0.05021407455205917,-0.0063847433775663385,0.00405573146417737,0.17214210189878942,-0.07715587433427573,-8.22921460390091
34.7,2.5,222.0,21.37250518798828,22.241111755371094,-79.78274894606945,40.45898819323385,314.97114883422853,0.008255253545939922,-0.010279843583703041,-0.7549560070037842,0.6556429862976074,0.0111985293807231,0.029752030042180057,1.939180278470584,0.03496166691184044,0.04620053246617317,0.10973308235406876,0.1793670677393675,-0.1285749183408916,-8.625753473639486
34.8,2.299999952316284,227.0,21.38502693176269,23.767852783203125,-79.78274896585816,40.45898819787636,315.1601594543457,0.010253720916807652,-0.007660044357180595,-0.7563685774803162,0.6540204286575317,-0.001599372464808714,0.030787507386747726,1.8431632885451568,0.06225191429257392,0.014706924557685854,0.12362081557512285,0.2361627179011703,-0.09798084251582624,-8.805361227393151
35.0,2.299999952316284,229.0,21.468914031982425,21.87532997131348,-79.78274906539556,40.45898819131705,315.5434526062012,0.012954313308000565,0.0008824760443530977,-0.7599313259124756,0.6498737335205078,-0.009929194197064508,0.02939980061275465,1.7305552934538846,-0.09692342579364777,-0.03130972757935524,0.06082669273018838,0.22296639271080496,-0.020534941717050968,-9.046799778342248
35.1,2.200000047683716,235.0,21.463905334472656,21.445934295654297,-79.78274914363516,40.45898816487448,315.7649987792969,0.009297952055931093,8.88761569513008e-05,-0.7611693739891052,0.6484866142272949,-0.00428152383994186,0.021229307610148164,1.7018341903104262,-0.17636077105998993,0.0111091285943985,0.03272844851016998,0.2341375164873898,-0.0060303088766522715,-8.987459310293199
35.3,2.0999999046325684,240.0,21.364994049072266,23.79170799255371,-79.78274915530353,40.45898808841851,316.0901483154297,0.00608698185533285,-0.0063027036376297465,-0.7608093023300171,0.6489163637161255,0.041291241077282034,0.02983944087732368,1.5661670515541175,-0.02404584363102913,0.03896428644657135,0.0012683486565947533,0.22093152511864905,-0.007275224486365916,-9.202489496469498
35.41,2.0999999046325684,234.0,21.42634391784668,21.946895599365234,-79.78274926717624,40.45898807761926,316.3091539001465,0.006046489346772432,-0.009585302323102951,-0.7589942812919617,0.6509986519813538,0.050057805130671824,0.03678486872706365,1.5978163194397288,-0.05274850875139237,0.03476715087890625,-0.05545802414417267,0.2148934161476791,0.06986258286517114,-9.381168712377553
35.6,2.200000047683716,231.0,21.500215530395508,21.104007720947266,-79.78274933533031,40.458987923471135,316.71458755493165,0.0063137696124613285,-0.013115914538502691,-0.7546025514602661,0.6560207605361938,0.07599966287232042,0.03570720983232563,1.593999399385276,0.026326818391680717,0.07470907270908356,-0.03570862114429474,0.14650192421860994,0.07603591326624155,-9.335188547372818
35.7,2.0999999046325684,216.0,21.511484146118164,19.784013748168945,-79.7827493543513,40.45898786631333,316.8715661621094,0.0063585592433810225,-0.012225549668073654,-0.7531696557998657,0.657681941986084,0.0746144141581453,0.03340031311748196,1.5416943351181225,0.01522080600261688,-0.06865991652011871,-0.03525219857692718,0.1855098784156144,0.17051886001601815,-9.265702575445177
35.9,2.0999999046325684,218.0,22.265216827392575,5.264074325561523,-79.78274946016019,40.45898766835011,317.28673110961915,0.0012377152452245355,-5.794176104245707e-05,-0.7529762983322144,0.6580466032028198,0.0848654165915859,0.002404941729487741,1.4785355633521298,0.04880739375948906,-0.0631963387131691,-0.015600224025547503,-0.026053077899850903,0.14922984218224886,-8.915224562287332
36.0,2.0,221.0,21.456392288208008,21.175573348999023,-79.78274958635859,40.45898756623338,317.57253204345704,0.007638031616806984,-0.0012667643604800105,-0.7342732548713684,0.6788099408149719,0.05943125201482038,-0.024366272053025773,0.991521356788254,-0.03169363737106323,0.05267467722296715,-0.7781497836112976,-0.030696995956823236,-0.11015583272092044,-7.520297593474388
36.2,1.8999999761581416,341.0,21.513986587524414,20.777984619140625,-79.78274962904067,40.45898751143656,317.661513671875,0.007268476299941541,-0.0025370644871145487,-0.7039957642555237,0.7101624608039856,0.05591412533648121,-0.018073909047486063,0.8031175187102998,-0.05810917541384698,-0.0800996795296669,-0.9426006078720092,0.08622459517791868,-0.023199202688410882,-7.805512493848799
36.42,1.7999999523162842,63.0,21.441368103027344,21.54930686950684,-79.78274974297514,40.45898750723742,317.79046951293947,0.008913525380194187,-0.0014268273953348398,-0.6296052932739258,0.7768626809120178,0.0798397221937753,-0.05133877141919306,0.5933067236962649,0.05955789238214493,0.03864746913313866,-1.0083200931549072,0.05468859686516225,0.035228163250721985,-8.771253249049186
36.52,1.7000000476837158,83.0,21.441368103027344,21.74015045166016,-79.7827497571642,40.45898747414053,317.88142333984376,0.011133380234241486,-0.0009231028379872439,-0.5635766983032227,0.825988233089447,0.10171388427502412,-0.06558065725332904,0.4951363651458471,-0.07105378061532974,-0.035782523453235626,-0.6682984828948975,0.08928560343571007,0.06977144395932555,-9.056372839808462
36.7,1.600000023841858,90.0,21.159656524658203,30.88468933105469,-79.78274980061647,40.45898735133056,317.92864166259767,0.009321135468780994,-0.00027465916355140507,-0.5394325256347656,0.8419772386550903,0.1257210691938967,-0.07362993376446011,0.45283678181113796,-0.029223065823316574,-0.06747733801603317,-0.5299639701843262,0.15128125556744634,0.10979073805734517,-9.345534610748294
36.81,1.600000023841858,82.0,21.332439422607425,24.38809013366699,-79.7827498293695,40.45898721249885,317.9724496459961,0.004892260301858187,0.0015352172777056696,-0.5230554342269897,0.852283239364624,0.14015573029972228,-0.06427876392934906,0.4436940526608305,0.14751102030277252,-0.1886621117591858,-0.2335200160741806,0.2419330609403551,0.06698431380093098,-9.700727818608282
37.0,1.600000023841858,77.0,21.38502693176269,23.815563201904297,-79.78274959388406,40.45898712400289,318.07298599243165,-0.03856469318270683,0.02817261591553688,-0.5070545077323914,0.8605897426605225,0.17958106820155406,0.05800882648892201,0.534384110824587,0.02044348232448101,-0.6387693285942078,-0.08882761746644974,0.2971642520092428,0.05243633162230253,-10.084511572122574
37.1,1.399999976158142,74.0,21.376262664794922,23.473636627197266,-79.78274921288303,40.458987135541264,318.17955718994136,-0.061581909656524665,0.04810793697834015,-0.5057100057601929,0.8591569662094116,0.1812560392104675,0.10744252114257208,0.6507731978569518,0.2349062263965607,-0.4932110607624054,0.04742540419101715,0.08952672799117864,0.2849433702975512,-10.096746286153794
37.31,1.2999999523162842,72.0,21.297382354736328,24.984474182128906,-79.78274826360347,40.45898709911857,318.3105310058594,-0.08875315636396408,0.0670756921172142,-0.5126774311065674,0.8513435125350952,0.2178632531101045,0.4035828949051753,0.7611571407189949,0.0033997064456343646,-0.19663019478321075,0.14949370920658112,-0.018342089666984977,-0.04448006182909012,-10.09979619383812
37.4,1.2999999523162842,54.0,21.269838333129886,25.501338958740234,-79.78274671595122,40.45898772778168,318.32158981323244,-0.105221726000309,0.06508869677782059,-0.524372935295105,0.8424517512321472,0.20739062670986355,0.804758513026975,0.86131003040475,-0.08347280323505403,-0.023757733404636383,0.1983309090137481,0.07344884010963143,0.010150786929298192,-10.167604014873506
37.6,1.2999999523162842,54.0,21.390033721923828,22.86930084228516,-79.782745492886,40.458988363964906,318.2824891662598,-0.10932811349630356,0.06258843839168549,-0.5288166403770447,0.8393349051475525,0.17167398959734365,1.0255590681412494,0.8929642326752494,-0.15703852474689484,0.041735958307981484,0.0814509466290474,-0.0382120933290571,0.2380602490156889,-10.207435247898102
37.7,1.399999976158142,62.0,21.375009536743164,23.4179744720459,-79.78274398563337,40.45898875303008,318.3442758178711,-0.11093641072511673,0.061340890824794776,-0.5313774943351746,0.8375967741012573,0.14918370352607152,1.2658320268414691,0.9630111375476718,-0.23615290224552155,-0.04747460409998894,0.013345661573112013,-0.08581640470772982,0.18215626269578936,-10.140148998498915
37.9,1.600000023841858,67.0,21.33369255065918,23.79170799255371,-79.78274029586963,40.458990129672436,318.37610946655275,-0.11846110969781876,0.06402754783630371,-0.529962956905365,0.8372614979743958,0.10163897744614596,1.7229473854935011,1.0160222190881594,0.02338760904967785,-0.17502263188362122,0.07098089903593062,-0.12836091938428582,-0.2497075736895204,-9.955505622625347
38.0,1.8999999761581416,68.0,21.312406539916992,24.89700508117676,-79.78273569460553,40.458992178242795,318.397166595459,-0.12536807358264926,0.07490336894989014,-0.5242637991905212,0.8389397263526917,0.03413279951771864,2.191860236196578,1.1204373742030451,0.001969616394490004,-0.2259523868560791,-0.05440627783536911,-0.1862575362995267,-0.037421988314017655,-9.928286833763122
38.2,2.0,61.0,21.37375831604004,23.227130889892567,-79.78273297401479,40.45899315532213,318.44361434936525,-0.127346470952034,0.08292732387781143,-0.5221698880195618,0.8391928672790527,0.04512302901011399,2.43650904769181,1.2071396430510914,0.13633058965206146,-0.05756944790482521,0.08706211298704147,-0.26341701032593845,-0.11396679206751288,-9.951731829643249
38.3,2.4000000953674316,58.0,21.38627815246582,23.36231231689453,-79.7827299743834,40.45899424461186,318.4871324157715,-0.13177374005317688,0.08936870098114014,-0.5199138522148132,0.8392488956451416,0.030150866976941863,2.6909415597508866,1.285654761594292,0.001643999945372343,-0.15897560119628906,-0.1323672980070114,-0.20557333812117576,-0.033389236768707635,-9.929638710021973
38.5,2.700000047683716,54.0,21.417579650878906,22.93291664123535,-79.78272323784745,40.458997277982434,318.49551330566413,-0.1438230723142624,0.09804211556911467,-0.5170164108276367,0.8380911946296692,0.0261009129999906,3.1943072834856827,1.4527324404159945,0.017509769648313522,-0.11909525096416472,-0.15323622524738312,-0.3578711229935289,-0.03526313234120606,-9.845327707529073
38.6,3.2000000476837163,49.0,21.3061466217041,24.65049934387207,-79.7827195223296,40.45899937100957,318.46907363891603,-0.14783142507076266,0.1002693772315979,-0.5162832736968994,0.8375820517539978,-0.01943456070626972,3.4327943758835935,1.5235073678415652,0.08011438697576523,-0.06028837710618973,0.2272799909114837,-0.5933596569299698,-0.21467796452343466,-9.816270554065703
38.8,3.5,51.0,21.410066604614254,21.8355712890625,-79.7827110696393,40.45900261989058,318.51960693359376,-0.13028183579444885,0.0917295292019844,-0.5200130343437195,0.8391655683517456,-0.004889560187637129,3.9039910319544218,1.7148680964806693,0.19344602525234225,0.5361848473548889,0.14510978758335116,-0.9390687540918587,-0.11733350006863474,-10.069891194105148
38.9,4.0,56.0,21.405059814453125,21.088104248046875,-79.78270669526101,40.45900517728589,318.50771270751954,-0.10735245048999786,0.07989012449979782,-0.5220527648925781,0.8423502445220947,-0.09829368396948092,4.1452119663807485,1.6121083153540443,-0.028568305075168613,0.4969713389873505,0.011088483966886995,-0.8789425664395094,-0.06297787929419428,-9.92327460050583
39.1,4.199999809265137,58.0,21.52901268005371,19.48184585571289,-79.78269709537021,40.45900975336482,318.51936660766603,-0.07313467562198639,0.06248517706990243,-0.5265160202980042,0.8447057604789734,-0.16735262095345996,4.59932525227866,1.176044093683854,-0.0011930462205782533,0.22647324204444885,0.008158442564308643,-0.6862487440556289,0.015386468335054816,-9.35838796019554
39.2,4.699999809265137,69.0,21.48268699645996,20.6507568359375,-79.7826920906003,40.459011766717246,318.53070388793947,-0.0667572170495987,0.05905423313379288,-0.5278910398483276,0.8446225523948669,-0.15064056395992206,4.741829678773869,0.9957578531761534,-0.029029780998826023,0.017280317842960358,-0.0014055502833798528,-0.7663186148554088,-0.023228137269616127,-9.206764395833016
39.41,4.900000095367432,71.0,21.47892951965332,21.024490356445312,-79.78268130565745,40.459016481387685,318.5250505065918,-0.057975318282842636,0.05324816331267357,-0.5281563401222229,0.8454906344413757,-0.16637762284428406,4.954409368980718,0.8304611856057705,0.04038073495030403,0.12099824100732805,-0.12199287861585616,-0.8494174895435572,0.22569631151855,-9.390444150567054
39.51,5.300000190734863,71.0,21.561565399169922,18.02667236328125,-79.78267604137984,40.45901859074439,318.52444396972663,-0.04926106706261635,0.04709487035870552,-0.5287395715713501,0.8460437655448914,-0.14874597546451948,5.00410193012733,0.7626411332801077,-0.03138548135757446,0.2785220146179199,-0.10683262348175047,-0.7248815902322531,0.19816270491108293,-9.587348552942276
39.7,5.5,71.0,21.572834014892575,18.750282287597656,-79.78266481399605,40.459023444083634,318.511969909668,-0.023007165640592568,0.03068049810826778,-0.5289942026138306,0.8477585315704346,-0.15230596773202326,5.106126679793995,0.469235380968016,-0.06528549641370772,0.2592355310916901,0.028385564684867862,-0.755914298593998,0.14147063269279894,-9.34609711289406
39.8,5.9000000953674325,77.0,21.594118118286133,18.034624099731445,-79.7826536980981,40.459028213384215,318.47478805541994,-0.004914109595119953,0.019532833248376846,-0.5300332307815552,0.8477376699447632,-0.15256387716692338,5.091748743614468,0.09519369885287644,-0.024519834667444236,0.19857704639434806,-0.20657336711883545,-0.7762616588920356,-0.0345244462788105,-9.301851232051849
40.01,6.0,82.0,21.600378036499023,16.66691780090332,-79.7826484049638,40.45903032564164,318.4582666015625,-0.0005273839342407882,0.017029114067554474,-0.5303036570549011,0.8476366400718689,-0.1309927963583481,5.047198682299976,-0.04313136103157661,-0.03226794302463532,0.031011974439024925,-0.034593336284160614,-0.8420777720957995,0.0066671049222350115,-9.228616025447844
40.1,6.199999809265138,82.0,21.495206832885746,19.768110275268555,-79.78264242553195,40.45903293187215,318.4320672607422,0.0007629509200342,0.019031953066587448,-0.5296307802200317,0.8480144739151001,-0.14357344673687447,5.052541858424402,-0.1338641059066294,0.014915377832949163,0.034765295684337616,0.04416545853018762,-0.6868575853854418,-0.23432925034314395,-9.271335783004762
40.3,6.300000190734862,82.0,21.55530548095703,17.644987106323242,-79.78263200609575,40.459037070615636,318.3805879211426,0.0016808286309242249,0.02080013416707516,-0.5292249917984009,0.8482248783111572,-0.10464923774869776,4.918516391539273,-0.1550461295455577,-0.06830331683158875,-0.01848545484244824,0.14173825085163114,-0.9602333358675242,-0.34768216699361804,-9.624685363769533
40.4,6.4000000953674325,82.0,21.526508331298828,19.354618072509766,-79.7826261747982,40.45903963905766,318.3523324584961,0.009082146920263769,0.01848352886736393,-0.5290245413780212,0.8483566045761108,-0.08458267038120572,4.889048255016268,-0.17847994594324712,0.06949391961097717,0.11385420709848405,-0.05620182305574417,-0.8743370801210404,-0.2519025270827115,-9.643771845102313
40.6,6.4000000953674325,84.0,21.477678298950195,20.809791564941406,-79.78261540399977,40.45904403653221,318.2720750427246,0.025040583685040474,0.004901004489511251,-0.5294138789176941,0.8479800224304199,-0.05392131081719704,4.774294549990861,-0.3534159198588249,0.025904929265379902,0.27517932653427124,0.1941437721252441,-0.6420758803188801,-0.36456764671951536,-9.963967713117599
40.7,6.4000000953674325,85.0,21.431352615356445,21.92304039001465,-79.78260557823648,40.459047829832905,318.2240441894532,0.03809479996562004,-0.005471662152558565,-0.5302341580390929,0.8469774127006531,-0.05084822826908506,4.53154364256625,-0.4552592263207717,-0.07807827740907669,0.03610106557607652,-0.087653249502182,-0.8423695481568575,-0.28452838243916634,-10.022568508386613
40.9,6.4000000953674325,84.0,21.42008399963379,22.392194747924805,-79.78260026830426,40.459049967249726,318.1642106628418,0.039306119084358215,-0.005903383251279593,-0.5290196537971497,0.8476782441139221,-0.03304428302926398,4.437633976068881,-0.5004986348132863,0.14873106777668,0.09916482865810394,0.04496277496218681,-0.6574134924262762,-0.5923423510417343,-10.311374183893202
41.01,6.4000000953674325,91.0,21.41632652282715,22.105932235717773,-79.78259562635381,40.45905174259682,318.1482652282715,0.03721042349934578,-0.0027280650101602077,-0.5280095934867859,0.8484184741973877,-0.0453005733901662,4.315391877806096,-0.4456719914651391,-0.11279666423797607,-0.10861849039793016,0.0005951009225100279,-0.5519573866948486,-0.46723543457686895,-10.449773100614546
41.2,6.300000190734862,93.0,21.513986587524414,19.22739028930664,-79.78258646467073,40.45905541962486,318.09443984985353,0.02585192397236824,0.0054233665578067285,-0.5253850817680359,0.850454568862915,0.013716500722880292,4.1080080295525105,-0.2510588802608688,-0.0006775970105081798,-0.14531326293945312,0.010162743739783764,-0.7398376715183258,-0.2322857215628028,-10.505582435131071
41.3,6.300000190734862,93.0,21.383773803710934,21.95484733581543,-79.78258215560929,40.45905704776853,318.09235321044923,0.018320133909583092,0.006508855614811182,-0.5240482687950134,0.8514666557312012,0.02592087437098057,4.01723417422824,-0.1667071874031641,-0.04335348680615425,-0.020083194598555558,-0.10664654523134233,-0.5969643191993237,-0.1537002030014992,-10.161808254718784
41.5,6.199999809265138,94.0,21.542783737182614,19.17172622680664,-79.78257364693154,40.45906043165221,318.06331192016603,0.010206656530499458,0.004718105774372815,-0.5224750638008118,0.8525804877281189,0.03721808644740753,3.8751312765885055,-0.0350759334252516,0.0007941919029690325,0.08084031939506531,-0.03232324495911598,-0.40747484408319,-0.10789459565654398,-10.178654083013537
41.6,6.099999904632568,89.0,21.45889663696289,20.8177433013916,-79.78256539075109,40.45906364443982,318.0182908630371,0.007819800637662409,0.003372407052665949,-0.5217688083648682,0.8530445098876953,0.038026673739237515,3.747844641665645,-0.07083783582295775,0.0008537252433598043,0.040011152625083916,-0.07409346848726273,-0.8073156365007162,-0.33134000323712826,-9.789637656211854
41.8,6.0,89.0,21.405059814453125,21.604969024658203,-79.782561464444,40.459065141139604,318.01560150146486,0.00847529899328947,0.002792614046484232,-0.5222028493881226,0.8527747392654419,0.04233559463311795,3.6977600122906846,-0.0580005035233442,0.05784770846366882,0.08764629811048508,0.03475207835435866,-0.4879269766062498,-0.5149105977639556,-9.7842798525095
41.9,5.800000190734862,90.0,21.51273536682129,20.213409423828125,-79.7825573560132,40.459066796628406,317.93511520385744,0.009992711246013641,0.0021585123613476753,-0.5221903324127197,0.8527677655220032,0.026241858754688298,3.6357078723808254,-0.13429402419603415,0.01367267407476902,0.0901714488863945,0.07494079321622849,-0.6844847852736712,-0.16878806591033935,-9.922320334911348
42.1,5.699999809265138,90.0,21.480182647705078,20.905214309692386,-79.78254975476074,40.45906959344185,317.85391174316413,0.007066407706588506,-0.001598366186954081,-0.5198096632957458,0.8542513847351074,0.04807606291013268,3.512041044983558,-0.18702707546026773,-0.13120001554489136,-0.050135280936956406,-0.06760791689157486,-0.4419240074604749,-0.16374213807284832,-10.054711822271349
42.21,5.599999904632568,90.0,21.42634391784668,21.14376640319824,-79.78254246733937,40.45907237935672,317.8312371826172,-0.0001389544631820172,-0.0007044921512715517,-0.5181284546852112,0.8553025722503662,0.034767835923026666,3.403387571559505,-0.11238952982041618,0.06105351075530052,0.006444605533033609,0.13600078225135806,-0.5414750466495752,-0.3481947119906545,-9.911738044023512
42.4,5.5,88.0,21.39379119873047,22.344484329223643,-79.78253882342634,40.45907374881229,317.79820571899415,-0.0022474247962236404,0.003186637070029974,-0.5173775553703308,0.8557483553886414,0.03144577619267583,3.3668809411737124,-0.08588952884272683,-0.07527194917201996,0.024447079747915268,-0.20123620331287384,-0.1874216803908348,0.19906688544899226,-10.212121206521989
42.5,5.400000095367432,88.0,21.45013236999512,20.8256950378418,-79.78253531027623,40.45907512235589,317.7911637878418,-0.005569999106228353,0.005782734602689743,-0.5171927809715271,0.8558313250541687,0.0301517092933044,3.3285788214634784,-0.0327840426400468,0.06817437708377838,-0.042753860354423516,0.034502245485782616,-0.4686365736275912,-0.3179276234284044,-10.191443113088608
42.7,5.300000190734863,88.0,21.41257095336914,22.392194747924805,-79.78252841964122,40.459077875523576,317.76312957763673,-0.01336063165217638,0.008930654264986515,-0.5140162110328674,0.8576299548149109,0.00356785379187456,3.2733815659848324,-0.014364204724446356,0.0371198020875454,-0.03937895223498344,-0.051221173256635666,-0.4368283051997424,-0.5091361434012651,-9.6989508497715
42.81,5.199999809265137,86.0,21.343708038330078,23.46568489074707,-79.78252501020202,40.45907925254543,317.7539323425293,-0.013864237815141678,0.012622175738215443,-0.5120997428894043,0.8587213754653931,0.006109364139506531,3.262185882569638,0.01060697942499322,0.10450570285320282,0.0476699024438858,0.09791390597820282,-0.3610823772847653,-0.07254941043443977,-9.692431204319
43.0,5.099999904632568,83.0,21.44011688232422,21.68448829650879,-79.78251826440696,40.45908202805129,317.74858032226564,-0.015831204131245613,0.0143230389803648,-0.5104067325592041,0.8596680760383606,0.024209908220671247,3.2283637721806,0.07080201058209994,0.19542990624904635,0.1081276834011078,-0.07636812329292297,-0.3378570905327797,-0.02806469824165106,-9.929816465377806
43.1,5.0,82.0,21.37375831604004,22.90906143188477,-79.78251491943851,40.459083477764494,317.7518685913086,-0.015781108289957047,0.01619033701717854,-0.5104544162750244,0.8596075177192688,0.004081698398181873,3.22241185622536,0.05363359469334941,-0.06736951321363449,-0.044788945466279984,-0.0443585030734539,-0.2603888104297221,-0.16322246678173544,-9.727666525840759
43.3,4.900000095367432,82.0,21.33995246887207,23.282794952392567,-79.78250824974008,40.459086263499024,317.7356561279297,-0.02231351099908352,0.013982235454022884,-0.5089241862297058,0.86040860414505,-0.003825718861400042,3.2235213171355688,0.09736330355093448,0.032368749380111694,0.0953231155872345,0.04239175468683243,-0.4888392153382302,-0.18706273443996907,-9.962560873031617
43.41,4.800000190734863,81.0,21.297382354736328,24.23700714111328,-79.7825016525853,40.45908916288249,317.74909912109376,-0.021153032779693604,0.013535554520785809,-0.5102840065956116,0.8596392869949341,-0.027047865996805767,3.2250714439597523,0.18652557823805604,0.03355887532234192,-0.06361246854066849,0.07615447789430617,-0.4942103214561939,-0.13946034167893231,-10.07652895331383
43.6,4.800000190734863,82.0,21.34996795654297,22.90110969543457,-79.78249842407797,40.45909064128919,317.7742608642578,-0.02130979113280773,0.01804905384778976,-0.5126959085464478,0.8581160902976991,-0.02406851974028322,3.2209510970835664,0.23161633800564435,0.20336416363716125,0.059446770697832114,0.02194199524819851,-0.3516119344532489,-0.17245286313816907,-10.291874889135359
43.7,4.699999809265137,82.0,21.421335220336914,21.000635147094727,-79.78249509660455,40.459092065246075,317.7837632751465,-0.02109375409781933,0.021337226033210758,-0.5159116983413696,0.8561161756515503,-0.05999283881386351,3.2231023882676584,0.29982904994157944,-0.03370128944516182,-0.05799026414752007,0.20307588577270508,-0.594078023917973,-0.3234079993888736,-10.324971299171448
43.9,4.599999904632568,82.0,21.334943771362305,23.64062309265137,-79.78248856922748,40.45909508110404,317.8194955444336,-0.02234640903770924,0.0202665850520134,-0.5229004621505737,0.8518597483634949,-0.1131709200286575,3.2328556274269062,0.3195204105051125,-0.1415628045797348,-0.09602413326501846,0.1043713241815567,-0.4640830544382334,-0.13719523083418608,-9.872816637754443
44.0,4.599999904632568,79.0,21.39754676818848,22.14569091796875,-79.7824852178502,40.4590965073626,317.8329042053223,-0.02266993373632431,0.02059656381607056,-0.5257891416549683,0.8500633239746094,-0.12195979771546887,3.244315766261616,0.3319776445807651,0.029208634048700333,-0.0573982447385788,0.13880479335784912,-0.4887663078680634,-0.20632444951683285,-9.935651986598971
44.2,4.599999904632568,79.0,21.411319732666016,21.65267944335937,-79.78247853648091,40.45909940754478,317.885390625,-0.02391903661191464,0.0177280455827713,-0.5277906656265259,0.8488525748252869,-0.14943204916411618,3.2594887928999,0.34593094731077656,-0.011836310848593712,-0.025930611416697502,0.08612774312496185,-0.5604010584577919,-0.05726990960072726,-9.836793111562727
44.31,4.5,78.0,21.4238395690918,22.52737617492676,-79.78247514341237,40.45910083154462,317.90074859619136,-0.025305861607193947,0.015219436958432198,-0.5274807214736938,0.849053680896759,-0.14441369203191307,3.270603732840069,0.3461154660760544,-0.08506444841623306,0.04732496291399002,0.0032210929784923788,-0.3849793629348278,0.25695696992799644,-9.790462698340416
44.5,4.400000095367432,76.0,21.40005111694336,22.495569229125977,-79.78246832826683,40.45910381571176,317.95739685058595,-0.0243498757481575,0.013413270935416222,-0.5258942246437073,0.8500956296920776,-0.13941091311267442,3.303639069728985,0.33501547963727824,-0.051976777613162994,0.02265917882323265,-0.10295158624649048,-0.3534944820776582,0.2283702797815204,-9.843304570913316
44.61,4.300000190734863,75.0,21.334943771362305,22.69436264038086,-79.78246481900703,40.459105298395436,318.00927673339845,-0.024338312447071075,0.013579524122178556,-0.5254685878753662,0.85035640001297,-0.11612459737290792,3.330630877056274,0.352377283954738,-0.017698876559734344,-0.00046764599392190576,0.05955805256962776,-0.3807721816375852,-0.08891111668199303,-9.89960974931717
44.8,4.300000190734863,76.0,21.3061466217041,24.165441513061523,-79.78245785326483,40.459108179614645,318.04486404418947,-0.02357467077672481,0.015782568603754044,-0.5242756605148315,0.8510759472846985,-0.10158262802294868,3.3612725828600265,0.3803135842048681,0.06361507624387741,0.0060328044928610325,-0.021260101348161697,-0.39196517765521993,-0.02260911584598944,-9.918757041692736
44.91,4.199999809265137,75.0,21.401302337646484,22.73412132263184,-79.78245089647253,40.45911118926326,318.13027130126954,-0.025287879630923268,0.01078586932271719,-0.5187664031982422,0.8544738888740541,-0.0932102360715872,3.3828847040798182,0.4328893553649159,-0.05127744376659393,0.05072832107543945,-0.13725857436656952,-0.4340174024552107,0.07062874627299608,-9.978343677520751
45.1,4.199999809265137,75.0,21.4138240814209,21.461837768554688,-79.78244731064386,40.4591127428691,318.1905931091309,-0.02750980481505394,0.00780016928911209,-0.5161659717559814,0.8560110926628113,-0.07651935394859416,3.408392174841996,0.4527929666336201,-0.06983253359794618,-0.04416538029909134,-0.19723312556743625,-0.4480621586367488,0.2463100673072041,-9.898032170534137
45.2,4.300000190734863,73.0,21.468914031982425,20.444011688232425,-79.78244376088466,40.45911423363437,318.2172692871094,-0.027965132147073742,0.008785751648247242,-0.5149996280670166,0.8566890954971313,-0.047484200499983836,3.423278245715525,0.4574102961053834,0.051099542528390884,0.05313946306705475,0.02986112236976624,-0.42755864113569264,0.041862103496678175,-9.805810469985008
45.4,4.300000190734863,73.0,21.456392288208008,19.58521842956543,-79.78243657474556,40.45911728474729,318.309089050293,-0.029071947559714317,0.018875306472182274,-0.5160686373710632,0.8558456897735596,-0.06465454633510229,3.4550268100090293,0.4620282091668506,0.06637567281723022,-0.04600401222705841,-0.04320545867085457,-0.3411974586546421,0.10789956578984858,-9.636252910494807
45.5,4.400000095367432,72.0,21.522750854492188,18.81389617919922,-79.78243297497484,40.45911881433165,318.3320916748047,-0.03095497004687786,0.02110383473336697,-0.5167532563209534,0.8553142547607422,-0.07712815658609892,3.482016322806976,0.454511572749273,-0.00475255073979497,0.0010580598609521985,0.021382223814725883,-0.4492113923281432,-0.013526057903654874,-9.397832692265512
45.7,4.400000095367432,72.0,21.53902816772461,19.100160598754886,-79.78242567898587,40.4591220071343,318.4118493652344,-0.031100085005164143,0.020507518202066415,-0.5188588500022888,0.8540478944778442,-0.0971911435124274,3.529259558676393,0.3831883816026559,0.021709900349378586,-0.0077822497114539155,-0.03439589962363243,-0.4381665135920048,-0.0690214563254267,-9.239494770169259
45.8,4.400000095367432,71.0,21.436359405517575,20.595094680786133,-79.78242200934748,40.459123565893115,318.42008911132814,-0.03131168708205223,0.02212585136294365,-0.5209304094314575,0.8527377843856812,-0.09702104386075333,3.5509125434419464,0.3068552793173863,0.10610537976026536,0.030537050217390064,0.0012505650520324707,-0.5185624032095075,-0.02995497287018225,-9.069918499588967
46.0,4.5,71.0,21.427595138549805,20.420154571533203,-79.78241461061458,40.45912670193571,318.4800218200684,-0.025102626532316208,0.019245684146881104,-0.5240510106086731,0.8510993123054504,-0.12572050973800364,3.5849690397404506,0.2541939423821344,-0.04786892980337143,0.053704310208559036,0.07075566798448563,-0.4079440831393004,0.16620264641940596,-9.356977611780168
46.1,4.5,71.0,21.491451263427734,19.47389411926269,-79.78241095284943,40.45912824928927,318.537001953125,-0.02219524048268795,0.019109880551695824,-0.5249735116958618,0.8506145477294922,-0.12064914592244727,3.6029999242516313,0.22946986081587034,-0.015903839841485023,0.035803429782390594,-0.01863625645637512,-0.25155542174354195,0.2303621703386307,-9.440493977665902
46.3,4.599999904632568,72.0,21.467660903930664,20.80183982849121,-79.78240343895966,40.459131361954505,318.529303894043,-0.02399669401347637,0.023273902013897896,-0.5258830189704895,0.8498997092247009,-0.1139448387990093,3.640480946582372,0.13000670569638384,-0.04093837738037109,-0.00154110009316355,-0.12329348176717758,-0.18974342700093985,0.13443798542954027,-9.423856894969939
46.4,4.699999809265137,72.0,21.510231018066406,20.181602478027344,-79.78239582763291,40.45913451665947,318.5690721130371,-0.03182247281074524,0.021491510793566704,-0.5251706838607788,0.8501301407814026,-0.10640424788905772,3.676342668720935,0.17176336388532915,-0.042300254106521606,0.0062149357981979856,-0.05283428356051445,-0.3554313722625375,0.029107496619690205,-9.489908212423325
46.6,4.699999809265137,71.0,21.41883087158203,20.68256378173828,-79.78239201146803,40.45913610951383,318.63243804931636,-0.033411353826522834,0.01890404522418976,-0.5243692994117737,0.850625216960907,-0.09642776486281993,3.6930016937000025,0.26217869530581284,-0.04168502986431122,0.1400417685508728,0.02573869563639164,-0.4188516253978014,-0.0584892002446577,-9.845217779874805
46.7,4.800000190734863,71.0,21.433856964111328,20.833646774291992,-79.78238814239081,40.45913768629089,318.630622253418,-0.0319305881857872,0.015976302325725555,-0.5237683653831482,0.8511121869087219,-0.0920828074455052,3.721799448931888,0.27056148418197673,0.02784017473459244,0.09746906906366347,0.013972971588373184,-0.5288007316365838,-0.053632909487932916,-9.875307551622393
