time,wind_speed,wind_angle,battery_voltage,battery_current,position_x,position_y,position_z,orientation_x,orientation_y,orientation_z,orientation_w,velocity_x,velocity_y,velocity_z,angular_x,angular_y,angular_z,linear_acceleration_x,linear_acceleration_y,linear_acceleration_z
0.0,2.200000047683716,165.0,25.60694122314453,-0.03180709481239319,-79.78279413601746,40.4589590506744,271.04492219257355,0.002154184505343437,0.01305390428751707,-0.8535029888153076,0.5209200382232666,0.00276563301590986,-0.019374879917607224,0.001246286311058933,0.006851854268461466,0.002808164805173874,0.005744645837694407,-0.2266722118109465,-0.17820199174806475,-9.808882597088814
0.2,2.200000047683716,171.0,25.62071418762207,-0.02385532110929489,-79.78279413252422,40.45895905228042,271.0415401058197,0.0021513788960874076,0.013060243800282478,-0.8534820675849915,0.5209542512893677,0.002352899882488013,-0.013326534443760595,0.0011698110725655935,-0.0010292711667716503,-0.002787775592878461,-0.0056061120703816405,-0.2260546727478505,-0.1826872995123268,-9.807251223921776
0.3,2.200000047683716,171.0,25.615705490112305,-0.015903547406196594,-79.78279418324684,40.45895907069266,271.0383699731827,0.0021557549480348825,0.013072355650365351,-0.8534514307975769,0.5210040211677551,0.002531109196428113,-0.01939733431226817,0.0010409002053087268,-0.0039080330170691005,4.026898386655376e-05,0.0017981730634346609,-0.22385162461549046,-0.17959284335374834,-9.807490375041963
0.5,2.0999999046325684,175.0,25.62071418762207,-0.02385532110929489,-79.7827942061655,40.458959077728615,271.0385378198624,0.0021704784594476227,0.013066825456917286,-0.8534290194511414,0.5210407376289368,0.000904502797993802,-0.022300058672585568,0.0016298355432846445,2.6910882297670472e-05,-0.003282479243353009,-0.006100459489971399,-0.2258779223822057,-0.17336616167798638,-9.808641107082368
0.6,2.0,176.0,25.62071418762207,-0.02385532110929489,-79.78279419947978,40.45895908648545,271.03451104927063,0.0021649780683219433,0.01311378926038742,-0.8533974289894104,0.5210914015769958,-0.0024518549204277,-0.013536913125211693,-0.0008725390364795588,-0.007896094582974909,-0.0029223458841443053,-0.007355277892202139,-0.22418959368020291,-0.19320720791816712,-9.810035083293917
0.8,2.0,176.0,25.621965408325195,-0.007951773703098297,-79.78279421286739,40.45895909366206,271.03447683620453,0.0021877398248761892,0.01313229463994503,-0.8533934950828552,0.5210973024368286,-0.002664271585546877,-0.016231522295310673,-0.0005005151914641242,0.004963903222233057,-9.152690472546964e-05,0.005987046286463738,-0.2233850350789726,-0.19283576354384424,-9.81101975440979
0.9,2.0,178.0,25.62071418762207,-0.02385532110929489,-79.78279424242326,40.458959076018466,271.0315510826111,0.0022262537386268373,0.01314252521842718,-0.8533554077148438,0.5211591720581055,0.005800162070003717,-0.014309177845674531,0.0005708027360532942,0.006657256744801997,-7.499381172237918e-05,0.003919215872883797,-0.2249918133951724,-0.181909364014864,-9.808215429782868
1.1,2.0999999046325684,177.0,25.61820983886719,-0.015903547406196594,-79.78279426044746,40.458959078025984,271.0316559867859,0.002230068668723107,0.013159360736608505,-0.8533385396003723,0.5211864113807678,0.003657705608476685,-0.016865089637440843,0.0010659690560678127,-0.0036015608347952366,-0.0012998085003346205,-0.0021775802597403526,-0.2265275480411947,-0.18975422607734804,-9.80893873035908
1.21,2.0999999046325684,177.0,25.61946105957031,-0.02385532110929489,-79.78279425832733,40.45895909724767,271.02609237003327,0.0022186741698533297,0.013162965886294842,-0.8533111214637756,0.5212312340736389,-0.0007770082287520044,-0.014553262150885031,-0.0030988101180390824,0.00025899888714775443,-0.0017345532542094588,0.002596160862594843,-0.2256712598539889,-0.18106308918446304,-9.808021886944774
1.4,2.0999999046325684,177.0,25.61946105957031,-0.03180709481239319,-79.78279426960607,40.45895910846935,271.02153952884674,0.0022043404169380665,0.013171863742172718,-0.8532942533493042,0.5212587714195251,-0.000331397686619258,-0.015203096333627191,-0.00526541887662839,-0.002305047586560249,0.0012794920476153493,-0.005112555343657732,-0.22455882707610728,-0.17331870786845685,-9.806861214637756
1.51,2.0999999046325684,174.0,25.61820983886719,-0.03180709481239319,-79.78279430485189,40.458959125066244,271.020657737732,0.002208645222708583,0.013193831779062748,-0.8532686829566956,0.5212998986244202,-0.003320008414688657,-0.02050014938809181,-0.004257232769819529,-0.010382993146777151,-0.0017617259873077273,-0.008600090630352497,-0.22423591459169984,-0.19530098620802164,-9.810672429800034
1.7,2.0999999046325684,175.0,25.611949920654297,-0.03180709481239319,-79.78279428446727,40.458959122477935,271.01798589992524,0.0021926360204815865,0.013211286626756193,-0.8532530069351196,0.5213253498077393,-0.0018629494755980128,-0.01365861507495628,-0.0027465450914974433,0.003885637735947967,0.0007785414927639067,0.006693186704069376,-0.22146957859396926,-0.19452908065170046,-9.809932757019997
1.81,2.0999999046325684,172.0,25.613201141357425,-0.007951773703098297,-79.7827943012202,40.45895911343124,271.01369508075715,0.0022007324732840057,0.013259077444672585,-0.8532189130783081,0.521379828453064,0.003689612704047865,-0.01334430688323758,-0.005308973341122147,0.009459522552788258,0.005605937447398901,0.004326821304857731,-0.2237821523845196,-0.17639039643108845,-9.806849520206452
1.91,2.0999999046325684,168.0,25.61445426940918,0.03180709481239319,-79.78279431760845,40.45895911758261,271.01321943569184,0.0021973010152578354,0.013255208730697632,-0.8531996607780457,0.5214112997055054,0.0010230623221417683,-0.015675196436452356,-0.004670503146198023,-0.00850460398942232,-0.0029973627533763647,-0.004747670609503985,-0.2243721364438534,-0.18305786680430167,-9.809185482859613
2.1,2.200000047683716,170.0,25.61946105957031,-0.02385532110929489,-79.78279433530726,40.458959104938494,271.00897987651825,0.0021940134465694427,0.013297841884195805,-0.8531622290611267,0.5214716792106628,0.0046839751133901505,-0.014360234746278953,-0.006454480478728968,-0.003531223628669977,-0.0016599401133134961,-0.0008772859000600874,-0.22240114968270064,-0.1887833507359028,-9.809415278434754
2.3,2.200000047683716,174.0,25.61946105957031,-0.015903547406196594,-79.78279435340593,40.45895910734429,271.0083802537918,0.002216980094090104,0.013312941417098044,-0.8531513810157776,0.5214887857437134,0.004133502860830296,-0.016688848961714436,-0.006070952730646661,0.0031097140163183212,0.0032017058692872524,0.0008601858280599117,-0.22418272320181126,-0.1808589117228985,-9.807469325065613
2.41,2.200000047683716,175.0,25.61695671081543,-0.02385532110929489,-79.78279434291285,40.45895911326699,271.0036036567688,0.0021774843335151672,0.013319826684892178,-0.8531240820884705,0.5215335488319397,-0.0007433903065584442,-0.013346822183450246,-0.00707085007760289,-0.003393096849322319,-0.0006998516619205475,-0.005063268356025219,-0.2218256557546556,-0.1938675230182708,-9.809885394573213
2.6,2.0999999046325684,177.0,25.615705490112305,0.08746951073408127,-79.78279435706361,40.45895911962985,271.00295158195496,0.0021694509778171773,0.013329806737601757,-0.8531137108802795,0.5215502977371216,-0.0013923332698820587,-0.015810901686465546,-0.006639076709125039,0.0005525333690457046,0.00509908189997077,0.0022354761604219675,-0.2234314108081162,-0.1945425840653479,-9.809448022842409
2.7,2.0999999046325684,174.0,25.61445426940918,0.07951773703098297,-79.78279435646276,40.45895909621707,270.9988770084381,0.00215598801150918,0.013353772461414335,-0.853087306022644,0.5215928554534912,0.00258023834544128,-0.012542318519066105,-0.006626556399621414,0.007911098189651966,0.0031123405788093805,0.0024075740948319435,-0.2269880710914731,-0.1707273497991264,-9.806901560425759
2.9,2.200000047683716,175.0,25.613201141357425,0.007951773703098297,-79.7827943397281,40.45895909189394,270.99690254497534,0.002132783411070705,0.013358720578253273,-0.8530731797218323,0.5216159820556641,-0.0007986974168925671,-0.009332249863758676,-0.003490016288992723,-0.004374298732727766,-0.002299661282449961,-0.006357797421514988,-0.2236505900323391,-0.18095860674977304,-9.807654681801797
3.01,2.299999952316284,171.0,25.61069679260254,0.04771064221858978,-79.78279436213165,40.45895910337757,270.99633570480347,0.0021439993288367987,0.013360888697206974,-0.8530547618865967,0.5216459631919861,-0.002866404606528843,-0.013763401240446992,-0.002575985444183741,-0.0008112851064652206,-0.0004631914780475199,-0.000207216595299542,-0.2242902023345232,-0.1847913835197688,-9.808686715364457
3.2,2.799999952316284,169.0,25.60944557189941,0.08746951073408127,-79.7827943621169,40.45895907776941,270.9925686912537,0.002170346211642027,0.013380764052271843,-0.8530450463294983,0.5216612219810486,0.002607391774138293,-0.01227075691884476,-0.005141609823453769,0.0006073890835978091,-0.003037682035937905,-0.00214454485103488,-0.22450389979407195,-0.1742637092806399,-9.807429563999175
3.3,2.9000000953674316,167.0,25.613201141357425,0.06361418962478638,-79.78279435214102,40.45895905715643,270.99015506076813,0.0021594027057290077,0.013438547030091286,-0.8530201911926271,0.5217005610466003,0.002868805857209753,-0.008440232752906288,-0.00231613460040591,-0.007564529776573181,-0.0021347415167838326,-0.008685007691383362,-0.22263410640880466,-0.1962695409357548,-9.809850896000864
3.5,3.0999999046325684,167.0,25.60443687438965,0.15903547406196594,-79.7827943637683,40.45895905881826,270.98995288181305,0.0021553188562393197,0.01344419177621603,-0.853001058101654,0.5217317342758179,0.00298859549601878,-0.010710713024394265,-0.002031789505221504,0.005640554241836071,0.00022983257076703007,0.006958029232919214,-0.2239610040932894,-0.1928421406634152,-9.809355052113533
3.6,3.0,163.0,25.611949920654297,0.05566241592168808,-79.78279437412012,40.45895903837704,270.986493309021,0.0021625796798616648,0.013477392494678496,-0.8529788255691528,0.5217671394348145,0.004467323002856728,-0.012024673440683337,-0.003904609712715512,0.004165372345596553,-0.002460969612002373,-0.0007479496416635811,-0.2225460509955883,-0.1871830043569208,-9.809093096852305
3.8,3.0999999046325684,160.0,25.60569000244141,0.02385532110929489,-79.78279438942758,40.45895903983812,270.98615737724305,0.00215496146120131,0.013513121753931046,-0.8529681563377379,0.521783709526062,0.003513361868822817,-0.01422415005356345,-0.003274024509621865,0.0005902854027226567,0.0021992933470755816,0.003844734514132142,-0.2266403262130917,-0.19269544864073399,-9.810550807714463
3.91,3.2000000476837163,162.0,25.60694122314453,0.03180709481239319,-79.78279437755224,40.45895901639529,270.9822526769638,0.0021644942462444305,0.01350802555680275,-0.8529322743415833,0.5218424201011658,0.0045821017860175756,-0.009673483917866585,-0.005332568764129645,0.005426447372883557,0.003064584219828248,0.0031827078200876713,-0.2248522659391165,-0.17027397131547334,-9.808840497136117
4.1,3.299999952316284,156.0,25.60569000244141,0.039758868515491486,-79.7827943902055,40.4589590172917,270.981764038086,0.0021514904219657183,0.01353461667895317,-0.8529199957847595,0.5218619108200073,0.00248602867575156,-0.0115204781576873,-0.004768327033964622,-0.008541979826986791,-0.0017366413958370686,-0.007056919392198323,-0.2247962605766952,-0.18013071410357953,-9.807574574947358
4.21,3.299999952316284,155.0,25.60944557189941,0.07156596332788467,-79.78279440272733,40.458958988265394,270.977753241539,0.0021467260085046287,0.013557220809161665,-0.8529070615768433,0.5218824148178101,0.005246563956929054,-0.012706886604727338,-0.005980792251319394,-0.00375970802269876,0.0004226770543027669,0.002265960210934281,-0.2247550011612475,-0.18469139613211155,-9.808438208699226
4.41,3.4000000953674316,159.0,25.61069679260254,0.04771064221858978,-79.78279436200165,40.458958937762986,270.9759727315904,0.002164603676646948,0.013599268160760404,-0.8528960347175598,0.5218991041183472,0.010827690263969302,-0.0018949923370649802,-0.0032546848528377595,0.0003566626983229072,0.0021134631242603072,1.2010911632387433e-05,-0.2247979599237442,-0.1797248807922006,-9.809291317462922
4.51,3.299999952316284,161.0,25.608192443847656,0.02385532110929489,-79.78279437977355,40.45895892463471,270.97540231513983,0.002140047727152705,0.013578920625150205,-0.8528622388839722,0.5219550132751465,0.00857046859342121,-0.00544013848889175,-0.0023072893437553173,-0.003004793543368578,-0.002576198894530535,-0.004450900945812464,-0.22184208277612927,-0.19485838852822784,-9.809678403139117
4.7,3.299999952316284,167.0,25.61069679260254,0.02385532110929489,-79.7827943740358,40.45895891677211,270.97234006690985,0.002133112167939544,0.013578725047409534,-0.8528497815132141,0.5219754576683044,0.005217580329688288,-0.009360244140007322,-0.003996501424621499,0.007393541745841503,0.002646695589646697,0.006402774248272181,-0.2217774710431695,-0.1961809008009732,-9.809301842451095
4.81,2.799999952316284,164.0,25.603185653686523,0.05566241592168808,-79.78279435935097,40.45895885425897,270.9685661392212,0.0021537481807172303,0.013617824763059616,-0.8528170585632324,0.522027850151062,0.013464188051314762,-0.0020961529075724486,-0.005599211570222575,0.010083749890327457,0.0025517037138342857,0.0044742501340806476,-0.2268590668961405,-0.17550905657932164,-9.80762836933136
5.0,2.799999952316284,161.0,25.61445426940918,0.04771064221858978,-79.7827943691856,40.45895884572865,270.96801694202424,0.002147657098248601,0.013605977408587929,-0.8527881503105164,0.5220754146575928,0.01138183781043173,-0.003801130397965167,-0.005066480538384978,-0.003955890890210867,-0.0012298390502110126,-0.0058210464194417,-0.22401854434981944,-0.1839489459246397,-9.808795473575593
5.11,2.799999952316284,164.0,25.61445426940918,0.07156596332788467,-79.78279432997006,40.45895873532715,270.96273871231085,0.002143592108041048,0.013665669597685335,-0.8527498245239258,0.5221364498138428,0.023338129131246343,0.007835644822331088,-0.0075936557421805,0.0004381038888823241,0.0013961477670818567,0.0020783899817615747,-0.22321462528780106,-0.1806388188712299,-9.807563465237617
5.3,2.9000000953674316,169.0,25.61069679260254,0.06361418962478638,-79.78279433419557,40.458958713928325,270.96194930839545,0.0021287878043949604,0.013664918951690195,-0.8527491688728333,0.5221375823020935,0.02176391530023466,0.006290003186966178,-0.0070695802921658295,-0.0037978442851454015,-0.0011846184497699142,-0.0065417601726949215,-0.2252813602052629,-0.17279483389109376,-9.806520321965216
5.4,2.9000000953674316,170.0,25.613201141357425,0.05566241592168808,-79.78279439850606,40.45895868455636,270.95569833087916,0.002099326578900218,0.013620744459331036,-0.8527275323867798,0.5221742987632751,0.01880068208223769,-0.010513306653690598,-0.010733001830433004,-0.004762043710798025,-0.0035981221590191135,-0.00189479545224458,-0.223116519972682,-0.19406314892694354,-9.809481351971627
5.6,2.9000000953674316,166.0,25.613201141357425,0.05566241592168808,-79.78279442043458,40.458958673308906,270.9546339111328,0.0021077885758131747,0.013647635467350485,-0.8527259826660156,0.5221759676933289,0.018597177716664727,-0.012360709021490349,-0.010293787604166296,0.004157595336437225,0.002341871149837971,-0.0001999147643800825,-0.22558161472901705,-0.1825170724466443,-9.80895451784134
5.71,2.799999952316284,164.0,25.60944557189941,0.05566241592168808,-79.78279439080913,40.45895865364493,270.950707157135,0.0020960448309779167,0.013640756718814371,-0.8526904582977295,0.5222342610359192,0.008111142200387592,-0.010499181087458044,-0.00939342689265876,-0.0043909046798944465,0.002333521842956543,-0.009619097225368023,-0.22329162580892445,-0.19629386169835927,-9.809698868393898
5.9,2.799999952316284,164.0,25.61820983886719,0.0,-79.78279435170042,40.458958587359376,270.9479807214737,0.002094933530315757,0.013660456053912641,-0.8526847362518309,0.5222430825233461,0.012787689923007613,-0.002761935838985317,-0.009194220849648159,0.007906719110906124,0.001195543329231441,0.0057728071697056285,-0.22169586583971976,-0.19026324447244405,-9.809857912659645
6.0,2.799999952316284,164.0,25.61445426940918,-0.03180709481239319,-79.78279437278776,40.45895857253275,270.946223695755,0.002086835680529475,0.013672566972672941,-0.8526679277420044,0.5222702622413635,0.010158740671327358,-0.0060288373795947285,-0.00827345618915828,-0.0015376799274235964,-0.0016235788352787495,-0.003686139592900872,-0.22336811469867826,-0.19132402075454594,-9.809687173962594
6.2,2.5999999046325684,163.0,25.62071418762207,-0.007951773703098297,-79.78279436999023,40.458958554551,270.9435518579483,0.002069702371954918,0.013647498562932014,-0.8526422381401062,0.5223127603530884,0.006655167918982479,-0.0128934411302095,-0.008694440206581621,0.006190938875079155,0.000382901489501819,0.0024425750598311424,-0.22434436216950412,-0.19607431702315808,-9.809580754637716
6.3,2.700000047683716,162.0,25.61820983886719,-0.007951773703098297,-79.78279435959341,40.458958514884884,270.93971939849854,0.00208266219124198,0.013674010522663592,-0.8526173830032349,0.5223526358604431,0.004839540330416203,-0.012703955794760977,-0.008962156850954917,0.007710521575063467,0.0030980217270553108,0.0053506619296967975,-0.22720092801377176,-0.1757520266622305,-9.807390387654305
6.5,2.5999999046325684,166.0,25.60569000244141,-0.039758868515491486,-79.78279437592192,40.45895851760845,270.93887015151984,0.002081564161926508,0.01367211528122425,-0.8525977134704591,0.5223848223686218,0.0026510548368138607,-0.014274131334262653,-0.008446057277506072,-0.0059361369349062425,-0.002129283035174012,-0.006119762547314167,-0.22550307931378485,-0.1828975251875818,-9.808227708935737
6.61,2.5,170.0,25.61445426940918,-0.015903547406196594,-79.78279433802189,40.4589584619917,270.93680413532263,0.002069271868094802,0.013704691082239151,-0.8525617718696594,0.522442638874054,0.0037431583718885416,-0.008689929294559633,-0.005528275214354929,-0.0031133668962866072,-0.0006113127456046643,0.00012668411363847554,-0.22512613490223884,-0.18543112372979528,-9.809818151593207
6.8,2.4000000953674316,165.0,25.611949920654297,-0.015903547406196594,-79.78279434946715,40.458958462670175,270.93628390598303,0.002063593361526728,0.01370288711041212,-0.8525463938713074,0.5224678516387941,0.0031739304790553077,-0.010399241709227977,-0.0051052481532414175,0.0011146521428599954,0.0032645994797348976,-7.016447489149868e-05,-0.22496822353452445,-0.17935546467080712,-9.806898052096367
6.9,2.5,165.0,25.61946105957031,-0.007951773703098297,-79.78279430927695,40.45895838757088,270.93284602928156,0.002051179762929678,0.013722059316933157,-0.8525223731994629,0.522506594657898,0.007497149255794019,-0.0043401628885555415,-0.006217710936933713,-0.0021978276781737804,-0.0004691549693234265,-0.005565270315855742,-0.22394839603453875,-0.19238222060725094,-9.808414819836617
7.1,2.299999952316284,164.0,25.61820983886719,-0.007951773703098297,-79.78279431824723,40.458958383203736,270.932247956276,0.002030986594036221,0.013722981326282023,-0.8525064587593079,0.5225327610969543,0.0069988347544541855,-0.00574013962641752,-0.005776837347003,0.001571380766108632,-0.0027270738501101732,0.002493952633813024,-0.2196224431693554,-0.1956370914727449,-9.80893697619438
7.2,2.4000000953674316,166.0,25.61695671081543,-0.015903547406196594,-79.78279430368467,40.458958323500035,270.92888148593903,0.0020332057029008865,0.013734195381402971,-0.8524901270866394,0.5225590467453003,0.008402925131918435,-0.00802203051895941,-0.006754177159143365,0.006241649854928255,0.004475378897041082,0.004533547442406416,-0.22449132828041912,-0.1718921151570976,-9.806046697497367
7.4,2.4000000953674316,170.0,25.61695671081543,-0.015903547406196594,-79.78279426905371,40.45895826528104,270.9281825618744,0.0020317863672971725,0.013747429475188257,-0.8524841666221619,0.5225683450698853,0.009025626043243877,-0.007124759028745454,-0.0031962001028929977,-0.010209230706095695,-0.0031157084740698338,-0.007109100930392742,-0.22347926661372186,-0.17444764075800778,-9.806695153713227
7.5,2.299999952316284,170.0,25.615705490112305,-0.039758868515491486,-79.78279429637844,40.45895825833633,270.927638133049,0.0020371016580611467,0.01372581347823143,-0.8524573445320129,0.5226126313209534,0.00703358059155387,-0.010179320849232357,-0.0022116057188361284,-0.0042614005506038674,-0.0022637245710939173,-0.006721240933984518,-0.2210598349571228,-0.19553997287526728,-9.810485318899156
7.7,2.299999952316284,170.0,25.61820983886719,-0.015903547406196594,-79.78279424679633,40.45895820423864,270.9253949718476,0.0020313584245741367,0.013726487755775452,-0.8524367213249207,0.522646427154541,0.007861059357507949,-0.007501401476580572,-0.004037012725297835,0.00848599337041378,0.003432837314903736,0.005245499778538942,-0.22625424552708864,-0.1925025818869472,-9.810102910995484
7.81,2.299999952316284,170.0,25.61445426940918,-0.015903547406196594,-79.78279422319673,40.45895814176952,270.922918756485,0.0020464775152504444,0.013741466216742992,-0.8524124026298523,0.5226854681968689,0.009773123784887124,-0.007868852848887432,-0.006106663462737278,0.006316839251667261,0.0019200354581698773,0.003166931215673685,-0.2265603289939463,-0.1823160744085908,-9.809779559969902
8.0,2.299999952316284,168.0,25.61445426940918,-0.015903547406196594,-79.78279423694481,40.45895813851133,270.9223414258957,0.0020428418647497892,0.013733738102018831,-0.8523919582366943,0.5227191448211671,0.007652795309984261,-0.009312498100336951,-0.005569720368785092,-0.006389094050973654,-0.00012800756667274982,-0.006053922697901726,-0.2252673817053437,-0.18118697706609965,-9.808220692276953
8.1,2.4000000953674316,167.0,25.615705490112305,-0.02385532110929489,-79.78279419138158,40.45895807483984,270.9200447397232,0.002009093528613448,0.013750407844781877,-0.8523647785186768,0.5227631330490112,0.0064946886778556355,-0.005155344490694477,-0.0067485463359643035,-0.004958132281899452,-0.0025995690375566483,-0.002215392887592316,-0.2237977571412921,-0.1854911855980754,-9.80800726890564
8.3,2.5,167.0,25.61695671081543,-0.015903547406196594,-79.78279420088172,40.45895807177811,270.91938944625855,0.002021581633016467,0.01374227274209261,-0.8523649573326111,0.5227630138397217,0.006482814181394761,-0.006726596698734474,-0.006355490998441874,0.005119359586387873,0.0023530309554189444,0.004760606214404106,-0.22560664812102915,-0.1843584885634482,-9.80892118871212
8.4,2.5,167.0,25.615705490112305,-0.03180709481239319,-79.78279413083486,40.458957989836094,270.91711886692053,0.001993790268898011,0.013775085099041462,-0.8523345589637756,0.5228118896484375,0.0072359845243632455,0.0009164490504971656,-0.00673898906690405,0.0002373876341152936,0.0011673816479742527,0.004466892685741186,-0.2272408718056977,-0.1879711724817753,-9.808575033545496
8.6,2.5,168.0,25.61695671081543,-0.02385532110929489,-79.78279413380598,40.45895798418177,270.9164548711777,0.002000077860429883,0.013780727051198484,-0.8523200154304504,0.5228353142738342,0.005682147394372086,-0.0004172591635628808,-0.006224654472040781,-0.007284043822437525,8.689516835147515e-05,0.0007280825520865619,-0.2259186884388328,-0.1948095277324319,-9.810812762975694
8.7,2.5,167.0,25.61445426940918,-0.039758868515491486,-79.78279408589984,40.45895793307496,270.9148118095398,0.0019983097445219755,0.01378809567540884,-0.8523026704788208,0.5228633880615234,0.002784838004283334,-0.002686227779074525,-0.006124055139295127,-0.00010070410644402729,2.861567190848291e-05,0.003132196143269539,-0.22659597873687745,-0.17839460268616678,-9.809249217510224
8.9,2.5,167.0,25.61820983886719,-0.015903547406196594,-79.7827940324373,40.4589578567937,270.9140402870178,0.001991368131712079,0.013808629475533962,-0.8522966504096985,0.5228726863861084,0.008091746835570256,0.001258324035182962,-0.006963526555479061,0.0004103710816707462,0.0007647041929885745,-0.006348730064928532,-0.22741089787334204,-0.17194876005873086,-9.807515518069268
9.02,2.5,167.0,25.613201141357425,-0.03180709481239319,-79.78279404004357,40.45895784455215,270.9127046661377,0.002013530815020204,0.013807251118123531,-0.852280855178833,0.5228983759880066,0.005916888976323193,-0.0011351074037293934,-0.006124215165972925,-0.0032290255185216665,-0.003422503126785159,-0.006759678013622761,-0.22502097638323906,-0.19484495820477607,-9.810907487869263
9.2,2.5,167.0,25.62822532653809,0.04771064221858978,-79.78279400229816,40.45895779903311,270.91408129501343,0.0020068178419023752,0.013795034028589724,-0.8522732853889465,0.5229111313819885,0.005528292921087749,-0.005337335880685253,-0.003244609222281776,0.008671016432344912,-0.0019243869464844465,0.005355266854166985,-0.221738733239472,-0.1936766479723156,-9.80951292693615
9.31,2.4000000953674316,166.0,25.61445426940918,-0.007951773703098297,-79.78279394818556,40.45895772795743,270.91317959594727,0.00203137774951756,0.013817684724926949,-0.8522456288337708,0.5229554176330566,0.006501178049906914,-0.0020035617849836857,-0.00567016887437225,0.0031146765686571602,0.0018472556257620454,0.006549156270921229,-0.22333864107728005,-0.18140553502365947,-9.8076663762331
9.51,2.4000000953674316,166.0,25.613201141357425,-0.03180709481239319,-79.78279395390504,40.45895772484524,270.91263337898255,0.002016896847635508,0.013808505609631537,-0.8522323966026306,0.5229772925376892,0.004404902284291922,-0.0033670451558701357,-0.0052431441387978785,-0.006078732665628196,-0.0022939029149711128,0.0004783616459462792,-0.2269806524366141,-0.1883655671775341,-9.808660987615584
9.6,2.4000000953674316,166.0,25.615705490112305,-0.02385532110929489,-79.78279392287695,40.458957671613895,270.9136503534317,0.001982581336051225,0.013814860954880714,-0.8522078394889832,0.5230173468589783,0.0029836260877837725,-0.006544492705901815,-0.003119296951057734,-0.0024731457233428955,-0.0004124979313928634,0.0020317884627729654,-0.2248759837076068,-0.18221778636798264,-9.80864929318428
9.8,2.200000047683716,167.0,25.61695671081543,-0.02385532110929489,-79.78279393166522,40.45895767199608,270.9133604364395,0.0019956675823777914,0.013821460306644441,-0.8522079586982727,0.5230169296264648,0.002315888918360097,-0.007933197346200694,-0.0027865368905340285,4.907259062747471e-05,0.0005794173921458423,-1.9863175111822784e-05,-0.2227711322531105,-0.1760224238410592,-9.808002006411552
9.9,2.200000047683716,167.0,25.61069679260254,-0.02385532110929489,-79.78279388359887,40.458957602974074,270.91511472034455,0.0019850563257932663,0.013843324966728687,-0.8521780371665955,0.5230650901794434,0.002654583097426424,-0.004964924700067428,-0.0007410865295192527,-0.003871731925755739,-0.0037575878668576475,-0.0036638828460127115,-0.2231842197664082,-0.19396729113534086,-9.808242326974868
10.1,2.200000047683716,168.0,25.613201141357425,-0.015903547406196594,-79.78279389065143,40.4589576023246,270.91506298351294,0.001978932879865169,0.0138750858604908,-0.8521645665168762,0.5230861902236938,0.0027154121220495666,-0.006266605027169856,-0.0004492872910389057,0.0034518102183938018,0.002687804400920868,0.004208756610751152,-0.22408089028671385,-0.1967103296332061,-9.80976143360138
10.2,2.0999999046325684,168.0,25.61695671081543,-0.007951773703098297,-79.78279386594785,40.45895752926824,270.9171912269593,0.0019730536732822657,0.013902862556278706,-0.8521468043327332,0.5231145024299622,0.006796074995067368,-0.007452251887830785,0.0009429344168797953,0.0050213965587317935,0.0012059579603374009,0.003228263230994344,-0.2261458344943821,-0.17841589020565152,-9.807220818400383
10.41,2.0999999046325684,167.0,25.615705490112305,-0.015903547406196594,-79.78279380539128,40.458957431345546,270.9178990917206,0.001967412419617176,0.013938575051724907,-0.8521380424499512,0.5231277346611023,0.01366037921379975,0.0011247088846642519,-0.002573595542028707,-0.006248161196708679,-0.0015742508694529533,-0.0004549200821202248,-0.22466394905000925,-0.18333359956741327,-9.808532348871232
10.51,2.0999999046325684,168.0,25.613201141357425,-0.03180709481239319,-79.78279381930804,40.4589574097857,270.91740902233124,0.0019747449550777674,0.013903018087148666,-0.8521104454994202,0.5231735706329346,0.012385386892976798,-0.0010516944641864416,-0.0017860846023519594,-0.002923467196524143,0.0010597251821309328,-0.0011456662323325872,-0.22369605213403704,-0.1820771060138941,-9.808784948587418
10.7,2.0,168.0,25.61069679260254,-0.04771064221858978,-79.78279376128407,40.45895734685817,270.918554265976,0.001980884931981564,0.013897168450057508,-0.8520995378494263,0.5231915116310121,0.010298908632470108,-9.639095760160914e-05,-0.0037099164812467366,0.0010323678143322468,0.0008910248288884758,-0.004111836664378643,-0.2253569171950221,-0.17185801858082414,-9.807253562808036
10.8,1.8999999761581416,167.0,25.61445426940918,-0.04771064221858978,-79.78279373986294,40.458957284481365,270.92109950351715,0.0019662363920360804,0.013895923271775246,-0.8520646691322327,0.5232484340667725,0.008092389037544499,-0.008268968880461447,-0.0015408498200125912,-0.006763831246644258,-0.004142225719988346,-0.008332649245858192,-0.22363600853830576,-0.1938218599185348,-9.809327570199967
11.0,1.8999999761581416,169.0,25.59817695617676,-0.07951773703098297,-79.78279375369115,40.45895728156457,270.92096181678767,0.001935031614266336,0.013901978731155396,-0.8520539402961731,0.5232658386230469,0.008348651181532699,-0.009639141319786122,-0.0013051446774294394,0.005848787259310485,0.0016751429066061974,0.0028222748078405857,-0.2252203481644392,-0.1924412043951452,-9.809339849352835
11.1,1.8999999761581416,168.0,25.60944557189941,-0.03180709481239319,-79.78279370048789,40.45895719685389,270.9238985376358,0.001953154569491744,0.01393025368452072,-0.8520357012748718,0.5232947468757629,0.010090489188785313,-0.0040315842328105785,0.0005071515732962544,0.0031919621396809816,0.0011209432268515231,0.0008754566661082207,-0.22289003172889352,-0.17824074782431126,-9.80776636362076
11.3,1.8999999761581416,168.0,25.615705490112305,-0.02385532110929489,-79.78279371022273,40.45895719037402,270.9239595727921,0.0019278153777122493,0.013919304125010969,-0.8520159125328064,0.5233272910118103,0.009378380262639293,-0.00498080781159526,0.0009038567920954821,0.0004765323537867517,0.0011725394288077948,-0.0004272919904906303,-0.22174604225903752,-0.19328760713338847,-9.810157874822618
11.41,1.8999999761581416,169.0,25.613201141357425,-0.02385532110929489,-79.78279365217138,40.45895712757103,270.92527421283717,0.0019138907082378864,0.013917239382863043,-0.8519838452339172,0.5233796834945679,0.0053721443119433675,-0.004450394692920036,-0.0017033426321528655,0.004098736215382814,0.004527859855443239,0.005136219318956137,-0.2251678511314094,-0.1716894543170929,-9.808145847916602
11.6,1.7999999523162842,169.0,25.608192443847656,-0.07951773703098297,-79.78279365929981,40.458957125822224,270.9251359300613,0.001917773159220815,0.013911500573158264,-0.8519688248634338,0.5234043002128601,0.003183603189166937,-0.005222524680502587,-0.0011841947545532616,-0.005689909681677818,-0.0009158350876532496,-0.007291759829968214,-0.2230616475082934,-0.179700578302145,-9.807946457862855
11.71,1.7999999523162842,170.0,25.611949920654297,-0.04771064221858978,-79.78279360111564,40.45895703523824,270.92802103328705,0.001921432325616479,0.013922831043601036,-0.8519455194473267,0.5234418511390686,0.0059568718151433355,-0.0027708870078312128,0.0003817962850766475,-0.004700120538473129,-0.0008970042108558117,-0.0006444192258641124,-0.22339870294556025,-0.18974225755780927,-9.808787872195245
11.9,1.7999999523162842,170.0,25.60569000244141,-0.03180709481239319,-79.78279357169045,40.4589569555646,270.9306286172867,0.0019518164917826653,0.013924452476203442,-0.8519374132156372,0.5234548449516296,0.011545621336311436,-0.00819781133630106,0.0007293505891098808,0.003885386511683464,-0.0005832253373228014,0.0021445455495268106,-0.2252044327743352,-0.1805046252720058,-9.807524288892749
12.01,1.7999999523162842,170.0,25.60944557189941,-0.04771064221858978,-79.78279360175583,40.45895694569557,270.9308771686554,0.0019461465999484067,0.01394188404083252,-0.8519161343574524,0.5234890580177307,0.00941650585863033,-0.010159240453021698,0.0016631128182845968,-0.003934329841285944,-0.0019327452173456552,-0.0032066765706986193,-0.22396215526387092,-0.19163326537236566,-9.80880190551281
12.2,1.7999999523162842,168.0,25.59316825866699,0.4532511234283447,-79.78279354200741,40.45895684900637,270.9335044221878,0.0019463523058220746,0.013958102092146872,-0.851898193359375,0.523517906665802,0.01482695195898086,-0.006299924756405696,0.0017531805560853106,0.0029954875353723764,0.0007358183502219617,0.004539991263300181,-0.22130825025960804,-0.19347771473228934,-9.808287935256956
12.3,1.7999999523162842,169.0,25.578144073486328,0.3101191818714142,-79.78279344942133,40.45895677438158,270.93434735107417,0.0019263055874034762,0.013957331888377666,-0.8518766760826111,0.5235530138015747,0.006165598436164778,-0.0005375249455511089,-0.0024967184609404505,0.011639266274869442,0.011073243804275993,0.0037149516865611076,-0.2240703470259905,-0.17550872767344114,-9.807030783891678
12.5,1.7999999523162842,168.0,25.59316825866699,0.2465049922466278,-79.78279345259556,40.45895677110085,270.9341176347733,0.0019465473014861343,0.01394203957170248,-0.8518543243408203,0.5235896706581116,0.00381254215250446,-0.0009718505618224773,-0.0020264276565902344,-0.004184343386441468,-0.0006515763816423714,-0.005472246557474136,-0.2214004718139768,-0.1736290488392115,-9.807762270569805
12.7,1.7999999523162842,168.0,25.596923828125,0.2544567584991455,-79.78279338474472,40.45895669235797,270.93508656787867,0.0019595690537244077,0.013987482525408268,-0.8518196940422058,0.5236447453498839,0.004509304649916073,-0.0008090293793396947,-0.0034586134926674643,-0.0018147919327020645,-0.0021872294601053,-0.0003403767477720976,-0.2265703606233001,-0.1862380577623844,-9.811074718236924
12.8,1.7999999523162842,167.0,25.595672607421875,0.2862638533115387,-79.78279333333411,40.45895659627532,270.93779917526246,0.0019773554522544146,0.014016405679285526,-0.851803183555603,0.5236707329750061,0.011827710922977559,-0.001129263841369952,-0.0009951053747511154,0.0007366188801825048,0.0029037212952971463,0.013014471158385277,-0.21991345178335905,-0.1812750872969628,-9.807765194177627
13.0,1.7999999523162842,164.0,25.59316825866699,0.3339745104312897,-79.78279334082303,40.45895658832363,270.9377101259232,0.001986399525776505,0.014010593295097351,-0.8517905473709106,0.5236914157867432,0.008964171182736442,-0.002319217890208021,-0.0006111105117012723,-0.0037381493020802736,6.359063263516873e-05,-0.01685251109302044,-0.2249798083305359,-0.1787756218761206,-9.806478806734086
13.11,1.7999999523162842,164.0,25.589412689208984,0.3975887000560761,-79.78279329119945,40.458956500769155,270.9384048776626,0.001997079933062196,0.014020110480487348,-0.8517682552337646,0.5237273573875427,0.009674174547729763,-0.0035416841473497533,-0.0038553032071832545,-0.00392471207305789,-0.0052547892555594436,-0.015012923628091812,-0.2253526048734784,-0.17768372744321825,-9.806677027344703
13.3,1.8999999761581416,171.0,25.57939529418945,0.4612028896808624,-79.7827933013489,40.4589564937858,270.93802078533173,0.001989786978811025,0.014017104171216488,-0.8517690896987915,0.5237260460853577,0.010990725536823759,-0.0048253681328807255,-0.003404641979150494,0.007492237724363805,0.006322687026113272,0.004845952615141869,-0.22703720597550275,-0.20144876701757314,-9.81310604095459
13.42,1.8999999761581416,171.0,25.104867935180664,4.771064281463623,-79.78279322951572,40.458956409002134,270.938650806427,0.0020213786046952014,0.014145934954285622,-0.851838231086731,0.5236101150512695,0.0061752883520395895,0.0012717915578119045,-0.004000223796848398,-0.006049212068319321,-0.05300792306661607,-0.016205841675400734,-0.22074905544519424,-0.17226131200790407,-9.806198140382769
13.6,1.8999999761581416,174.0,25.58815956115723,0.2385532110929489,-79.78279323744738,40.45895640384915,270.93811949062354,0.002014687517657876,0.014052020385861395,-0.8517882823944092,0.5236939191818237,0.016597967231820103,-0.004573112645751007,-0.006804709750637713,0.060021448880434036,0.023216450586915016,0.05223720520734787,-0.21050012893974784,-0.32553693406283857,-9.82290012717247
13.72,2.0,177.0,25.59191703796387,6.3534674644470215,-79.78279318889756,40.45895634209714,270.94021399784094,0.0019847226794809107,0.013962619006633759,-0.8517672419548035,0.5237305760383606,0.0033903170018786204,-0.00460005219418122,-0.002926132865199005,-0.01347433403134346,-0.002832995029166341,-0.009297471493482591,-0.2367456487566233,-0.19881492527201766,-9.801563052535057
13.9,2.0999999046325684,174.0,25.54809379577637,0.7077078819274902,-79.78279314185227,40.458956247237246,270.9420705633164,0.0020295898430049424,0.01407384779304266,-0.85179603099823,0.5236806869506836,0.011610501268432378,-0.0047937345639473255,-0.004386814277007028,-0.05075100436806679,0.01821182668209076,-0.022235753014683723,-0.2511940089985729,-0.14081719720736147,-9.80027257204056
14.0,2.0999999046325684,174.0,25.581899642944336,0.22264966368675232,-79.782793167345,40.45895622769351,270.94103427696234,0.0019912663847208023,0.013898328877985476,-0.8517237305641174,0.5238030552864075,0.008474440631243042,-0.004478474966503143,-0.004144266247944499,-0.0353926382958889,-0.04118681326508522,-0.01926541514694691,-0.2075710210762918,-0.07021991169545799,-9.799803040623663
14.2,2.0999999046325684,172.0,25.575639724731445,0.9065022468566896,-79.78279309596157,40.45895618113527,270.94158204364777,0.0019743021111935377,0.013780659064650536,-0.8517105579376221,0.5238276124000549,0.007520620022104377,-0.0032891900202325925,-0.0064488270855834594,-0.0009301110985688863,0.02044762670993805,-0.005884837359189986,-0.1922084303945303,-0.17638962898403407,-9.810774171352387
14.31,2.0999999046325684,171.0,25.42539405822754,3.5067322254180917,-79.78279304568655,40.458956112062815,270.9421376781464,0.001953001949004829,0.013761586509644985,-0.8516852259635925,0.5238694548606873,0.003185071164777232,-0.006735377714952418,-0.0073046974537245984,-0.013005952350795269,-0.003292538458481431,0.0027665882371366024,-0.2464750136062503,-0.19437188191339366,-9.811818484067915
14.5,2.200000047683716,173.0,25.293928146362305,5.9956374168396,-79.78279305505598,40.45895611112133,270.94144662189484,0.001902219257317484,0.013665251433849336,-0.8517051339149475,0.5238397717475891,0.005044244535673175,-0.006686180614622544,-0.006339339946579968,-3.1356790714198723e-05,0.028848504647612568,0.006363537162542343,-0.19163196802139285,-0.1970810979232192,-9.822420655488967
14.6,2.200000047683716,172.0,25.213796615600586,7.450812339782715,-79.78279298265218,40.45895603693776,270.9441319303513,0.001841635792516172,0.013201096095144749,-0.8517621159553528,0.5237591862678528,0.0012645317899037892,-0.0049273975761967475,-0.0033179370239811647,-0.02886713109910488,-0.027915949001908302,0.013428984209895134,-0.23942847920581695,-0.13270561074838044,-9.793814907073974
14.8,2.0999999046325684,170.0,25.06480407714844,10.05899429321289,-79.78279298868506,40.45895603440636,270.9437719182968,0.0018819408724084496,0.01290640514343977,-0.8517935276031494,0.5237153172492981,0.002691388525950825,-0.003134836732508248,-0.0023291720394983642,-0.023066092282533646,0.05829728022217751,0.06122150644659996,-0.23841919496655464,-0.060488093756139276,-9.788638367056848
14.91,2.200000047683716,166.0,24.96088218688965,11.498265266418455,-79.78279299668701,40.45895598063503,270.9466266231537,0.0022558532655239105,0.01249965000897646,-0.8518121838569641,0.5236933827400208,0.01909560424849,-0.0133290759983779,0.005099194656176096,0.06351768225431442,0.10079380869865416,-0.07655386626720427,-0.23545982776209715,-0.3810108576714993,-9.784672785401344
15.1,2.200000047683716,161.0,24.76806640625,14.845961570739744,-79.78279302019313,40.45895597703115,270.9472723798752,0.003053788095712661,0.01165271643549204,-0.8518348336219788,0.5236719250679016,0.008103656333479507,-0.017236368012576702,0.007440474116282717,-0.02367527410387993,-0.004942086525261402,-0.005207838490605354,-0.19859943710267544,-0.3081843714416027,-9.850201946496963
15.21,2.299999952316284,162.0,24.66039085388184,16.77029037475586,-79.78279298211459,40.45895596441817,270.94713683891297,0.005297469440847635,0.00942542776465416,-0.8518828749656677,0.5236208438873291,0.007878533903589932,-0.024232263190032573,0.009226109493327108,0.030514055863022808,0.07834906876087189,-0.01697403565049171,-0.21491048270836474,-0.30938093103468417,-9.814449731111528
15.4,2.299999952316284,158.0,24.431264877319336,20.80183982849121,-79.78279288409298,40.45895584223568,270.9469495611191,0.007196907419711351,0.00858900137245655,-0.8518425226211548,0.5236781239509583,0.024465143674852013,-0.011175606137445455,0.00016524196825865392,0.056122496724128716,0.04755827412009239,0.035887807607650764,-0.0421983412373811,-0.14419923587702216,-9.812164639234544
15.51,2.200000047683716,160.0,24.298547744750977,22.54327964782715,-79.78279291545347,40.45895582946703,270.94981904792786,0.00527077354490757,0.003796211443841458,-0.8510218262672424,0.525090217590332,-0.010227038091617732,-0.010190459509501329,0.04225777474943925,-0.18556645512580872,-0.001938978326506913,-0.038849953562021255,0.09519844494760037,-0.1532987916469574,-9.901848063468933
15.7,2.200000047683716,162.0,24.03937339782715,26.7418155670166,-79.78279291506767,40.458955736650076,270.95508547592163,0.00017584416491445154,-0.0015956081915646796,-0.8504324555397034,0.526081919670105,-0.02418073622989057,-0.014094627313275059,0.10516218835233868,-0.1901746243238449,0.006978108547627926,-0.05145830661058426,0.08857543168589473,-0.18334540363401167,-10.46566817164421
15.8,2.200000047683716,163.0,24.49386787414551,17.811973571777344,-79.78279314398785,40.45895566588681,270.9973618583679,-0.0027698671910911803,-0.0036973971873521813,-0.8494746685028076,0.5276092886924744,-0.07799583373269077,-3.726145072971421e-05,0.3626678051083853,-0.2087342739105225,-0.12951618432998654,0.024037852883338928,0.2324160596542061,-0.6423745999485254,-11.162104300260545
16.0,2.299999952316284,160.0,24.34111785888672,20.99268341064453,-79.78279312211062,40.45895572025931,271.03399296569825,-0.0033287324476987123,-0.003300753887742758,-0.8491930365562439,0.5280616879463196,-0.0767933726063857,-0.008582906762118647,0.3527808862146857,-0.04194044321775437,0.002617136808112264,-0.010663630440831184,0.06628714296966791,-0.20205221794545647,-10.002541794776917
16.1,2.299999952316284,162.0,24.40121650695801,20.316781997680664,-79.78279309717657,40.458955832398864,271.08605380821234,-0.001263284939341247,-0.0033834881614893675,-0.8490653038024902,0.5282755494117737,-0.12534687197195596,-0.0141973178008672,0.30131160465241463,-0.11108369380235672,-0.03551382198929787,0.0050930450670421115,0.06263076481875032,-0.2853186336345971,-9.866416275501253
16.3,2.299999952316284,161.0,24.31732940673828,21.310754776000977,-79.78279304372947,40.45895593499788,271.1149477558136,-0.001264263060875237,-0.002524128183722496,-0.8491297960281372,0.5281768441200256,-0.12821514447255494,-0.015729502648805332,0.2799855398852228,0.06307851523160933,0.06869923323392868,-0.07641491293907167,0.04065129588358105,-0.13016289420425892,-9.745826223492623
16.41,2.299999952316284,160.0,24.288532257080078,21.35846519470215,-79.78279299937913,40.45895627256414,271.14817186164856,0.007222810294479131,0.0040756165981292725,-0.8493884801864624,0.5277031660079956,-0.1745630594192394,-0.04350925080400685,0.2294420358994897,-0.03654886409640312,-0.05154798924922943,-0.011352111585438251,-0.17821195028722284,-0.2202854626066983,-9.721554431319237
16.6,2.299999952316284,160.0,24.302305221557607,21.86737823486328,-79.78279295332399,40.458956420461064,271.1705581741333,0.009407333098351955,0.006534199230372907,-0.8495867848396301,0.5273244380950928,-0.15658560611607247,-0.046213424575406704,0.22010529679348886,0.13824288547039032,0.07455166429281235,0.14970238506793976,-0.05963502153754235,-0.554348495900631,-9.802992696762086
16.7,2.4000000953674316,161.0,24.27475929260254,22.121835708618164,-79.78279265608144,40.458956552621004,271.23083515930176,0.01148104015737772,0.00540156289935112,-0.8493375778198242,0.5276975631713867,-0.14050991227579174,-0.022490534731778464,0.2327078238197993,0.07927491515874863,0.042802829295396805,0.17112450301647186,-0.1133184637594968,-0.3087977443635464,-9.803528301715847
16.9,2.4000000953674316,162.0,24.16457939147949,23.354360580444336,-79.78279255058423,40.45895647546481,271.2644048528672,0.014126505702733994,0.007075777277350427,-0.8491011261940002,0.5279940366744995,-0.12686760435091227,-0.028787002802665912,0.2486910982742734,0.0007838673191145062,-0.05498519539833069,-0.08052726835012436,0.040376330567523835,-0.10886101249605418,-9.827340502738952
17.0,2.5,162.0,24.23719787597656,22.090028762817386,-79.78279250414752,40.45895667197257,271.31621797847754,0.01532622240483761,0.010007361881434916,-0.8486484885215759,0.5286405682563782,-0.09966869391577167,-0.031078759590924283,0.26761246618088697,0.058575481176376336,0.03746194392442703,0.02994724363088608,0.09370265409350396,-0.20191696453839544,-9.855946251153947
17.2,2.5999999046325684,164.0,24.22092056274414,22.972675323486328,-79.78279220897167,40.45895678571706,271.34596236515046,0.01412675529718399,0.010867515578866005,-0.8483896851539612,0.5290722846984863,-0.12985415131556566,-0.037034570508971576,0.28673511446908484,-0.10571078956127168,-0.032869353890419006,0.014154752716422081,-0.009767860542051495,-0.2397848669998348,-9.968564794063571
17.31,2.5999999046325684,165.0,24.32734489440918,19.609073638916016,-79.78279205190717,40.458956843311256,271.41615744400025,0.014309854246675968,0.011847996152937412,-0.847889244556427,0.5298479199409485,-0.10427659766134684,-0.016695810142542882,0.3241881551008127,-0.0015798609238117931,0.06099189072847366,0.10796750336885452,-0.07678981122560799,-0.05826842674054205,-9.991970028877258
17.5,2.700000047683716,165.0,24.23719787597656,22.082077026367188,-79.7827920201876,40.45895691654796,271.4483047323227,0.013865841552615166,0.011353050358593464,-0.8476837277412415,0.5301992297172546,-0.08940659989277554,-0.008056953536079547,0.3099741839620032,0.049503881484270096,0.030979480594396588,-0.06756684184074402,0.03977650217246265,-0.2494497845694423,-9.72190467953682
17.6,2.700000047683716,166.0,25.07356834411621,9.263816833496094,-79.78279179497851,40.45895699932627,271.528511841774,0.0149680869653821,0.015017390251159668,-0.8478612899780273,0.5297939181327821,-0.06627859323292395,0.0010758516928774733,0.229491947252632,0.1676361858844757,0.04169100150465965,-0.07585439831018448,0.050586035046726464,-0.19357174526900053,-9.706413066387176
17.8,2.799999952316284,166.0,23.95673751831055,28.14132881164551,-79.78279176027094,40.45895706206271,271.54353054332734,0.013569099828600885,0.013286758214235306,-0.8475446701049805,0.5303841233253479,-0.0815326424239402,-0.007845264080451532,0.08766458302304549,-0.14323921501636505,0.10394211113452913,0.011289458721876144,-0.08967244243249298,-0.30855599854141474,-8.726243137121202
17.9,2.799999952316284,165.0,23.93545341491699,26.02615547180176,-79.78279165320667,40.45895728499881,271.58084293174744,0.005329754203557968,-0.002377777127549052,-0.8466784358024597,0.5320729613304138,-0.08108313900388994,-0.018860708226306297,0.20123404042460602,-0.07091527432203293,0.08760951459407806,-0.1177866831421852,-0.11409831787459553,0.1176812084019184,-9.64559734582901
18.1,2.9000000953674316,166.0,23.84154891967773,28.43554306030273,-79.78279162794794,40.45895735695801,271.60674830245966,0.005038938019424678,-0.003377558430656791,-0.8461631536483765,0.5328893661499023,-0.07720698558712616,-0.02054157961901225,0.32899383913836483,0.06279513239860535,0.057147994637489326,-0.10197485238313676,0.02114824154879898,-0.18739668354392053,-10.998141356706617
18.21,2.9000000953674316,166.0,23.75140190124512,29.055782318115234,-79.78279157267166,40.458957413675115,271.72140498924256,0.0069786906242370605,0.005393992643803358,-0.846022367477417,0.5330744981765747,-0.09951241901161872,-0.02301742611863606,0.678615218721554,0.16856952011585236,0.01620890386402607,-0.05418536067008972,-0.10877836575731636,0.01599913319572806,-11.291617788076401
18.4,2.9000000953674316,165.0,23.34323310852051,37.19839859008789,-79.78279154351705,40.45895753081199,271.79639931488043,0.009722795337438585,0.010717005468904972,-0.8460057377815247,0.5329775810241699,-0.1318447593688676,-0.031189057448687038,0.8445879653426663,0.0570460818707943,-0.07123332470655441,0.07747851312160492,-0.09191055558621884,-0.4330389440059662,-11.70905753016472
18.51,2.9000000953674316,164.0,23.20050048828125,38.46273040771485,-79.78279148244327,40.45895772430632,272.01447721290594,0.012861885130405426,0.01398342102766037,-0.8468829989433289,0.5314397215843201,-0.15248916907198315,-0.028643261077363574,1.3774818391603671,-0.0443696454167366,-0.031564224511384964,0.04008574038743973,-0.18130878187716007,-0.4016317580267787,-12.058326923847199
18.7,2.9000000953674316,164.0,23.533544540405273,32.4989013671875,-79.78279140516746,40.45895776077976,272.1686458187104,0.012637745589017868,0.01420058123767376,-0.8473492860794067,0.5306956171989441,-0.14882381204884884,-0.019109379584191108,1.6564097869035403,-0.03842234611511231,-0.004617829807102679,0.0435076579451561,-0.03950696837157011,-0.4208837886527181,-12.645763936042789
18.81,2.9000000953674316,163.0,23.38329887390137,33.93021774291992,-79.78279131486038,40.45895784912757,272.5495144920349,0.008183510974049568,0.014023100025951862,-0.8477516174316406,0.5301450490951538,-0.14439661156040734,-0.007560350859407316,2.1201592026497886,-0.11783378571271895,-0.021810077130794525,0.05150026082992554,0.04420724353753031,-0.3204758400097489,-12.4276815032959
19.0,2.9000000953674316,164.0,23.606164932250977,30.67794418334961,-79.78279125765441,40.45895789009375,272.773335893631,0.005987844429910183,0.01165766641497612,-0.8478924632072449,0.5300062894821167,-0.13310840374609412,-0.003210617525344968,2.346739432984916,-0.11746586859226227,0.021704431623220444,-0.02812203206121921,0.044578834092244515,-0.2582498806715012,-12.102943518161776
19.11,2.9000000953674316,164.0,23.46217918395996,33.98588180541992,-79.78279108512714,40.45895793636535,273.28098436164856,0.0042877537198364735,0.009209373965859413,-0.8479733467102051,0.5299416780471802,-0.10968151828110866,0.026950110707389445,2.7029989899918165,0.057772889733314514,-0.02846809662878513,0.010484480299055576,-0.05854503201786429,-0.16670452024787666,-11.797417144775393
19.3,3.0,163.0,23.70132064819336,29.69192314147949,-79.78279098390111,40.458957964738936,273.5605947570801,0.0044739628210663795,0.01034293882548809,-0.8479568958282471,0.5299454927444458,-0.11315167644946668,0.0381604876885057,2.8822594072132324,0.06549762934446335,-0.029753677546977997,0.0604439415037632,-0.02480431363452226,-0.1843565516732633,-11.603832206726075
19.4,3.0999999046325684,163.0,23.718849182128906,27.79940223693848,-79.78279055466868,40.45895792236642,274.18518896865845,0.01014474593102932,0.011188173666596413,-0.84763503074646,0.5303648710250854,-0.1293183211939057,0.0635331479140154,3.1243514806738792,0.06793833523988724,0.03847215324640274,-0.06886201351881027,-0.030699193230830136,-0.2547598969191313,-11.261744363307953
19.61,3.0999999046325684,161.0,23.76016616821289,27.823257446289066,-79.7827904183556,40.45895792734978,274.50110550689703,0.0123934680595994,0.011985734105110168,-0.847586989402771,0.5303764939308167,-0.1426944003243114,0.0834318790480079,3.1824115768696037,0.06925081461668015,-0.03894875571131706,0.10572686046361923,0.07771495951339602,-0.27957299508154393,-10.478995145559312
19.71,3.2000000476837163,161.0,23.89914321899414,25.7876033782959,-79.78278955187402,40.45895754704709,275.25033016967774,0.01034434512257576,0.011784511618316174,-0.8478610515594482,0.5299866795539856,-0.1329973275622422,0.12599480989449618,3.2978992577816864,-0.06150424852967262,-0.04756790027022362,0.004602568689733744,0.054515016786754134,-0.0912015715520829,-10.210469952821732
19.9,3.299999952316284,161.0,23.7927188873291,26.39988899230957,-79.78278910380294,40.45895736017647,275.60048504638667,0.010028948076069357,0.010349726304411888,-0.8479457497596741,0.5298871397972107,-0.11493301119422494,0.1438521693695404,3.3073724151630755,0.001427066046744585,0.020174328237771988,0.02265889011323452,-0.029858690241817382,-0.18969546156004072,-9.936751263141634
20.0,3.299999952316284,161.0,23.84280204772949,25.35820770263672,-79.78278872276191,40.45895723039764,276.2623393135071,0.010796107351779938,0.009517727419734001,-0.8480448722839355,0.5297289490699768,-0.09690570446382367,0.16007140841866824,3.30636352469204,-0.03839107230305672,0.03201758861541748,0.011347636580467224,0.01908901893300936,-0.3339154824614525,-9.85919964194298
20.2,3.299999952316284,161.0,23.84530639648437,26.01820373535156,-79.78278831016155,40.458956996480325,276.6336390571594,0.012816290371119976,0.00884090270847082,-0.8480112552642822,0.5297495722770691,-0.07355014682183532,0.16769715988369932,3.2900568938319767,0.071798175573349,0.0530921034514904,-0.04146638885140419,-0.013647556649520994,-0.16984633885324002,-9.582863738536837
20.31,3.299999952316284,162.0,23.77644348144531,25.636518478393555,-79.78278767370414,40.45895680992962,277.30144806671143,0.012166288681328295,0.005092090461403132,-0.8476963043212891,0.5303179621696472,-0.08536460508883728,0.18785931945166864,3.264205396140905,-0.06529217213392258,0.008862969465553759,-0.03162408247590065,-0.027904027719050647,0.0047437364235520365,-9.602978745102883
20.5,3.4000000953674316,163.0,23.74514198303223,28.825180053710927,-79.78278749070627,40.45895672504611,277.6288444595337,0.010975080542266369,0.0026695812121033677,-0.8475415110588074,0.5306090712547302,-0.06577849909468605,0.19185205152933105,3.2876029436097234,-0.057744063436985016,0.06885126978158951,-0.031017087399959564,-0.004480782453319989,-0.17995747206732632,-9.97539551138878
20.61,3.4000000953674316,162.0,23.86909484863281,24.817485809326172,-79.78278731744818,40.458956638347246,277.95765229034424,0.011471175588667393,0.0012708879075944426,-0.8474106192588806,0.5308127999305725,-0.03604523728009396,0.1916778055133856,3.2866416843855935,0.10974235832691193,0.08875297009944916,0.04665890708565712,0.07003300179261715,-0.26007412059232593,-9.886642963886262
20.8,3.4000000953674316,162.0,23.817760467529297,25.23892974853516,-79.78278676567186,40.45895635386311,278.5788299636841,0.014592685736715794,0.0001409920078003779,-0.8473640680313109,0.5308119058609009,-0.04339992532208803,0.19480806140201976,3.2250142626594744,0.042662665247917175,0.024837663397192955,-0.09424500167369844,-0.005946849009487778,-0.04855312261730433,-9.5263714492321
20.9,3.4000000953674316,165.0,23.954235076904297,22.972675323486328,-79.78278641274964,40.45895645405741,279.1735088424683,0.018387999385595318,0.0017861848464235663,-0.8474581837654114,0.5305406451225281,-0.0904074126139651,0.15966829749540573,3.1075906360597108,-0.00412400858476758,0.028147095814347267,-0.08592071384191513,0.03718417565803975,-0.26710877783596515,-9.489869036078453
21.1,3.4000000953674316,166.0,23.80398750305176,26.41579246520996,-79.78278631372454,40.45895639980407,279.4819290237427,0.01976298913359642,0.0023895108606666327,-0.8475069403648376,0.5304110646247864,-0.08403734708960436,0.14329202801769653,3.058472912251747,-0.01512918621301651,-0.014265646226704119,0.07652629911899568,-0.07067730100359768,-0.2912179077789188,-9.372270419597626
21.2,3.4000000953674316,166.0,23.756410598754893,28.13337707519531,-79.78278591474577,40.458956288059575,279.8257677154541,0.01997334323823452,0.0008637958089821041,-0.8475466966629028,0.5303442478179932,-0.07426588683815627,0.12795692126696054,3.0295530413867886,0.07298659533262253,0.06837227940559387,0.05779992043972016,-0.020411643125116827,-0.4577467191964388,-9.568877783417703
21.4,3.299999952316284,167.0,23.86408615112305,24.809534072875977,-79.78278531800916,40.45895592133605,280.4982359008789,0.017008423805236816,-0.004401932004839182,-0.8476647138595581,0.5302414894104004,-0.052400992240302514,0.1454039997726339,3.0790024863763112,-0.0040470645762979976,-0.018005292862653732,-0.049021139740943916,0.04879839504137636,-0.13015158349648118,-9.95739661216736
21.5,3.299999952316284,169.0,23.83153343200684,26.39988899230957,-79.78278526894212,40.45895586528882,280.80640145111084,0.01587238349020481,-0.0042966553010046465,-0.8475993871688843,0.5303819179534912,-0.04018136365845084,0.13096076179036853,3.0777730049106387,-0.007887745276093483,-0.03329019621014595,-0.02941606566309929,0.03405252801021561,-0.07898318404331804,-9.841406564712523
21.6,3.4000000953674316,170.0,23.85782623291016,25.22302627563477,-79.7827852249333,40.45895569623033,281.4663755493164,0.013825335539877416,-0.002352672629058361,-0.847385048866272,0.5307937264442444,-0.03449005412475123,0.07510549617462668,3.0592218608813693,-0.012571041472256184,-0.054753318428993225,-0.010994334705173973,0.05136315741576255,-0.3461512928456068,-9.673089784383775
21.81,3.4000000953674316,171.0,23.9930477142334,22.344484329223643,-79.78278509814217,40.45895543106449,282.1298000411988,0.013430540449917316,0.00013361759192775935,-0.8470240831375122,0.5313848853111267,-0.019749266103454736,0.05451526355920694,3.094333189575168,0.022865708917379383,-0.08659075200557709,-0.08787035942077638,0.08893315337598325,-0.1967360939271748,-9.868206692934038
21.91,3.4000000953674316,169.0,23.954235076904297,23.529298782348643,-79.78278512802622,40.45895539655779,282.4381620483398,0.014984907582402231,0.0019992794841527943,-0.8471339344978333,0.5311644673347473,-0.014259553351065487,0.032104350876418775,3.0669082330578363,0.1356901377439499,0.04651634395122528,0.11520952731370925,0.10820938599295916,-0.3491943665966392,-9.619400065541267
22.1,3.4000000953674316,171.0,23.75390625,25.994348526000977,-79.78278516812226,40.45895536376339,282.74325772094727,0.01562794111669064,0.0019633544143289328,-0.8473194241523743,0.5308500528335571,-0.039002006688697945,0.02279688177894265,3.0409705537225045,-0.119747094810009,-0.02651258185505867,-0.0592532753944397,0.031630316642113035,-0.19344603013247247,-9.577842149734495
22.3,3.4000000953674316,171.0,23.905405044555664,24.01435661315918,-79.78278533854416,40.45895516862546,283.4003965454102,0.0120492335408926,-0.0018175237346440554,-0.8474565148353577,0.5307251214981079,-0.00040814730209564015,-0.0031651978461964465,3.0499452088833814,-0.09361619502305983,-0.04508547484874725,0.00021520399604924023,0.025169298662804068,-0.25274487331509593,-9.667023882865909
22.41,3.4000000953674316,171.0,23.80023193359375,25.5570011138916,-79.78278553060153,40.45895517867161,284.05098267364497,0.006818392779678106,-0.0013809588272124527,-0.8467138409614563,0.5320032238960266,0.02466295156013458,-0.03374335669020388,3.02281347056395,-0.0713193342089653,0.029815617948770527,-0.046632807701826096,0.14504128061234953,-0.3297850093245506,-9.58308710217476
22.6,3.4000000953674316,170.0,23.78019905090332,26.15338516235352,-79.78278564529597,40.45895514851058,284.3523675994873,0.0068621933460235604,-0.002615923760458827,-0.8466852903366089,0.5320433974266052,0.03400805057949501,-0.041625214754181385,3.0109461959561283,-0.12195361405611035,-0.0315072126686573,-0.025605561211705208,0.0600473324675113,-0.17544566910713913,-9.65199887752533
22.72,3.4000000953674316,170.0,23.825273513793945,25.159412384033203,-79.782785549554,40.45895482914938,284.69175358581543,0.006723076570779085,-0.0038374511059373617,-0.8470067977905273,0.5315257906913757,0.0818569694788021,-0.002942265844881397,3.0389825694994683,0.00984771456569433,0.013893214985728264,0.11241507530212402,0.14405942346900702,-0.2657131570950151,-9.789601988196374
22.9,3.5,170.0,23.617431640625,29.13529968261719,-79.78278564065378,40.458954589138656,285.32591839599615,0.005662794224917889,-0.003579901065677405,-0.8480375409126282,0.5298939347267151,0.09736193458220777,0.012364415917763952,3.0418641929836263,0.05458295345306397,0.026215758174657815,0.08305534720420837,0.12389272386208178,-0.32693858474493026,-9.802368798851967
23.0,3.5,170.0,23.770183563232425,27.51313781738281,-79.78278572317048,40.45895451992558,285.6307394104004,0.005702672526240349,-0.005449604243040085,-0.8484784960746765,0.5291711091995239,0.07955988937950867,0.006494707379357053,3.0548193447247014,0.0029414077289402485,0.051199756562709815,0.07030899077653885,0.043069960093125706,-0.16563835356384515,-9.88936893582344
23.2,3.5999999046325684,172.0,23.6712703704834,28.16518402099609,-79.78278597470222,40.45895460815422,286.2608511047364,0.00888638012111187,-0.0048607345670461655,-0.848704993724823,0.5287696719169617,0.042822043733922295,-0.01657795501929741,3.0693225801547035,0.042422682046890266,-0.052430354058742516,-0.036018185317516334,0.12266124542802573,-0.05212036727461964,-9.845397874116898
23.3,3.5999999046325684,172.0,23.728864669799805,27.560848236083984,-79.78278608731661,40.45895459202326,286.56757183837885,0.009079080075025558,-0.002583405468612909,-0.84864741563797,0.5288748145103455,0.017420517428010287,-0.026367155208402368,3.0708236119181853,-0.029275499284267426,-0.016540100798010826,-0.02425570972263813,0.07149716743268072,-0.04021496568806469,-9.824912738800052
23.5,3.5999999046325684,173.0,23.67502593994141,28.149280548095703,-79.78278651893552,40.4589548401059,287.1867696838379,0.00790957547724247,-0.0019267344614490867,-0.848649799823761,0.5288925170898438,-0.020373312796539655,-0.08744252733495897,3.0711507445461748,-0.08790543675422667,-0.04560831189155578,-0.06915430724620819,0.10895661447197197,-0.0931064390949905,-9.818210660219194
23.61,3.5999999046325684,174.0,23.66751480102539,25.15146064758301,-79.78278666780484,40.458954870729606,287.4944860534668,0.007445954252034427,-0.0007300869328901173,-0.8482270836830139,0.5295799970626831,-0.013301652795280727,-0.0910138052218114,3.0874653074655085,-0.0020896652713418007,-0.021726414561271667,-0.05004441738128662,0.08659517160616816,-0.16821397896856072,-9.936160694360732
23.81,3.700000047683716,177.0,23.66876602172852,27.25868034362793,-79.78278698349531,40.45895484305168,288.120638092041,0.008521589450538158,0.0005551882204599679,-0.8470141887664795,0.5315017104148865,-0.003200621952494091,-0.0918002846029042,3.0843887642017824,-0.00033522723242640495,-0.009144065901637077,0.053100425750017166,0.07097225192002952,-0.3303174348548055,-9.697255157232282
23.9,3.700000047683716,175.0,23.62995338439941,28.061809539794922,-79.78278721499237,40.45895496583857,288.4374010162354,0.007835946977138521,-0.00048185273772105575,-0.8464831113815308,0.5323577523231506,-0.012783805884306613,-0.10707839270351584,3.073950080334212,0.07092206180095673,0.048058927059173584,0.14418122172355652,0.09982577609829606,-0.3114419649168849,-9.779499168992043
24.1,3.799999952316284,176.0,23.835289001464844,25.04808807373047,-79.78278750902489,40.458955031160095,289.0519487457276,0.006815323606133461,-0.0039168032817542536,-0.8465195894241333,0.5322995781898499,-0.014526027130668985,-0.09310744533836496,3.076023988476204,-0.02109627425670624,0.055484842509031296,-0.031987763941287994,0.0992930307984352,-0.03833505844697357,-9.788807936310768
24.21,3.799999952316284,178.0,23.728864669799805,26.566877365112305,-79.78278780447408,40.458955138411824,289.66609974670416,0.006634565070271492,-0.003656652057543397,-0.8463901877403259,0.5325095057487488,-0.0069443911879989795,-0.07963847378597902,2.9949222991436053,0.07444164901971817,0.010535563342273235,0.010680032894015312,0.07160482929088176,0.00564793066587299,-9.479534082412721
24.4,3.700000047683716,180.0,23.66751480102539,27.298439025878906,-79.78278788312018,40.458955111559426,289.9848978118896,0.006148457527160645,-0.001686513889580965,-0.8465840220451355,0.5322170257568359,-0.024766566903551144,-0.06054886377970028,2.9875111536667283,-0.06630303710699081,-0.031842999160289764,-0.09786918014287947,0.1327518494334072,0.0727698596008122,-9.48572394490242
24.5,3.700000047683716,181.0,23.60366058349609,29.016023635864247,-79.78278798913318,40.45895514817028,290.28276272583014,0.005645930301398039,-0.0002882627013605088,-0.84681636095047,0.5318554043769836,-0.028351182200364432,-0.06909477446379876,2.975590425045343,0.0026929383166134357,-0.0188803356140852,-0.07421422749757768,0.13867997593246398,-0.10258250987157226,-9.66366641163826
24.71,3.5999999046325684,183.0,23.597400665283203,28.228797912597656,-79.78278824658186,40.45895530089489,290.89518948364264,0.0035068206489086147,-0.0017704764613881707,-0.8475604057312012,0.5306844711303711,-0.03718006977578362,-0.07101468566155933,3.038765052944816,-0.03738097846508026,0.005033568944782019,0.03772840276360512,0.09202786535024644,-0.2662981527484953,-10.1267331469059
24.8,3.5999999046325684,183.0,23.57361030578613,28.07771301269531,-79.78278842009995,40.45895539797057,291.5042860107422,0.006990744266659021,-0.00298290210776031,-0.8479322195053101,0.5300502777099609,-0.041537884254542336,-0.04805973027693168,3.0824011534810447,0.053175568580627434,0.035154614597558975,0.05198093131184578,0.15939137108623982,-0.2441056304611265,-10.055039266347883
25.0,3.5999999046325684,183.0,23.6712703704834,27.266632080078125,-79.78278848763878,40.458955452263645,291.81390782165533,0.009136776439845562,-0.0036350500304251905,-0.8476868271827698,0.5304058790206909,-0.06289944304164982,-0.03940591342851986,3.1065941947789018,0.03568071499466896,0.0503380298614502,0.02775320596992969,0.15062140641734004,-0.10927501363679767,-10.030472774505618
25.1,3.5999999046325684,185.0,23.71008491516113,27.48928260803223,-79.78278855190294,40.45895551050196,292.1240465240478,0.01085457019507885,-0.0037920873146504155,-0.8473540544509888,0.5309039950370789,-0.07782102562589678,-0.027132551976859855,3.09220044743222,-0.02619956620037556,-0.039908476173877716,-0.050747595727443695,0.07753636362031102,-0.11250055706128476,-9.725234084129331
25.3,3.5999999046325684,186.0,23.563594818115234,28.66614532470703,-79.78278868081348,40.45895576014981,292.7277319030762,0.012381404638290405,-0.0015170206315815447,-0.8466426730155945,0.5320157408714294,-0.10110827380766542,-0.02482175371914927,3.0490589200367118,-0.052125703543424606,-0.04514918103814125,-0.027991123497486115,0.1619678370282054,-0.07561579995788634,-9.77617210328579
25.4,3.5999999046325684,186.0,23.81901359558105,24.54712677001953,-79.78278873362603,40.458955821094506,293.03349705505366,0.011503420770168304,0.0008712903363630176,-0.8465198874473572,0.5322321057319641,-0.07940796687322835,-0.02490354602904378,3.0522721904486203,0.011566216126084328,-0.03368707373738289,-0.016579531133174896,0.149753177119419,-0.16926284154877067,-9.883780167102817
25.6,3.5,188.0,23.646228790283203,27.60060691833496,-79.7827888534096,40.45895590155076,293.64301892089844,0.009082027710974216,0.0042648701928555965,-0.8467013835906982,0.5319737792015076,-0.07556600128850365,-0.03938581447861718,3.0307204574898723,0.0005430725868791342,0.028844891116023064,0.037170637398958206,0.13139471981674433,-0.12462797468528153,-9.68836212694645
25.71,3.5,187.0,23.711336135864247,25.946638107299805,-79.78278885461549,40.45895601039992,293.95094700622565,0.00765382731333375,0.004381923470646143,-0.8468154668807983,0.5318138599395752,-0.07440058202043505,-0.02917094230828415,3.0285890203139365,-0.0011113218497484922,-0.03181211277842522,-0.01745639182627201,0.15297823632135987,-0.2014775097370148,-9.767715275287626
25.8,3.5,186.0,23.702571868896484,26.511213302612305,-79.78278888644749,40.45895609944982,294.5565530853272,0.008741111494600773,-0.000206826938665472,-0.8470035791397095,0.5315153598785399,-0.058572602834739536,0.0001408080227835243,3.0219481003556465,0.017758049070835114,0.02820655144751072,0.0370633639395237,0.1996707931905985,-0.2712725252844393,-9.736584114432336
26.01,3.5,186.0,23.5886344909668,27.94253349304199,-79.78278889043473,40.45895612885508,295.1584226684571,0.009706269018352032,-0.002911555347964168,-0.846873939037323,0.5316972136497498,-0.05550941465441639,0.036073794006184164,2.9966581284915685,-0.004518073983490467,-0.0369969978928566,0.0004479421186260879,0.2179806911945343,-0.2004939349740744,-9.67190572321415
26.2,3.5,187.0,23.73011779785156,24.80158233642578,-79.78278895227308,40.45895626593183,295.4653665618896,0.009532720781862736,-0.0038943772669881595,-0.8467002511024475,0.5319706797599792,-0.06663451421616087,0.027507310928789292,3.0299601358562103,0.010200230404734613,0.012456005439162254,0.0042854961939156055,0.15153421159833672,-0.09959929699078204,-10.000869491100312
26.3,3.5999999046325684,185.0,23.58613204956055,28.51506042480469,-79.78278896157715,40.45895629590285,295.77076359558106,0.009833918884396551,-0.003521586302667856,-0.8465685844421387,0.5321773290634155,-0.06820569290545032,0.02859293156503175,3.0677060803145646,-0.010402091778814793,-0.016304180026054382,0.04031825065612793,0.17039829773828388,-0.12118813994340599,-10.066976941823961
26.5,3.5,184.0,23.76141929626465,24.793630599975586,-79.78278902069735,40.458956507357456,296.37336560058594,0.010821957141160963,0.00011024190462194384,-0.8465405106544495,0.5322142839431763,-0.07242142294538513,0.014293144277260948,3.0523971694583456,0.06277552992105484,-0.005428622476756573,-0.02267267182469368,0.08342368751764298,-0.17962080035358668,-9.81132731795311
26.61,3.5,185.0,23.53104019165039,28.39578437805176,-79.78278903145184,40.458956543543174,296.67806454467774,0.0101214200258255,0.001546756480820477,-0.8467217683792114,0.5319374203681946,-0.08268285845878985,0.010671146197177416,3.0351586678873685,0.0151451388373971,-0.05327814444899559,0.009118410758674143,0.14803453425876795,-0.2309495779685677,-9.664497300982477
26.7,3.5,185.0,23.56484603881836,28.7218074798584,-79.78278905195594,40.458956546625295,297.2808420257568,0.010450388304889202,0.0021355014760047197,-0.8469741344451904,0.5315271615982056,-0.057611022736060565,0.01726355995035122,3.0154451133669844,0.04054158926010132,-0.003056239103898406,0.03444809094071388,0.1192830165848136,-0.2769256133772433,-9.792904495596886
26.91,3.5,185.0,23.50224304199219,27.98229217529297,-79.78278908730576,40.458956679367105,297.89214726257325,0.010599670931696892,-0.002587318420410156,-0.8471421003341675,0.5312543511390686,-0.06739833705834514,0.03138145963125788,3.0482953331208162,0.007166528142988681,0.014254483394324781,0.03461150079965592,0.1843617410771549,-0.11843071181327106,-9.909433071613313
27.1,3.5,185.0,23.53855323791504,29.1193962097168,-79.78278908401845,40.458956690885074,298.19763584899897,0.010327026247978207,-0.004088334273546934,-0.8469902873039246,0.5314924716949463,-0.0652492305629269,0.05008690978068733,3.054189022697836,-0.04907520860433578,0.005226575303822757,-0.011684390716254713,0.214396932721138,-0.01331074218149297,-9.856606986522673
27.2,3.5,185.0,23.57486343383789,28.35602569580078,-79.78278905816661,40.45895668770204,298.50363369750977,0.010505927726626396,-0.003788075875490904,-0.8468807935714722,0.5316655039787292,-0.04259687603834312,0.0669196923081477,3.036946680962592,-0.009463648311793804,-0.0215967744588852,0.01955367624759674,0.1671530382335186,-0.2238469285704196,-9.736785843372346
27.3,3.5,185.0,23.602407455444336,27.34615135192871,-79.78278907723434,40.4589567573993,299.11650486755366,0.011628235690295695,-0.00470943097025156,-0.8465695977210999,0.5321303009986877,-0.05492151124089479,0.05549019367569112,3.046181132217632,-0.05175779014825821,0.029165208339691162,-0.00847634021192789,0.14000509204342962,-0.15267035300843418,-9.80243487238884
27.51,3.5,185.0,23.559837341308594,27.56879997253418,-79.78278907697855,40.45895676697525,299.72290440368647,0.011336734518408777,-0.005220302380621432,-0.846643328666687,0.5320144295692444,-0.04132703608518417,0.05614981269964426,3.010902139859645,0.020652700215578083,0.03564267233014107,-0.0044618677347898475,0.17572158459573986,-0.1748282762244344,-9.686435469388963
27.7,3.5,185.0,23.660001754760746,26.28856468200684,-79.78278905108594,40.45895686313305,300.03290005493164,0.01074155420064926,-0.0052735372446477405,-0.8466284871101379,0.5320499539375305,-0.05583773209666965,0.05316538845398097,3.008397313849476,-0.01805263943970204,-0.028271321207284924,-0.0009070633677765727,0.11566531685180965,-0.21758194763213395,-9.694665425419807
27.8,3.5,186.0,23.4033317565918,29.668067932128906,-79.78278905872317,40.45895688131553,300.33390827941895,0.011290653608739376,-0.00564782926812768,-0.8466011881828308,0.5320782065391539,-0.047259958419906864,0.042374205497585485,3.0071815092205085,0.09668071568012238,0.04753217473626137,0.06565394997596741,0.18223512701690198,-0.1388257817365229,-9.76737789094448
28.0,3.5,186.0,23.602407455444336,25.62856674194336,-79.78278910396034,40.45895682970417,300.95161267089844,0.012010975740849972,-0.004128478933125734,-0.8465109467506409,0.5322197675704956,-0.0491045966523069,0.060294380619142385,3.0441669829660682,-0.020700603723526,-0.028766052797436718,-0.09018875658512117,0.17056757463142275,0.005378835406154393,-9.888470803499224
28.1,3.5,187.0,23.552326202392567,27.354103088378906,-79.7827891134373,40.458956832244155,301.25626202392584,0.011730453930795193,-0.0027471603825688358,-0.8465287685394287,0.532206654548645,-0.05040778386390935,0.04743743287275229,3.047057648362196,-0.0182045865803957,-0.02286468259990216,-0.034432608634233475,0.15482542656362058,-0.08438538090325892,-9.857022138834
28.3,3.5,186.0,23.59990310668945,26.06591415405273,-79.78278914860161,40.45895682050503,301.8703367309571,0.01289129164069891,-0.0027533445972949266,-0.8466823101043701,0.5319355130195618,-0.04323589722868637,0.04249375164026389,3.056730420756498,-0.026525437831878662,-0.010686375200748444,0.03174114599823952,0.13421229204162954,-0.2276626570522785,-9.918422580957412
28.41,3.5,186.0,23.633708953857425,27.187114715576172,-79.78278918115461,40.45895682290224,302.4819471435547,0.012773694470524788,-0.003923156764358282,-0.8469952940940857,0.5314324498176575,-0.03157187360713383,0.043182114340609694,3.0356169967889257,-0.03856344893574715,0.0323590524494648,0.03945247456431389,0.09545441594906152,-0.21621664104983213,-9.865831553936003
28.6,3.5,186.0,23.60366058349609,28.037954330444336,-79.78278921000285,40.458956805844814,302.7844793395996,0.011918531730771065,-0.005146891344338656,-0.846908688545227,0.5315799713134766,-0.028333882996787067,0.04261974776745098,3.0136605502014167,-0.10377519577741624,-0.03996756300330162,-0.029061479493975636,0.07800774056464434,-0.1930559112131596,-9.578720986247063
28.71,3.5,187.0,23.55483055114746,25.859169006347656,-79.78278925390906,40.458956869408944,303.09065075683594,0.01044570654630661,-0.006040528416633606,-0.8467265963554382,0.5318915247917175,-0.02239159608548649,0.04260943287078373,2.986455523699516,-0.0825531929731369,-0.033079702407121665,0.030826654285192486,0.14963394873775546,-0.20001936033368112,-9.545788882970813
28.9,3.4000000953674316,186.0,23.65624618530273,25.7876033782959,-79.78278932822217,40.45895684649322,303.68580075073237,0.008446618914604187,-0.004619446117430925,-0.8461751341819763,0.5328180789947511,0.004781151278800239,0.029086324302232312,2.9555905168676064,0.03655052185058594,-0.001164949033409357,0.02781013958156109,0.17033381391316654,-0.3293025409430266,-9.585394413471224
29.0,3.5,186.0,23.53604888916016,29.58059883117676,-79.7827893609663,40.458956824458866,304.28456707763667,0.0073981424793601045,-0.004587012343108654,-0.8457954525947571,0.5334363579750061,-0.012986101306030591,0.022035341138938708,2.910011010379232,-0.08684360980987549,-0.027669219300150868,-0.023554369807243347,0.10760275564156473,0.01834337331354618,-9.447938067913057
29.2,3.4000000953674316,183.0,23.57235908508301,27.457475662231445,-79.7827894313329,40.45895680920176,304.59316845703125,0.007517209276556969,-0.004699087236076593,-0.845722496509552,0.5335493683815002,0.007733623282523558,0.026039591455052014,2.9626011070352267,-0.0038811727426946155,0.026281626895070083,-0.0406019352376461,0.13783741956576706,-0.13022383315488698,-9.895973950624468
29.3,3.4000000953674316,185.0,23.417104721069336,28.95240974426269,-79.78278946844941,40.45895679538856,304.89076824951167,0.008214367553591728,-0.004746174439787865,-0.8457517027854919,0.5334924459457397,0.007827690930134544,0.023725461179387036,2.9868386937056566,0.03405454009771347,0.009373416192829607,-0.02367161400616169,0.17620432706549766,-0.2163285969570279,-10.011607317924499
29.5,3.4000000953674316,184.0,23.569854736328125,27.19506645202637,-79.78278962763613,40.45895674584804,305.4943410949707,0.00904921069741249,-0.005259410012513399,-0.8459451198577881,0.5331673622131348,-0.0042976525878989,0.027210478911787614,3.0544143159082187,-0.02967733703553677,0.026497503742575645,0.005248075351119042,0.14326306010596454,-0.042349669919349256,-10.165578539371491
29.61,3.4000000953674316,185.0,23.4859676361084,27.401813507080078,-79.78278966919385,40.458956733003156,305.8002492980957,0.008331055752933025,-0.00488139595836401,-0.846106231212616,0.5329269766807556,-0.0070296395378532895,0.029057267293098817,3.0602320125484663,-0.038875017315149314,-0.02580819651484489,-0.06809429079294205,0.17880306724458933,-0.11219926100224258,-9.945225048065186
29.7,3.299999952316284,183.0,23.57235908508301,25.962541580200195,-79.78278977755394,40.458956814729405,306.3999616699219,0.007252824027091266,-0.0032809581607580185,-0.8465554714202881,0.5322411060333252,-0.002285496012087799,0.0102041465593139,3.049073392761501,0.05481500923633576,0.01040024310350418,-0.040261059999465935,0.15396592240780593,-0.23972718056291345,-9.888102428913118
29.91,3.4000000953674316,183.0,23.582374572753906,26.30446815490723,-79.78278993304012,40.458956871240396,306.6965772705078,0.00821566954255104,-0.00261251162737608,-0.8467689156532288,0.5318911075592041,-0.014496101008058497,-0.0022418032695547987,3.0178585982406347,0.04424574226140976,0.04214303568005562,-0.03485899418592453,0.091032294658944,-0.07114428339991719,-9.700488082766533
30.1,3.4000000953674316,183.0,23.450910568237305,27.81530570983887,-79.78279003173917,40.45895689340787,307.29920407104487,0.009835326112806795,-0.0026754061691463,-0.8468568325042725,0.5317234396934509,-0.02438394862599497,0.00038689552261214274,3.012314329378282,0.05367003008723259,0.035342708230018616,-0.008058762177824974,0.1744350875169039,-0.13798315227963032,-9.788167081475258
30.21,3.4000000953674316,182.0,23.57361030578613,25.898927688598643,-79.78279020586302,40.45895699452005,307.90255184936524,0.010393541306257248,-0.002012752927839756,-0.8468803167343141,0.5316781997680664,-0.037963112654021004,-0.006016095392507345,3.0190018823289417,0.05043135210871697,-0.007108018267899752,0.12207934260368347,0.18163368606939911,-0.2959381274320185,-9.855112438201905
30.4,3.4000000953674316,183.0,23.51852035522461,28.46735000610352,-79.78279025641979,40.45895706195858,308.20559521484375,0.009498069994151592,-0.0012965357163921,-0.8468661308288574,0.5317197442054749,-0.03763766692965536,-0.001297400382233964,3.0185876352481014,0.03615027666091919,0.00753324944525957,0.051890742033720016,0.14153988565318287,-0.17536583634093406,-9.84729821920395
30.52,3.4000000953674316,182.0,23.67252349853516,24.55507850646973,-79.78279030652546,40.45895707634827,308.5073301391602,0.008605463430285456,-0.0016787783242762089,-0.8467803001403809,0.5318704843521118,-0.03918777777573014,-0.007966151132952615,3.0141814094602384,0.0052919364534318464,-0.02648671343922615,0.0313822403550148,0.09261886353604497,-0.16445531565696006,-9.796156132221222
30.6,3.4000000953674316,183.0,23.541057586669922,27.59265518188477,-79.78279045122483,40.45895711668321,309.1143133239746,0.0077752936631441125,-0.002463560318574309,-0.8463518023490906,0.5325618982315063,-0.023163948688954328,-9.509218011701999e-05,2.99594293855056,0.030345821753144264,-0.018613075837492943,-0.05208146572113037,0.11824255937710405,-0.07280541798099875,-9.627777371406557
30.8,3.4000000953674316,183.0,23.53479766845703,26.853139877319336,-79.78279049708463,40.45895712858336,309.41303845214844,0.007791513111442327,-0.002876482205465436,-0.8464174866676331,0.5324550867080688,-0.027698097531109803,-0.0038953128528466494,2.9729710211547613,0.016718024387955666,0.022355034947395325,-0.010429264977574348,0.11307502772659064,0.01780206732451916,-9.553166899681091
31.0,3.4000000953674316,184.0,23.56234169006348,26.09772109985352,-79.78279066863651,40.45895716857155,310.0114309387207,0.00882086902856827,-0.0038726727943867454,-0.8463258743286133,0.5325783491134644,-0.017309356692602175,0.0008072306259479661,2.949999017569953,0.07269919663667679,0.042550928890705116,0.01445019617676735,0.1433039266616106,-0.011327774338424206,-9.707835693955422
31.1,3.4000000953674316,183.0,23.50224304199219,28.149280548095703,-79.7827907907728,40.45895724539496,310.60726376342774,0.008952561765909195,-0.002838698914274573,-0.8459110856056213,0.5332413911819458,-0.04005548030237767,-0.0011637277291776868,2.945274970562102,0.004494356922805309,0.012417479418218136,-0.05321207642555237,0.14632712901569905,-0.04377525307238103,-9.72759285092354
31.3,3.4000000953674316,181.0,23.553577423095703,26.92470741271973,-79.78279084377508,40.45895726743789,310.9022199707032,0.008054971694946289,-0.0035534058697521687,-0.8456481695175171,0.5336682796478271,-0.0362130075091068,-0.009560189509391151,2.952377361036952,0.008982498198747635,-0.02153705060482025,-0.05773817002773285,0.1059801258891821,-0.11126722396351398,-9.804304811954498
31.4,3.4000000953674316,180.0,23.46718597412109,26.51916694641113,-79.7827909269425,40.458957311744896,311.20189877319336,0.0076367692090570935,-0.003365353448316455,-0.8454893827438354,0.5339270830154419,-0.03381287060268608,-0.0070870903102448575,2.9573418964775,-0.0665181502699852,-0.025031214579939842,-0.05741352215409279,0.12470079079270364,0.035439170077443134,-9.759979408979415
31.6,3.4000000953674316,179.0,23.54857063293457,25.04808807373047,-79.7827910459376,40.45895734867352,311.7941724853516,0.008214069530367851,-0.002810964128002525,-0.845419704914093,0.5340319275856018,-0.03280998830769758,-0.01627138385762736,2.9749292478980762,-0.048281993716955185,-0.031268853694200516,0.015234656631946562,0.04358549722004682,-0.1872438153997064,-9.901361575126648
31.7,3.4000000953674316,178.0,23.44089317321777,28.76156616210937,-79.78279126387774,40.458957396995565,312.39089794921875,0.009188764728605749,-0.001308638253249228,-0.84586101770401,0.5333227515220642,-0.02978275238530918,-0.03039731954630072,2.9661908386189832,-0.016232674941420555,-0.004204556345939636,0.02248651348054409,0.1164385745767504,-0.1680519928224385,-9.879179577827454
31.9,3.299999952316284,178.0,23.503496170043945,27.41771697998047,-79.78279136341581,40.45895748928328,312.6893293457032,0.009062378667294979,-0.0009933578548952935,-0.8460037708282471,0.5330990552902222,-0.028883460254772068,-0.031189748191145998,2.9635048642333395,0.06383747607469559,0.0280646700412035,0.05549650639295578,0.06891542529221624,-0.2798187243193388,-9.782038030028342
32.0,3.299999952316284,177.0,23.370779037475586,28.26060485839844,-79.7827914327972,40.458957511171626,312.9861433105469,0.008103250525891779,-0.0010641149710863829,-0.8459601402282715,0.5331835150718689,-0.02906827854595967,-0.03204658950972506,2.9724976871231967,0.033037804067134864,0.008264509961009027,-0.008970499038696289,0.10577015602961183,-0.2291776523552835,-9.883131126165392
32.2,3.299999952316284,176.0,23.51601600646973,26.98036956787109,-79.78279162454395,40.458957590158185,313.5830137329102,0.006828224286437036,-0.0017106501618400214,-0.8456209897994995,0.5337374210357666,-0.035734074112741605,-0.031075200705285792,3.021077800499928,-0.02364009991288185,-0.006075946614146233,0.0026878381613641977,0.10535874959081412,0.005244605261832476,-10.081342381238935
32.3,3.299999952316284,175.0,23.417104721069336,29.29433441162109,-79.78279169161338,40.45895761112116,313.88591213989264,0.0060506961308419704,-0.0017758606700226665,-0.8455108404159546,0.5339210629463196,-0.03139506949584225,-0.028568252259477126,3.033006695721576,-0.04349229857325554,-0.015208074823021887,-0.100704587996006,0.1605381745286286,-0.02189179724548012,-9.967777758836746
32.5,3.299999952316284,175.0,23.39957618713379,28.45939826965332,-79.782791853351,40.45895767396602,314.48582669067383,0.00552421947941184,-0.0018638424808159468,-0.8455582261085509,0.5338515043258667,-0.01570854223385437,-0.02006957625923505,3.0441833125101128,0.02033213898539543,0.01568005234003067,0.038286563009023666,0.1049419892951846,-0.2407587024942041,-9.960177547931673
32.6,3.299999952316284,176.0,23.5886344909668,24.29266929626465,-79.78279198264384,40.458957716116316,315.0872022705078,0.006537172477692366,-0.0032803823705762625,-0.8460637331008911,0.5330315828323364,-0.012914163841280774,-0.013507185735419286,3.00749158364371,0.06857720762491226,0.032144073396921165,0.09387330710887908,0.022396891610696912,-0.18409223925322296,-9.76922561109066
32.8,3.299999952316284,177.0,23.45591735839844,27.21096992492676,-79.78279202949307,40.45895773292146,315.3868581848145,0.007316705770790577,-0.004447237588465214,-0.8461799025535583,0.532828688621521,-0.0245603336996896,-0.005295520808500254,2.9874492884473898,-0.04792332276701927,-0.010487123392522337,0.00480045424774289,0.061591764846816666,-0.19028661506250505,-9.625709211230276
32.9,3.299999952316284,177.0,23.430877685546875,27.266632080078125,-79.78279215329904,40.45895783956235,315.6919576721192,0.00848759151995182,-0.005468832328915596,-0.8460069298744202,0.533076286315918,-0.024460109410913214,-0.011877721530952724,2.981261151021178,0.09451688081026076,0.0588100403547287,0.06932932138442993,0.1370213492587209,-0.2333789316192269,-9.716225863695145
33.1,3.299999952316284,176.0,23.47094345092773,26.479406356811523,-79.7827922692373,40.458957906617634,316.28726025390625,0.009770485572516918,-0.004032944329082966,-0.8459418416023254,0.5331704020500183,-0.03654034163704325,-0.01009871063811709,2.9836803295050736,0.07526405155658722,-0.03221159800887108,0.06658658385276794,0.1393767813127488,-0.1780344507470727,-9.903561297655106
33.2,3.4000000953674316,176.0,23.57736778259277,25.86712074279785,-79.78279242778808,40.458957961977795,316.89765759277344,0.007658910006284714,-0.0019886037334799767,-0.8457369208335876,0.5335414409637451,-0.052145984309079366,-0.026577499237590358,2.997956645225371,-0.062329266220331185,-0.058306112885475166,-0.05459590628743172,0.08119403455406428,-0.07017381919082255,-9.935020487308503
33.3,3.4000000953674316,175.0,23.41960906982422,27.298439025878906,-79.78279253176669,40.45895807372873,317.1999303894043,0.007378664333373308,-0.0006262756651267409,-0.8453806042671204,0.5341131687164307,-0.04741615443502896,-0.039302823673086684,2.9765360363994917,0.018126653507351875,-0.01917281560599804,0.010593328624963759,0.10185755562968553,-0.17610101407393813,-9.581081507205964
33.5,3.5,174.0,23.434633255004893,27.99819564819336,-79.78279260039756,40.45895811546356,317.497087677002,0.007451101671904325,0.0009024868486449124,-0.8452140092849731,0.5343753695487976,-0.05455486633620444,-0.04221907254413106,2.970486432684192,-0.050106294453144073,-0.054033588618040085,-0.03804634883999825,0.04965133935213089,-0.1761791292205453,-9.715107291340829
33.7,3.5,174.0,23.37203025817871,28.24470138549805,-79.78279272983869,40.45895820998099,318.1009008483887,0.00848377589136362,-0.00047861968050710857,-0.8450806140899658,0.5345715284347534,-0.05260311587906611,-0.034116144872796184,2.9782583003566447,0.08347973972558975,-0.022088592872023586,-0.030736451968550682,0.14437502693384888,-0.0628344352170825,-9.740699384808543
33.8,3.5,173.0,23.25058174133301,30.84493064880371,-79.78279278330123,40.45895824039967,318.39896221923834,0.011392916552722454,0.0016676402883604169,-0.8451139330863953,0.5344622135162354,-0.055230103216920685,-0.01916860441322353,2.98288249087848,0.03218822553753853,-0.0256748478859663,-0.0140673890709877,0.1745215166732669,-0.008226776607334615,-9.812147097587586
34.0,3.5999999046325684,173.0,23.46217918395996,25.636518478393555,-79.78279296869748,40.45895835762563,318.9995176391602,0.013900630176067352,0.0015021385625004768,-0.8454231023788452,0.5339140892028809,-0.07325866688700416,-0.03872910776639806,3.0260567774044627,0.015803433954715732,0.010409301146864893,0.05146563798189163,0.09815050313249232,-0.29621978050097825,-9.990214694738393
34.1,3.5,173.0,23.374534606933594,29.03192710876465,-79.78279304071337,40.45895838007437,319.3027135925293,0.01191654708236456,-0.0009725724230520427,-0.8457465767860413,0.5334509015083313,-0.06880883006934269,-0.026357118442067708,3.0347153770674837,-0.06991799175739287,-0.006436449009925127,0.005539996083825828,0.0806840842589736,-0.09775499381124972,-9.853672853708268
34.3,3.5999999046325684,172.0,23.49848747253418,26.638442993164066,-79.78279325637666,40.45895838242005,319.90669079589844,0.011492077261209488,-0.0008014647173695266,-0.8460904359817505,0.532914936542511,-0.017895051325102034,-0.02401103915250679,3.029713782456504,0.0144865233451128,0.0040191421285271645,-0.06601952016353607,0.12657745465636255,-0.11682609879411758,-9.911971932649614
34.4,3.5999999046325684,172.0,23.268110275268555,30.50300407409668,-79.78279343322146,40.458958382751774,320.51707669067383,0.010972518473863602,0.0006086610956117513,-0.8463013768196106,0.5325910449028015,-0.011433799652467236,-0.02596640984653815,3.0415296801565046,0.02639731578528881,-0.0042920541018247604,0.02489393204450608,0.10084823484532536,-0.2406460887752473,-9.870303504467008
34.6,3.5,175.0,23.38204765319824,28.729759216308594,-79.78279352288908,40.45895836943669,320.82249661254883,0.00999828800559044,-5.3207651944831014e-05,-0.8462516665458679,0.5326895713806152,-0.011208498948237416,-0.02989749606841392,3.0639416998426903,-0.038239561021327965,-0.0065417345613241204,-0.052238281816244125,0.1052225642837584,-0.07984534685499968,-9.946352391242982
34.7,3.5,174.0,23.33196449279785,29.222768783569336,-79.78279359893298,40.458958435388375,321.1286108093262,0.00907749868929386,-3.3804371923906735e-05,-0.8461366891860962,0.5328888297080994,-0.02144410732568255,-0.027971259233464787,3.04592538497342,-0.09842344373464584,-0.04356452822685242,-0.004185452125966549,0.07875935445539654,-0.0856358810607344,-9.785320072174072
34.81,3.5,174.0,23.480958938598643,26.69410514831543,-79.78279379321306,40.45895841359772,321.74035092163086,0.008557719178497791,-0.0002761826035566628,-0.8457592129707336,0.5334960222244263,0.012458486712195932,-0.02802812786959129,3.038908454852604,0.054184671491384506,0.0013392447726801038,0.02724573388695717,0.10819790169596673,-0.2796310652419925,-9.75836148440838
35.01,3.5,175.0,23.280630111694336,31.46516990661621,-79.78279387677613,40.458958393177966,322.0437261657715,0.008207395672798157,-6.421346188290045e-05,-0.8456406593322754,0.5336896181106567,0.013435770566119986,-0.021662219371735517,3.0305403358380967,0.012745068408548832,-0.011127749457955359,0.06105377525091171,0.11882494205608965,-0.23956311134621505,-9.726844407320025
35.2,3.4000000953674316,175.0,23.369525909423828,26.7418155670166,-79.7827940543335,40.45895835373084,322.66058941650385,0.007079504895955323,-0.0004583606496453285,-0.8453313112258911,0.5341953039169312,0.00590691592072492,-0.02287318980970925,3.0772140415312057,-0.05137033760547638,-0.024137521162629128,0.015369081869721413,0.0769464069698006,-0.16196582704782486,-10.080273510217667
35.31,3.4000000953674316,175.0,23.4859676361084,27.86301612854004,-79.78279412563191,40.458958330244,322.9691183166504,0.006207593716681004,-0.00047462011571042234,-0.8451469540596008,0.5344977974891663,0.01114588454775685,-0.014164863600356068,3.0915191168524245,-0.021123543381690986,0.001248832675628364,-0.02193554490804672,0.12202603681012987,-0.16568860307335853,-9.959466526508333
35.5,3.5,176.0,23.31819152832031,29.397708892822266,-79.78279434120171,40.45895831174051,323.58157940673834,0.005830941256135702,0.0003863691817969084,-0.8448205590248108,0.5350179076194763,0.012990952559864773,-0.024023460413512783,3.040315028618892,0.03471500426530838,-0.027501430362462997,-0.0037593275774270296,0.11116457791998983,-0.2349758244864643,-9.695586946606637
35.6,3.5,177.0,23.51226043701172,25.92278289794922,-79.78279440443005,40.458958301352965,323.88495083618164,0.007244077976793052,-0.0005688189412467183,-0.8448750972747803,0.5349144339561462,0.00136628263595538,-0.027137293128200138,3.031353993619869,0.05781066045165064,0.0800502821803093,0.048955969512462616,0.06280136647168548,-0.06871351819485426,-9.724620711207391
35.8,3.5,180.0,23.27061462402344,30.34396934509277,-79.78279457428904,40.45895823783499,324.5057317810058,0.009928002953529358,-0.0024460074491798878,-0.8450140953063965,0.5346462726593018,-0.006397894119669378,0.0010589284412624725,3.0245685639044564,-0.012103414162993431,0.025611443445086483,-0.05217858776450157,0.1024519616458565,-0.04575992597267032,-9.653432614803314
35.9,3.5999999046325684,180.0,23.369525909423828,27.544944763183594,-79.78279469296372,40.45895821112109,325.12623806762696,0.00992881041020155,-0.002624762011691928,-0.8455818891525269,0.5337468981742859,-0.016258607334527816,0.011920213021544905,3.072937375642677,0.05339065194129944,-0.0030216306913644075,0.061366710811853416,0.14994938774965705,-0.2967240663059056,-9.860194838047027
36.11,3.700000047683716,180.0,23.500991821289066,25.30254554748535,-79.78279474388104,40.45895820603789,325.4340307312012,0.010314196348190308,-0.0021999736782163373,-0.8456601500511169,0.5336176156997681,-0.02581315964145825,0.010454728276591723,3.0776108037020777,0.016534537076950073,-0.01832140050828457,-0.02953911386430264,0.14086996832862494,-0.06502436365932228,-9.858598548173905
36.2,3.799999952316284,180.0,23.427120208740234,27.902774810791016,-79.7827947903332,40.4589581926541,325.7506162719726,0.010616043582558632,-0.0008574253879487512,-0.84565669298172,0.5336210131645203,-0.024911502009189783,0.011616804777923687,3.0640465360377664,0.031778465956449516,-0.025604724884033203,-0.03963334485888481,0.13979015205055476,-0.21032869588583708,-9.692180943489076
36.4,3.799999952316284,180.0,23.24306869506836,29.85891151428223,-79.7827949057599,40.458958242804385,326.37280102539063,0.011675161309540272,0.0009598196484148502,-0.8453271389007568,0.5341206789016724,-0.06057009955196715,-0.00237945715825557,3.0561939875140585,-0.0030452630016952753,-0.0014507716987282038,0.037320561707019806,0.1078533088322729,-0.33961293630301953,-9.80822127699852
36.51,3.799999952316284,181.0,23.559837341308594,25.453628540039066,-79.78279494721501,40.45895825601641,326.67924710083014,0.0117556843906641,0.0002593351528048516,-0.8453093767166138,0.5341478586196899,-0.06187902407397883,-0.006735487069856758,3.0788667331063984,-0.013435181230306624,0.01681981049478054,0.016663162037730217,0.0339923793473281,-0.2885478863865137,-10.005820913314821
36.7,3.799999952316284,179.0,23.41960906982422,27.78349876403809,-79.78279501321839,40.45895823578453,327.30176754760737,0.012920747511088848,-0.00017707183724269268,-0.8454913496971129,0.5338327884674072,-0.052587343860474464,0.0062571392264538575,3.0675701408475065,0.015066933818161488,0.017015399411320686,-0.026550080627202988,0.08068090483546257,-0.11216430561617018,-9.723790991306306
36.81,3.799999952316284,179.0,23.4221134185791,26.853139877319336,-79.78279511181272,40.45895824718979,327.9140111999512,0.009572502225637436,0.00103063287679106,-0.8451021313667297,0.5345182418823242,-0.04558219095917233,-0.010862941344859607,3.060483225955208,-0.02673938125371933,-0.059599924832582474,0.0041546737775206575,0.01209895812906325,-0.10575044908560813,-9.734286158680916
36.9,3.9000000953674316,179.0,23.447153091430664,25.7876033782959,-79.78279520547112,40.45895825342275,328.2301084594726,0.009199547581374643,0.00273630628362298,-0.84478360414505,0.5350220799446106,-0.04093078700851192,-0.021558697846273192,3.07315073461734,-0.025166543200612068,-0.020700978115201,0.029117543250322345,-0.008000891357660293,-0.16143577694892886,-9.812045356035233
37.1,3.9000000953674316,178.0,23.434633255004893,27.00422477722168,-79.78279526776201,40.45895825781137,328.53673764038086,0.009900720790028572,0.003820813493803144,-0.8446040153503418,0.5352863669395447,-0.028180940628648312,-0.037919431916235966,3.0601861176108067,0.10063700377941133,0.03769881650805473,0.10019246488809586,0.014084469282533974,-0.4542020639777184,-9.757038844227793
37.3,3.9000000953674316,178.0,23.44214630126953,25.723989486694336,-79.78279533453698,40.45895829912967,329.15722103881836,0.010236709378659723,0.002843653317540884,-0.844204306602478,0.535916268825531,-0.04327287645090112,-0.02513604663600413,3.0446632804069718,0.0420612283051014,-0.003216033801436425,0.12888339161872864,0.053055588304996494,-0.3066481251642108,-9.754236858487127
37.4,3.799999952316284,178.0,23.21051597595215,30.542762756347656,-79.78279543263308,40.45895831518978,329.475000579834,0.009311459958553314,0.002507498022168875,-0.8442546129226685,0.5358555912971497,-0.052879988597373764,-0.026649731645537026,3.0702767187976616,-0.05173388123512268,-0.030223477631807324,-0.0028592273592948914,0.07597853746265174,-0.1099462831299752,-9.868625353574751
37.6,3.799999952316284,179.0,23.38329887390137,27.77554702758789,-79.78279553459276,40.45895832807438,330.0916502075196,0.008966322988271713,0.001294939429499209,-0.8449071049690247,0.5348362922668457,-0.03898600226407432,-0.019609678528875428,3.0993884068512734,0.04650643467903137,-0.002026678528636694,-0.026635013520717614,0.10384810315445066,-0.2681437167339027,-9.921672463417053
37.7,3.799999952316284,179.0,23.34323310852051,28.864938735961914,-79.78279553426107,40.45895836653922,330.71467419433594,0.01203418616205454,-0.0004015705781057477,-0.8453042507171631,0.534149706363678,-0.08664942839446498,0.009295255804528741,3.0882359641002903,-0.010289465077221394,-0.02006899565458297,0.05506257340312004,0.1242894117627293,-0.41027525838464496,-9.839148370027543
37.81,3.799999952316284,180.0,23.557334899902344,24.17339324951172,-79.78279554590803,40.45895839461973,331.0239317016602,0.013539066538214684,-0.00215612119063735,-0.8447281718254089,0.5350200533866882,-0.08715540313241063,0.018773627088779183,3.0886903821358374,0.0256322268396616,0.07587449252605437,-0.0012373658828437328,0.16838279904797673,-0.2668152110651136,-9.775392669439317
38.0,3.799999952316284,181.0,23.42962455749512,26.82928466796875,-79.78279556168769,40.45895839864871,331.33849163818365,0.016966039314866066,-0.0021854876540601254,-0.8439823985099792,0.5360980629920961,-0.0960711328546247,0.035046114480490664,3.060872066334003,-0.038778334856033325,0.04350271448493004,-0.12607154250144958,0.1645207679271698,-0.024616284538060428,-9.59609423339367
38.2,3.700000047683716,185.0,23.38705444335937,25.97049331665039,-79.78279553536575,40.45895843581994,331.9596082763672,0.017585648223757744,-0.001806918764486909,-0.8422905802726746,0.5387338399887085,-0.10577299623645037,0.0495113881943862,3.0277183129581164,0.0216037817299366,0.027170533314347267,0.06506887078285217,0.16646558839827774,-0.2746838639862835,-9.59814368247986
38.31,3.700000047683716,187.0,23.39832305908203,28.1572322845459,-79.78279555822046,40.45895844911033,332.577051361084,0.01677309162914753,-0.0010612072655931117,-0.841693639755249,0.5396938920021057,-0.08594720105704064,0.0484323375996614,3.013776144262665,-0.02382950112223625,-0.05613546073436737,0.017012815922498703,0.11730561615899204,0.10480157389305532,-9.599758098721503
38.5,3.700000047683716,189.0,23.280630111694336,28.093616485595703,-79.78279557381812,40.458958454643344,332.8783475952148,0.01631348207592964,-1.873984365374781e-05,-0.8422424197196959,0.5388522148132324,-0.062079209054984624,0.04471637687732352,3.013090579387681,0.13983458280563354,-0.005473238416016103,0.09880205988883972,0.2790547125041485,-0.3491834761574865,-9.836345214843753
38.6,3.5999999046325684,191.0,23.36451911926269,27.831209182739247,-79.78279558952472,40.45895845167072,333.18080731201167,0.01417515892535448,0.0008909440948627889,-0.8432077765464783,0.5374002456665039,-0.07587656742092873,0.04481015853997497,3.0390114561314867,-0.05300646275281906,-0.03949009999632835,-0.03764217719435692,0.18833516165614128,0.0947362956404686,-9.984800173044203
38.8,3.5,194.0,23.427120208740234,26.16133689880371,-79.78279553894754,40.45895841011839,333.81065960693365,0.011960875242948532,-0.0009916580747812986,-0.8454622626304626,0.5339003801345825,-0.0412134601481953,0.04524290944565361,3.1025253300009137,-0.057964589446783066,0.012237096205353735,-0.01980302296578884,0.12855797055177393,-0.12301752358675005,-10.026028890609744
38.91,3.4000000953674316,194.0,23.46593475341797,25.57290458679199,-79.78279555134851,40.45895838453493,334.12158032226563,0.011735835112631321,-0.002877631224691868,-0.8466441035270691,0.5320222973823547,-0.020024133755235842,0.04659738281319002,3.1128857460417145,0.0010633656056597829,0.05882466584444046,-0.009599294513463974,0.17732691938057546,-0.25613989463076,-9.943852121829988
39.1,3.4000000953674316,196.0,23.3394775390625,28.276508331298828,-79.78279550810004,40.45895831725957,334.74237652587885,0.013151858001947405,-0.008775780908763409,-0.8485386371612549,0.528897225856781,-0.017363330903071926,0.07217892771731989,3.070029111156023,-0.013857249170541763,0.04341131076216698,-0.012830371968448162,0.22125798247754566,-0.2278696484863758,-9.641019560694692
39.2,3.299999952316284,198.0,23.24432182312012,28.67409706115723,-79.78279552073082,40.45895826392624,335.361662109375,0.012888885103166105,-0.009925808757543564,-0.8490836024284363,0.5280081033706665,-0.02047879873019757,0.0903661336736934,3.078400951990493,-0.014061306603252888,-0.019934950396418568,0.034942496567964554,0.2448427085392177,-0.05936153629794717,-9.746058357954023
39.4,3.299999952316284,200.0,23.42837333679199,26.15338516235352,-79.78279554579488,40.45895825530037,335.67048474121094,0.013268845155835152,-0.007733746431767939,-0.8489847779273987,0.5281941890716553,-0.013619152239961706,0.0749667340590375,3.0896587335976835,0.059926629066467285,-0.023939294740557667,-0.05377085879445076,0.2298598031513393,-0.24932001292705536,-9.89225979924202
39.51,3.299999952316284,200.0,23.37578582763672,27.19506645202637,-79.78279552380103,40.45895827886451,335.98608227539063,0.013773052021861076,-0.0066546350717544564,-0.8486579060554504,0.5287209153175354,-0.04644765552799317,0.06028646304705317,3.0694226090851275,-0.07673539966344832,-0.05566711723804474,-0.06726272404193878,0.15891575491055848,-0.17794718105345966,-9.683320657610894
39.7,3.299999952316284,201.0,23.29315185546875,27.68807601928711,-79.78279556546906,40.458958268260105,336.6059705810547,0.014502984471619131,-0.005761793814599514,-0.8467226624488831,0.5318056344985962,-0.05196227141299999,0.039338600171138105,3.07193507784056,-0.07493224740028381,-0.035995963960886,-0.06548774987459183,0.1223017878457904,-0.2336026607081294,-9.84644335627556
39.8,3.299999952316284,200.0,23.45466613769531,25.843265533447266,-79.78279566585816,40.45895829278721,337.22093792724615,0.013784101232886314,-0.0034170548897236586,-0.8445417881011963,0.5353013873100281,-0.049308342741704266,0.026370894122305786,3.071968703623741,0.03770650923252106,-0.055919136852025986,0.06140999123454094,0.17320313399657608,-0.30357007775455713,-9.865874823331831
39.9,3.299999952316284,201.0,23.407087326049805,26.43964767456055,-79.78279555158252,40.458958264007826,337.5408994750977,0.013828659430146216,-0.0016645508585497735,-0.8440723419189453,0.5360484719276428,-0.03565420073905733,0.0329608895193277,3.0615221919260787,0.11603487282991408,0.035263583064079285,0.04431398585438728,0.2199594620615244,-0.3996823694184423,-9.69232420027256
40.1,3.299999952316284,203.0,23.29690742492676,29.516984939575195,-79.78279558538637,40.45895826423864,337.84703656005865,0.014611734077334404,-0.0007420976762659848,-0.8440115451812744,0.5361256003379822,-0.05558378735719231,0.029027597240798488,3.0642665188854483,0.01718638651072979,0.04627988860011102,-0.003476692596450448,0.14111120251938702,-0.1869414047151804,-9.832307127714158
40.3,3.4000000953674316,203.0,23.43838882446289,25.71603775024414,-79.78279555659506,40.458958276168865,338.4758817749024,0.014780431054532528,-0.0013921847566962242,-0.8447210788726807,0.5350008606910706,-0.08154128469357506,0.039041358790564654,3.1329273649007914,-0.03457307070493698,-0.01173337921500206,0.01912287063896656,0.08913689229637385,-0.27128741741180423,-10.141559346914292
40.4,3.4000000953674316,203.0,23.40834045410156,24.66640281677246,-79.78279554217374,40.45895829625904,338.79443188476563,0.015222842805087566,-0.0017547215102240445,-0.8450127840042114,0.5345265865325928,-0.08601544586716538,0.02909758924774805,3.1273478739514484,-0.032021842896938324,-0.0206204392015934,0.044273961335420615,0.13916708554141224,-0.29636744096875195,-9.98206133723259
40.6,3.5,201.0,23.380794525146484,26.29651641845703,-79.78279559109953,40.4589583160776,339.41723461914063,0.021200256422162056,0.0010457298485562203,-0.8443179726600647,0.5354220271110535,-0.08162161203897972,0.0461820897748042,3.0895063658174142,0.04286954179406166,-0.01902064494788647,-0.12801001965999606,0.3049951903894544,-0.2626584437303245,-9.613721834421158
40.71,3.5,202.0,23.397071838378906,26.98832130432129,-79.78279560597551,40.45895832924453,339.73379345703125,0.02187072671949864,0.0012794319773092866,-0.8439220190048218,0.536018431186676,-0.11074212559140464,0.039403846375327636,3.0661440594905036,-0.02387434802949429,0.04972521588206291,0.017863521352410316,0.1916502953879536,-0.18527041666209693,-9.589710828065874
40.9,3.5,202.0,23.39206314086914,25.89097595214844,-79.78279564568435,40.45895833502125,340.36368389892584,0.02078470587730408,-0.002366017550230027,-0.8440066576004028,0.5359246134757996,-0.08133312206762049,0.05631395533945735,3.051243285261533,0.022264277562499046,0.02025058306753636,-0.04897239804267883,0.2724115628935397,-0.27529451429843904,-9.611567135453225
41.0,3.4000000953674316,204.0,23.49723625183105,25.97049331665039,-79.78279570858308,40.458958314199975,340.9705946044922,0.018253527581691745,-0.006422892678529024,-0.8447041511535645,0.5348837375640869,-0.059756612751979986,0.06446045191488575,2.9996596878578634,-0.03869710862636566,-0.0187593512237072,0.03500338643789292,0.2014187452197075,-0.06483725275844336,-9.616916753053664
41.2,3.5,207.0,23.27812767028809,29.381805419921875,-79.78279577089927,40.45895826523166,341.2894727783203,0.017901737242937088,-0.006318015977740289,-0.84504234790802,0.5343624353408813,-0.03288903824961717,0.06399142162782724,2.9896574501906352,0.10059304535388948,-0.0075394646264612675,0.10569964349269867,0.3027384757809341,-0.4082273076474667,-9.530063381195069
41.3,3.5,206.0,23.27061462402344,28.16518402099609,-79.78279581096722,40.458958255433494,341.58881970214844,0.017430560663342476,-0.0057998597621917725,-0.8452447056770325,0.5340636372566223,-0.04343058316446982,0.06123367011476756,2.9996080198401613,0.08106246590614319,0.0478358305990696,0.033308625221252434,0.318492793366313,-0.17239342253655196,-9.834479953050613
41.5,3.4000000953674316,208.0,23.50975608825684,23.24303436279297,-79.78279576408565,40.45895815863156,342.2186262207032,0.016854792833328247,-0.004978232085704804,-0.8457980155944824,0.5332137942314148,-0.05108826030478236,0.06794625756699517,3.071513793460464,0.041468702256679535,0.037660453468561166,-0.09957608580589294,0.21358530264347791,0.02185857318341732,-9.930393000841141
41.6,3.4000000953674316,208.0,23.67753028869629,21.62882423400879,-79.78279578717228,40.45895815084841,342.52449627685553,0.01982979848980904,-0.0045496271923184395,-0.8462216854095459,0.532442569732666,-0.05506625705423924,0.0647211884175623,3.0370084595210014,0.07268910109996796,0.0278384368866682,0.058939311653375626,0.2303969795443117,-0.23913867658004165,-9.546211636662484
41.7,3.299999952316284,208.0,23.696311950683594,20.30883026123047,-79.78279579563939,40.45895815926925,343.12428875732417,0.023968245834112167,-0.004537809640169144,-0.8461803197860718,0.5323381423950195,-0.08486456370139522,0.06846797615485294,2.8217438254979266,0.00762906251475215,0.0036574834957718854,-0.11292435228824615,0.2606697508692741,-0.1655257946625352,-8.629656490087509
41.91,3.299999952316284,209.0,23.7000675201416,21.207380294799805,-79.78279583489989,40.45895813052421,343.688680847168,0.024979293346405036,-0.0039843637496233,-0.8457974791526794,0.5329040884971619,-0.06554553277260748,0.0511174727540245,2.569334731024796,0.04816198721528053,0.04327870532870293,0.01890427246689796,0.2023997070081532,-0.4910870312154294,-8.420203378200531
42.11,3.299999952316284,209.0,23.702571868896484,21.398223876953125,-79.7827958889457,40.45895812233957,343.93897076416016,0.025799743831157684,-0.0028936036396771674,-0.8455756902694702,0.5332239866256714,-0.06745780701451742,0.041126697884879417,2.4332246258731907,-0.017639469355344772,-0.04378677532076836,0.02438774891197681,0.11721827337518335,-0.12686828054487706,-8.387229759693145
42.2,3.299999952316284,209.0,23.67377471923828,21.70039176940918,-79.78279586913943,40.458958108099104,344.1927091674805,0.02587343193590641,-0.0005440042004920542,-0.8454588055610657,0.5334133505821228,-0.05678894298713029,0.03721273427427119,2.3190547626149067,0.0011286423541605473,-0.047745149582624435,-0.08512313663959503,0.2379010220244527,-0.13621609630063178,-8.449220770597455
42.31,3.299999952316284,211.0,23.543561935424805,23.48158836364746,-79.78279586604884,40.45895807334118,344.65818615722657,0.024484815075993538,-0.0014792458387091756,-0.8454400300979614,0.5335068106651306,-0.024797973169346826,0.015833791263655733,2.115080310211839,0.025781994685530663,0.0388762429356575,0.013986033387482166,0.26834984935820105,-0.322402387931943,-8.661282910108566
42.51,3.299999952316284,210.0,23.54731750488281,23.529298782348643,-79.7827960362002,40.458958001600976,345.06487103271485,0.023872727528214455,-0.0048408955335617065,-0.8453739285469055,0.5336193442344666,-0.011757141323669708,0.007903948371975875,1.9659525318574544,-0.15682365000247955,-0.05433947220444679,-0.09103917330503464,0.1954450652562082,0.010518958233296872,-8.870027339458465
42.7,3.2000000476837163,212.0,23.663759231567386,22.7977352142334,-79.78279595298288,40.45895793042869,345.3057310180664,0.024256329983472824,-0.0066694729030132285,-0.8452875018119812,0.5337193012237549,0.029123343547552562,0.01767777550656685,1.9544200467821269,0.06116274744272233,0.14761978387832642,0.031641777604818344,0.2348301374539733,-0.31368046179413794,-9.119091829061508
42.81,3.0999999046325684,216.0,23.543561935424805,22.686410903930664,-79.78279592841633,40.45895776626231,345.7495939331055,0.02396036870777607,-0.011103712022304537,-0.8451282978057861,0.5339108109474182,0.030452222592385482,0.030503028184465562,1.865716848608856,-0.10164657980203627,0.047513142228126526,0.08622605353593826,0.2816762020066381,-0.3989742350578308,-9.087427986860275
43.01,3.0999999046325684,216.0,23.62118911743164,22.2331600189209,-79.78279613064353,40.45895765497513,346.1089460449219,0.019946226850152016,-0.016919050365686417,-0.8453518152236938,0.5335693955421448,0.038070698794479836,0.016531747160096692,1.7308435236660045,-0.1966475248336792,-0.09774362295866013,-0.0775272473692894,0.18248019844293595,-0.21063081420958046,-9.072596524357797
43.2,3.0,216.0,23.61117172241211,22.392194747924805,-79.78279604122467,40.45895752876905,346.35021801757813,0.01810829155147076,-0.017143422737717632,-0.8455269932746887,0.5333500504493713,0.07956507307669085,0.025438404469833517,1.737990896184885,0.05807385966181755,0.03952821344137192,0.13257956504821775,0.3705573517084122,-0.4950566693767906,-9.201825837492942
43.31,3.0,218.0,23.62995338439941,21.84352302551269,-79.78279615688747,40.45895748024946,346.52161236572266,0.016858810558915138,-0.015108485706150532,-0.8457282781600952,0.5331333279609679,0.05594053677240509,0.013677558489543164,1.694983372747904,-0.05775349587202073,-0.0913262590765953,-0.0713794082403183,0.2616441528126597,-0.03505290666595102,-9.253335714340212
43.5,3.0,219.0,23.71384048461914,19.426183700561523,-79.78279609262053,40.4589572196526,346.933927734375,0.01659538224339485,-0.01042020134627819,-0.8457499742507935,0.5332196354866028,0.06452829968223295,0.0038992647526909577,1.6268625359663578,0.1274615377187729,0.050400007516145706,-0.034909509122371674,0.2671187181025744,-0.1893837501481176,-9.041206916570665
43.6,2.9000000953674316,220.0,24.71297645568848,6.2580461502075195,-79.78279613189649,40.45895694385661,347.31147595214844,0.017616933211684227,-0.005089767277240753,-0.8452322483062744,0.5340844988822937,0.051275072573140144,0.0010988902184744275,1.3795234252945658,0.0698142722249031,-0.02307962439954281,-0.08424369990825653,0.18380769912153488,-0.2591137702390552,-8.986748288869858
43.7,2.799999952316284,219.0,23.67878341674805,19.4659423828125,-79.78279620837398,40.45895691469611,347.43374462890625,0.01786615140736103,-0.003024033969268203,-0.8331352472305298,0.5527724027633667,0.0074583665491743814,-0.01782756453725469,1.0904196818098564,-0.009302293881773949,-0.048946943134069436,-0.8546063899993896,0.14431126487441362,-0.3612654682248831,-7.214483537077903
43.91,2.799999952316284,217.0,23.75015068054199,22.654603958129893,-79.7827963222153,40.45895697255653,347.5233823852539,0.018058711662888527,-0.0013407396618276837,-0.8070812821388245,0.5901627540588379,0.0027492202418060016,-0.03288648589978753,0.9152026998157908,0.056600220501422875,-0.03210356459021568,-1.0368465185165403,0.22289794374257327,-0.3661261855065823,-7.811060332059863
44.1,2.700000047683716,220.0,23.632457733154297,22.217256546020508,-79.78279646408411,40.45895698015612,347.67883892822266,0.016320938244462013,0.0002495944791007787,-0.7334533333778381,0.6795438528060913,-0.02966479149829336,-0.046250774332264516,0.6663381537653028,-0.09031137079000473,-0.04417019709944725,-1.4565443992614746,0.2071077571436763,-0.16131989244371653,-8.646591780781746
44.21,2.5999999046325684,222.0,23.70382308959961,20.96087646484375,-79.78279648807161,40.45895707783941,347.71812268066407,0.015358544886112213,-6.457923882408068e-05,-0.6862989068031311,0.7271575331687927,-0.011879645415247813,-0.04241776370475064,0.5925105553259464,0.029495382681488987,-0.016982268542051315,-1.2847875356674194,0.19846626676619053,-0.1988654305972159,-8.909145796895027
44.4,2.5999999046325684,205.0,23.71008491516113,20.261119842529297,-79.78279659897626,40.458957183196354,347.78513928222657,0.016719182953238487,-6.51487207505852e-05,-0.603018581867218,0.7975519299507141,-0.0020822374190500284,-0.018263190767220102,0.4845911610101822,0.0049119582399725905,-0.02674650214612484,-0.8818264603614807,0.4359533790126443,-0.12972603410482408,-9.291163106560708
44.5,2.5999999046325684,197.0,23.62494468688965,26.9167537689209,-79.7827966224325,40.45895716054364,347.83183880615235,0.019176296889781952,0.0009687782148830592,-0.5716739892959595,0.8202561736106873,0.015187296445712959,-0.004452865677187981,0.4508718095286359,0.03898420929908752,0.01902492716908455,-0.62617427110672,0.3701248770207167,0.009360094908624888,-9.358404332399367
44.6,2.5,203.0,23.54481315612793,23.664478302001953,-79.78279653989541,40.45895721842125,347.8696958618164,0.02811439894139767,0.00903376378118992,-0.5357481837272644,0.8438613414764404,0.0991618035679327,0.041389738675639734,0.4443348835562183,0.2490269094705581,-0.13355606794357305,-0.10179276764392853,0.6443520551919938,-0.012685004454106093,-9.893484206199648
44.8,2.5,206.0,23.68253898620605,21.87532997131348,-79.78279647079444,40.45895716452325,347.91332836914063,0.019176321104168892,0.024649111554026604,-0.5290490984916687,0.8480164408683777,0.1241550363925031,0.10402598309468564,0.4538926722272166,0.12966559827327728,-0.5230705738067627,-0.04713447019457817,0.8160740346461535,-0.01638735176995397,-9.877743501663213
45.0,2.4000000953674316,200.0,23.5786190032959,23.354360580444336,-79.78279571245369,40.45895709057479,348.0117780761719,-0.034077391028404236,0.05314915999770165,-0.5286305546760559,0.8465008735656738,0.1858812869864424,0.2491766766192413,0.5302117501108717,-0.14750173687934875,-0.5719730854034424,0.0796034038066864,0.4198896889016032,-0.05878870102576912,-9.853072929382325
45.1,2.4000000953674316,194.0,23.74138641357422,21.52545166015625,-79.78279521098119,40.45895702986089,348.0620710449219,-0.05597846582531929,0.060954418033361435,-0.5327318906784058,0.8422279357910156,0.2490099979085869,0.3721652154067393,0.5628935284085722,-0.009835135191679,-0.3174729645252228,0.2400464564561844,0.21836072366684675,-0.19082190938293936,-9.908945413827896
45.3,2.299999952316284,200.0,23.728864669799805,21.565210342407227,-79.78279411209951,40.458957408769066,348.041708190918,-0.08025041222572328,0.06294780969619751,-0.5433889031410217,0.8332623839378357,0.24507222682341234,0.7326314744790227,0.5843729025298706,-0.1000381037592888,-0.1549443006515503,0.1607823669910431,0.2656221598014236,-0.08329962604679167,-9.884355533123015
45.4,2.299999952316284,202.0,23.450910568237305,24.53122329711914,-79.78279183309286,40.45895796744425,348.04611798095704,-0.09166313707828523,0.062240298837423325,-0.5523406863212585,0.8262227177619934,0.2132987247043781,1.1719513144793798,0.6033472730971212,-0.04829048365354538,-0.1081305295228958,0.12540534138679504,0.3204073179513216,0.0915077555179596,-9.746052510738373
45.6,2.200000047683716,199.0,23.541057586669922,23.8076114654541,-79.78279021731741,40.458958283733004,348.0805112915039,-0.0953543335199356,0.06395510584115982,-0.5551594495773315,0.8237810730934143,0.1991649949947415,1.4176892676590365,0.6805084423891146,0.02408949472010136,-0.05442032590508461,0.048141375184059136,0.2493405512720347,-0.11942499428987505,-10.150855250358582
45.71,2.0999999046325684,198.0,23.53104019165039,22.81363868713379,-79.78278851125455,40.458958927291704,348.0461256103516,-0.0968250185251236,0.06649212539196014,-0.5561383962631226,0.8227477669715881,0.14553421589309318,1.6391046721418254,0.7457484663493331,0.00724206306040287,-0.12754936516284945,0.00815585907548666,0.2955976733006537,-0.09712091809138657,-10.30840145945549
45.81,2.0,191.0,23.490976333618164,24.777727127075195,-79.78278412817178,40.458960371492296,348.0416700439453,-0.09732342511415484,0.07539837062358856,-0.5550715923309326,0.8226413130760193,0.0855039289720673,2.1288257910963324,0.8628606233031774,-0.0895838737487793,-0.13487669825553894,-0.2006050944328308,0.20999796275049448,0.11729372072964908,-10.15948574066162
46.0,1.8999999761581416,186.0,23.39206314086914,26.02615547180176,-79.78278145042245,40.458961088834144,348.07578106689454,-0.09919697791337967,0.07942759245634079,-0.5533432960510254,0.8232026100158691,0.10774208885035357,2.377253556458267,0.9648370921949192,0.12150073796510695,-0.0295442845672369,-0.00946362130343914,0.21732335451990367,-0.08981001645326615,-10.372199259996414
46.1,1.8999999761581416,169.0,23.54982185363769,21.87532997131348,-79.78277540534046,40.45896312067933,348.0850278930664,-0.10053753852844237,0.08112770318984985,-0.5467455387115479,0.8272725939750671,0.10087982803311456,2.8576201379130435,1.1627416325226143,-0.05872496962547302,-0.049643415957689285,-0.04264762997627258,-0.008166833510622383,-0.20222027057781816,-10.393086683750154
46.31,1.8999999761581416,158.0,23.40834045410156,25.93073463439941,-79.78276805551582,40.45896517439247,348.16023083496094,-0.09807293117046356,0.08351127058267592,-0.5411075949668884,0.8310296535491943,0.19596734724217485,3.3541589365948714,1.2783816247802575,0.052373819053173065,0.06759567558765411,-0.09330105036497116,0.030900326028931887,-0.05968442137353123,-10.070714482069015
46.4,2.0,139.0,23.4033317565918,26.15338516235352,-79.78276442835642,40.458966839724006,348.1220914916992,-0.09644624590873717,0.0835563912987709,-0.5370959043502808,0.8338133096694946,0.16333187589186546,3.5764929850205056,1.3328077434456405,-0.03687503188848496,0.07285761088132857,-0.1164209172129631,-0.07243406040128321,0.045969164930284016,-10.351212433576585
