time,wind_speed,wind_angle,battery_voltage,battery_current,position_x,position_y,position_z,orientation_x,orientation_y,orientation_z,orientation_w,velocity_x,velocity_y,velocity_z,angular_x,angular_y,angular_z,linear_acceleration_x,linear_acceleration_y,linear_acceleration_z
0.0,0.8000000119209291,70.0,24.99343681335449,0.03180709481239319,-79.78280804110669,40.45901614844417,267.2827513642311,0.005907194223254919,0.011579408310353756,-0.8195130825042725,0.5729130506515503,0.0047919944218172365,0.002637629390838877,0.007697368093825039,-0.0014707718510180714,0.00208263867534697,-0.0010737188858911397,-0.1207361684460193,-0.22351939313113686,-9.804458009004591
0.2,0.8000000119209291,71.0,24.994688034057607,0.039758868515491486,-79.78280804023544,40.459016143248334,267.2834902234077,0.00590773019939661,0.011579178273677826,-0.8195157051086426,0.5729092359542847,0.005100524466420691,0.0027220836280263585,0.0074432194281849875,0.0017356490716338158,0.000976300856564194,-0.0025436554569751024,-0.11929617282003165,-0.2221686863154173,-9.804334632754326
0.3,0.8000000119209291,69.0,24.99218368530273,0.039758868515491486,-79.78280802694067,40.45901618159815,267.2789999074936,0.0059032333083450786,0.011572743766009808,-0.8195157051086426,0.572909414768219,-0.0007930958496919436,0.0006838353754083568,0.007229578043784215,0.0005821016384288669,0.001086317701265216,0.00010463847138453276,-0.11770610474981368,-0.22340160828083755,-9.80500823199749
0.4,0.8000000119209291,67.0,24.99594116210937,0.039758868515491486,-79.78280802581355,40.45901618188161,267.2797171897888,0.00590329896658659,0.01157230045646429,-0.8195181488990784,0.5729060769081116,-0.0009354274632158744,0.0008057649531132054,0.0071557826457196595,-0.00038062455132603645,0.001079594250768423,0.003907265607267618,-0.11835205762647093,-0.2240112718753517,-9.8056911867857
0.61,0.8999999761581421,67.0,24.98467254638672,0.039758868515491486,-79.78280801427198,40.4590161960242,267.27536861372,0.00590283889323473,0.011571897193789482,-0.8195209503173828,0.5729019641876221,-0.00044280175576283517,0.0008477636012831911,0.007059994196630387,-0.0018023612210527067,-0.0010823949705809355,0.0004926506080664693,-0.11786697627045215,-0.22310583053156727,-9.80569469511509
0.7,0.8000000119209291,66.0,24.99218368530273,0.03180709481239319,-79.78280798478342,40.45901621565788,267.27143005800247,0.005899632815271616,0.01157330721616745,-0.8195211887359619,0.5729016661643982,-0.0013693887907389511,0.00334258229506912,0.00992915054470474,0.003525307402014733,0.0014882136601954699,-0.0008762804791331291,-0.12006917472928764,-0.22436656331643465,-9.803637059926988
0.9,0.8000000119209291,68.0,24.998443603515625,0.03180709481239319,-79.7828079757747,40.45901621528287,267.27337573242187,0.005900092888623476,0.01157334353774786,-0.8195234537124634,0.5728984475135803,-0.0011614901412726364,0.0036433791311808656,0.009476132093712949,0.00016206549480557442,0.0003755635698325932,-0.0032360260374844074,-0.11951934459619225,-0.2228234648332,-9.804513557553292
1.1,0.8000000119209291,65.0,24.994688034057607,0.03180709481239319,-79.78280796597032,40.459016210443174,267.2678992576599,0.00590348057448864,0.01157589815557003,-0.819523274898529,0.5728986263275146,0.0028272085025686485,0.004042651613137749,0.00892622659850865,-0.001859731739386916,-0.0007966052507981657,-0.001216020667925477,-0.11592178121209144,-0.22475913075730208,-9.804511803388596
1.2,0.8000000119209291,64.0,24.99343681335449,0.04771064221858978,-79.78280795162578,40.45901620771536,267.2631137199402,0.005905367899686097,0.011576707474887371,-0.8195261359214783,0.5728945136070251,0.0051766868796566,0.003975082271998488,0.008269351595512148,0.001803713385015726,0.00265261298045516,0.0003743214765563607,-0.11706793597899375,-0.2189140529930592,-9.80283716082573
1.4,0.8000000119209291,60.0,24.99093246459961,0.04771064221858978,-79.7828079491301,40.45901620184978,267.2639115281105,0.005905367899686097,0.011576707474887371,-0.8195261359214783,0.5728945136070251,0.0052051610008329975,0.004144612359325838,0.008022365720434448,0.00021757924696430564,-0.00019947788678109649,-0.004688045009970665,-0.119461740385741,-0.22222809037193653,-9.803482693433764
1.5,0.8000000119209291,61.0,24.98967933654785,0.02385532110929489,-79.78280791451787,40.459016210723405,267.2593846149444,0.005901867523789406,0.01157583761960268,-0.819528341293335,0.572891354560852,0.0029685581278593265,0.005997536058085654,0.0077310530366164094,0.0011260828468948605,-0.002715115202590823,-0.003807316301390529,-0.11855358556844295,-0.2260773124359549,-9.805416367650034
1.7,0.8000000119209291,60.0,24.99594116210937,0.039758868515491486,-79.78280790903733,40.45901620613543,267.26013050746917,0.005902502220124006,0.0115757267922163,-0.8195312023162842,0.5728872418403625,0.0031480939777636732,0.006150959235458938,0.007461632762860108,0.0013175245840102436,0.0021246173419058323,0.000381196936359629,-0.11580410599708554,-0.22540676470845936,-9.805219316482543
1.8,0.8000000119209291,58.0,24.99218368530273,0.04771064221858978,-79.78280789319696,40.459016224510016,267.2578481860161,0.005902200471609831,0.011572538875043392,-0.8195313811302185,0.5728870034217834,0.0018234914934264386,0.004152065837335977,0.011018050742687285,0.00235777348279953,0.0022410748060792685,0.0021984861232340336,-0.11975784704089165,-0.2222283827327192,-9.803475676774982
1.91,0.699999988079071,63.0,24.979663848876953,0.039758868515491486,-79.78280788901358,40.45901622145776,267.25893561315536,0.0059024998918175715,0.011572501622140408,-0.8195335268974304,0.5728840827941895,0.0015195576950965198,0.004486267014660031,0.010927621964137586,-0.00502203032374382,-0.0008599136490374804,-0.004859226755797863,-0.1209407570399344,-0.22293733935803176,-9.803217814564707
2.1,0.699999988079071,65.0,24.9971923828125,0.07156596332788467,-79.78280790829143,40.45901618667028,267.2570862598419,0.005912411957979202,0.011575039476156236,-0.8195354342460632,0.5728811621665955,0.010975096619812792,0.0015256916328815699,0.014268033184310594,-0.0021640772465616465,0.00024589788517914707,0.00014383063535206014,-0.1219167761038989,-0.2251357645355165,-9.804550395011905
2.3,0.6000000238418579,69.0,24.9871768951416,0.06361418962478638,-79.78280786619689,40.459016212658966,267.2531260080337,0.005904810968786478,0.011573920026421549,-0.8195356130599976,0.5728810429573059,0.0053832528921274395,0.004454748550696079,0.015522751618471085,-0.0038395989686250687,-0.002053649863228202,-0.0016204738058149815,-0.11851321237161755,-0.22166807329282165,-9.805255569219591
2.4,0.6000000238418579,69.0,24.98467254638672,0.04771064221858978,-79.78280786028391,40.45901619967158,267.25613902282714,0.005905572790652514,0.011574169620871544,-0.8195387125015259,0.5728765726089478,0.0053980812562779475,0.00492249831723226,0.015038698397934884,-0.0012667675036936998,-0.002820893190801144,-0.00674670934677124,-0.1158377366233617,-0.229617143701762,-9.805288898348813
2.6,0.5,68.0,24.9971923828125,0.015903547406196594,-79.78280784393067,40.45901621929001,267.25085644197463,0.005904315505176783,0.011571776121854782,-0.8195384740829468,0.5728769302368164,0.004208177727630518,0.0037532301945318617,0.012780990662187177,-0.0005975174717605112,0.004695525858551264,0.0031754453666508198,-0.11975268504582348,-0.22855702523142105,-9.803358732461929
2.7,0.5,70.0,24.994688034057607,0.02385532110929489,-79.78280782139582,40.45901623473081,267.24862269830703,0.005902837961912154,0.011569034308195114,-0.8195411562919617,0.5728731751441956,0.002311808794221939,0.002579840494319508,0.014783093138519478,0.0011236593127250671,0.005932155065238476,-0.0018094255356118085,-0.1201293645054102,-0.22285482052713634,-9.804089634418489
2.8,0.4000000059604645,69.0,24.99594116210937,0.04771064221858978,-79.7828078191514,40.45901623170509,267.2500889725685,0.005902837961912154,0.011569034308195114,-0.8195411562919617,0.5728731751441956,0.002337132668308538,0.0028704855935209337,0.014617219701260368,-0.0014100472908467054,0.00023055105702951548,0.0038569662719964977,-0.11545877309516073,-0.22965195290744306,-9.806558913588525
3.01,0.4000000059604645,69.0,24.99093246459961,0.039758868515491486,-79.7828077973589,40.45901623334458,267.24779365730285,0.005904845427721739,0.011570186354219912,-0.8195436000823975,0.5728696584701538,0.004547627947051661,0.003285785029725505,0.015444380745570196,0.004310173448175192,-0.00036206250661052763,0.0032766256481409073,-0.11954421353526412,-0.221339916586876,-9.803775638937953
3.1,0.4000000059604645,73.0,24.99343681335449,0.039758868515491486,-79.78280779533935,40.45901622822854,267.2493195362091,0.005904424469918014,0.011570011265575886,-0.8195447325706482,0.5728680491447449,0.0043794485002047155,0.0035232610528453546,0.015311305652985671,-0.003050989471375943,0.00046706816647201777,0.0013985340483486652,-0.11790976144373418,-0.22562429940328,-9.803247635364533
3.3,0.4000000059604645,75.0,24.99093246459961,0.04771064221858978,-79.78280777094237,40.459016248175395,267.24719927978515,0.0059026009403169155,0.011567097157239914,-0.819544792175293,0.5728680491447449,0.002468093413491604,0.0022984047215622327,0.016220003992129684,0.001321581774391234,0.0011806425172835588,0.003488609800115228,-0.12009552374482155,-0.22148918503895404,-9.802866396903992
3.5,0.4000000059604645,73.0,24.99093246459961,0.02385532110929489,-79.78280776922536,40.4590162450316,267.24880359840387,0.00590320210903883,0.01156715489923954,-0.8195471763610841,0.5728645920753479,0.002152785790756581,0.002480654523003174,0.016104028587849758,-0.0017632127273827793,0.00454932264983654,-0.0009217372862622144,-0.1205124850384891,-0.22244765331968666,-9.803448194861412
3.6,0.4000000059604645,68.0,24.9871768951416,0.03180709481239319,-79.7828077456545,40.45901624465925,267.2465576357841,0.005904107820242643,0.011568332090973854,-0.8195484280586243,0.5728627443313599,0.004247503855153053,0.003130791991241923,0.01617468275681822,-0.002099344041198492,-8.536194218322636e-05,0.0011847807327285411,-0.11799140319228173,-0.2236408873088658,-9.8053883010149
3.8,0.5,61.0,24.99093246459961,0.03180709481239319,-79.78280772509684,40.459016267860775,267.24255488586425,0.00590255716815591,0.011565940454602242,-0.8195484280586243,0.5728628039360046,0.0023173839097566425,0.0023318317068782976,0.01680436624199118,-0.003915449604392053,-0.003722680499777198,-0.0046114856377244,-0.1206953932531178,-0.2204088205844164,-9.802141926884653
3.9,0.5,55.0,24.98967933654785,0.03180709481239319,-79.7828077217493,40.45901626143536,267.24583844614034,0.005902677308768034,0.01156572252511978,-0.8195507526397705,0.5728594660758972,0.002454451685473441,0.002624330874013936,0.016303677607318302,0.0008543970761820674,-0.0014612413942813873,0.0019249885808676481,-0.12006880927830935,-0.2247675178572536,-9.803387968540193
4.0,0.6000000238418579,50.0,24.99343681335449,0.039758868515491486,-79.78280768367485,40.45901627006722,267.24146000814443,0.005900599993765354,0.011569066904485227,-0.8195507526397705,0.5728594064712524,0.0030936254055760107,0.006055452858642499,0.016691127724422637,-0.003051673993468285,-0.003086836077272892,-0.0037035041023045774,-0.11909712994471193,-0.21865282863378527,-9.804290778636929
4.2,0.6000000238418579,48.0,24.99594116210937,0.03180709481239319,-79.78280765753594,40.45901628994528,267.23675487709045,0.005900399293750525,0.011565906926989557,-0.8195515871047974,0.572858452796936,0.0016653836195023026,0.0042048363351478045,0.013318325550842627,-0.002557892818003893,-0.0023057048674672838,-5.6432498240610585e-05,-0.11647130984812976,-0.2268794773332775,-9.807045986652373
4.4,0.699999988079071,45.0,24.98967933654785,0.03180709481239319,-79.78280765362739,40.459016286714565,267.23805610609054,0.005900399293750525,0.011565906926989557,-0.8195515871047974,0.572858452796936,0.002087162140933034,0.00421569096292173,0.01297631645248901,0.005307278130203486,0.0003664304967969656,-0.0005650954553857447,-0.11920142051763835,-0.22416457856073976,-9.804370885491373
4.51,0.699999988079071,46.0,24.99218368530273,0.03180709481239319,-79.78280762990362,40.45901630901606,267.23358742666244,0.005899779032915832,0.011563661508262156,-0.8195540904998779,0.5728548169136047,0.0011649408601147693,0.0031753785608154357,0.010992877466991749,0.002263111062347889,0.002066580578684807,-0.0045548388734459894,-0.1183357128314674,-0.22738851400092244,-9.805878297686576
4.6,0.699999988079071,39.0,24.98341941833496,0.007951773703098297,-79.78280762666594,40.459016306750506,267.23467318487167,0.005899925250560045,0.011563818901777271,-0.8195557594299316,0.572852373123169,0.001237271708063936,0.003388277755552701,0.010781186204423138,0.0015325114363804464,0.0025227940641343594,0.0011022837134078145,-0.11653071390464904,-0.2266788082011044,-9.806270061135294
4.8,0.699999988079071,36.0,24.99343681335449,0.03180709481239319,-79.78280763319488,40.459016309932935,267.2297373242378,0.005906220991164446,0.011562946252524851,-0.8195554614067078,0.5728527307510376,0.006127011720764264,-0.00032887661754970503,0.009476510170406816,0.0037299906834959984,0.0009445077157579363,0.000314216100377962,-0.11897605603560805,-0.22181997299194334,-9.80300556063652
5.0,0.6000000238418579,26.0,24.98467254638672,0.03180709481239319,-79.78280763583744,40.45901630474067,267.23066292476653,0.005906667560338974,0.011562874540686607,-0.8195573091506958,0.5728500485420227,0.005812983852499154,-8.523201789854178e-05,0.009331980558818752,-0.004833365324884653,0.00012273946776986122,-0.002784623531624675,-0.1196708971168846,-0.22268399046733972,-9.803372765779496
5.1,0.6000000238418579,25.0,24.98341941833496,0.02385532110929489,-79.78280758462869,40.45901632965649,267.2256104774475,0.005899515002965927,0.011563261039555071,-0.8195602893829346,0.572845995426178,0.0018681858347439546,0.004078962239495564,0.00842542752356212,-0.0008144284365698695,-0.0007928022532723844,0.002276180312037468,-0.11835788656957448,-0.2257747190259397,-9.80376452922821
5.3,0.6000000238418579,17.0,24.98967933654785,0.039758868515491486,-79.782807568443,40.45901635986144,267.219601673603,0.005898850969970225,0.011560616083443165,-0.819560170173645,0.5728462338447571,0.0008611569067404957,0.002481964101461028,0.008093402245578394,0.004755174275487661,-0.003145549912005663,-0.005033280700445175,-0.11875085600651801,-0.22169473294168712,-9.80416447877884
5.4,0.6000000238418579,14.0,24.99093246459961,0.039758868515491486,-79.7828075632942,40.459016356359356,267.2211736865044,0.005899860989302397,0.01156089548021555,-0.8195623159408569,0.5728431344032288,0.0008120745098477554,0.002699583875502629,0.007673000845233973,-0.00504881562665105,-0.0016555337933823464,-0.009112796746194364,-0.11662241469137373,-0.22694098273292185,-9.805887653231624
5.5,0.5,15.0,24.95086669921875,0.5009617805480957,-79.78280754824327,40.459016381735466,267.2135205693245,0.005899467971175909,0.011559405364096165,-0.8195619583129883,0.5728436708450317,1.8693021253093854e-05,0.001518901995325768,0.003932012484596483,0.0028859968297183514,0.003492462215945125,-0.006868725176900625,-0.11414254657924175,-0.222833441644907,-9.806995115876198
5.7,0.5,10.0,24.915809631347656,0.326022744178772,-79.78280752994567,40.45901640632907,267.20662556362146,0.0059213852509856215,0.0115676699206233,-0.8195940852165222,0.5727972388267517,0.0005170156726361367,0.0015709896074740427,0.0014800242837723946,0.006493781227618456,-0.007690230384469031,0.010207795538008213,-0.12803436152637004,-0.21593855112791066,-9.80173379123211
5.8,0.5,357.0,24.91706085205078,0.326022744178772,-79.78280752820895,40.45901640594509,267.2067681379318,0.005910195410251617,0.011573702096939087,-0.8195458650588989,0.5728662014007568,0.0002681532527638787,0.0014783943776738929,0.0014993077427649876,-0.0015142495976760983,0.005966429598629475,-0.007601926568895578,-0.12053147021681072,-0.224753411449492,-9.803203196525574
6.0,0.4000000059604645,349.0,24.933338165283203,0.326022744178772,-79.78280752869759,40.459016431829134,267.1998218126297,0.005882143508642912,0.011594382114708424,-0.8195525407791138,0.5728567242622375,0.0007992637789582236,-0.0016875779537871276,-0.00010671884480450168,-0.001974719110876322,0.00020775370649062097,0.0016626814613118768,-0.11737401030957699,-0.21448160771280528,-9.803490294814113
6.1,0.4000000059604645,330.0,24.92707824707031,0.3101191818714142,-79.78280753110084,40.45901643156286,267.1997875995636,0.0058901854790747174,0.011598010547459129,-0.8195198774337769,0.5729032754898071,-9.078985413154396e-05,-0.0016619312301159655,-0.0005241240523265976,0.0009507193462923168,-0.005632104352116585,-0.0073729902505874625,-0.12244203879497945,-0.2294883587770164,-9.803358732461929
6.3,0.4000000059604645,315.0,24.91330528259277,0.37373337149620056,-79.78280751362988,40.45901645744589,267.19507919025415,0.005880485754460096,0.011589681729674341,-0.819545328617096,0.5728671550750732,0.0008520717837570764,-0.00021610554469112715,0.0028343712008984303,0.0012007167097181082,-0.0018017413094639774,-0.006314467638731003,-0.1145208431594074,-0.2307401928305626,-9.808663326501847
6.5,0.4000000059604645,260.0,24.91330528259277,0.4532511234283447,-79.78280751421616,40.45901645724858,267.19534884166717,0.00587626313790679,0.011578000150620936,-0.8195135593414307,0.5729127526283264,0.0015357477885058505,-0.00039079902009215515,0.002468056307535687,0.004728298634290695,0.0002337306214030832,-0.001054566353559494,-0.11796429586596788,-0.22272234454751014,-9.802990357875824
6.6,0.4000000059604645,246.0,24.904541015625,0.4691546559333801,-79.78280748215289,40.45901647072021,267.18999944400787,0.005869698245078325,0.011584632098674774,-0.8195362091064453,0.5728802084922789,0.00144589401101751,0.002512429224168845,0.0032581077279246955,0.003299785777926445,0.005225951783359051,-0.000415301212342456,-0.11952729315496982,-0.216034262739122,-9.805865433812142
6.8,0.4000000059604645,228.0,24.540193557739247,1.0019235610961914,-79.78280748656346,40.459016494173774,267.1852363176346,0.006188570056110621,0.012359404936432837,-0.8195773363113403,0.572801947593689,0.008033377489597789,0.004959391960408078,0.005799932700806225,0.00529048265889287,-0.02675519324839115,0.016940081492066383,-0.07316877675242722,-0.20472828755155206,-9.778917955756187
6.9,0.5,221.0,24.82315826416016,0.3339745104312897,-79.78280749185316,40.459016490532704,267.18628857803344,0.006270708050578833,0.012750675901770592,-0.8196191191673279,0.5727326273918152,0.001918759087739645,-0.0015423567525870002,0.005766427258359433,-0.0036236466839909545,0.01843326725065708,0.010623433627188206,-0.16400913655757904,-0.2919869079999626,-9.794435296654704
7.1,0.5,212.0,23.901647567749023,3.800947904586792,-79.78280747253422,40.45901650152902,267.1806444950104,0.006204798351973295,0.01274921279400587,-0.8196494579315186,0.5726898908615112,0.003601596584825214,0.0009500501798841244,0.006181198491393068,0.004528251476585865,0.014513726346194744,-0.0182444415986538,-0.15199125372804706,-0.2911636748537421,-9.806281755566598
7.2,0.5,211.0,24.620325088500977,0.8905986547470093,-79.78280745500251,40.45901651712313,267.17572222423547,0.006376323290169239,0.013051163405179977,-0.8196082711219788,0.5727402567863464,0.0027966250415838658,0.002233224494127249,0.005674484094487074,-0.01595934294164181,-0.0275559164583683,-0.019710594788193703,-0.10466563526540996,-0.1962872287631035,-9.82220781683922
7.3,0.6000000238418579,198.0,24.841938018798828,0.3180709481239319,-79.78280745472054,40.459016512030345,267.17624722194665,0.0063187554478645325,0.012940369546413422,-0.8196612000465393,0.5726675987243652,0.004079702461065341,0.0033080594899061113,0.006154172738923053,0.0014842200325801964,0.0002376601041760296,0.010851184837520124,-0.12379917754791678,-0.2348631194047629,-9.808169821500776
7.5,0.6000000238418579,197.0,24.88200378417969,1.0416823625564575,-79.78280744231844,40.45901654383684,267.16981027793884,0.006272799335420132,0.01278594136238098,-0.8195405006408691,0.5728443264961243,0.0014966637374100315,0.001989852494145084,0.002903354676698641,-0.016945239156484604,-0.02116441540420056,-0.0025596811901777983,-0.11920113729313014,-0.29448673887178306,-9.801450785994527
7.6,0.6000000238418579,189.0,24.552715301513672,3.514683961868286,-79.78280744093841,40.45901654244472,267.1701390571594,0.0062424223870039,0.012770595960319042,-0.81961590051651,0.5727372169494629,0.00030208730801804915,0.002269963685366277,0.0030320254735702475,-0.011415023356676102,-0.02222551964223385,-0.015297981910407543,-0.14101196430623533,-0.2268593044392765,-9.816561745405195
7.8,0.6000000238418579,191.0,24.12952041625977,5.486723899841309,-79.78280745857695,40.459016576266386,267.16302715015405,0.006335295271128415,0.012886954471468924,-0.819610059261322,0.5727417469024658,-0.0001694094705746767,-0.0035717784388321133,0.0016760768715244133,-0.025296088308095932,-0.013702900148928164,0.0115984994918108,-0.12304865087382495,-0.24563370890915395,-9.812265211343766
8.0,0.6000000238418579,188.0,23.79397201538086,7.8324971199035645,-79.78280746293045,40.459016575120266,267.1631072587967,0.006445479579269886,0.013032440096139908,-0.8196495175361633,0.5726808905601501,0.005388785833888002,7.267298044438862e-05,0.0020726533160780928,-0.0007034338777884841,-2.042672895186115e-05,-0.0014836463378742335,-0.1237424504198134,-0.2512052648887038,-9.814823952913283
8.1,0.6000000238418579,186.0,23.649986267089844,8.937793731689453,-79.78280746681584,40.45901660122436,267.1560486383438,0.00677915895357728,0.013713907450437546,-0.8197728395462036,0.57248455286026,-0.004348617202000664,-0.004656069196546346,-0.0029638034658174108,-0.06329184025526048,-0.010582997463643551,0.017446914687752724,-0.12425921637564898,-0.3036769721657038,-9.838088854551316
8.3,0.699999988079071,172.0,23.274370193481445,11.545975685119627,-79.78280744268508,40.45901661906125,267.1489733285904,0.006974994670599699,0.01418259833008051,-0.8198255300521851,0.5723952651023865,0.0050375761208429895,-0.0021262541396658554,-0.0010432827673551599,-0.05562599375844002,-0.02329627051949501,0.05357273295521736,-0.13162256022915245,-0.1805945810303092,-9.86569940686226
8.41,0.699999988079071,166.0,23.10409164428711,12.897777557373047,-79.78280745100442,40.45901661323392,267.149196726799,0.00770936394110322,0.01432719826698303,-0.8199471235275269,0.5722081661224365,0.0025963697113795324,-0.004378604414473776,0.001835153606993317,0.02983822673559189,-0.07245276123285294,0.053692903369665146,-0.18925496522337198,-0.2280262442305684,-9.828305293321607
8.61,0.8000000119209291,159.0,22.688411712646484,16.20571517944336,-79.78280742760705,40.45901662306574,267.1441370077133,0.00777106313034892,0.014390520751476288,-0.8199105262756348,0.5722581148147583,0.009793506254432706,-0.004356156229543315,0.0020305046435896376,0.08039993047714232,0.03692333772778511,-0.024684451520442963,-0.07602433760650458,-0.1859599130228162,-9.821122573614119
8.7,0.8000000119209291,157.0,22.55068588256836,17.501853942871097,-79.78280744352213,40.45901664881487,267.14059231948846,0.009966243989765644,0.01305182371288538,-0.820032000541687,0.5720820426940918,0.00953894558595364,-0.015784875129561234,0.01889894438436386,-0.008971340022981167,-0.02505907230079174,0.014022629708051682,-0.2216911149770021,-0.3318336544185877,-9.862123249769214
8.8,0.8000000119209291,157.0,22.40795135498047,19.060401916503906,-79.7828074548697,40.459016644032594,267.14157245826715,0.01070463750511408,0.012633977457880974,-0.8200777769088745,0.5720124244689941,0.004841700495256686,-0.0031794750813983965,0.008958444061532185,0.005060025490820408,0.016603920608758926,-0.014165815897285938,-0.07782209146767853,-0.3229231921210885,-9.839202164411548
9.01,0.699999988079071,155.0,22.02607536315918,22.193401336669922,-79.78280747785921,40.45901663785047,267.1385198659897,0.008423135615885258,0.010301738977432251,-0.8181511163711548,0.5748492479324341,0.02155496079405136,0.01876647621055731,0.03403074575237508,-0.12824276089668274,-0.06287417560815811,-0.04499329626560211,0.04737860885448754,-0.30770647119730715,-9.8131025326252
9.1,0.8000000119209291,152.0,21.843276977539066,23.86327362060547,-79.7828074578049,40.459016611107906,267.1448162622452,0.0002220007299911231,0.005073713138699532,-0.8148478865623474,0.5796526074409485,0.02703194256653758,0.03951260261047155,0.08915247212982946,-0.12975308299064636,-0.0542098730802536,-0.14689750969409945,0.2397002102807164,-0.21729632942005994,-10.294448833465577
9.3,0.8000000119209291,152.0,21.905879974365234,21.930992126464844,-79.78280745156339,40.459016475267674,267.16919444274896,-0.01600891537964344,-0.00545137794688344,-0.8091692924499512,0.5873321890830994,0.02732284419048866,0.07252489702048706,0.2531911816738217,-0.12527324259281158,-0.06940977275371553,-0.01724477857351303,0.21551221601665024,0.023084917031228544,-10.691232701539992
9.5,0.8999999761581421,149.0,22.223899841308594,19.76015853881836,-79.7828073785488,40.45901643130993,267.19698081684106,-0.014564283192157744,-0.008278349414467813,-0.8078654408454895,0.589128851890564,0.025250564457188058,0.07991734686395036,0.2863248466016847,0.1098344549536705,0.07211535423994064,-0.09503600001335144,0.13362979972735048,0.2267156822048128,-10.208490085601806
9.6,0.8999999761581421,149.0,22.16254997253418,19.97485542297364,-79.78280721335581,40.459016285126864,267.23234919977193,0.0034983051009476185,-0.00420832633972168,-0.8081287145614624,0.5889805555343628,0.013051036466209521,0.10653029977354768,0.18312669077644486,0.13420581817626953,0.03698963299393654,0.046534232795238495,0.25978426314890385,0.16257050223648548,-9.675363766551019
9.8,1.0,138.0,21.98350715637207,21.24713897705078,-79.78280694792049,40.45901652503932,267.230115158081,0.00605178065598011,-0.0042642047628760355,-0.8091738224029541,0.5875227451324463,-0.01080347911275108,0.09766367947948956,0.10887110934987493,-0.0613623633980751,-0.03735436871647835,0.05958590656518936,0.29745798323303463,0.03356299500446767,-9.356375348567962
9.9,1.0,144.0,21.845781326293945,22.551231384277344,-79.7828067518969,40.459016491681254,267.2444331474304,0.004725776147097349,-0.01000236626714468,-0.8120140433311462,0.5835332274436951,-0.010025497538553623,0.07717532939864749,0.036834576301839804,-0.098063163459301,0.05830670893192291,0.04556449130177498,0.2284532919712365,0.07443384926766157,-9.464932415485384
10.0,1.2000000476837158,140.0,21.89711570739746,21.899185180664066,-79.7828065153026,40.45901663733635,267.26278309297555,0.003141954308375716,-0.012813172303140163,-0.8123953938484192,0.5829578042030334,-0.032053620698235474,0.08379215286330724,0.05545649544567019,-0.12494313716888428,-0.03384426608681679,0.0774972215294838,0.2409399113617837,-0.015407431516796353,-9.513913956284522
10.2,1.2000000476837158,139.0,21.67424964904785,23.473636627197266,-79.7828061158941,40.459016655986,267.28905169439315,0.0031099335756152877,-0.006002035923302175,-0.8111215233802795,0.5848387479782104,-0.027358849445625805,0.09428940603311453,0.08679305697717403,0.08852433413267136,-0.10520157217979433,-0.047679059207439416,0.28202707149088385,-0.03724609219003469,-9.690761239528657
10.4,1.399999976158142,138.0,21.669240951538086,24.332427978515625,-79.7828060116859,40.45901665388388,267.298153383255,0.007036721799522638,-0.0011032939655706286,-0.8101437091827393,0.5861881375312805,-0.019263635995660205,0.08401092202482717,0.0889958593830117,0.11681830883026124,-0.03660668060183525,-0.06262055039405823,0.0909098046272993,0.05264113948680461,-9.834106900691989
10.5,1.399999976158142,139.0,21.617908477783203,24.10977935791016,-79.78280577649278,40.45901667018393,267.31829283905034,0.006185960955917835,-0.0038121419493108975,-0.8092729449272156,0.5873878598213196,-0.019045139710475684,0.07732780668022532,0.12998632100300025,-0.09486488252878188,0.05007633194327354,-0.004790711216628552,0.05420253792777658,-0.08792717646807433,-9.945008701086044
10.6,1.5,138.0,21.79820251464844,22.16159439086914,-79.78280568538908,40.45901666726958,267.3319601244926,0.003067695768550039,-0.0068184281699359426,-0.8094199299812317,0.5871827602386475,-0.020919749366188498,0.07075136175494602,0.13201823707957802,-0.07360465079545975,0.05174078419804573,0.044193919748067856,0.05032022427767517,-0.03393757768906653,-9.8357487988472
10.8,1.5,142.0,21.620410919189453,24.10182762145996,-79.78280545971288,40.45901668925975,267.35379503440856,0.0032092209439724684,-0.009300893172621729,-0.8102902173995972,0.5859463214874268,-0.01819998280781369,0.05855187300860985,0.13952631419377678,0.022069714963436127,0.030722459778189663,0.09416601806879044,-0.028779949760064483,0.019569105030968783,-9.861834397315981
11.0,1.600000023841858,138.0,21.620410919189453,23.77580451965332,-79.78280538932867,40.459016698097365,267.36935882043844,0.004634388256818056,-0.008380387909710406,-0.8109995126724243,0.5849685072898865,-0.02888111764780503,0.0548329809361096,0.172132545542042,0.021251527592539787,-0.04410967975854874,0.0698845237493515,0.11174856858327983,-0.07350005806423725,-10.11945336341858
11.1,1.600000023841858,137.0,21.632932662963867,22.86134910583496,-79.78280517319969,40.45901671641114,267.3996338672638,0.004039363469928503,-0.0048143663443624965,-0.8122361898422241,0.5832949280738831,-0.0196423726377728,0.054887444429681166,0.19957042368632485,0.05879240483045577,-0.049701664596796036,-0.008862538263201714,0.19600864548236133,-0.08302467900328339,-10.074939680099488
11.2,1.600000023841858,135.0,22.237672805786133,13.62138843536377,-79.78280516341741,40.45901674826296,267.40690062713617,0.005024767015129328,-0.004406244028359652,-0.8128463625907898,0.5824398994445801,-0.014852765627257574,0.04292994592809585,0.16241379149571508,0.1153346225619316,0.004739941097795963,0.011011015623807907,0.1264578608237207,0.04466746509075165,-9.624053864479066
11.4,1.600000023841858,138.0,21.296131134033203,28.63433837890625,-79.78280507902261,40.45901674152433,267.4179270691872,0.010217484086751938,-0.0004491772269830108,-0.8137544393539429,0.5811190009117126,-0.006658606949371879,0.04015674732486362,-0.015043554288591278,0.03638184443116188,-0.09091320633888243,0.011532590724527836,0.2855705938115716,-0.0903966749086976,-8.856900925040243
11.6,1.5,142.0,20.9993953704834,30.900592803955078,-79.78280503300485,40.45901673257311,267.4315665192604,0.009362231008708477,0.00028297011158429086,-0.8139034509658813,0.5809247493743896,0.006559566165576962,0.029256303391412518,0.06355494929725884,0.010246208868920805,-0.0056130439043045035,-0.05517052859067917,0.11258995550684632,-0.029865119894966482,-10.077889015674593
11.7,1.5,147.0,20.831619262695312,32.75335693359375,-79.78280490451145,40.459016742768505,267.4618236250877,0.0014556213282048702,-0.004573856014758349,-0.8136721849441528,0.5813041925430298,0.014166244902386143,0.04900302218491602,0.2851139981239782,-0.1231853887438774,-0.05777956917881965,-0.04218466579914093,0.19553454592823985,-0.1639865516871214,-10.60213399887085
11.9,1.5,148.0,20.46101188659668,35.6080436706543,-79.78280486407157,40.459016715414464,267.4996834225654,-0.0020293632987886667,-0.005232069175690413,-0.8132609724998474,0.5818721055984497,0.01698408584277799,0.0504158445945793,0.4804813992893271,-0.07954032719135284,-0.07231290638446808,0.03609885647892952,0.14426898219622672,0.00024205920348322247,-11.616877344846726
12.01,1.5,147.0,20.314523696899414,38.00152587890625,-79.78280473818457,40.459016778624814,267.62662248086934,0.0026237964630126953,-0.006202485878020525,-0.8135122656822205,0.5815088748931885,0.007187243248790142,0.04927576096143672,0.9311582768788544,0.07251051813364029,0.005414564628154039,-0.0025180517695844173,0.14061373237520458,0.03641836856491864,-12.03914220929146
12.2,1.5,140.0,20.33831214904785,37.07117080688477,-79.78280469555395,40.45901677318794,267.7323495573997,0.004507414065301418,-0.0056422557681798935,-0.8139699697494507,0.5808621644973755,-0.009802858388799329,0.05195067865553909,1.1818308910793822,-0.01027747802436352,0.003759165061637759,0.0017428775317966938,0.1857303732633591,-0.006989688500761986,-12.274222497940064
12.31,1.5,144.0,20.254425048828125,37.83454132080078,-79.78280456681142,40.459016829225945,268.0023227907419,0.0008115359232760966,-0.0043456880375742895,-0.8150983452796936,0.57930588722229,-0.00650944551646727,0.05659002129733376,1.6486761828501828,-0.018996192142367363,-0.08573338389396667,0.0689329206943512,0.2067111514694989,-0.048644302636384966,-12.232005600929261
12.5,1.5,143.0,20.05034065246582,39.93380737304688,-79.78280451980072,40.459016829217184,268.1788758128584,-0.0021038707345724106,0.0004861188936047256,-0.815872848033905,0.5782274603843689,-0.001880892495958541,0.05681550918369281,1.88130742575292,0.05285216122865677,-0.13551540672779086,0.01877949200570584,0.2179394317790866,0.007146110655739905,-12.189196965694428
12.61,1.600000023841858,142.0,20.01403045654297,39.21814727783203,-79.78280435782669,40.4590169181741,268.57861639332765,-0.0076148752123117456,0.006674822885543108,-0.8175444602966309,0.5757764577865601,-0.02458405975831035,0.03650008903826677,2.3385000184468927,-0.10344169288873672,0.04031739383935928,0.04918874800205232,0.05343535582534969,-0.05809581053908915,-12.240960026979446
12.8,1.7000000476837158,137.0,20.02029037475586,38.85236740112305,-79.78280427688543,40.459017042455685,268.78139410686487,-0.009529308415949343,0.003807708621025085,-0.8179683685302734,0.575171709060669,-0.029335720555803583,0.03622155145146287,2.528748472634887,-0.06715408712625504,0.0955657809972763,-0.06099255383014679,-0.023484727253671737,0.012999331124592572,-12.186274527311324
12.9,1.7999999523162842,135.0,20.074129104614254,38.27983856201172,-79.78280406217245,40.45901724356013,269.258540851593,-0.004927781876176596,0.002641989849507809,-0.8165742754936218,0.5772133469581604,0.002130877351370154,0.08429407742076173,2.8823985666983867,0.2516591548919678,-0.034836072474718094,-0.1759064644575119,0.03071742923464626,0.03764270928455517,-12.060833040475845
13.1,1.8999999761581416,138.0,20.28196907043457,34.168773651123054,-79.78280390198529,40.45901723413173,269.5558246202469,0.006038090214133264,0.01178987417370081,-0.8151392936706543,0.5791136622428894,-0.010531971356285749,0.11169793647180992,3.059203008582295,0.3523333966732025,-0.0686425194144249,-0.03847181797027588,0.1123818859923631,0.12557864972390234,-11.591840736865995
13.2,1.8999999761581416,143.0,20.47478485107422,31.43336296081543,-79.78280369196823,40.45901742804993,270.0953703947066,0.0141576137393713,0.030012438073754318,-0.8130661249160767,0.5812249779701233,-0.12768699617009815,0.14585723726747024,3.2267401781813865,-0.09011580795049667,-0.13724513351917267,0.084140345454216,0.2010986467078328,-0.03294148394605145,-11.178538484573364
13.4,1.8999999761581416,148.0,20.68262481689453,31.234567642211914,-79.78280346098121,40.45901731189145,270.42010949325555,0.005404190625995398,0.028150225058197975,-0.8137851357460022,0.5804587006568909,-0.11433465091149242,0.14962631463738651,3.2679199285626166,-0.2166411578655243,-0.07134942710399628,0.041011769324541085,0.20018279001116754,-0.11599386641755698,-10.326523150205613
13.5,2.0999999046325684,148.0,20.70140647888184,30.05770492553711,-79.78280297707084,40.45901717022064,271.0121428794861,-0.005530467722564936,0.015868809074163437,-0.8142974376678467,0.5802046656608582,0.06665203815583384,0.2143355539097209,3.2678277165669107,-0.0476595014333725,0.1409824639558792,-0.024535570293664932,0.16867874125018714,0.005755606228485703,-10.121940768957137
13.7,2.0999999046325684,142.0,20.870433807373047,29.342044830322266,-79.78280268629352,40.45901699628219,271.32595561218255,-0.002534385537728668,0.007393559906631708,-0.813981831073761,0.5808379054069519,0.11873211957982133,0.2747684442712945,3.267639971547045,-0.022595494985580444,0.2070683091878891,-0.037045735865831375,0.1967435491271317,0.09998333115130664,-9.963277741670607
13.8,2.200000047683716,139.0,20.882953643798828,29.42951583862305,-79.78280184577386,40.459016655987774,271.9549672431946,0.008020141161978245,-0.012817959301173687,-0.8134401440620422,0.5814521908760071,0.15962375307143287,0.4299314216770233,3.2015432921549616,0.041288331151008606,0.2166236788034439,-0.0036228520330041647,0.1588947049342096,0.15426668856292966,-9.771303711533546
14.0,2.200000047683716,58.0,20.960580825805664,27.855064392089844,-79.78280149525017,40.45901643163338,272.26788209152215,0.011769709177315235,-0.01789417862892151,-0.8135772347450256,0.5810623168945312,0.1779828322838377,0.4980134381603102,3.1620644346018323,-0.02110127359628677,0.0503956563770771,0.06573426723480225,0.3653372864797712,0.05625226110219956,-9.551264215707779
14.1,2.200000047683716,311.0,20.96183204650879,28.67409706115723,-79.78280053007452,40.45901613174056,272.8899080581665,0.009264848195016384,-0.016708889976143837,-0.8132046461105347,0.5816642642021179,0.16190745390576206,0.512510507650398,3.0603761286094704,-0.07695599645376205,-0.062333561480045326,0.04054614529013634,0.3316304636746645,0.16106051361188292,-9.452255651950836
14.3,2.0999999046325684,318.0,21.10456657409668,25.98639678955078,-79.78280007142502,40.4590162193733,273.14131520462035,0.006640582345426083,-0.014823837205767632,-0.8125226497650146,0.5827033519744873,0.1445739358744059,0.4721380135420532,2.9765685695425885,-0.0012746445136144755,-0.05084802210330963,-0.055580586194992065,0.233214131500572,0.11811132593080402,-9.5038766258955
14.4,2.200000047683716,321.0,21.006906509399414,27.38591003417969,-79.78279939482402,40.45901577899764,273.7305481262207,0.007299889344722032,-0.01603759080171585,-0.8121277093887329,0.5832136273384094,0.1625541899466139,0.4352428778125316,2.8790433932843467,-0.051147058606147766,0.04799966141581535,0.025083789601922042,0.2524737086892128,0.08294866519980132,-9.337306993603708
14.6,2.299999952316284,318.0,20.87418937683105,28.093616485595703,-79.78279865967339,40.45901562582039,274.1110756225586,0.008579853922128677,-0.01986556500196457,-0.8121351599693298,0.5830680131912231,0.14575119762354038,0.4413082936469924,2.8561721047946333,-0.03273509070277214,0.06907384842634201,-0.0524081327021122,0.2434433053806425,0.1028759852796793,-9.384650144577028
14.7,2.5,323.0,20.9167594909668,28.45939826965332,-79.78279750462781,40.45901487806135,274.85604975891107,0.012072917073965073,-0.033037278801202774,-0.8130838871002197,0.5810831189155579,0.17111816961460494,0.4968602766859781,2.8700251668120056,-0.10312028974294662,0.10263032466173172,0.08113367855548859,0.368208671361208,0.09492558097466827,-9.449524417519571
14.9,2.5999999046325684,329.0,21.029443740844727,25.83531379699707,-79.78279719268195,40.45901467393349,275.1432373352051,0.013703391887247562,-0.039889704436063766,-0.8137843012809753,0.5796346068382263,0.17847459939830834,0.4989696968005048,2.8147480648570715,0.004229031037539244,0.07526963949203491,-0.009229123592376707,0.41126274347305297,0.0932622491195798,-9.382570874691009
15.0,2.5999999046325684,331.0,21.10581970214844,25.24688148498535,-79.78279616066735,40.459014132882146,275.8292496032715,0.014756317250430584,-0.0461277961730957,-0.8147111535072327,0.57784104347229,0.1734172229879366,0.4925182443284024,2.7522813451664248,-0.051097821444272995,0.03923151642084122,0.028632357716560364,0.3599318279698491,0.1846175019443035,-9.222370614409447
15.2,2.700000047683716,331.0,21.033199310302734,26.471454620361328,-79.78279595299671,40.45901398996646,276.1041095085144,0.013548003509640694,-0.046262610703706734,-0.8147112727165222,0.57785964012146,0.1611270335808792,0.4460210508068464,2.6750425769746675,-0.02305453829467297,-0.024646339938044548,0.005887934938073157,0.3556558687984944,0.12963020372204484,-9.093697956204414
15.3,2.700000047683716,328.0,20.975605010986328,27.529041290283203,-79.78279520509373,40.459013554234346,276.7341635055542,0.009369748644530771,-0.04284246265888213,-0.8145538568496704,0.5784278512001038,0.14016334617301918,0.3462819900515798,2.611432251259813,-0.008563156239688395,-0.06827414035797119,-0.02353580854833126,0.33335319958627224,0.16293673893436791,-9.166388202309607
15.4,2.5999999046325684,329.0,20.774024963378906,29.10349273681641,-79.78279512103099,40.459013486102045,276.99561713409423,0.009315283037722107,-0.040334079414606094,-0.8144125938415527,0.5788078308105469,0.12595377648895129,0.2780710394830038,2.5821868767171683,-0.03598427399992943,0.0063164765015244475,0.07591079920530319,0.2658332442864776,0.12530129984021188,-9.405979033112526
15.6,2.700000047683716,330.0,20.81909942626953,28.403736114501953,-79.78279466201677,40.4590131447242,277.5983803100586,0.007517409976571798,-0.03730326145887375,-0.8147032856941223,0.5786281228065491,0.08632769552187243,0.19872932418264755,2.55040518110437,-0.028462234884500507,-0.101565383374691,0.02357825450599194,0.2677428170107305,0.13476897438056767,-9.440975788235665
15.7,2.9000000953674316,328.0,20.827863693237305,28.9444580078125,-79.7827942595747,40.459012846930094,277.9590446777344,0.005627728067338468,-0.03573743999004364,-0.8151464462280273,0.5781241655349731,0.08313589120298538,0.16954712963811125,2.5656785536432425,0.04507594555616379,-0.0615420863032341,0.04600058495998383,0.2627573530375958,0.038672497607767586,-9.390901987552644
15.9,2.9000000953674316,328.0,20.6625919342041,29.206865310668945,-79.78279432478055,40.459012869202226,278.4682047195434,0.00951278954744339,-0.031461063772439964,-0.8158770799636841,0.5772905945777893,0.05068102000283742,0.09009358049034308,2.514321541649552,0.08276977390050888,0.022610245272517204,0.038235049694776535,0.2509937601350248,0.1833222705870867,-9.39983770251274
16.1,2.9000000953674316,328.0,20.59748649597168,30.741558074951172,-79.78279399674017,40.459012448922074,278.83756564331054,0.012051948346197605,-0.029073242098093036,-0.8163840770721436,0.5766511559486389,0.05765568077612706,0.09216163198543732,2.5596945966661693,0.03996714577078818,-0.03413298353552818,0.020110242068767548,0.2846638368442655,0.10570225523784756,-9.595933434963227
16.2,2.799999952316284,329.0,20.579957962036133,30.63023376464844,-79.78279390789187,40.459011996270775,279.45967219543456,0.00868274737149477,-0.03070911578834057,-0.8164560794830322,0.576525092124939,0.061706752954578864,0.06462470815105975,2.6307447487371602,-0.1630241572856903,-0.04438894987106323,0.003893263172358274,0.2895959632471204,0.1684538609907031,-9.721786565780642
16.4,2.9000000953674316,332.0,20.536136627197266,30.63023376464844,-79.78279403844971,40.4590120132925,279.7230007476806,0.0028568415436893697,-0.03329798951745033,-0.8161539435386658,0.5768673419952393,0.06516794241769401,0.036842773399511926,2.6393234720082352,-0.09698162972927094,-0.03870967030525208,-0.05640072375535965,0.3010923932120204,0.18807638581842184,-9.844596805572513
16.51,2.9000000953674316,330.0,20.58746910095215,30.98806381225586,-79.78279411005876,40.45901133901561,280.37944529724115,-0.00331697310321033,-0.03389141708612442,-0.8155966997146606,0.577617883682251,0.15875416223979938,0.016221329664871213,2.7379507506295657,0.0035733887925744057,-0.05094649642705917,-0.031764257699251175,0.3565575459972024,0.1594335075840354,-9.913258320093156
16.7,3.0,331.0,20.429712295532227,30.66999244689941,-79.78279428498243,40.45901135766832,280.65421508026117,-0.0022469914983958006,-0.03083198517560959,-0.8154969215393066,0.5779352784156799,0.14116046879058014,-0.012209575382368842,2.758749220406611,0.02455846965312957,0.0018202902283519504,0.04252728074789047,0.3255632465332747,0.1621781175211072,-9.908041434288023
16.8,3.0,330.0,20.518606185913086,31.369747161865234,-79.78279484611663,40.45901129893242,281.2169678039551,0.0004993351758457719,-0.02590967714786529,-0.8151575326919556,0.5786593556404114,0.08756299896407876,-0.05943490602403102,2.789002219527747,0.07850399613380432,-0.02130497060716152,-0.04627740755677223,0.3310337918624282,0.1954224255681038,-9.943696585893633
16.9,3.0999999046325684,331.0,20.439727783203125,31.958179473876953,-79.78279505112252,40.45901136299467,281.49633811187744,0.0005349203711375594,-0.023654809221625328,-0.8150888681411743,0.578852653503418,0.06702211026371956,-0.06883606000352613,2.8081414348323563,0.017378101125359542,-0.03311646357178688,-0.010852987878024578,0.45070667155087,0.18840324517339468,-10.007582094669342
17.1,3.2000000476837163,329.0,20.653827667236328,29.26252746582031,-79.78279574536823,40.45901138693079,282.0374615020752,0.003676044521853328,-0.02025065012276173,-0.8153002262115479,0.5786727070808411,0.0746570577933825,-0.10533140886916133,2.872835794243387,0.05657465383410454,0.008784176781773567,-0.0343773178756237,0.3586525668203831,0.20772529620677235,-10.177578195333481
17.3,3.0999999046325684,333.0,20.370864868164066,32.34781646728516,-79.78279628763987,40.45901157212938,282.28767417144775,0.001153646851889789,-0.02241657674312592,-0.8148775100708008,0.5791984796524048,0.06333801475595416,-0.1394520005522666,2.8654963617762435,-0.16741518676280975,-0.05453003570437431,0.044804565608501434,0.4417126306146384,0.12960484142415227,-10.26665935635567
17.41,3.0999999046325684,337.0,20.52486801147461,29.95433235168457,-79.78279682595941,40.45901170711004,282.8687803573608,-0.014920834451913834,-0.02683090977370739,-0.8133769035339355,0.5809265375137329,0.10919768974105268,-0.13897275999425432,2.9565964280286687,-0.12280859798192978,-0.03175734728574753,-0.012629678472876549,0.34742342770099643,0.20972749248147013,-10.267831138372422
17.5,3.0999999046325684,340.0,20.50107765197754,31.512880325317386,-79.78279740984712,40.45901177184057,283.1413023300172,-0.01855238899588585,-0.025920219719409943,-0.8128738403320312,0.5815669894218445,0.12672440386803174,-0.17541316895615114,2.948543352901044,-0.07704801857471466,-0.009871436282992365,0.030928201973438263,0.31199193209409715,0.3861652148142457,-10.074156153202058
17.7,3.2000000476837163,337.0,20.253171920776367,32.54661178588867,-79.78279808614525,40.45901218672377,283.72444270324706,-0.013810734264552591,-0.019533060491085046,-0.8125297427177429,0.5824288129806519,0.07717197569200898,-0.20158438302241105,2.9825901242817205,0.09105940163135527,-0.037210702896118164,0.015519366599619387,0.2884412843361497,0.4244565470516682,-10.020019122362136
17.9,3.2000000476837163,342.0,20.43722343444824,31.60830116271973,-79.78279832515321,40.45901233784426,284.02388785552984,-0.00930847693234682,-0.016909006983041763,-0.8127173185348511,0.5823384523391724,0.0353802908224496,-0.1887646859731604,3.0091609073384267,0.029034268110990524,0.039243601262569434,0.03607768937945366,0.24536110075190665,0.3149902746453881,-9.987011590003966
18.0,3.299999952316284,345.0,20.44473648071289,30.84493064880371,-79.78279903449766,40.459012928362434,284.5992576904297,-0.0021237100008875127,-0.010613170452415943,-0.8140897154808044,0.5806382298469543,-0.020820711344705343,-0.19888319299867094,3.0008346679511853,-0.023041162639856345,0.0048544048331677905,0.0479564480483532,0.3432353594899178,0.2963822600059212,-9.974942936897278
18.1,3.2000000476837163,354.0,20.49106216430664,30.26445198059082,-79.78279926904119,40.459013075523465,284.89970706176763,-0.004818678367882967,-0.00911916233599186,-0.8151540756225586,0.5791524052619934,-0.03754047776447205,-0.1828110836272176,3.01508867022834,-0.02312062680721283,-0.1381983906030655,-0.01838127337396145,0.4385486291348935,0.2037503955513239,-10.03735728621483
18.3,3.2000000476837163,357.0,20.777782440185547,26.996273040771484,-79.78280001155288,40.459013418460884,285.4826462097168,-0.013569727540016173,-0.006340694613754749,-0.8166077136993408,0.5769987106323242,0.006625111626467226,-0.20780484049890985,2.9863258145240734,-0.027273178100585938,-0.01111682504415512,0.08589192479848863,0.3450534415617585,0.29409603523090483,-9.964344273805619
18.4,3.2000000476837163,1.0,20.777782440185547,26.805429458618164,-79.78280021409502,40.459013534071175,285.779847366333,-0.011178694665431976,-0.006914950907230377,-0.8170808553695679,0.5763733983039856,0.032007317078495814,-0.20291114129880927,2.954174579990444,0.11475517600774765,0.05267909914255142,-0.05435793846845627,0.2658821781724692,0.32821609172970057,-9.625491110086443
18.6,3.0999999046325684,3.0,20.67010498046875,27.76759529113769,-79.78280077766695,40.45901388685322,286.37468074035644,-0.004118545446544886,-0.012417564168572426,-0.8168890476226807,0.5766464471817017,-0.016839394672865424,-0.15210275855698868,2.8739087421776004,-0.09813261032104492,0.06865259259939194,-0.06948085874319078,0.28976191453635697,0.16669779594987633,-9.474502553343774
18.8,3.0999999046325684,6.0,20.69013786315918,28.061809539794922,-79.7828009833299,40.45901398395411,286.6907837219238,-0.006260524969547987,-0.013538703322410585,-0.8161658048629761,0.5776252150535583,-0.01408437550111649,-0.11164158936406024,2.866120877235775,-0.11530427634716035,-0.05140914395451546,0.015222250483930113,0.3448308088257909,0.19076771300286047,-9.463250171542168
18.91,3.0999999046325684,8.0,20.855409622192386,26.09772109985352,-79.78280124431345,40.459014184425776,287.2576477355957,-0.011635574512183666,-0.008296764455735683,-0.8147450089454651,0.5796434283256531,0.014375279267266144,-0.09464362651296113,2.8123200498569356,-0.005420611705631018,-0.1031450629234314,-0.02638293243944645,0.25916272239759564,0.2815988908521831,-9.509370085000992
19.1,3.0999999046325684,8.0,20.989377975463867,24.920860290527344,-79.78280117337971,40.45901439620553,287.57694171142583,-0.012713452801108359,-0.006291852798312903,-0.8147038221359253,0.5797038078308105,0.0027241249075517365,-0.09056164897147956,2.810048324986768,-0.028245255351066582,-0.026616854593157768,0.031612373888492584,0.1328832564689219,0.3042703914642334,-9.365908064246176
19.21,3.0999999046325684,9.0,20.986873626708984,23.87917709350586,-79.78280123296024,40.45901463787083,288.16169284057617,-0.01245009247213602,-0.009504521265625955,-0.8153272271156311,0.578788697719574,-0.018598471368004868,-0.03918524227835776,2.71902946246225,-0.07848276197910309,0.08013462275266647,0.06983818113803864,0.1183708966244012,0.2427895135805011,-9.180232654809952
19.4,3.0,9.0,21.11458396911621,23.50544357299805,-79.78280121828524,40.45901472547012,288.42877124023437,-0.011528811417520044,-0.01305092591792345,-0.8160216212272644,0.5777590274810791,-0.015146665569483637,-0.006756086995670329,2.6258079164932755,-0.05345037207007408,0.07878164201974869,0.020034739747643467,0.27048212790861725,0.2856398650445044,-8.909037623405457
19.5,3.0,10.0,21.147136688232425,23.44978141784668,-79.78280108482234,40.45901488998715,288.9643871612549,-0.00758837116882205,-0.014233538880944254,-0.8176391124725342,0.5755051374435425,-0.01808991215925421,0.05815425860144629,2.4354817764430954,0.07238404452800751,-0.017057724297046658,-0.06807934492826463,0.3048609967902303,0.2478693187236786,-8.766852049827577
19.6,2.9000000953674316,9.0,21.185949325561523,22.344484329223643,-79.7828010133433,40.45901496851102,289.20237658691406,-0.005971327889710665,-0.012906470336019993,-0.81810462474823,0.5748936533927917,-0.042623536057878116,0.07005608151555211,2.3251955191501725,-0.001472454285249114,-0.013842636719346043,-0.00032086414285004134,0.2130704370327294,0.23796623675152664,-8.70176552295685
19.8,2.799999952316284,9.0,21.358732223510746,20.475818634033203,-79.78280079940505,40.45901512012117,289.66710589599614,0.0007848138920962808,-0.013778489083051682,-0.8179079294204712,0.5751837491989136,-0.035144828387549135,0.08250390475786933,2.0929367807478747,0.189549207687378,0.08200518786907196,0.06496257334947586,0.1560056870430708,0.3855178184062243,-8.584645793437959
19.9,2.799999952316284,9.0,21.27985382080078,22.16159439086914,-79.78280071117302,40.45901517572074,289.8696167297363,0.005626935977488756,-0.013307000510394571,-0.8172162175178528,0.5761501789093018,-0.04802737185444804,0.09878292153393473,1.9570211268768718,0.05193281173706055,0.07210228592157364,-0.054639287292957306,0.2542112453654409,0.30624821215868,-8.480259545445442
20.11,2.700000047683716,13.0,21.21975517272949,22.7977352142334,-79.78280048556253,40.45901527427769,290.2694732971192,0.014372412115335463,-0.013104070909321308,-0.8159582614898682,0.5777836441993713,-0.03374228650798998,0.10931041319777222,1.7411716382186118,0.03580808639526367,0.0971171334385872,-0.007872987538576126,0.2821378579549492,0.2461449748277665,-8.550641895532609
20.3,2.5999999046325684,13.0,21.31365966796875,21.294851303100586,-79.78280030687226,40.45901528055406,290.4781448669433,0.018999343737959862,-0.015455937013030054,-0.8158267140388489,0.577777624130249,-0.018378759006606425,0.11436858527466198,1.6721111393785284,0.011480729095637798,0.07535284012556076,0.0042737824842333785,0.2481005943752825,0.14057905107736587,-8.704939391613005
20.4,2.5999999046325684,13.0,21.2385368347168,22.241111755371094,-79.78280024438315,40.45901522754709,290.79184649658197,0.016191793605685234,-0.025654390454292297,-0.8162114024162292,0.5769563913345337,0.027871888982965016,0.09541612536727988,1.4574536585705236,-0.11042898893356323,0.06138352304697036,-0.03920965269207954,0.1514277922734618,0.2254882785491645,-8.674895812869073
20.6,2.5,19.0,22.7497615814209,11.752721786499025,-79.78280003950586,40.45901520741853,290.9897587127685,0.011369944550096987,-0.029900724068284038,-0.8167369365692139,0.5761229395866394,0.06625123370363042,0.09785633624363037,1.3968803987155844,-0.05881574377417565,-0.05876040831208229,0.027822420001029968,0.38127679634839295,0.195663623213768,-8.682021814584733
20.7,2.4000000953674316,17.0,21.652965545654297,18.225465774536133,-79.78280005375359,40.45901515307635,291.1182720489502,0.0055200178176164644,-0.02605940029025077,-0.8158667087554932,0.5776262879371643,0.08016481162454496,0.08297843628923,1.1329372823656647,0.0017803390510380266,-0.1736452430486679,-0.2472650557756424,0.4190197328478098,0.2433115785755217,-7.407307167649269
20.9,2.200000047683716,16.0,21.40255546569824,21.263044357299805,-79.78279986340935,40.459015086310394,291.34167597961425,0.0014990183990448713,-0.012471213936805723,-0.7763071060180664,0.6302297115325928,0.054009347779245716,0.0028699684202514834,0.6880215570393088,0.045444708317518234,0.0575602687895298,-0.9961914420127868,0.07986474316567183,-0.06353478090371936,-7.641746016740799
21.01,2.200000047683716,17.0,21.19721794128418,23.068096160888672,-79.78279989885267,40.4590150630612,291.401787979126,1.472175063099712e-05,-0.016593238338828087,-0.7435317635536194,0.6684947609901428,0.04369363983924706,-0.01812056325898005,0.5188374864843187,0.020612807944417,0.0324387326836586,-1.0703859329223633,0.07857886735349894,0.07680521498434248,-8.007123320102693
21.1,2.0,358.0,21.148387908935547,24.74592018127441,-79.78279972748761,40.45901509918411,291.46090243530267,-0.00014058974920772016,-0.019840940833091736,-0.7069681286811829,0.7069670557975769,0.05114590695187062,-0.0151182153308121,0.4154786323847513,0.02840000577270985,0.03431591764092445,-1.040645956993103,0.1931529567204416,0.15804333206266166,-8.474983018040657
21.3,2.0,347.0,21.07201385498047,23.664478302001953,-79.78279960569486,40.45901513772826,291.5239822692871,0.002268240321427584,-0.02111605182290077,-0.6364976763725281,0.7709861993789673,0.04576410424806748,-0.029754054949620037,0.2906985300293328,0.01869814470410347,0.024384956806898117,-0.7957531809806824,0.194985346198082,0.3106476572155953,-9.18291945040226
21.4,2.0,351.0,21.103315353393555,26.58278083801269,-79.78279965193416,40.45901509632851,291.5507881469726,0.0030371430329978466,-0.021223193034529686,-0.6078875064849854,0.7937336564064026,0.045372187690555635,-0.04792353694540395,0.2465012354814837,0.0072156721726059905,0.04706285893917084,-0.6446842551231384,0.14383434221148492,0.30481573568657044,-9.29569703757763
21.6,2.0,353.0,20.743976593017575,26.69410514831543,-79.78279949887788,40.45901511027925,291.57150767517084,-0.0011809593997895718,-0.02093949913978577,-0.5746421813964844,0.8181360363960266,0.0349929129977683,-0.03835932947497694,0.2045439258666197,-0.1091902032494545,-0.12677863240242004,-0.3189579546451569,0.3213472213223577,0.3389110876992345,-9.703393564224244
21.8,1.8999999761581416,344.0,20.74147224426269,26.805429458618164,-79.78279901339413,40.45901508539614,291.6318485565185,-0.042222652584314346,-0.002838214626535773,-0.5656799077987671,0.8235384225845337,0.0389744541646007,0.0916149024545271,0.2592538909031444,0.11645336449146272,-0.6800635457038879,0.016818033531308174,0.32344516575336457,0.4380660876631737,-9.98168126821518
21.9,1.7999999523162842,332.0,20.648820877075195,27.81530570983887,-79.7827988375246,40.45901511232515,291.659730178833,-0.06543682515621185,0.021629747003316883,-0.5676939487457275,0.8203498125076294,0.041131088582047504,0.18989714998967927,0.3076551409432817,0.2693346440792084,-0.6509556174278259,0.05902538448572159,0.2202186764404178,0.3833140028268099,-10.226797717809678
22.0,1.7999999523162842,335.0,20.54490089416504,28.89674568176269,-79.78279857091293,40.45901517777831,291.6882564849853,-0.08051884174346924,0.04560736194252968,-0.5720484256744385,0.8149831295013428,0.03613567419705301,0.3154554442197508,0.3788507271847265,0.3056792318820953,-0.3979182541370392,0.036966338753700256,-0.02925617806613445,0.36884002447128295,-10.330917917490003
22.2,1.7999999523162842,336.0,20.67010498046875,27.41771697998047,-79.78279673104166,40.45901583016286,291.78571246337884,-0.0934981107711792,0.06299247592687607,-0.5884383320808411,0.800643801689148,0.019427747051270712,0.8203213868026608,0.7160169491373826,-0.09231379628181458,0.008762639947235584,0.18290822207927704,0.1090106829442084,0.2116465303860605,-10.544966940879824
22.3,1.8999999761581416,326.0,20.668853759765625,27.02012825012207,-79.78279551544229,40.45901611464506,291.8383304901123,-0.09822404384613036,0.06021009013056755,-0.5917859077453613,0.7978197932243347,0.015114815964740303,1.045825382386222,0.7901968073628503,-0.14685438573360446,-0.04591459035873413,0.10800261050462724,0.034912233164068315,0.2288831719569862,-10.30598655939102
22.5,2.0,331.0,20.7702693939209,25.81941032409668,-79.78279402805076,40.45901645710799,291.89271853637695,-0.10393449664115906,0.058827310800552375,-0.594012439250946,0.795541524887085,0.018017061333714515,1.2770502325371078,0.859444189176727,-0.04244806617498398,-0.0960456356406212,0.009874501265585424,0.023769164602272214,0.3266869352012873,-10.255555493831633
22.6,2.200000047683716,341.0,20.725194931030273,27.59265518188477,-79.78279069028649,40.4590176801877,291.9062950439453,-0.11017561703920364,0.06567506492137909,-0.5977201461791992,0.7913778424263,-0.015037866067963472,1.6965919220543342,0.9540940407937816,0.1307048797607422,-0.048446860164403915,4.853662630921463e-06,-0.16556434974074366,0.3659362606331705,-10.046799370050431
22.8,2.4000000953674316,345.0,20.84288787841797,26.12952995300293,-79.78278869776513,40.459018629950606,291.88490794372564,-0.11009788513183594,0.07163231819868088,-0.5991942286491394,0.7897553443908691,-0.05803703817988291,1.9157825628053216,1.0054342837526369,0.09605910629034042,-0.09427668154239656,0.021507576107978817,-0.10330928223207593,0.2558140950836241,-10.083394753932954
22.9,2.5999999046325684,350.0,20.815343856811523,26.185192108154297,-79.78278619473669,40.45901924272375,291.9328567810058,-0.11153904348611833,0.07715287059545517,-0.5999214053153992,0.7884801626205444,-0.06872060162404214,2.1502236191513457,1.0680278155783984,0.02340235561132431,-0.1539854109287262,0.0861256793141365,-0.1229534417577088,0.15768904561176894,-10.001646001338962
23.1,2.700000047683716,352.0,20.735212326049805,26.622539520263672,-79.78277734900838,40.45902203288123,291.9834911651611,-0.13236282765865326,0.09378638863563538,-0.5943614840507507,0.7876666188240051,-0.06766767220715222,2.8702192911401405,1.3044311379690106,0.007682742085307837,-0.16957277059555054,-0.15146727859973907,-0.2274591556750238,0.383564154021442,-9.867871062755583
23.3,3.0999999046325684,1.0,20.72269058227539,26.41579246520996,-79.78277431189926,40.45902378756701,291.9451229400635,-0.1386071741580963,0.09891936182975768,-0.5909546613693237,0.7885274887084961,-0.10575557347583348,3.105037905752157,1.4007381081261179,0.02993028052151203,-0.10923188179731368,-0.11194803565740584,-0.4110187683999539,0.3632660199701786,-10.010071839094165
23.4,3.299999952316284,5.0,20.66008949279785,26.81338119506836,-79.78277033564343,40.459024750428405,291.97682879638666,-0.14209389686584473,0.10445640981197356,-0.5887002348899841,0.7888791561126709,-0.06258997618926643,3.3682839861863103,1.5195469637282124,0.06136506050825119,-0.134168803691864,-0.13325348496437073,-0.4218764265999198,0.3028853688016534,-9.93238222360611
23.5,3.799999952316284,7.0,20.755245208740234,26.82928466796875,-79.78276255266833,40.459028270365735,291.9600860900879,-0.14471526443958282,0.10584291815757753,-0.583598792552948,0.7920021414756775,-0.1130584738411673,3.873509674093518,1.6914168181173732,-0.01540689542889595,-0.029839275404810905,-0.13911780714988708,-0.6326460025459528,0.2051459980197251,-9.935068434476852
23.7,4.0,9.0,20.55742073059082,28.67409706115723,-79.78275766132425,40.4590294961745,291.9800045318604,-0.1448136419057846,0.10453004390001296,-0.5822899341583252,0.7931210994720459,-0.057558264182219675,4.155606593758162,1.7609766820714907,0.020532824099063873,0.053247056901454926,0.02740518748760224,-0.606082028746605,0.2716190276294947,-9.90112885594368
23.8,4.5,16.0,20.77652931213379,26.36808204650879,-79.78275326793378,40.45903210335722,291.94931338500976,-0.1423596739768982,0.10453471541404724,-0.580482542514801,0.7948875427246094,-0.1231060336448866,4.406078961809847,1.8042558559249515,0.03349605575203896,0.09493604302406312,-0.029446301981806755,-0.8534633973240853,0.3387661132961512,-9.879599407911304
24.0,4.800000190734863,17.0,20.389646530151367,29.397708892822266,-79.78273706803589,40.45903820572152,291.9379741973877,-0.13833385705947876,0.10379911959171297,-0.5783414840698242,0.7972519397735596,-0.14831954437187034,5.177678194822712,1.9461488265000595,0.05842653661966324,-0.010352605022490023,0.07837670296430588,-0.8577347883582116,0.24916732750833034,-9.732132044434547
24.21,5.300000190734863,20.0,20.606250762939453,27.298439025878906,-79.78273076321145,40.4590398775517,291.94322894287114,-0.13818003237247467,0.10345625877380372,-0.5786377191543579,0.7971082925796509,-0.0939156939155052,5.427509533549104,2.0087694910146023,0.06209433823823929,-0.04086482897400856,-0.15398581326007846,-0.7323950430750847,0.292141000404954,-10.021120737791062
24.3,5.599999904632568,20.0,20.761505126953125,26.66229820251465,-79.78272528567403,40.45904360516479,291.91712496948236,-0.13783706724643707,0.10169890522956848,-0.5766330361366272,0.7988446354866028,-0.22232015108333555,5.648716865646223,2.0631343107154656,-0.019598765298724168,0.10087047517299652,0.013286856934428215,-1.0921154576539993,0.21990274406969548,-9.863770995140076
24.4,6.099999904632568,23.0,20.805326461791992,25.40591812133789,-79.782718488976,40.45904549111197,291.91805575561517,-0.13628247380256653,0.10074788331985474,-0.5769007802009583,0.7990385293960571,-0.1692265055704511,5.88215137275675,2.1017435528287587,-0.07543372362852098,-0.012113193050026894,0.04626335948705673,-1.0020404161512853,0.17469302281737328,-9.768141537308694
24.61,6.4000000953674325,24.0,20.53863906860352,28.7218074798584,-79.7826978650488,40.459053854799656,291.87399028015136,-0.12377283722162248,0.1044064313173294,-0.5761436223983765,0.8011481165885925,-0.19618116919909934,6.5360069607306395,2.1529840948583194,0.09539137780666353,0.02293252199888229,0.1279178410768509,-1.0212407720088958,0.2892852020077408,-9.74205886244774
24.8,6.9000000953674325,28.0,20.65007209777832,25.827362060546875,-79.78269105990684,40.45905810975568,291.84498141479486,-0.11924248188734055,0.10512200742959976,-0.5747045874595642,0.8027734756469727,-0.31916995409523563,6.73722202983528,2.171521506965883,0.08004212379455566,0.09891339391469957,-0.12602640688419342,-1.1603080254793168,0.3726054851710797,-9.885693376064301
24.9,7.199999809265138,27.0,20.870433807373047,25.366159439086914,-79.7826831410866,40.459060401353895,291.8366596527099,-0.11664368212223053,0.1045142412185669,-0.5750727653503418,0.8029710650444031,-0.2624871564128697,6.9431527465580976,2.1801082166130725,-0.06405329704284668,-0.041652556508779526,0.13232487440109253,-1.2596088038384916,-0.03643593762069941,-9.814733905792236
25.01,7.699999809265138,28.0,20.787797927856445,25.86712074279785,-79.78266767003234,40.45906759732944,291.7899696655273,-0.1201210841536522,0.1024526059627533,-0.5723240971565247,0.8046859502792358,-0.3300424915675544,7.325210222992887,2.185451398001059,0.035841789096593864,-0.07895690202713013,-0.08908109366893767,-1.2406337119638922,0.1550129760056734,-9.639667099714279
25.2,7.900000095367432,29.0,20.761505126953125,26.28061294555664,-79.78265914909502,40.459070076298545,291.7723190612793,-0.12220855057239532,0.103936567902565,-0.5727553367614746,0.8038740754127502,-0.2369851235768949,7.4933460770658895,2.2358685062902,-0.05161106586456299,-0.054440949112176895,-0.1470937877893448,-1.3339561508595943,0.3370491880550981,-9.519999153614043
25.4,8.300000190734862,29.0,20.693893432617188,26.3521785736084,-79.78264235885204,40.45907791011405,291.7029354400635,-0.12394720315933228,0.10791874676942824,-0.5708209872245789,0.8044589161872864,-0.28162458457743306,7.834882424574492,2.356696759877748,-0.04396572336554527,-0.0048590251244604605,-0.14610213041305542,-1.4364600339531899,0.2708464094437659,-9.615841450095175
25.5,8.5,30.0,20.66008949279785,27.25072860717773,-79.78263326189399,40.459080571571604,291.6760532684326,-0.12381860613822936,0.10867852717638016,-0.5716503858566284,0.8037872314453125,-0.2570054368795414,7.982687212736603,2.4221751496886097,0.04908202961087227,0.04293489083647728,-0.03663725033402443,-1.6022954021394251,0.16008499704301354,-9.64926939725876
25.7,8.899999618530273,31.0,20.687633514404297,25.37411117553711,-79.78261502732109,40.45908887484921,291.5912639923096,-0.12576420605182648,0.1030704602599144,-0.5718145370483398,0.8041070103645325,-0.33940875975476825,8.341761888686456,2.4941152071679715,-0.09314394742250444,-0.05303523689508438,0.0009918364230543377,-1.5731644275784489,0.2240564233437181,-9.731743789315225
25.81,9.100000381469727,32.0,20.54740333557129,28.17313575744629,-79.7826053575805,40.459091740300295,291.5617534942627,-0.12960809469223022,0.1023905873298645,-0.5726435780525208,0.8029927015304565,-0.31974479380017906,8.499245904601008,2.553275037385576,-0.0267813578248024,0.016198385506868362,0.17367102205753324,-1.6665848073363303,-0.08932531882077456,-9.819162586927414
25.9,9.5,33.0,20.46476936340332,28.268556594848643,-79.78258559059526,40.45910034237336,291.47530863952636,-0.13383986055850985,0.1050342097878456,-0.573452889919281,0.8013778924942017,-0.4068076107594642,8.827203300586373,2.7879024845087863,0.02904045581817627,-0.09270777553319932,0.2753071188926697,-1.6467016428709031,-0.17709034468978646,-9.884567202329636
26.1,9.600000381469727,33.0,20.7064151763916,25.5570011138916,-79.78257535188371,40.45910542773615,291.4086124725342,-0.1338728666305542,0.10710678994655608,-0.5726821422576904,0.8016491532325745,-0.5366513556426749,8.999181459557517,2.9129095138538523,0.03424200788140297,0.029961081221699718,0.03953078016638757,-1.818903751820326,0.029218408707529307,-10.050624618530273
26.2,10.0,34.0,20.56368064880371,28.729759216308594,-79.78256490480581,40.45910863338687,291.3841354675293,-0.13423572480678558,0.10483736544847487,-0.5721228122711182,0.8022876977920532,-0.5106811365523503,9.140104172507677,3.02020890612544,-0.12886300683021545,0.04737512394785881,-0.05543667823076248,-1.7242152571678162,0.03402089594397694,-10.096091398000716
26.41,10.199999809265137,34.0,20.39089775085449,28.8887939453125,-79.78253227413396,40.459120537729,291.25969050598144,-0.1437903493642807,0.09852765500545503,-0.5676476955413818,0.8046073317527771,-0.4289541426754099,9.589509299753106,3.249532555002061,-0.025845499709248543,0.013881830498576164,0.1952776610851288,-1.9367611075937747,0.03371472568251193,-9.851701172590255
26.6,10.600000381469727,35.0,20.625030517578125,27.9266300201416,-79.78252070447287,40.45912573838969,291.1740696258545,-0.1440163105726242,0.10113205015659332,-0.5663175582885742,0.8051808476448059,-0.4841085510709618,9.742871976166077,3.3587332191736747,0.044789623469114304,0.08590368926525116,0.02808299101889133,-2.1160496033728124,0.08918752552941442,-9.948803544044496
26.7,10.699999809265137,36.0,20.28196907043457,30.0736083984375,-79.7825093807767,40.45912927649341,291.15624354553216,-0.13428980112075806,0.09676219522953032,-0.5671688914299011,0.806797981262207,-0.4425501179496585,9.831286146830305,3.461760467467734,0.022801179438829425,0.3290019929409027,-0.10148721933364868,-2.2275606836378574,0.26871519070118666,-10.053619562387466
26.8,11.0,36.0,20.698902130126953,25.21507453918457,-79.7824976044808,40.459134105581406,291.0852978057861,-0.1178651675581932,0.0818256065249443,-0.5672748684883118,0.8109326362609863,-0.5152172197721192,9.991497874834641,3.341431651035828,-0.0006605680682696402,0.6174489855766296,0.02816331572830677,-2.4999136099219323,0.14601659618318086,-10.312827801704406
27.01,11.199999809265137,36.0,21.0920467376709,21.756053924560547,-79.78247446329219,40.45914141676465,291.0837261505127,-0.08305418491363525,0.05215341970324516,-0.5713694095611572,0.8148123621940613,-0.4242892395636124,10.350586110756662,2.526841606673503,0.09427425265312196,0.2840746343135834,0.010868233628571032,-1.965516544729472,0.2073910181969404,-10.179400187730787
27.2,11.399999618530273,48.0,21.06324958801269,21.35846519470215,-79.7824511122531,40.45914996331437,291.01680110168456,-0.07177124172449112,0.045810166746377945,-0.5720837116241455,0.8157638311386108,-0.4807621467520911,10.469157243501432,1.9432791973050358,0.1446664035320282,0.12594515085220334,-0.2822157442569733,-1.7490419501066208,0.5185709913074971,-9.851766661405565
27.3,11.399999618530273,52.0,21.109575271606445,22.41604995727539,-79.78243933647437,40.45915497188921,290.9486439056396,-0.06808608025312424,0.04437275603413582,-0.5717791318893433,0.8163725733757019,-0.5629785612859046,10.48511909032108,1.8270047795355717,0.12336137890815735,0.13221727311611176,-0.19184353947639465,-1.7132466115057468,0.3434994343668223,-9.780258722305296
27.5,11.5,53.0,21.100811004638672,20.245216369628906,-79.78241629467918,40.45916248359202,290.95446131896966,-0.06339433044195175,0.03633977100253105,-0.5716241002082825,0.8172555565834045,-0.5819305338781526,10.430453130469347,1.7271474708325487,-0.009148995392024515,0.16514497995376587,-0.21393615007400515,-1.8298582179844385,0.0961266721598804,-10.068680820465088
27.6,11.5,53.0,21.46265411376953,18.36859703063965,-79.78240470500447,40.459167877592456,290.8847248382568,-0.05216622725129128,0.030479829758405682,-0.5717313289642334,0.8182134032249451,-0.668355397735574,10.412619285931203,1.6369237603698683,0.13028882443904874,0.2467362433671952,-0.0777849406003952,-2.131995983719826,0.08620847878977657,-10.28705795288086
27.8,11.5,58.0,21.31365966796875,20.133892059326172,-79.78238204407484,40.459176450327895,290.8441479034424,-0.023396661505103108,0.022181184962391853,-0.5747358202934265,0.8177037835121155,-0.7885587999970929,10.324374929527783,0.96890961770716,-0.0942528024315834,0.23572930693626404,0.13129015266895294,-1.9154576544463635,-0.20653659380972386,-9.365134477615355
27.9,11.5,65.0,21.22726821899414,21.40617561340332,-79.78236000635532,40.45918404391154,290.85181925964355,0.007496542297303677,-0.010960125364363194,-0.5771008729934692,0.8165649175643921,-0.8536000916309361,10.047629295942553,0.32504939691532464,-0.06233188882470131,0.5285839438438416,0.09144050627946854,-1.9104796274006368,0.1828894304484129,-9.612145425081254
28.1,11.300000190734865,65.0,20.88921356201172,22.495569229125977,-79.78234818168946,40.45918853943866,290.82045672607416,0.03123111464083195,-0.030515776947140694,-0.575997531414032,0.8162844777107239,-0.9171112890009776,9.894124627457833,-0.06799219542994088,0.061676044017076485,0.6783297061920166,0.0019175894558429718,-1.5759172967076305,0.1519178620353341,-10.952243052721023
28.2,11.199999809265137,66.0,21.20097541809082,21.318706512451172,-79.78233769019936,40.45919226090253,290.84413455200195,0.05466832965612412,-0.045632962137460716,-0.5736847519874573,0.8159748911857605,-0.9256075024711896,9.631852240207834,-0.5150046866207174,0.07329340279102325,0.3631463348865509,0.028249576687812805,-1.2387256193161011,0.36091722998768094,-11.312044451236725
28.4,11.0,91.0,21.254812240600586,20.66666030883789,-79.78231649565963,40.459199862026686,290.8790085144043,0.06616546213626863,-0.04645553603768349,-0.5722702741622925,0.8160703778266907,-0.8949578492872969,9.115344376126167,-1.039682367683045,0.05354101210832597,-0.21563079953193665,0.1764996200799942,-1.0493206364661456,-0.3623435486108065,-10.96015433549881
28.5,10.899999618530273,107.0,21.122095108032227,21.39027214050293,-79.78230684496569,40.459203381030036,290.93102381896966,0.0588868297636509,-0.04175551235675812,-0.5729689002037048,0.8163917660713196,-0.8619632558642684,8.88064426133418,-0.9022140867359034,-0.0030287604313343768,-0.3696057498455048,-0.0799882784485817,-0.3833428003638983,0.1238674894720316,-10.6056949532032
28.6,10.699999809265137,107.0,21.58535385131836,16.32499122619629,-79.78229678307092,40.45920672421376,290.94978450012206,0.034234646707773216,-0.029863050207495686,-0.5739166736602783,0.817652702331543,-0.8732383578589578,8.7232246924028,-0.7701420182527754,-0.10772921144962312,-0.5849117636680603,-0.22506305575370789,-0.8860120694339276,0.1139912316016853,-10.244579100608826
28.8,10.699999809265137,108.0,21.78693389892578,16.046680450439453,-79.78227826387759,40.459213028934435,291.00471614074706,-0.023472126573324203,0.0006339562241919339,-0.5753235220909119,0.8175888657569885,-0.8979726227835667,8.36233122207333,0.193134261693946,-0.07642436027526855,-0.44065889716148376,0.3004976212978363,-2.090879240334034,-0.39529626332223416,-8.867724705934524
28.9,10.600000381469727,79.0,21.815731048583984,15.90354824066162,-79.78226943288685,40.45921632076013,291.02860186767583,-0.03293164446949959,0.008116930723190308,-0.5759128332138062,0.8168072700500488,-0.9133686313100284,8.188892808215504,0.5126746076020586,0.029377916827797886,-0.1350848525762558,0.0009966554353013637,-1.916299214959145,0.1024054762814194,-8.531005775928497
29.1,10.5,71.0,21.656721115112305,17.978960037231445,-79.78225148923073,40.45922229021085,291.08780596923833,-0.028925301507115364,0.0010554479667916894,-0.5772707462310791,0.8160397410392761,-0.9425495650263402,7.957423687701392,0.4232648660882803,-0.008429196663200855,0.18920351564884186,-0.00879982952028513,-1.736396176815033,0.11608009457588195,-8.457643100023269
29.3,10.399999618530273,70.0,21.4426212310791,19.354618072509766,-79.78223426709872,40.45922818107865,291.1030628509521,-0.025153398513793945,-0.011757528409361841,-0.5764396786689758,0.8166678547859192,-1.0036958873694182,7.790989290990849,0.07835939287642886,-0.17280815541744232,-0.21521253883838654,0.04619541019201279,-1.1873940825462341,-0.08616329077631235,-9.106344898939133
29.4,10.300000190734863,71.0,21.456392288208008,19.27510070800781,-79.78222605819369,40.45923136173743,291.07966159057617,-0.03332734853029251,-0.01236253883689642,-0.5753471255302429,0.8171365857124329,-1.020563476923625,7.707259793826692,0.005869257808103906,-0.1242729276418686,-0.13806656002998352,-0.07419082522392273,-1.1884142024070026,0.15752232687547804,-9.290277838110924
29.6,10.300000190734863,78.0,21.487693786621094,19.4659423828125,-79.78220913896419,40.45923697434439,291.10633586120605,-0.05891245976090431,-0.0022563731763511896,-0.5720773339271545,0.8180781602859497,-1.0076984932771451,7.594305889516178,0.2504410572231213,-0.04210247471928597,-0.3271278142929077,-0.12686096131801605,-1.4105266092717648,0.19595894414931536,-9.0221689671278
29.7,10.300000190734863,70.0,21.433856964111328,20.4281063079834,-79.78220115807926,40.45924016256087,291.0711738891601,-0.07452940195798874,0.006740317214280367,-0.5705524682998657,0.8178446292877197,-1.024690919160642,7.559481735471146,0.3869811062799559,-0.025563608855009082,-0.4122265875339508,-0.062297429889440536,-1.4596502374112608,0.020943703204393392,-8.837202824950216
29.9,10.300000190734863,69.0,21.15464973449707,23.1953239440918,-79.78218473640142,40.45924581439917,291.0525810546875,-0.09860318154096603,0.026086887344717983,-0.5670739412307739,0.8173273801803589,-1.0043172535307554,7.505872144712306,0.8012550580007461,0.10373619198799132,-0.2302216738462448,-0.1724737286567688,-1.7217168880999092,0.2438327847607433,-8.926339534521102
30.0,10.399999618530273,69.0,20.923019409179688,25.827362060546875,-79.78217683210791,40.45924905086471,290.9970733947754,-0.10431656986474992,0.037407144904136665,-0.5660252571105957,0.8169052600860596,-1.0314578830009855,7.516636750578375,0.9424644309134382,0.06377608329057692,-0.25256872177124023,0.08675719052553177,-1.6569241838157178,-0.03935306782834232,-9.168278022408488
30.2,10.399999618530273,53.0,20.711421966552734,25.5649528503418,-79.78216021285755,40.45925455608359,290.98749087524413,-0.12095048278570175,0.05426010489463806,-0.5638169050216675,0.8151915669441223,-0.9696578452975338,7.600850785178494,1.3055737593074672,0.06753768026828766,-0.23157046735286715,-0.1952909678220749,-1.6602278606593608,0.4160432442650199,-9.601328660845756
30.3,10.399999618530273,48.0,20.626283645629886,28.24470138549805,-79.78214331467605,40.45925997598634,291.0005314178467,-0.14909611642360687,0.0713365226984024,-0.5603639483451843,0.8115872144699097,-0.9155750940319096,7.721689092903638,1.850244448389972,-0.04013453796505928,-0.35802599787712097,0.09530115872621536,-1.57637644931674,0.24662864919751884,-9.653733161687851
30.4,10.399999618530273,48.0,20.403417587280273,30.510955810546875,-79.78213489344694,40.45926333431981,290.9486648864746,-0.16414611041545868,0.07826288044452667,-0.5590925216674805,0.8089169859886169,-0.91651545414617,7.816036670425698,2.153406223364476,0.06374678760766983,-0.2640949189662933,-0.1865851879119873,-1.6057391197979451,0.3358726551756263,-9.617513169050216
30.61,10.399999618530273,47.0,20.05660057067871,33.747329711914055,-79.78212611831437,40.459265593007686,291.00268672180175,-0.1741286665201187,0.0832926332950592,-0.5578498840332031,0.8071835041046143,-0.8607949674312134,7.84945477101634,2.544047508450201,-0.08747576922178267,-0.18519987165927887,-0.1824763715267181,-1.6203728002309798,0.43320909798145296,-10.035203171968462
30.8,10.600000381469727,38.0,20.09290885925293,32.27624893188477,-79.78210881288979,40.45927230263223,290.93112681579584,-0.1815623193979264,0.07658881694078445,-0.5558098554611206,0.807616651058197,-0.8871021784462916,8.056300143606704,3.0291896508521168,-0.06382740288972855,0.0747794359922409,0.09474319964647293,-1.9026005043089391,0.4405383635312319,-10.149158388376236
30.9,10.800000190734863,38.0,20.041576385498047,32.53070831298828,-79.78209964787428,40.459275918374146,290.89851496887206,-0.1813578307628632,0.07393250614404677,-0.5543224811553955,0.8089314103126526,-0.8702891869239813,8.243280503652151,3.1172355523093285,0.06281665712594986,0.05336194112896919,-0.0792258158326149,-1.898331598341465,0.6129940954595805,-10.064053333997727
31.1,11.0,37.0,20.01653480529785,33.58829116821289,-79.78208154712262,40.45928290098632,290.8277828521728,-0.17709381878376007,0.08148183673620224,-0.5509109497070312,0.8114774227142334,-0.8333143310323459,8.488074813229634,3.2082058843356984,0.16971272230148315,0.189768984913826,-0.17304356396198273,-2.045591385662556,0.7954059545695782,-9.705953475236893
31.2,11.199999809265137,37.0,20.054096221923828,33.42130661010742,-79.78207191486818,40.45928669754626,290.7973739929198,-0.17189860343933105,0.09057432413101196,-0.549199640750885,0.8127897381782532,-0.8094225621825358,8.651433589971942,3.253453573932793,0.2531746327877045,0.0073884683661162845,-0.0670793205499649,-2.2159878744184973,0.5415161964297295,-9.741280598044396
31.3,11.399999618530273,35.0,20.047836303710934,32.42733383178711,-79.78206276982128,40.45929041377127,290.72825549316406,-0.16303223371505735,0.0962485522031784,-0.5469071865081787,0.8155056238174438,-0.8168343352651606,8.734387845302711,3.2821034289760425,0.12237390875816345,0.2025432139635086,0.036892443895339966,-2.7169008591771133,0.1793016154691577,-9.648875294923783
31.5,11.5,32.0,20.24691200256348,30.582523345947266,-79.78204284630272,40.45929821692655,290.6737510986328,-0.13742662966251373,0.0908861756324768,-0.5420827865600586,0.8240145444869995,-0.6856692060780868,9.06745849568266,3.1327871759967305,0.02860103361308575,0.18606577813625336,-0.10074276477098464,-2.3003773757815362,0.1462873405404389,-9.971136399507524
31.6,11.699999809265135,32.0,20.240652084350586,30.74950981140137,-79.78203317105276,40.45930220845802,290.59613726806634,-0.1282600164413452,0.08281860500574112,-0.5390388965606691,0.8283281922340393,-0.6069209820193238,9.197782539470408,2.9109429827806768,-0.03532227873802185,0.20204655826091766,-0.02699654921889305,-2.4408454759418965,0.2303115919232369,-9.994479653835297
31.8,11.800000190734865,32.0,20.40216636657715,29.31818962097168,-79.78201280296238,40.45931029665889,290.5059616394043,-0.11672282963991165,0.07589474320411682,-0.5325019955635071,0.8348996639251709,-0.39644136558848897,9.401506728556225,2.7036111140650294,-0.0187617652118206,0.08268516510725021,-0.2256588786840439,-2.62548519730568,0.2853975893184543,-10.480707210302354
32.0,12.0,35.0,20.53738784790039,28.022050857543945,-79.78199204386466,40.459318218470095,290.5055496520996,-0.09618926793336867,0.0667421966791153,-0.5260525345802307,0.842354953289032,-0.1603766873209308,9.537145420393829,2.608566646712644,0.09324748069047928,0.21740178763866425,-0.17551840841770172,-2.2061152893304827,0.3149606365710497,-10.8418756878376
32.1,12.100000381469727,39.0,20.343320846557614,30.42348670959473,-79.7819708918707,40.45932642544712,290.50427745056146,-0.09772186726331712,0.07756093144416809,-0.5223824977874756,0.8435350060462952,0.0023131490027406137,9.610121394709877,2.566452390671882,0.10216983407735823,-0.2091357707977295,0.1654195636510849,-2.2193891997635364,0.23377643264830114,-10.556156172752381
32.3,12.300000190734865,40.0,20.33205223083496,29.62035751342773,-79.78196026118486,40.45933057606821,290.4946739501953,-0.104052372276783,0.09001567959785461,-0.5218638777732849,0.8418601155281067,-0.0037352475149218796,9.579970838320307,2.794676823071999,0.08336123079061508,-0.2603200078010559,0.3099092543125153,-2.4122113685309894,-0.07377690545283258,-10.345350015163422
32.4,12.399999618530273,41.0,20.17304039001465,31.958179473876953,-79.78194966099167,40.45933452761256,290.5324737854004,-0.11288116872310636,0.1023809090256691,-0.5225607752799988,0.8388720750808716,0.02104244914268944,9.559183544137678,3.089377594056654,0.10305824130773544,-0.3513507544994354,-0.2994263470172882,-2.3038314722478392,0.4029788468778134,-10.116145008802414
32.61,12.5,33.0,20.507339477539066,27.099645614624023,-79.78192818734091,40.45934268165132,290.56642459106445,-0.1178293600678444,0.11628726869821547,-0.5343706607818604,0.8288797736167908,-0.10133415530592517,9.496689264703663,3.664840427370084,0.09773870557546616,0.1627027541399002,0.17499873042106628,-2.569383794367313,0.11950711112469435,-10.060348538160325
32.7,12.600000381469727,33.0,20.593730926513672,25.81941032409668,-79.78190628859221,40.45935082431918,290.6151745147705,-0.09573981910943984,0.09219878166913986,-0.5541278123855591,0.821751594543457,-0.4146291109644552,9.665242342625762,3.4367384682420323,-0.2663649618625641,0.44014158844947815,0.5247901082038879,-2.6955073589086536,-0.0731766613572836,-9.79909143447876
32.9,12.600000381469727,33.0,20.923019409179688,22.447856903076172,-79.78189529334401,40.45935468427793,290.65992282104486,-0.08445187658071518,0.0693310871720314,-0.5633472204208374,0.818963348865509,-0.5367297494369487,9.78541221880016,3.0902647691690297,-0.246404767036438,0.4800851941108704,0.13788121938705444,-2.6679886078834536,0.012422994375228879,-9.752594375610352
33.0,12.699999809265135,33.0,20.882953643798828,24.18929672241211,-79.78188428847128,40.459358518780974,290.70857356262206,-0.07570134848356247,0.04798198491334915,-0.5704390406608582,0.8164351582527161,-0.6636680990236858,9.882834888228386,2.689635428661898,-0.22240804135799408,0.1955074965953827,0.21521249413490293,-2.1861983571946624,-0.09061722457408904,-9.727343174815179
33.2,12.699999809265135,57.0,21.256065368652344,19.211484909057614,-79.78186215990347,40.45936678804033,290.7431671447754,-0.07788729667663574,0.03041432425379753,-0.5789674520492554,0.8110520243644714,-0.9286756997558656,9.919856022419571,2.0719529739778038,-0.1827288419008255,-0.06297177821397781,0.10815291851758957,-2.2806550097465514,0.15027643896639348,-9.255146012306216
33.3,12.800000190734865,61.0,21.17718505859375,21.24713897705078,-79.7818501087466,40.45937089764371,290.7794220275879,-0.08194050937891006,0.03382211551070213,-0.5812611579895021,0.8088740706443787,-1.0248282218274167,9.937461716544544,2.0062312505211968,-0.01080916728824377,-0.18629610538482666,0.11468247324228288,-2.1844922858476643,0.3165816674754024,-9.097491629719734
33.51,12.800000190734865,61.0,21.254812240600586,21.350513458251953,-79.78182849774404,40.45937863109637,290.82889674377435,-0.08469531685113907,0.04372915998101234,-0.5839953422546387,0.8061414361000061,-1.1806824605097317,9.783495430454423,2.0353063783737144,0.0013223097193986175,-0.022721663117408752,0.04355613514780998,-2.5611886292696,0.06716681088320911,-8.585358569025994
33.6,12.800000190734865,60.0,21.129608154296875,22.69436264038086,-79.78180612019806,40.4593866416075,290.92016719055175,-0.08934786915779114,0.04218275845050812,-0.5820257067680359,0.807145357131958,-1.2213530686272172,9.780149147551366,1.926653344586272,-0.1125781461596489,-0.15273167192935946,-0.18314984440803528,-2.211948764026165,0.17754743250086905,-8.679328587055206
33.8,12.699999809265135,56.0,20.72644805908203,26.38398551940918,-79.7817947002117,40.45939045780029,291.00903819274896,-0.09260806441307068,0.03903396800160408,-0.5795776844024658,0.808696448802948,-1.1868247286140146,9.7765905465314,1.9298757283897887,-0.09696341305971146,-0.05109114944934845,0.2217119336128235,-1.949144194722176,0.13578137408941984,-8.5538572794199
33.9,12.600000381469727,56.0,20.8917179107666,25.22302627563477,-79.7817840352554,40.45939433301186,291.0020897216797,-0.0944346934556961,0.03430057317018509,-0.5766010284423828,0.8108248710632324,-1.1490677137669023,9.766111172541974,1.8948823968900448,-0.2188543528318405,-0.08072351664304732,0.0479343943297863,-2.2927827197313317,-0.004071745164692402,-8.886136418581009
34.1,12.399999618530273,55.0,20.87293815612793,26.527118682861328,-79.78176210394524,40.45940206484992,291.0456783599853,-0.08802113682031631,0.029180772602558136,-0.5697177052497864,0.8165920376777649,-0.9853716629429792,9.790364199839491,1.8050936222117056,-0.03425698354840278,0.0704943910241127,0.02244082652032376,-1.7977448710799218,0.07558474576100707,-9.288284522295001
34.2,12.300000190734865,55.0,20.77277374267578,24.793630599975586,-79.78174024342479,40.45940977909914,291.1033375091552,-0.07551023364067078,0.022106695920228958,-0.5668246150016785,0.8200728297233582,-0.9003896583052118,9.783793251009936,1.6320211563874392,0.010768915526568891,0.1383378803730011,0.17251844704151156,-1.930195269137621,-0.16322864290326836,-9.580939419865606
34.4,12.100000381469727,56.0,21.119590759277344,21.74015045166016,-79.78172970286766,40.45941370848569,291.10094378662114,-0.07133673876523973,0.020057870075106617,-0.5671742558479309,0.8202573657035828,-0.8839854571864282,9.772990896652004,1.5086362789117915,0.12676042318344116,0.17014020681381226,-0.35086968541145325,-1.778249961733818,0.4683248439431191,-9.843235573768617
34.5,12.100000381469727,58.0,21.05072784423828,22.54327964782715,-79.78171922554445,40.459417648040784,291.10055278015136,-0.06959926337003708,0.02147153578698635,-0.5683531165122986,0.8195545077323914,-0.9128479940733728,9.734557517945527,1.422461026287221,0.18925288319587708,0.11902211606502533,-0.16430841386318207,-1.5981922647356988,0.4696213909238578,-9.658106878995897
34.7,11.899999618530273,58.0,21.119590759277344,21.62882423400879,-79.78169764260593,40.459425382008746,291.17159770202636,-0.0689973384141922,0.02421694807708264,-0.5710005760192871,0.8176866173744202,-1.018879198559274,9.6379931133108,1.4243752021025475,-0.024327123537659645,0.08842151612043381,0.045369774103164666,-1.776966497898102,0.313965659737587,-9.502323020696641
34.8,11.800000190734865,58.0,21.258569717407227,20.4837703704834,-79.78168673892556,40.45942920325145,291.20644305419916,-0.07006114721298218,0.022668803110718727,-0.5721104145050049,0.8168643116950989,-1.046026845112676,9.609955831241097,1.442996284592331,0.0032443210948258643,0.06254894286394119,0.1237340047955513,-1.9313166189193731,0.12587574309669436,-9.600115363597867
35.0,11.5,60.0,21.142127990722656,23.05219268798828,-79.78166617933422,40.45943704247758,291.21162532043456,-0.06997677683830261,0.023571427911520004,-0.5734485387802124,0.8159071207046509,-1.0933145386269794,9.540566316733967,1.3819239785781672,-0.004184344317764044,-0.017558315768837932,0.01227188017219305,-1.6814278180897235,0.44216067351400856,-9.145858628153801
35.11,11.399999618530273,60.0,20.89923095703125,24.769775390625,-79.78165565820602,40.45944078391782,291.2333214111328,-0.07150628417730331,0.02649137191474437,-0.5724582076072693,0.8163803219795227,-1.1047507373095982,9.5045754839822,1.3295700231941954,-0.05624037981033325,-0.09145160764455797,0.060372080653905875,-1.9830542448163035,0.20356138430535795,-8.978902494907379
35.2,11.199999809265137,59.0,20.902986526489254,24.21315193176269,-79.78164548616898,40.459444661190574,291.2244007415772,-0.07188854366540909,0.025244396179914474,-0.5710849165916443,0.8173474073410034,-1.0877616693133318,9.461270164177833,1.3523050759617543,-0.04240458086133003,-0.012001410126686094,0.043157514184713364,-1.9574334999918936,0.4403055712580681,-9.293416038751603
35.4,11.199999809265137,60.0,21.009410858154297,23.871225357055664,-79.78162477483406,40.45945221786173,291.2427456207276,-0.07792644947767258,0.020069360733032227,-0.5683017373085022,0.8188760280609131,-1.0054575049315455,9.431543294629561,1.3630338144968397,-0.024796470999717712,0.043091755360364914,-0.010389740578830242,-1.7444387295842172,0.1375442456547171,-9.639296970963477
35.6,11.100000381469727,60.0,21.073265075683594,23.55315399169922,-79.78160432408076,40.459459709261814,291.24678157043456,-0.08813884854316711,0.026499763131141663,-0.5671748518943787,0.8184388279914856,-0.9795677234876752,9.390652602491993,1.5459325289916253,0.11074993014335632,-0.10070338845252992,-0.2126358151435852,-1.3918903635442257,0.5912621510401368,-9.713664783239363
35.7,11.100000381469727,59.0,20.89547348022461,25.27868843078613,-79.78159425926266,40.45946359642829,291.24272463989263,-0.09270068258047104,0.03439876437187195,-0.5685479640960693,0.8166863918304443,-1.0179792864452692,9.359097719692505,1.6703574779697108,0.09603755176067352,-0.14755186438560486,0.22960418462753296,-1.9168742886185648,0.1520445638895035,-9.683437601923943
35.8,11.0,59.0,20.777782440185547,24.61074066162109,-79.78158400771092,40.45946722481219,291.2398636169433,-0.095915786921978,0.04207485541701317,-0.5700049996376038,0.8149381279945374,-1.0447222716966866,9.338236551880644,1.8240388310218667,0.10677599906921388,-0.12595464289188385,0.10952100157737732,-1.8675443999469283,0.32861629709601403,-9.817832930088043
36.0,10.899999618530273,58.0,21.01191520690918,24.300621032714844,-79.7815536145598,40.45947880297078,291.2233688659668,-0.1091361567378044,0.04547693207859993,-0.5720323920249939,0.8116650581359863,-1.181054366681945,9.363189631915242,2.1527026143444705,0.01810372807085514,-0.07176891714334488,0.15262827277183533,-1.950031948238612,0.27611076733097434,-9.70459458231926
36.1,10.800000190734863,52.0,20.765260696411133,26.805429458618164,-79.7815434250727,40.459482776672935,291.2213833160401,-0.11014386266469957,0.047546520829200745,-0.5725170373916626,0.8110683560371399,-1.1993348039616256,9.379177934932082,2.266789363017483,0.06898669898509979,-0.0267456378787756,0.19830560684204104,-2.0997680313885208,0.23812679763883354,-9.711068619489673
36.31,10.800000190734863,52.0,21.021930694580078,24.06206703186035,-79.78153320446333,40.459486592831375,291.21297763061517,-0.10603303462266922,0.0499718151986599,-0.5731889605522156,0.810995876789093,-1.220707763356184,9.388509894138453,2.340487279658391,0.14373555779457092,0.005795577075332403,0.37047693133354187,-2.0564886952936647,0.07641009852290154,-9.853189873695374
36.5,10.699999809265137,52.0,21.00440216064453,23.537250518798828,-79.7815126446921,40.45949464545952,291.22047160339355,-0.09650222957134247,0.052359145134687424,-0.5748521089553833,0.8108581304550171,-1.2922637787230544,9.494212724771812,2.2391821099332425,0.03768762573599816,0.04827803373336792,-0.19433538615703586,-1.7522478322684765,0.21125288486480714,-9.641687897443774
36.6,10.699999809265137,52.0,20.92427062988281,24.141586303710927,-79.78150253139161,40.45949861703178,291.19860957336425,-0.0936710610985756,0.05212663859128952,-0.5758119821548462,0.8105239868164062,-1.3366281417856647,9.50775703924132,2.1452314137879567,-0.0706171914935112,-0.02457570098340512,-0.1078863888978958,-1.8007798683643341,0.13414130318909884,-9.460059345960618
36.7,10.600000381469727,55.0,20.8629207611084,24.49941635131836,-79.7814922139074,40.459502678197175,291.19736407470697,-0.09080155938863754,0.05215698853135109,-0.5762618184089661,0.8105288743972778,-1.3498255550707359,9.529296091266193,2.0832105047088865,0.08303165435791016,0.14581796526908875,-0.31997010111808777,-1.7641448695957662,0.4216607739776373,-9.541721559762957
36.91,10.600000381469727,58.0,21.003150939941406,22.479665756225586,-79.78146129959309,40.45951487203364,291.20607684326166,-0.003505194326862693,0.0005068773170933127,-0.5789296627044678,0.8153699040412903,-1.3737878529059286,9.462528009976216,1.1184452082291307,0.045127969235181815,1.017749547958374,0.022348059341311455,-2.0773759728670123,0.14188188381493091,-10.006068835258484
37.01,10.399999618530273,58.0,21.055736541748047,23.38616752624512,-79.78145091491716,40.459518764730966,291.21092150878906,0.037928439676761634,-0.02770225889980793,-0.5776898264884949,0.8149040937423706,-1.3527677910706113,9.345338317708233,0.3193178523519433,0.02590768411755562,1.0330438613891602,-0.013097112998366356,-1.581845934838057,0.06062890658620745,-11.039908018112182
37.2,10.300000190734863,58.0,21.127103805541992,23.23508262634277,-79.78144116455998,40.459522638499706,291.24196170043945,0.07246522605419159,-0.047297824174165726,-0.5764302611351013,0.8125514984130859,-1.320338799643894,9.08801342335796,-0.4937920115296128,0.15732772648334506,0.5691272020339966,0.39424604177474976,-1.1199547822773457,-0.4092053641006351,-11.004487924575805
37.4,10.300000190734863,109.0,21.193462371826172,20.63485336303711,-79.78142181415002,40.45953016466522,291.2974197692871,0.09443541616201401,-0.0555320680141449,-0.5778172016143799,0.8087802529335022,-1.2593159969924204,8.433857767952333,-1.4110597146144483,-0.04838952794671059,-0.173837810754776,0.616271436214447,-0.9402938919514421,-0.16831670723855496,-10.765765990018844
37.5,10.199999809265137,118.0,21.666736602783203,16.643062591552734,-79.78141297929145,40.4595337019101,291.3461887664795,0.08310963958501816,-0.05348096787929535,-0.580271303653717,0.8084045052528381,-1.2762297398821023,8.119618075510186,-1.30603545517048,-0.2574807405471802,-0.4838705360889435,0.2301537096500397,-1.080412474796176,0.05073961582034826,-10.670599046945572
37.6,10.0,117.0,21.679258346557614,16.563545227050778,-79.78140419426451,40.45953695172185,291.37545512390136,0.06564939022064209,-0.05137345567345618,-0.5820012092590332,0.8089038729667664,-1.2850076327128983,7.8508557727378525,-1.1051465836359111,-0.25678572058677673,-0.483222246170044,0.09909138083457948,-1.2054283574223519,0.15301527477800847,-10.16076394200325
37.8,9.899999618530273,117.0,21.62541961669922,19.14787101745605,-79.78137995576833,40.45954637950818,291.46511767578124,0.08476915210485457,-0.07151731848716736,-0.5770946741104126,0.8091113567352295,-1.2213072752991885,6.989542258113325,-0.9775838573682591,-0.042026039212942116,0.3564068377017975,0.29044198989868164,-1.358323106467724,0.4910991641879082,-9.371843572854996
37.9,9.600000381469727,102.0,21.473920822143555,19.31485939025879,-79.78137270427806,40.4595493931074,291.4836284942627,0.10690368711948396,-0.08462843298912047,-0.5725396871566772,0.8084602355957031,-1.1670933569144368,6.619175343070062,-1.3199296692253235,-0.0232454426586628,0.5373753905296326,0.017732961103320122,-1.0793201418220997,0.3243236368149519,-9.40488384962082
38.1,9.399999618530273,113.0,21.224763870239254,22.98857879638672,-79.7813652673134,40.459552038921366,291.5057403869629,0.12443189322948454,-0.09794597327709198,-0.5671907067298889,0.8082189559936523,-1.0724406609557415,6.226121581794766,-1.6165713345770367,-0.05978512391448021,0.4268472492694855,-0.05316276475787163,-0.4095828749611974,0.1872350811213255,-9.832771396636963
38.21,8.899999618530273,111.0,21.30364227294922,20.937021255493164,-79.78135875565178,40.45955480349431,291.5140373535156,0.13667625188827515,-0.10996785014867784,-0.5622105002403259,0.8081744909286499,-1.0215934130002564,5.7701529752739225,-1.8048926620007844,-0.07551682740449905,0.06208813190460205,-0.04593075066804887,-0.6059749150648713,0.3300483167544008,-10.079015189409256
38.4,8.699999809265138,111.0,21.76064109802246,16.261377334594727,-79.78134122787384,40.45956187468617,291.5130779571533,0.12085171788930893,-0.11628735065460205,-0.5527849197387695,0.8162726759910583,-0.881887682328784,4.566704248840987,-1.8657864984029,-0.10623876005411148,-0.06787636876106262,-0.03405879437923432,-0.37131054617464543,0.33239644892513753,-9.89731179356575
38.6,8.100000381469728,115.0,21.39754676818848,20.746177673339844,-79.78133540108219,40.45956331381,291.51032946777343,0.11042556911706924,-0.12192194908857346,-0.5506689548492432,0.8183550238609314,-0.8495582847079165,4.26528995567114,-1.787878537453235,-0.2868464887142181,-0.11649618297815326,0.1807384192943573,-0.8305904053151608,-0.00126347366720438,-8.913542903065682
38.7,7.800000190734862,109.0,21.32743263244629,20.96087646484375,-79.78133088151607,40.45956549774533,291.46833728027343,0.1029140055179596,-0.13294528424739838,-0.5503959655761719,0.8178011178970337,-0.91585587157086,3.933123700914985,-1.7545561296012715,-0.18386320769786835,0.08030093461275101,-0.06646127253770827,-0.6735056146234274,0.2125501079298556,-9.001542913913728
38.82,7.0,108.0,21.52525520324707,18.718475341796875,-79.78132168371422,40.459568337483056,291.387082321167,0.1121075376868248,-0.13512593507766724,-0.5497815608978271,0.8166475892066956,-0.9756918899395162,3.2499799110579497,-1.7683416409159758,0.2665800750255585,0.0913529172539711,-0.002698855008929968,-0.5653847865387798,0.4094853360950947,-9.028637157082557
39.0,6.599999904632568,108.0,20.94305229187012,25.49338722229004,-79.78131708292437,40.45956989048771,291.3443443603516,0.12125370651483534,-0.12451288849115373,-0.5507510304450989,0.8163745999336243,-0.9763677608177252,2.9407209285105282,-1.8356729549267168,0.201153427362442,0.039274271577596664,0.1849924474954605,-0.4834702288359404,0.1458045341167599,-8.971361925601961
39.11,5.699999809265138,109.0,20.698902130126953,27.886871337890625,-79.78131009597344,40.459572118841706,291.22290919494634,0.14337725937366486,-0.12628322839736938,-0.5545674562454224,0.8099076747894287,-0.9225221329949288,2.1944110694655934,-1.7972316627312044,-0.14122076332569122,0.17499376833438873,0.11681918054819107,-0.28609165381640195,-0.12684944154694675,-9.788513821363447
39.3,5.300000190734863,113.0,20.443483352661133,30.98806381225586,-79.78130473952393,40.45957354236919,291.14422915649413,0.14964143931865692,-0.13984039425849915,-0.5604192614555359,0.8024851083755493,-0.8890555751262847,1.4014532721328454,-1.528717339875613,-0.15178698301315308,-0.05647372081875801,0.12387672066688538,-0.07708649346604944,0.17753654206171632,-10.157293034791943
39.5,4.400000095367432,107.0,20.17679786682129,33.31793212890625,-79.78130326022638,40.459574792825286,291.05328105163574,0.1507827341556549,-0.13848726451396942,-0.5649566054344177,0.7993183732032776,-0.9024823169356596,0.9903638735745262,-1.3224834338523628,0.197346106171608,-0.017098231241106987,0.09129849076271056,0.040500031155534084,0.6175823324918748,-11.026324936151504
39.61,4.0,105.0,20.05660057067871,34.54250717163086,-79.78130126102492,40.45957425846142,291.08167002868646,0.1595390886068344,-0.12069018185138702,-0.5658437609672546,0.79987633228302,-0.7712330477048454,0.6623324856179177,-1.0269393125345654,0.41226571798324585,-0.15553945302963254,0.08398227393627168,0.15345398040488364,0.3297700258344412,-11.389523566961286
39.8,3.299999952316284,102.0,19.8775577545166,36.78490447998047,-79.78129937731771,40.459574005690655,291.0643341369629,0.1394781619310379,-0.10860861092805862,-0.5701642036437988,0.8022859692573547,-0.6151684662252922,0.05706895975762166,-0.4488819252528667,-0.33566775918006897,-0.2292703837156296,-0.03422503173351288,0.35076854668557644,-0.07401818532496691,-11.944975140094755
39.9,3.0,98.0,19.89759063720703,34.90033721923828,-79.78130011264892,40.45957504642053,291.01672862243646,0.07504025101661682,-0.10122846066951753,-0.5742418766021729,0.8089301586151123,-0.6758504451350454,-0.3330332017933467,0.04454658748223368,-0.28417375683784485,-1.3617260456085205,-0.08835194259881972,0.3096495740488172,0.03656199079938234,-12.022432036399842
40.1,2.5,85.0,20.42845916748047,29.44541931152344,-79.78130052326509,40.45957431772067,291.0107414550781,0.0015461952425539494,-0.0591127835214138,-0.5877583026885986,0.8068726658821106,-0.5902774215131547,-0.4127942993869387,0.1787813708861759,-1.0137583785763129e-06,-1.6107053756713867,0.5161218643188477,0.3253262881189585,0.648549552038312,-11.165522582530977
40.2,2.299999952316284,76.0,20.56493377685547,28.32421875,-79.78130127442729,40.45957469182691,291.0205890960693,-0.04310512915253639,-0.008215720765292645,-0.6131107807159424,0.7887772917747498,-0.5514643901373627,-0.4747459396807441,0.2573951705855279,0.6472734808921814,-1.02003812789917,0.6397088170051575,-0.1999767852947116,1.1347306231409309,-11.188000448942184
40.4,2.0999999046325684,2.0,20.554916381835934,28.332170486450195,-79.78130269354911,40.45957396525695,291.0362484283446,-0.023724189028143883,0.04788855090737343,-0.680397629737854,0.7308918833732605,-0.40580881838149896,-0.4952093036328203,0.3294658915250402,0.2080598622560501,0.3940829038619995,1.075755000114441,-0.3832327265292406,-0.1649871199205518,-10.935591351985929
40.5,2.0999999046325684,345.0,20.56868934631348,27.457475662231445,-79.78130326166557,40.45957425557575,291.0791084594726,-0.003792600007727742,0.021602099761366844,-0.7202128767967224,0.693406343460083,-0.3703895119133925,-0.4672775138990636,0.4095178622963687,-0.3019949793815613,0.8186965584754944,1.284865379333496,0.0165856271982193,-0.4738015653938055,-10.742726790905001
40.7,2.0,325.0,20.73020362854004,26.622539520263672,-79.78130433511423,40.45957289391836,291.0948440856933,0.006414202041924,-0.06562952697277069,-0.8020255565643309,0.59363853931427,-0.14776673456130204,-0.3845457949560665,0.5172911901669741,-0.3473382294178009,0.19562499225139612,1.38400137424469,0.920596011132002,0.20014419838786127,-10.057317341566089
40.8,2.0,316.0,20.72269058227539,25.61266326904297,-79.78130527669799,40.459570518704474,290.9877731628418,0.0038908787537366147,-0.07004178315401077,-0.8414856791496277,0.5357061624526978,0.03926262897391717,-0.3780020254508856,0.4660049929818044,-0.11439310759305955,-0.18984684348106384,1.3858559131622314,0.7533571650087834,0.3642087738588453,-9.944080163240434
40.9,2.200000047683716,356.0,20.918010711669922,24.61869239807129,-79.78130578823668,40.45957064412797,291.03118823242187,0.0004502582887653262,-0.05902484059333801,-0.8803258538246155,0.4706827700138092,0.06474218475468416,-0.4258520769695077,0.49853339631508703,-0.07757607847452164,-0.3485389351844788,1.5856226682662964,0.5928615472465754,0.2619775902852416,-10.034653533697133
41.11,2.299999952316284,3.0,20.940547943115234,23.49749183654785,-79.78130788935009,40.459568231091225,290.8901703186035,-0.0017281895270571113,-0.03654061257839203,-0.9431732892990112,0.3302817940711975,0.2843412810355661,-0.4429405147785711,0.3761400057638532,-0.06180481240153313,-0.03277600556612015,1.5359945297241209,0.2281724611669779,0.1853592029772699,-10.00999582529068
41.3,2.4000000953674316,350.0,20.940547943115234,24.06206703186035,-79.78131021101791,40.45956573248068,290.75394366455083,-0.005340272560715675,-0.03940286487340927,-0.9832863807678224,0.1776709109544754,0.46586135666425305,-0.313235536868928,0.26160443313242565,-0.11442279815673828,0.09713735431432724,1.6628569364547732,0.3127058771252632,-0.004927732996875421,-9.84137265086174
41.4,2.5,344.0,20.89046669006348,24.865196228027344,-79.78131085729986,40.459565808607344,290.7783939666748,-0.0054441317915916426,-0.042536862194538116,-0.9942977428436279,0.09763699024915697,0.4793939401272227,-0.26675842517205484,0.2466695531504157,-0.02690696157515049,0.046891916543245316,1.6229352951049805,0.5019272574037313,0.03365134734660387,-9.691579264998436
41.6,2.5999999046325684,4.0,20.887962341308594,25.620615005493164,-79.7813128328448,40.4595644564658,290.81655810546874,0.00255877454765141,0.04171821102499962,0.9972656369209292,0.0609452985227108,0.5308728004104364,-0.11987732207234113,0.1875015094207769,-0.10517390817403792,0.02846285887062549,1.5885800123214722,0.4322761016339064,-0.20066244442015888,-9.65677546799183
41.7,2.700000047683716,13.0,20.811586380004886,26.20109558105469,-79.78131473912916,40.4595640925281,290.8903000183105,0.0019589506555348635,0.04229039698839188,0.9804779887199402,0.1920174956321717,0.5102091258912541,-0.02920765317096502,0.18713491658204706,-0.03993396088480949,0.05798009783029556,1.0346612930297852,0.28087615672498945,-0.3749611090868712,-9.724077504873275
41.9,2.700000047683716,4.0,20.101675033569336,33.34178924560547,-79.78131528574787,40.45956426724842,290.9087803192138,0.00024414638755843043,0.043507084250450134,0.9706861972808838,0.23637990653514865,0.4932311788848609,-0.013091796894548924,0.19476647229709398,0.003960255533456802,0.009705170057713984,0.8450260162353516,0.2910293716192245,-0.5014137256890535,-9.900578048229216
42.0,2.700000047683716,358.0,20.370864868164066,30.01794624328613,-79.78131582526059,40.45956447412333,290.9281360931396,-0.013971668668091295,0.04231429845094682,0.962749481201172,0.26669782400131226,0.5548630867305,0.0298996897630098,0.2100346154851273,0.6436373591423035,-0.3747117817401886,0.4900798499584198,0.6441640672087671,0.3488038091361523,-9.911807041168213
42.1,2.700000047683716,9.0,20.25692749023437,31.80709648132324,-79.7813174106977,40.45956421829513,291.01413272094726,-0.10453081876039504,-0.002614685567095876,0.9514662623405457,0.2894452214241028,0.6328186126519962,0.2139672462698672,0.4115272834482739,0.1256362944841385,-0.8530912995338441,0.04215601831674577,0.6774836947023869,-1.0024189502745868,-10.466760431528092
42.3,2.700000047683716,23.0,20.48104476928711,28.76156616210937,-79.78131940171382,40.45956392141487,291.11929248046874,-0.06154284626245499,-0.06260425597429277,0.9557138681411744,0.2808989584445953,0.7176719345571131,0.4217981771188044,0.7241817520399749,-0.9697979688644408,-0.14819808304309845,-0.1351562738418579,0.2533599273115397,-0.9872509805113078,-10.812929631471636
42.5,2.799999952316284,12.0,20.953067779541016,23.847370147705078,-79.78132061089521,40.45956389300478,291.17600939941406,-0.01974499598145485,-0.07841810584068297,0.9591732621192932,0.2710118889808655,0.7932350500577751,0.5757039793040277,0.7577278080668188,-0.8440632224082947,-0.090249203145504,-0.06278114020824432,0.2785541725717485,-0.4204054133221508,-10.611802954673767
42.6,2.700000047683716,8.0,20.866676330566406,25.20712280273437,-79.7813221170874,40.45956367603003,291.2276642150879,0.005449494812637568,-0.08760934323072432,0.961338996887207,0.2610024511814117,0.8484186127929789,0.7408768288887994,0.6798203881957168,-0.3050116300582886,-0.049956124275922775,-0.09503975510597228,0.3887744251638651,-0.058348067644983535,-10.090999642610551
42.8,2.700000047683716,353.0,20.800317764282227,25.898927688598643,-79.78132523813001,40.45956263763617,291.352809173584,4.2855361243709915e-05,-0.0950366109609604,0.9642478823661804,0.2473747581243515,0.8024265855051759,1.0955842642153046,0.6117166176121143,0.2628873288631439,-0.10842984914779663,-0.11921052634716035,0.28255772458389405,-0.17396559264510872,-9.614702997207642
42.9,2.700000047683716,345.0,20.82911491394043,25.294591903686523,-79.78132673622682,40.45956194655305,291.39662860107416,-0.01312369853258133,-0.09864611178636552,0.9651718735694884,0.2419506907463073,0.7334324702095841,1.2929890518824865,0.6281134653093476,0.13004633784294128,-0.16767483949661255,-0.05636857822537422,0.2659978434070945,-0.30883264493197204,-9.5380799138546
43.0,2.5999999046325684,337.0,20.86041641235352,24.53122329711914,-79.78132829108134,40.45956105924451,291.43561480712884,-0.02113595232367516,-0.1035466119647026,0.9655910134315492,0.2376243621110916,0.6848503788138822,1.496438804577389,0.6632035251239768,0.05441616475582123,-0.09391077607870102,-0.08823443949222565,0.3118950144946575,-0.3825482368469239,-9.665557401180267
43.2,2.5999999046325684,333.0,20.77652931213379,26.79747772216797,-79.78133319940605,40.459556857780704,291.66732333374017,-0.02312689647078514,-0.1119471937417984,0.9657837748527528,0.23279766738414764,0.5946556885189956,2.083781348741695,0.8027654855915328,-0.03326588124036789,0.030251555144786838,0.08701848238706589,0.08737271424382925,-0.1468618660233915,-9.687634733319284
43.4,2.5999999046325684,335.0,20.78654670715332,25.64447021484375,-79.78133504668402,40.45955522146957,291.6979324645996,-0.023225894197821617,-0.11339273303747174,0.9652994871139526,0.2340932339429856,0.5509831278293219,2.3157082119636434,0.8365788056579757,-0.053461819887161255,-0.009646395221352577,0.04924479126930237,0.017572413361631338,-0.2532599947415292,-9.79846168935299
43.5,2.5999999046325684,330.0,20.73896789550781,26.01025199890137,-79.78133698382081,40.45955338323039,291.7259380645752,-0.02321663871407509,-0.1161479353904724,0.964464008808136,0.23617757856845856,0.5133157056807179,2.5535734076242957,0.8699561059975603,0.023547573015093803,-0.0680580586194992,0.008718443103134632,0.11530184844508767,-0.20427914829924704,-9.893743822574617
43.7,2.700000047683716,321.0,20.593730926513672,28.30036354064941,-79.78134105454255,40.45954898468232,291.863364440918,-0.02966842427849769,-0.12268231064081192,0.9616606831550598,0.2434700280427933,0.4339742428538543,2.9823793636979614,1.0099125425750648,0.15599501132965088,-0.06088007986545563,0.028577839955687526,-0.012878839652985336,-0.08491577818058432,-9.831613647937775
43.81,2.799999952316284,315.0,20.546152114868164,27.886871337890625,-79.78134512796274,40.45954351812795,292.0018875427246,-0.0388650968670845,-0.121853768825531,0.9591428637504578,0.25236135721206665,0.2733927415506621,3.4022797567016787,1.2182107638552546,-0.023576837033033368,0.022825954481959343,0.09428440779447557,-0.11570630217902365,-0.20487061243504287,-9.953807591199878
44.0,3.0,313.0,20.627534866333008,28.37988090515137,-79.7813475303146,40.45954071160976,292.03276560974115,-0.03803660348057747,-0.12101368606090546,0.958604097366333,0.25492560863494873,0.2230983756461726,3.6225790915744613,1.2678443632997196,0.0194439385086298,0.030671589076519006,0.005288356449455023,-0.24922243751585485,-0.2341554053127765,-10.064648580551149
44.1,3.2000000476837163,307.0,20.6625919342041,27.22687339782715,-79.78134952699747,40.45953732321725,292.1262752838135,-0.03925419226288796,-0.12230359017848967,0.9583229422569276,0.2551825940608978,0.1438941665617809,3.827807602395135,1.3266372638207289,0.03586619719862938,-0.08167073130607605,0.07983285933732986,-0.2753957076743245,-0.41176637146621947,-9.968149641752245
44.2,3.4000000953674316,297.0,20.79656219482422,25.52519416809082,-79.78135423347716,40.45953020537375,292.24248240661615,-0.044214967638254166,-0.13157117366790771,0.957492172718048,0.2528692483901977,0.06376670241522561,4.242130387748471,1.5061955425610871,0.09324492514133452,-0.02914629876613617,-0.16694656014442444,-0.433125848248601,-0.17477407984435558,-9.878969078063967
44.4,3.5,293.0,20.747732162475586,26.29651641845703,-79.78135699967181,40.4595266399936,292.27410624694824,-0.04967633634805679,-0.1332755833864212,0.9573712348937988,0.2514163553714752,0.06243843622437409,4.449515444917717,1.5837864415957257,0.082472063601017,-0.012679168954491615,-0.15982328355312347,-0.5190194362029433,-0.18488185090944173,-9.708179510235787
44.5,3.9000000953674316,291.0,20.735212326049805,26.59868431091309,-79.78135988972593,40.45952289656086,292.3025638885498,-0.0555097833275795,-0.13334916532039642,0.957474648952484,0.249757781624794,0.06054999181489905,4.666707530622597,1.6433653660647185,0.11646338552236556,-0.02177541702985764,-0.2064681053161621,-0.4797037083283067,-0.2332541849277913,-9.728370530605316
44.7,4.099999904632568,289.0,20.93553924560547,24.761823654174805,-79.78136528386398,40.45951420403585,292.40381739807134,-0.058471847325563424,-0.13577854633331302,0.9574915170669556,0.2477000653743744,0.010788807220636687,5.0874871139032285,1.7658557636873011,-0.05357727035880089,0.03517545387148857,-0.02220277115702629,-0.6927762101590633,-0.4457073021680117,-9.664629448056221
44.9,4.599999904632568,282.0,20.84914779663086,25.366159439086914,-79.78137096736722,40.45950480606809,292.4968292541504,-0.057375811040401466,-0.13303062319755554,0.9568904638290404,0.251737117767334,-0.0280551567049798,5.485376760741657,1.7866611155617067,0.02134286053478717,-0.012090577743947506,0.16724632680416107,-0.7926063808053733,-0.3678000240772963,-9.312028895616534
45.0,4.900000095367432,279.0,20.640056610107425,27.12350082397461,-79.78137435492799,40.45950019745028,292.50794718933105,-0.06149615347385407,-0.13627077639102936,0.9547578692436218,0.2570719718933105,-0.045515471779395016,5.6988286273589575,1.7630353641095236,0.09700476378202436,-0.06881573051214218,-0.061033181846141815,-0.7889209538698196,-0.22082587324082853,-9.276580735445023
45.1,5.5,278.0,20.68888664245605,27.298439025878906,-79.78137732665563,40.45949481038919,292.55710528564447,-0.06347139179706572,-0.140731543302536,0.9526807069778442,0.2618505358695984,-0.1544288405792568,5.8789794771174835,1.8612038161489832,0.029927857220172882,-0.1897890865802765,0.02027425542473793,-0.7316249647736551,-0.1811321959644556,-9.596224626302721
45.3,5.699999809265138,280.0,20.854156494140625,24.47555923461914,-79.78138412012673,40.459484127131184,292.6055137939453,-0.05540593340992928,-0.14854827523231506,0.95050448179245,0.2672167420387268,-0.28870294619213843,6.23652510305722,2.1075376070464187,-0.17913556098937988,0.08067860454320908,0.056952442973852165,-0.9027222423255444,-0.21157594352960588,-9.908607444763184
45.5,6.099999904632568,278.0,21.15464973449707,23.42592620849609,-79.7813919340667,40.45947344383883,292.618190032959,-0.043154504150152206,-0.15491703152656555,0.9497346878051758,0.26859357953071594,-0.2848441817397335,6.636147636804397,2.2098718432479316,-0.07825177907943726,-0.05241036042571068,-0.13526788353919986,-0.8617411543428898,-0.021793056959286333,-9.511766273975374
45.6,6.4000000953674325,277.0,21.125850677490234,22.805686950683594,-79.78139510889864,40.459467074757455,292.6592800445557,-0.04489513859152794,-0.1599458009004593,0.9488436579704284,0.2685098946094513,-0.3811779066643029,6.822190225346269,2.256006817400116,0.0206481833010912,-0.20100493729114527,0.23271678388118744,-1.1053841786831615,-0.344879852347076,-9.236682259440423
45.71,6.800000190734862,274.0,21.056989669799805,22.805686950683594,-79.78139922936205,40.45946130324981,292.65366862487787,-0.05014583468437195,-0.1637357473373413,0.9476110339164734,0.26964670419692993,-0.3796283783068716,7.006416592102162,2.3397237806695568,0.1418001800775528,0.016598444432020187,0.105987049639225,-1.0590604897588491,-0.03727632869035006,-9.413261155486106
45.9,7.099999904632568,275.0,20.870433807373047,26.511213302612305,-79.78141109729326,40.459442089167254,292.662171585083,-0.06518933176994324,-0.16787929832935333,0.9465778470039368,0.2675021886825561,-0.5409582627354247,7.534934132836766,2.5783168810624466,-0.029280420392751694,0.14664489030838013,-0.1266368329524994,-1.1870591101795436,-0.08221689529716969,-9.25853681266308
46.0,7.699999809265138,273.0,21.02443504333496,22.26496696472168,-79.78141505404989,40.459434955143415,292.6706020660401,-0.06278164684772491,-0.16762664914131165,0.9475610852241516,0.26474088430404663,-0.5687740023062501,7.746294079578114,2.643560518374409,-0.13169439136981964,-0.17038173973560333,-0.16413280367851255,-1.280157235264778,-0.214783433675766,-9.400116614699364
46.21,7.900000095367432,271.0,20.79656219482422,25.859169006347656,-79.78141964449564,40.45942835854086,292.64365313720697,-0.06358594447374344,-0.16863586008548734,0.9478915929794312,0.2627175450325012,-0.49704153839524895,7.9545328968340625,2.652650217526461,0.0005260954494588077,-0.01715010590851307,0.008485669270157814,-1.3475371862947942,-0.04397107997909189,-9.431627844572068
46.3,8.300000190734862,273.0,21.12459945678711,22.026412963867188,-79.78142390734794,40.45942085418962,292.6465370483398,-0.06472212821245192,-0.16726043820381165,0.9484302401542664,0.2613718509674072,-0.4962322025142866,8.149828215891512,2.799645082522617,0.07682988047599792,0.0841745063662529,-0.014674847014248371,-1.4197514690458777,-0.3460652291402221,-9.959510965347288
46.5,8.5,273.0,21.15715217590332,22.948820114135746,-79.78143829771264,40.459398774192216,292.5796329803467,-0.05682796239852905,-0.15532968938350675,0.952335774898529,0.2563200891017914,-0.4262686171915736,8.72175379955963,2.833046517225582,-0.11109928786754608,0.16190196573734286,-0.12136378884315492,-1.5551861397922042,0.12099332716315984,-9.739066257476807
46.7,8.800000190734863,273.0,20.76901626586914,27.97434043884277,-79.78144343405751,40.45939142267833,292.55082247924804,-0.051992494612932205,-0.1459985226392746,0.954873263835907,0.2533740401268005,-0.3775633090163706,8.906394284441774,2.723166150615806,-0.11963514238595965,0.17376190423965454,0.22286930680274966,-1.7722644594311716,-0.5859037260711193,-9.393423891663552
46.8,8.899999618530273,273.0,20.76901626586914,26.471454620361328,-79.78144839500223,40.45938311563046,292.5129387207031,-0.04376820847392082,-0.13550810515880585,0.9574424028396606,0.2510497570037842,-0.35035314290893715,9.119848504487855,2.598251705909908,-0.06962615996599197,0.2302711755037308,0.16127203404903412,-1.6779216814041138,-0.4760504045337439,-9.739826980233193
47.0,9.199999809265137,263.0,20.923019409179688,25.382062911987305,-79.78145895570795,40.45936779792105,292.4637157745361,-0.04033563286066055,-0.11845263838768005,0.9591570496559144,0.2536926865577698,-0.2970389054897952,9.433472013833017,2.372655820441139,0.10828235745429993,0.13683384656906128,0.19229088723659515,-1.3410241189599037,-0.2527623784169555,-10.355941661596301
47.1,9.5,255.0,20.964336395263672,23.942790985107425,-79.78146416778966,40.459359253904864,292.42020724487304,-0.04523102566599847,-0.11389382928609848,0.9589844942092896,0.2555995881557465,-0.37768212814590574,9.567962928452658,2.2794777717352077,0.19393809139728546,0.0321727953851223,-0.21150389313697807,-1.545672281384468,-0.1194901541993022,-10.169856362342834
