time,wind_speed,wind_angle,battery_voltage,battery_current,position_x,position_y,position_z,orientation_x,orientation_y,orientation_z,orientation_w,velocity_x,velocity_y,velocity_z,angular_x,angular_y,angular_z,linear_acceleration_x,linear_acceleration_y,linear_acceleration_z
0.0,0.8999999761581421,112.0,24.58025932312012,-0.039758868515491486,-79.78277826828274,40.458947260622786,271.33369617939,0.006274450104683639,0.013590400107204914,-0.8861514925956726,0.4631538689136505,-0.003431724830554335,-0.006516330238245186,0.002793370088303435,-0.0042204754427075395,-0.003717788029462099,-0.003861382836475968,-0.18976650523021812,-0.2476404002308845,-9.80435275912285
0.1,0.8999999761581421,112.0,24.582763671875,-0.04771064221858978,-79.78277822867615,40.4589472237119,271.3367285954953,0.006286232266575098,0.013605655170977116,-0.8861511945724487,0.4631538391113281,0.0007609730054386171,-0.005817868731040788,0.002288782050143698,-0.003716965671628713,-0.0014591988874599338,-0.0036049573682248592,-0.18953519303351649,-0.2516871850937605,-9.804372639656068
0.29,0.8000000119209291,116.0,24.57525062561035,-0.07156596332788467,-79.78277823495817,40.45894722625941,271.33697281062604,0.00629063555970788,0.013613728806376455,-0.8861517310142517,0.4631525576114655,-0.00041024199420468537,-0.006758132003801189,0.0024031491745946714,0.00239963922649622,0.001963108079507947,0.004780154675245285,-0.1900510270893574,-0.25351635860279204,-9.80415103018284
0.4,0.8999999761581421,116.0,24.581512451171875,-0.02385532110929489,-79.78277816858376,40.458947187631395,271.3419351953268,0.006297257728874682,0.01364042516797781,-0.8861526250839233,0.4631499648094177,-0.0007413565573865254,-0.002862249992313853,0.0063572520228780535,0.0011911607580259442,-0.0006183796795085073,-0.002352786483243108,-0.1900094204954803,-0.25586845591664314,-9.804338725805284
0.59,0.8999999761581421,117.0,24.582763671875,-0.03180709481239319,-79.78277817055631,40.45894719051545,271.3425953316689,0.006297257728874682,0.01364042516797781,-0.8861526250839233,0.4631499648094177,-0.002695717933507407,-0.0037846627067295883,0.006645159274607567,0.0016658094245940447,0.0002870148455258459,0.004434533882886171,-0.19066441828385,-0.25929220167920003,-9.805521617531776
0.7,0.8999999761581421,118.0,24.584014892578125,-0.007951773703098297,-79.78277812691081,40.4589471745761,271.3458144146204,0.0063082333654165285,0.013651434332132341,-0.8861528038978577,0.4631491303443909,-0.0038447473486834015,-0.006503911008412168,0.005453271007322653,0.0025231405161321163,0.003246418666094541,0.003809573594480753,-0.1894767574220896,-0.24281158681958914,-9.803483278155328
0.9,0.8999999761581421,119.0,24.58025932312012,-0.015903547406196594,-79.78277813012157,40.45894718182625,271.3464065718651,0.0063082333654165285,0.013651434332132341,-0.8861528038978577,0.4631491303443909,-0.006622096606915772,-0.007344826313746072,0.005855103915324407,-0.00487759942188859,-0.0006676484481431544,-0.008069260045886041,-0.18988158574327824,-0.24436950433999305,-9.803703718185423
1.0,0.8999999761581421,119.0,24.585268020629893,-0.02385532110929489,-79.78277804814599,40.45894713834744,271.34937007009984,0.006310993805527687,0.013683164492249487,-0.8861532807350159,0.4631472826004028,-0.00510183320264722,0.0003548740967314085,0.004762558181496931,-0.007180158048868179,-0.002474894281476736,-0.004194454289972782,-0.1907857114635408,-0.25156216431409123,-9.803779731988907
1.2,0.8999999761581421,122.0,24.58025932312012,-0.015903547406196594,-79.78277798783469,40.45894708464643,271.3534342873096,0.0063209235668182364,0.013703060336411,-0.8861533403396606,0.4631463885307312,0.0022680169941035736,0.004495649845022178,0.007655274350346912,0.0043696253560483456,-0.00016729279013816267,0.003180574160069227,-0.1889207968488336,-0.2512076768651605,-9.804889533519743
1.3,0.8999999761581421,124.0,24.577754974365234,-0.015903547406196594,-79.78277798478767,40.45894708092985,271.35420756816865,0.006329826544970274,0.013712046667933464,-0.8861510753631592,0.4631504118442536,0.00017524632724150396,0.0037160729491780703,0.007903103122895086,0.0017225701594725251,-0.00034875725395977497,0.0027997537981718787,-0.18993757283315066,-0.2590067296475172,-9.804159216284752
1.49,0.8999999761581421,128.0,24.57650375366211,-0.02385532110929489,-79.78277789787194,40.45894704891321,271.3588388043642,0.006300643552094698,0.01372073870152235,-0.8861367702484131,0.4631778001785278,-0.002200157450778954,0.006618380481047414,0.009366830289096809,0.0023910123854875565,-0.001437347149476409,0.004235136788338423,-0.18945680379867555,-0.26061425713822245,-9.80498367369175
1.59,0.8999999761581421,128.0,24.57900810241699,-0.015903547406196594,-79.78277783256989,40.458947007544985,271.3632595616579,0.00628028018400073,0.013725739903748035,-0.8861386179924011,0.4631744921207428,-8.529036998365864e-07,0.006929126952599949,0.010177256293795251,0.0033811465837061405,0.0005413050530478358,0.004840755369514227,-0.1900374323129654,-0.2574022171273828,-9.804020637273787
1.79,0.8999999761581421,132.0,24.58025932312012,-0.04771064221858978,-79.78277782544778,40.45894700416496,271.3642859983444,0.006278353277593851,0.013734606094658377,-0.886139988899231,0.4631715714931488,-0.002658383848547739,0.006234918734612278,0.010514760815636908,-0.0021532909013330928,-0.0013420704053714876,-0.0015413372311741116,-0.19170701337978244,-0.2555943676829338,-9.80386919438839
1.9,0.8999999761581421,131.0,24.57900810241699,-0.02385532110929489,-79.78277779118788,40.45894697085149,271.36890799582005,0.006277925800532104,0.013720844872295856,-0.8861321806907654,0.4631868898868561,0.0011336560341347346,0.0015684263588764792,0.01107022377091009,0.004229769576340914,-0.0005141188739798963,0.004767642822116613,-0.1902514769509435,-0.2465113211609423,-9.803686176538466
2.09,1.0,136.0,24.57650375366211,-0.015903547406196594,-79.78277778996723,40.4589469698649,271.3700308579206,0.006293294951319695,0.01370923314243555,-0.8861331343650818,0.46318519115448,-0.0012963497475556804,0.0009508261983891196,0.011455251958095249,-0.0022043210919946428,0.0004181917756795883,-0.0025176359340548515,-0.18950957491993906,-0.2437345698103309,-9.803835280537603
2.19,1.0,136.0,24.58025932312012,-0.007951773703098297,-79.78277768182011,40.45894692231687,271.3723128962517,0.0062858513556420794,0.01372614596039057,-0.8861379027366638,0.4631758034229279,-0.003067307408614656,0.01015013947218479,0.008216759836377064,-0.008163291029632092,0.0009653955930843947,-0.0010266726603731509,-0.19078772144392134,-0.2529305041395128,-9.804414739608763
2.39,1.0,137.0,24.57900810241699,-0.007951773703098297,-79.78277766996374,40.45894691969046,271.37312697648997,0.0062858513556420794,0.01372614596039057,-0.8861379027366638,0.4631758034229279,-0.004294739776471414,0.009405803103586834,0.008298656039277917,0.0023391081485897303,0.0016571034211665392,-0.0013586787972599268,-0.1899552241154016,-0.25048315202817323,-9.803599637746812
2.49,1.0,141.0,24.582763671875,-0.02385532110929489,-79.7827776569022,40.45894688691485,271.37736164808274,0.006311124656349421,0.013732639141380787,-0.8861374855041504,0.4631760120391846,-0.00014685937613933582,0.0021500971259170625,0.0100335101700884,-0.001483996398746967,-0.0010289783822372556,-0.006930638570338489,-0.1913081419095397,-0.2433900774456561,-9.803029534220695
2.7,1.0,142.0,24.57650375366211,-0.007951773703098297,-79.78277761760306,40.458946863927714,271.378823094368,0.006318818777799606,0.013735500164330006,-0.8861371278762817,0.4631765186786652,0.0029858964139816177,2.2406104462883644e-05,0.007173291566850051,0.005697477143257856,-1.4034832020115573e-05,0.00695491349324584,-0.1893992452695966,-0.2614968395233154,-9.805280712246896
2.79,1.0,143.0,24.581512451171875,-0.02385532110929489,-79.78277761917225,40.45894686210002,271.3795525211096,0.006324401590973139,0.013742763549089432,-0.8861376047134399,0.4631753265857697,0.000327689076882541,-0.000662219045601667,0.007523437597000563,-0.004822180140763521,-0.0017775011947378516,-0.005365267861634493,-0.19070196837186806,-0.2493823954090476,-9.804284346699717
2.99,1.100000023841858,143.0,24.57900810241699,-0.015903547406196594,-79.782777527946,40.45894683969959,271.3831740248204,0.006320640444755554,0.013754821382462978,-0.8861395120620728,0.4631713628768921,-0.004395216219499441,0.005844439770169361,0.009094028748201144,-0.0012021464062854648,0.0021518906578421593,0.0006087340880185366,-0.1903025669977069,-0.2571864183247089,-9.804890702962876
3.1,1.100000023841858,145.0,24.582763671875,-0.007951773703098297,-79.78277749199604,40.45894683191377,271.38500767230994,0.006340843625366689,0.013714074157178402,-0.8861286640167236,0.4631929099559784,-0.0025034867980888954,-0.001748197803033214,0.005272325391334444,0.0030616000294685364,0.0005602265009656549,0.00341735128313303,-0.1889749384112656,-0.2603215309046209,-9.805277788639069
3.29,1.100000023841858,146.0,24.58025932312012,-0.039758868515491486,-79.78277749166999,40.45894683510003,271.38556128025056,0.0063490173779428005,0.01371672097593546,-0.8861225247383118,0.463204562664032,-0.004845845837841094,-0.002559843352808864,0.005590470885007151,-0.004565700422972441,0.0004970796289853752,-0.009004527702927591,-0.19079258194193244,-0.2435449555702508,-9.803221322894094
3.4,1.100000023841858,145.0,24.582763671875,-0.03180709481239319,-79.78277741013079,40.45894678152997,271.387437813282,0.0063459486700594425,0.01374960970133543,-0.8861013650894165,0.4632440209388733,0.0004901901597421111,0.0070093514231049465,0.004493403799347213,-0.004181400872766972,-0.0011459076777100565,-0.002862665103748441,-0.1894204779714346,-0.25861854761838915,-9.80444982290268
3.6,1.100000023841858,145.0,24.57900810241699,-0.02385532110929489,-79.78277740381962,40.45894677794652,271.3878802585602,0.0063492534682154655,0.01374856010079384,-0.8861107230186462,0.4632261395454407,-0.0005376471431843029,0.006151915585096482,0.004655492506464657,0.0030801375396549697,-0.0018378478707745671,-0.0021244909148663282,-0.19192069256678226,-0.25069721493870023,-9.803700209856034
3.69,1.100000023841858,145.0,24.581512451171875,-0.02385532110929489,-79.78277737886799,40.458946774407075,271.3897843885422,0.006339706014841795,0.013745737262070179,-0.8861103653907776,0.4632271230220794,-0.001325519697744032,-0.001885368296594706,0.003914935616917296,-0.00030619275639764965,0.002150741871446371,-0.006871186662465335,-0.1913685144111514,-0.24377497041597965,-9.803224831223488
3.9,1.2000000476837158,147.0,24.58777236938477,0.039758868515491486,-79.78277737984689,40.45894677683272,271.39019586920745,0.006343833636492491,0.01373970415443182,-0.8861026763916016,0.4632420539855957,-0.002236439542702767,-0.002593429686931409,0.004124400746024767,0.00094412371981889,0.0034336603712290525,0.0051174284890294075,-0.18953089898452166,-0.26070730095729233,-9.804706515669825
4.0,1.2000000476837158,148.0,24.581512451171875,-0.03180709481239319,-79.78277732017789,40.45894675543068,271.39300260722644,0.0063525955192744715,0.013758158311247827,-0.8861035704612732,0.4632394909858704,-0.0014924078642297323,-0.00015522392795718442,0.006924188290134596,-0.0016638893866911528,0.0017736924346536398,-0.0024221849162131552,-0.19028930112719536,-0.2503197406232357,-9.80392708182335
4.1,1.100000023841858,149.0,24.577754974365234,-0.015903547406196594,-79.78277724700673,40.45894672311883,271.3964069712162,0.006351556163281202,0.013778296299278736,-0.8861038684844971,0.4632382988929749,3.455560841363097e-05,0.006538225121277709,0.008910239543068006,0.003414464183151722,-0.0004900103667750955,0.0031353922095149755,-0.19024539219215514,-0.25902275467291475,-9.805002384781837
4.3,1.2000000476837158,151.0,24.577754974365234,-0.03180709481239319,-79.78277724053956,40.458946719852044,271.3973006236553,0.0063547445461153975,0.013784215785562992,-0.8861047029495239,0.4632365107536316,-0.0017916822137473047,0.005869653388049634,0.00917683640238782,-0.00200377288274467,0.001382452668622136,-0.005876353941857815,-0.1894013283401728,-0.2438182763569057,-9.803127182722092
4.39,1.2000000476837158,153.0,24.57274627685547,-0.04771064221858978,-79.78277715822527,40.45894669992453,271.4007882851363,0.006359483115375042,0.013800173066556455,-0.8861055374145508,0.4632344245910645,-0.004046472412645543,0.008225708149147965,0.010170496824295765,-0.0032521584071218967,-0.0025268902536481623,-0.006075700744986534,-0.18972202984616165,-0.25975045893341303,-9.803314293622973
4.59,1.100000023841858,157.0,24.57525062561035,0.015903547406196594,-79.78277714764715,40.458946698872985,271.4018103706837,0.006359483115375042,0.013800173066556455,-0.8861055374145508,0.4632344245910645,-0.005025076499357224,0.007609313851640112,0.010353486682670757,0.0004431292181834578,0.0017633548704907296,-0.0022111572325229645,-0.18852196192368867,-0.2515854435414076,-9.804239323139187
4.69,1.100000023841858,157.0,24.581512451171875,-0.015903547406196594,-79.78277706641295,40.458946681268586,271.4036809283495,0.006362736690789461,0.01381225511431694,-0.8861066699028015,0.4632318019866944,-0.0070713337575446875,0.008514756133862798,0.00839139674863765,0.00031664010020904243,0.0002174577384721488,-0.006785713601857425,-0.1890658443421125,-0.2428848414681852,-9.803906616568566
4.89,1.100000023841858,160.0,24.57650375366211,0.05566241592168808,-79.7827770533767,40.45894668251926,271.40453179955483,0.006362736690789461,0.01381225511431694,-0.8861066699028015,0.4632318019866944,-0.00800752513388345,0.007720453301428823,0.008521686497834774,0.006120729725807904,-0.0008193976245820522,0.006425222381949425,-0.19000856168568134,-0.2606038966029883,-9.804239907860756
5.0,1.100000023841858,161.0,24.57650375366211,0.02385532110929489,-79.78277700563224,40.458946683412975,271.40500209510327,0.006376680452376604,0.013816743157804012,-0.8861064314842224,0.4632319509983063,-0.008333984212218287,0.0028527031240971968,0.0053346367129451676,0.003358960384503007,-0.0007984075346030295,0.0017606009496375918,-0.1911494630947709,-0.2511795188672841,-9.804774928092957
5.19,1.100000023841858,166.0,24.56899070739746,0.039758868515491486,-79.78277698366506,40.45894663966472,271.40744610905654,0.0063996566459536535,0.013831336051225662,-0.8861060738563538,0.4632318913936615,0.003385953485528739,0.002506577029152007,0.008032307316070521,0.0007838517194613812,-0.0023026270791888237,0.0007754126563668251,-0.1906415227800608,-0.2582899340987206,-9.80479422390461
5.29,1.100000023841858,167.0,24.57650375366211,0.04771064221858978,-79.78277698331371,40.45894663601739,271.40825114429003,0.006402334664016962,0.013836914673447607,-0.8861066699028015,0.4632305502891541,0.0016914302038553905,0.001891623893868221,0.008251372515805128,-0.0035724693443626165,0.00014189755893312395,-0.006153603550046682,-0.19026498036459089,-0.2427656861767173,-9.8027114456892
5.49,1.0,167.0,24.57650375366211,0.03180709481239319,-79.78277690449407,40.45894662053753,271.4089907336235,0.0064025199972093105,0.013854417018592358,-0.8861069083213806,0.46322962641716,-0.0016207271612639258,0.005827447309293816,0.005631147112619246,-0.0034374031238257885,0.0024995128624141216,-0.0017771654529497027,-0.19094618098810315,-0.2489283408410848,-9.803135368824003
5.6,1.0,170.0,24.57024383544922,0.007951773703098297,-79.78277687118072,40.45894659943285,271.4113239276409,0.0064147976227104655,0.0138610377907753,-0.8861067295074463,0.4632295966148377,0.002827390443957018,0.004099275686380745,0.007670174123328715,0.0019750460051000127,-0.0031668103765696287,0.0032161036506295204,-0.18964586986228826,-0.25664213391020896,-9.80479539334774
5.79,1.0,169.0,24.561479568481445,-0.007951773703098297,-79.78277686909503,40.45894659516822,271.4120837825537,0.00641730846837163,0.013866095803678036,-0.8861069083213806,0.46322908997535706,0.0015417844853410595,0.003478901961720647,0.007847403901365247,-0.0005872195470146835,-0.00028112370637245476,-0.0005598013522103429,-0.19026019295677546,-0.2460083327069879,-9.80327628672123
5.89,1.0,168.0,24.57399940490723,0.039758868515491486,-79.78277680295884,40.45894657247901,271.4144355136156,0.0064224163070321074,0.013885342516005041,-0.8861076831817627,0.4632269144058228,0.0008744197283252661,0.007874791520575191,0.009237513871291129,-0.00271440832875669,-0.0006490559899248183,-0.007624818012118339,-0.18876831242814665,-0.2599872346222401,-9.80447204232216
6.1,1.0,164.0,24.57525062561035,0.015903547406196594,-79.78277679596253,40.4589465679095,271.41534898459906,0.006426149047911167,0.013885175809264185,-0.8861085176467896,0.4632252156734466,0.0002697804544460521,0.007276827674486286,0.009389138013347448,0.0037160802166908975,0.002044257940724492,0.003382290480658412,-0.18975691214203835,-0.2564370245486498,-9.804802410006523
6.19,1.0,163.0,24.57024383544922,0.039758868515491486,-79.78277675018637,40.45894653480215,271.4151776957512,0.006442087702453136,0.013897606171667576,-0.8861077427864075,0.4632261693477631,0.003724174432943089,0.008239010456978745,0.006142919372412869,-0.0003575763548724353,0.0009195912280119957,-0.0018923385068774225,-0.19088516894727947,-0.25582878621295096,-9.80505267083645
6.39,1.0,161.0,24.571495056152344,0.007951773703098297,-79.78277674452524,40.45894652829383,271.4157733547688,0.00643533980473876,0.013888015411794186,-0.8861063718795776,0.4632291793823242,0.002608711203325009,0.00765170543414233,0.006217286384242331,0.003720425069332123,0.0015227383701130748,0.00710204942151904,-0.18912186797708275,-0.2603354363143444,-9.804343403577805
6.49,1.0,161.0,24.57274627685547,0.05566241592168808,-79.78277671535375,40.45894646962717,271.4175409156084,0.006463588215410709,0.013875764794647694,-0.8861017227172852,0.4632380902767181,0.009886031902264298,0.008775218065802897,0.007965970908924544,0.004041357897222042,0.0011777464533224704,0.004393971059471369,-0.1891960545256734,-0.2590319457650185,-9.804244000911712
6.69,0.8999999761581421,159.0,24.567739486694336,0.05566241592168808,-79.78277667434628,40.45894644784188,271.4170962798596,0.00644792802631855,0.013884455896914005,-0.8860917091369629,0.4632571339607239,0.010256505833095514,0.010183748886109014,0.0068391535519769535,-0.00792605523020029,-0.002127975691109896,-0.0033338111825287338,-0.18976356334984304,-0.2518918741866946,-9.804129395484924
6.8,0.8999999761581421,156.0,24.57274627685547,0.04771064221858978,-79.78277667166117,40.4589464347195,271.41774786293513,0.006446005776524544,0.01387560460716486,-0.8860886096954346,0.4632633626461029,0.009729983454572634,0.0094553352952925,0.007093473673589505,0.000785957439802587,0.0006021406152285633,0.003154880367219448,-0.19030605705454948,-0.25302299978211523,-9.804588986635206
6.9,0.8999999761581421,156.0,24.57399940490723,0.04771064221858978,-79.78277668010581,40.45894645956921,271.41687009513385,0.006438819225877522,0.013873093761503695,-0.8860891461372375,0.4632624685764313,0.003920409065820671,-0.0038212089626912665,0.004620188275483532,0.0019583022221922874,0.0007982801762409508,-0.0007140375673770907,-0.19040129357948896,-0.25676359154284,-9.804930464029312
7.1,0.8999999761581421,155.0,24.57650375366211,0.07951773703098297,-79.78277668612185,40.458946459237474,271.41734210431576,0.006437197793275118,0.013883441686630249,-0.8860909342765808,0.4632588922977448,0.002537080370192497,-0.0043644205628263774,0.004773226470734665,0.0027837574016302824,0.0025778419803828,0.005020996090024711,-0.19009298086166385,-0.2603063464164734,-9.805366666316988
7.19,0.8999999761581421,153.0,24.571495056152344,0.04771064221858978,-79.78277659097299,40.45894645022728,271.41586656153197,0.006414870731532575,0.013907939195632936,-0.8860876560211182,0.46326467394828796,-0.002694758417082142,0.00530030793258545,0.003338597986326008,0.004152832552790642,0.0015415912494063375,0.00895844027400017,-0.18955368485301727,-0.24221454955637456,-9.80366863489151
7.39,0.8999999761581421,153.0,24.57525062561035,0.07156596332788467,-79.78277658349599,40.4589464503996,271.4162150400877,0.006401980295777321,0.013910485431551932,-0.8860874772071838,0.4632651209831238,-0.005100923299046675,0.004814152720936807,0.003645733080374112,-0.004490518476814032,0.0002767187252175063,-0.007389022037386893,-0.1898517466709018,-0.2457095948047936,-9.803558122515676
7.49,0.8999999761581421,153.0,24.57399940490723,0.05566241592168808,-79.78277654781027,40.45894641537758,271.41712649941445,0.006392241455614567,0.01389585342258215,-0.8860899209976196,0.4632610976696014,7.349438529396916e-05,0.006695162170883641,0.007070085606016689,-0.006257412955164909,-0.0034629262518137693,-0.003925816155970097,-0.19011222185567025,-0.25202358271926645,-9.80417266488075
7.7,0.8000000119209291,152.0,24.571495056152344,0.07156596332788467,-79.78277654176331,40.45894641156813,271.41466737568385,0.0064020142890512935,0.013894358649849892,-0.8860895037651062,0.4632618427276611,0.004030743648547929,0.002773699232086048,0.004761294589831239,0.0036684232763946056,0.003206104040145874,0.0043702004477381715,-0.19056667841970928,-0.2525804021023214,-9.805300592780114
7.8,0.8999999761581421,152.0,24.577754974365234,-0.03180709481239319,-79.78277654153634,40.458946407370064,271.4151394444704,0.006408430635929108,0.013900930061936378,-0.8860900402069092,0.4632605016231537,0.0020473827274641388,0.002256064169437415,0.0049358536157929535,-0.0024635882582515482,0.0014483710983768106,0.0016828587977215648,-0.1909779934957624,-0.25692608932033184,-9.804617637991903
7.99,0.8999999761581421,151.0,24.57024383544922,-0.015903547406196594,-79.78277648836472,40.458946422053906,271.412812345028,0.006403431762009859,0.013907150365412235,-0.8860906362533569,0.4632591009140015,-0.0036050887740867186,0.0035471078626000572,0.0033009463144231584,0.0012630850542336702,0.0005221968749538064,-0.00045388337457552547,-0.1905048623867333,-0.2593610526435077,-9.80434749662876
8.1,0.8000000119209291,150.0,24.58025932312012,-0.02385532110929489,-79.78277645517083,40.458946425722715,271.41005270957953,0.006410206202417612,0.013913597911596298,-0.8860903978347778,0.4632592797279358,-0.0008480582418335929,0.0036573600244873103,0.002161265373201223,0.0016265868907794356,0.0022202623076736927,0.0042464453727006895,-0.18979893900454045,-0.2603912954963744,-9.805698203444482
8.29,0.8000000119209291,149.0,24.58025932312012,-0.039758868515491486,-79.78277645066144,40.45894642495514,271.41028373718257,0.006413917057216168,0.013918373733758926,-0.8860909938812256,0.463257908821106,-0.003055813850830325,0.003212206157113916,0.002471515427116661,-0.004106097389012575,-0.0027790558524429802,-0.004448279738426209,-0.190766342561692,-0.2448732602410019,-9.803406094908716
8.39,0.8000000119209291,147.0,24.57650375366211,-0.02385532110929489,-79.78277644982381,40.458946423331426,271.4071518260241,0.006435073912143707,0.013926586136221886,-0.8860909342765808,0.4632575511932373,0.0025007496409782184,-0.0005878406554301744,0.0016218501693890672,-0.0048547955229878426,-0.0016227005980908866,-0.005339126568287611,-0.18882700385525825,-0.26035570057109,-9.805715160369873
8.59,0.8000000119209291,144.0,24.577754974365234,-0.03180709481239319,-79.78277645218637,40.45894642205498,271.4073126542568,0.006435073912143707,0.013926586136221886,-0.8860909342765808,0.4632575511932373,0.0020997364321240133,-0.0011498685396172644,0.0016847245334738056,0.006638501770794393,-0.0007235087105073035,0.007471273187547922,-0.19054840587079527,-0.2598317352309823,-9.80444982290268
8.69,0.8000000119209291,142.0,24.57900810241699,-0.015903547406196594,-79.78277642471548,40.45894643436899,271.4041217941046,0.0064348666928708545,0.013928373344242571,-0.8860954046249391,0.4632489681243897,0.0006995643237521751,-0.00042677501828299725,0.0014770880955886,0.0069214412942528725,0.00037436591810546815,0.0049527990631759175,-0.1911624183319509,-0.24870190741494294,-9.80299211204052
8.89,0.8000000119209291,139.0,24.57024383544922,-0.11132483184337616,-79.78277642498955,40.45894643500989,271.40429384291167,0.006423423998057842,0.013929326087236404,-0.886089563369751,0.4632603526115418,-0.0016252262207369786,-0.0008741961485847814,0.001858331774198234,-0.004731665831059218,-0.004033727105706929,-0.0043844678439199924,-0.19045514278113845,-0.25132389027625324,-9.804407138228417
9.0,0.8000000119209291,136.0,24.58025932312012,-0.02385532110929489,-79.78277637675806,40.458946446694284,271.4010184782744,0.006418637465685606,0.013968884013593195,-0.8860942721366882,0.4632501304149628,-0.00385306157634976,0.003065164521624591,0.0016302294064004634,-0.004960486665368079,-0.0021565086208283893,-0.00194182014092803,-0.1904380762204528,-0.2550726133212448,-9.803587943315506
9.2,0.699999988079071,133.0,24.58025932312012,-0.007951773703098297,-79.78277639049844,40.45894647208181,271.3973214107752,0.006449911277741194,0.013963629491627216,-0.886096715927124,0.4632452130317688,0.0011955423453953186,-0.005364280105658737,0.0007566299243258784,0.005021885968744755,0.0013887649402022366,0.0024555593263357878,-0.1890427295677364,-0.250901337582618,-9.802997374534607
9.29,0.699999988079071,132.0,24.577754974365234,-0.03180709481239319,-79.7827763961919,40.45894647435127,271.39742251515395,0.006460133939981461,0.013957963325083256,-0.8860867619514465,0.4632642865180969,-0.0007083195162382094,-0.0057774633235512214,0.0009778580830726114,-0.000516769418027252,0.0007330644293688238,-0.0007058543851599097,-0.18983235949650407,-0.2563667117804289,-9.803568647503852
9.5,0.6000000238418579,131.0,24.581512451171875,-0.02385532110929489,-79.7827763687948,40.45894648412046,271.3936766016484,0.006447420921176672,0.013965746387839316,-0.8860873579978943,0.4632631838321686,0.0002294637358235612,-0.001825794235879804,0.0006273121720513324,-0.003931363113224506,-0.0016301104333251715,0.003971895202994347,-0.18981242414563887,-0.2579404533281923,-9.80430832028389
9.6,0.6000000238418579,132.0,24.58025932312012,-0.02385532110929489,-79.78277636144291,40.45894651530994,271.388952754736,0.006433870643377304,0.013947715982794762,-0.8860869407653809,0.4632644951343536,-0.0010288469801039242,-0.004203134161223136,-0.0018539743293370047,-0.001048147678375244,0.0004064920649398118,0.003432821948081255,-0.18973220765590668,-0.2590170719102025,-9.805435663461685
9.8,0.6000000238418579,129.0,24.57525062561035,-0.039758868515491486,-79.78277636465293,40.4589465185531,271.38879016816617,0.006427871063351631,0.01394863985478878,-0.8860957622528076,0.463247686624527,-0.0025287762816248137,-0.004670367659704939,-0.0016152852642270742,-7.484852540073916e-05,0.00029638552223332215,-0.005578508134931326,-0.19067777551710607,-0.2442980952188373,-9.803303768634798
9.9,0.6000000238418579,129.0,24.58025932312012,-0.015903547406196594,-79.78277632319923,40.45894652141944,271.3866725194454,0.006427590735256672,0.013986930251121521,-0.8861006498336792,0.4632372558116913,-0.0011145421957092676,0.0030538502790673533,0.0027968500703442877,-0.0013542964588850734,-0.00349611509591341,-0.0056986520066857355,-0.1890059469267726,-0.2603470576554537,-9.805170199871064
10.1,0.5,129.0,24.581512451171875,-0.015903547406196594,-79.7827763194488,40.458946521102206,271.38695604383946,0.006427689455449581,0.013976821675896645,-0.8860999941825867,0.4632388949394226,-0.001971261313890231,0.0024596662219810088,0.0029067743074742483,0.002613084623590112,0.0023385128006339073,0.004675183910876513,-0.19111034156754614,-0.2612753945030272,-9.804511803388596
10.2,0.5,129.0,24.58025932312012,-0.02385532110929489,-79.7827763005455,40.45894655215266,271.3828110772372,0.006418108474463224,0.013978569768369198,-0.8861010074615479,0.4632371068000794,-0.004088399919688174,0.00038476020576502616,0.001675618965808136,0.006164756137877703,0.0010721622966229916,0.004704772960394621,-0.1908197714947164,-0.2421087514981628,-9.803188578486443
10.39,0.4000000059604645,130.0,24.581512451171875,-0.03180709481239319,-79.78277629681406,40.458946555824156,271.3830030041933,0.006430382374674082,0.013988671824336052,-0.8860936760902405,0.4632505774497986,-0.006366159636855957,3.122077637140791e-05,0.0019273483797415246,-0.004930025897920132,-0.001977689564228058,-0.008404477499425411,-0.19015730023384086,-0.2444273004122079,-9.803142970204354
10.5,0.4000000059604645,130.0,24.57900810241699,-0.02385532110929489,-79.7827763139577,40.4589465332804,271.3815617191792,0.006414357572793961,0.014004258438944815,-0.8860923051834106,0.4632529020309448,0.0035708285701432896,0.0006108191758789918,0.006220849931765509,-0.0020293984562158585,-0.001515873591415584,-0.00636697793379426,-0.19075331423431635,-0.2479939192347229,-9.802806755304335
10.7,0.4000000059604645,132.0,24.57900810241699,-0.02385532110929489,-79.78277629783862,40.45894656534321,271.377497010231,0.006400549318641424,0.014013167470693588,-0.886091947555542,0.4632535576820374,0.001829079417039029,2.291753917262724e-05,0.004334788404837468,0.006376025266945362,0.0003917527792509645,0.002684637671336532,-0.18892101611942053,-0.2587428923137486,-9.804394274353982
10.8,0.4000000059604645,136.0,24.577754974365234,-0.02385532110929489,-79.78277629866433,40.45894656434643,271.3779404687881,0.006392661016434431,0.014014755375683308,-0.8860923051834106,0.4632528722286224,-0.00048462484881230187,-0.000284852548262112,0.0045956709820196,-0.006695729214698075,-0.003541359212249517,-0.0029949925374239683,-0.1906035524234176,-0.248779419567436,-9.803798443078994
11.0,0.4000000059604645,141.0,24.58025932312012,0.039758868515491486,-79.78277626715419,40.45894658267279,271.3739791738987,0.006368646863847971,0.01405342761427164,-0.8860890865325928,0.463258147239685,-0.0024462754366628013,0.004426485223461573,0.003096069431548461,-0.006156538613140583,-0.00022734189406037328,-0.005788941867649554,-0.18948326244950287,-0.2507789297774434,-9.803872117996217
11.1,0.4000000059604645,144.0,24.58025932312012,-0.007951773703098297,-79.78277623178606,40.45894658683328,271.37011235237117,0.006339964456856251,0.014061572030186651,-0.8860830664634705,0.4632698595523834,-0.0005115882221640647,0.00965186745946485,0.0021175857025261323,-0.005359437316656114,-0.0023265308700501927,-0.004309217445552349,-0.19020994344726205,-0.25467344949021936,-9.803937606811523
11.3,0.4000000059604645,151.0,24.57399940490723,-0.007951773703098297,-79.78277622205053,40.45894658226806,271.37030924141413,0.006349857430905104,0.014055106788873672,-0.8860765695571899,0.4632823467254639,-0.0013142257093226395,0.009378832933116034,0.002156070500755802,0.005440631881356239,-0.000849383941385895,0.0025899638421833515,-0.19084904411807652,-0.2512724895961583,-9.803249389529233
11.4,0.4000000059604645,154.0,24.57650375366211,-0.03180709481239319,-79.7827762090916,40.4589466012278,271.366151638627,0.006334904581308365,0.014033734798431395,-0.8860762715339661,0.4632836878299713,-0.00038782099957339024,0.007035550959708324,0.001162020324192818,0.002001949353143573,-0.00036618579179048533,0.002038930542767048,-0.19059353906661272,-0.2577382675744593,-9.804625239372251
11.6,0.4000000059604645,161.0,24.581512451171875,-0.02385532110929489,-79.78277620153942,40.45894659859549,271.3662673908472,0.006334203761070968,0.01402932032942772,-0.8860754370689392,0.4632855653762818,-0.002046709179643352,0.00672234889218536,0.0013186323300242765,-0.002926112152636051,-0.0012232441222295165,0.0010572102619335058,-0.191272400803864,-0.2589493538439274,-9.803990231752397
11.7,0.4000000059604645,162.0,24.566486358642567,-0.07951773703098297,-79.78277618281113,40.458946619421575,271.36397487699986,0.006355795543640852,0.014010353945195677,-0.8860697150230408,0.4632967412471771,-0.002268741072211376,0.00570389295203114,0.003900056366695708,0.001704215072095394,-0.0005063829012215136,0.004258302040398121,-0.1897444137185812,-0.2600914612412453,-9.804800655841829
11.89,0.4000000059604645,164.0,24.566486358642567,-0.10337305814027786,-79.78277617523997,40.458946618801605,271.36437001109124,0.0063584507443010824,0.01399584859609604,-0.8860733509063721,0.4632900953292847,-0.004288512483894017,0.0053982758167810795,0.004066191818796179,-0.004587490111589432,0.0008252468542195858,-0.004958268254995346,-0.1916608386486769,-0.2428013541921973,-9.802564680576324
12.0,0.4000000059604645,165.0,24.58025932312012,-0.015903547406196594,-79.7827761341257,40.45894664046988,271.3624686825276,0.006374672520905733,0.013988306745886804,-0.8860688805580139,0.4632986783981323,-0.006142204682652307,0.007159607393877163,0.006142174583570706,-0.0006891345838084817,0.0015213954029604793,-0.005247170105576515,-0.18972846178337927,-0.2612586020305753,-9.806033248901366
12.19,0.4000000059604645,169.0,24.57900810241699,-0.02385532110929489,-79.78277612645475,40.45894665260461,271.359985165596,0.006384229753166437,0.01398763246834278,-0.886066734790802,0.4633026421070099,-0.0014164429921441164,0.005877736696233525,0.007686460380486455,0.0061581823974847785,0.002816011197865009,0.00759404432028532,-0.19070152983069424,-0.26067245520651344,-9.805215808153156
12.3,0.4000000059604645,169.0,24.57399940490723,-0.015903547406196594,-79.78277611931156,40.458946650996985,271.36076822161675,0.006389434915035963,0.013992443680763243,-0.8860673904418945,0.4633012115955353,-0.003794030275583968,0.0055604514784080355,0.008024860602930091,-0.004119055811315775,0.0006143664941191673,-0.003810509340837598,-0.19077715991064906,-0.2481825284846127,-9.804170910716056
12.49,0.4000000059604645,163.0,24.57900810241699,-0.039758868515491486,-79.78277613537934,40.45894665853268,271.35662337422366,0.006409733090549707,0.013996573165059091,-0.8860678672790527,0.463299959897995,0.0017796288739896258,0.0008397893460488099,0.004281917132164585,-0.0021901519503444433,-0.00259563815779984,-0.0019043883075937629,-0.188953194078058,-0.25429126085713505,-9.804266805052755
12.6,0.4000000059604645,162.0,24.57525062561035,-0.04771064221858978,-79.78277610642641,40.45894667393525,271.35468385398394,0.006406241096556187,0.014000584371387959,-0.8860679864883423,0.4632996320724487,-0.0008277240197905256,0.003094250985309934,0.005723137916753293,-0.0013330777874216435,-0.0004206810554023832,0.0011787386611104012,-0.1904988324455917,-0.2588314045406878,-9.804832230806351
12.79,0.4000000059604645,157.0,24.57024383544922,-0.07951773703098297,-79.782776102683,40.45894667303831,271.3552613782884,0.006408751476556064,0.014004026539623736,-0.8860688209533691,0.4632979333400726,-0.002238684389223557,0.0027785918319479857,0.005945706462078021,0.0034733002539724107,-0.0024677962064743038,-0.0016391766257584095,-0.19039067722857006,-0.2445536002703011,-9.803699040412903
12.89,0.4000000059604645,153.0,24.577754974365234,-0.04771064221858978,-79.78277608433488,40.45894668301953,271.35197361588484,0.006419232580810785,0.01401375327259302,-0.8860688209533691,0.4632974863052368,-0.0008180452123679865,0.003354268130687939,0.003689315419229144,-0.004069932736456393,-0.0011674229754135013,-0.004042563959956169,-0.1897492193989456,-0.26126857884228233,-9.805339184403419
13.09,0.30000001192092896,149.0,24.58025932312012,-0.015903547406196594,-79.78277608053033,40.45894668214083,271.35234592139716,0.006419232580810785,0.01401375327259302,-0.8860688209533691,0.4632974863052368,-0.0013172501977850586,0.002862806179602636,0.00381573565680248,0.005348308943212032,0.0026040298398584127,0.0071698352694511405,-0.19009146424010395,-0.26037278540432457,-9.80521229982376
13.19,0.30000001192092896,149.0,24.58025932312012,-0.039758868515491486,-79.78277603775129,40.45894667342747,271.35092791199685,0.006422532722353935,0.014029799029231071,-0.8860697150230408,0.46329519152641296,-3.640578484359566e-05,0.008275244953939873,0.006285958456218602,0.005459332838654518,-0.00028425391064956784,0.004984856583178043,-0.18889653090387584,-0.2558329158090055,-9.804678449034693
13.39,0.30000001192092896,150.0,24.56899070739746,-0.07156596332788467,-79.78277602905578,40.458946669945995,271.35155700922013,0.006422532722353935,0.014029799029231071,-0.8860697150230408,0.46329519152641296,-0.002254320696943977,0.008053656950564305,0.006477905856488621,-0.004039146471768618,-0.0030268963892012835,-0.0016528189880773425,-0.19040957104414705,-0.2549253000319004,-9.803734708428383
13.5,0.30000001192092896,149.0,24.57274627685547,-0.04771064221858978,-79.7827760038842,40.45894667635393,271.3479894179106,0.0064309136942029,0.014034266583621502,-0.8860703706741333,0.4632937014102936,-0.0014873588766398708,0.006336308579151106,0.004010785499671487,-0.002560607856139541,-0.0011082424316555262,0.0017995063681155445,-0.19022585883736606,-0.2589806729927659,-9.80394169986248
13.7,0.30000001192092896,147.0,24.577754974365234,-0.03180709481239319,-79.78277598210606,40.458946676753825,271.346164457798,0.006436095573008061,0.014039795845746994,-0.8860703706741333,0.4632934629917145,0.0017816129963484349,0.007316363149808512,0.005818516279982448,-0.0009409341728314756,-0.0018020845018327238,-0.005759493447840214,-0.19182604076340795,-0.2445340303704143,-9.802246592044831
13.79,0.30000001192092896,147.0,24.577754974365234,-0.03180709481239319,-79.78277597625659,40.45894667153429,271.3467352020741,0.006431539542973042,0.014038074761629105,-0.8860754370689392,0.4632839560508728,0.0009406631183848992,0.007004946252761822,0.0059570116719732035,0.0016458110185340047,0.00024884738377295434,0.001439963118173182,-0.1894089479930699,-0.2605590740405023,-9.805017002820971
13.99,0.30000001192092896,151.0,24.58025932312012,-0.015903547406196594,-79.78277592915862,40.458946663822,271.3453383672237,0.0064465748146176356,0.014040859416127205,-0.8860704898834229,0.4632930159568786,0.001883638260822372,0.010874632863568993,0.007533788788877317,0.0058121406473219395,0.0031722846906632185,0.004084890242666006,-0.1900386748462916,-0.2610059657692909,-9.804604189395905
14.09,0.30000001192092896,151.0,24.54269790649414,0.8428880572319031,-79.78277585871194,40.4589466518644,271.3441412228346,0.006460380274802446,0.01406023558229208,-0.8859526515007019,0.4635176658630371,0.0011941412901177169,0.015601020362465563,0.008554123453050316,0.00874414388090372,0.004237459972500801,0.003434943035244941,-0.19439207307994366,-0.2403885920159519,-9.806580548286439
14.29,0.30000001192092896,155.0,24.56273078918457,0.2624085247516632,-79.7827758426589,40.45894664299162,271.3449909168482,0.006410486530512571,0.014072864316403866,-0.8860956430435181,0.4632445275783539,-0.000832681574507642,0.016368246004200386,0.00892397458967928,-0.007886143401265144,-0.0010245782323181634,0.01272543892264366,-0.1941633373126388,-0.2380098167806864,-9.802067082524301
14.39,0.30000001192092896,159.0,24.56523513793945,0.2703603208065033,-79.78277585875269,40.45894664349296,271.34087579727174,0.006426270119845867,0.014088889583945274,-0.886074423789978,0.4632842838764191,0.004889852575243207,0.006070392056100495,0.004583202148577218,-0.0031778980046510696,-0.003840048331767321,0.011660603806376455,-0.1920791338384152,-0.2580716867744923,-9.80040881216526
14.6,0.30000001192092896,162.0,24.56523513793945,0.2703603208065033,-79.78277585515333,40.45894663774471,271.3413169014454,0.006449628621339798,0.014089194126427175,-0.8860756158828735,0.4632816910743714,0.0019423369274524085,0.006094720873607424,0.004835452315669858,0.004300012718886137,0.002796410350129009,-0.013235016725957394,-0.18811569007113574,-0.2556713499315083,-9.803141216039656
14.7,0.30000001192092896,162.0,24.566486358642567,0.278312087059021,-79.78277582793824,40.45894665484615,271.34013526916505,0.006430799141526222,0.014097986742854118,-0.8860738277435303,0.4632851481437683,-0.001671861615155792,0.003195538479760733,0.0063932588205868075,-0.006334337405860424,-0.0007893573492765428,-0.013438420370221138,-0.1910756785422564,-0.2486962977424264,-9.801860091090203
14.89,0.4000000059604645,161.0,24.55897521972656,0.3339745104312897,-79.78277582350475,40.458946654102185,271.34077023744584,0.006428788416087627,0.014091430231928825,-0.886086642742157,0.4632608592510224,-0.0009917689573321169,0.003183748139282489,0.006390141915580318,0.0026038333307951693,-0.000304428453091532,0.014070404693484306,-0.1884243682399392,-0.2573228777199984,-9.807005056142806
14.99,0.4000000059604645,160.0,24.55897521972656,0.37373337149620056,-79.78277582268821,40.458946679814474,271.3400506007672,0.006438024342060089,0.014089280739426613,-0.8860878348350525,0.4632586240768433,-0.002045070657536533,-0.002085295370084581,0.008153177140762838,0.004037298262119293,0.00357978162355721,0.006640485022217035,-0.1900185750424862,-0.2485959083586932,-9.806653638482096
15.19,0.4000000059604645,158.0,23.61242485046387,26.75771903991699,-79.78277578364553,40.45894668796157,271.3378194350004,0.006422441452741623,0.014096072874963284,-0.886082649230957,0.4632683992385864,-0.002462749649071616,0.003424545657616532,0.008630452085585329,0.002483808668330312,-0.004664903972297907,-0.004976867698132992,-0.1907712396048009,-0.259824791662395,-9.806602767705918
15.29,0.5,160.0,24.40998077392578,2.1867377758026123,-79.78277577875528,40.45894668835985,271.3387687134744,0.006380297709256411,0.014136254787445068,-0.8860951662063599,0.4632437825202942,-0.00563059028142455,-0.00024603660559572096,0.009864584085787687,-0.024010030552744862,0.005629441700875759,0.0005833099130541086,-0.22778184888884426,-0.16904464904218913,-9.800281342864036
15.49,0.5,158.0,24.552715301513672,0.21469789743423465,-79.78277575050015,40.45894669240063,271.3367648947239,0.006565523333847523,0.01410516258329153,-0.8860444426536559,0.4633391797542572,-0.0031670050992845572,0.003747239178517985,0.008865096919005356,-0.012970462441444395,-0.00924990512430668,-0.01074750442057848,-0.2121876901946962,-0.2478651160374284,-9.798299721479417
15.6,0.5,157.0,23.50224304199219,20.20545768737793,-79.78277573461787,40.45894671943981,271.3345434743166,0.006613887380808592,0.014121659100055696,-0.8860220909118652,0.4633808434009552,-0.003040463838545662,-0.002198208243288961,0.007578897650057988,-0.015370788984000685,-0.05460943654179573,-0.009798112325370312,-0.21937357105314734,-0.2662661209702492,-9.797043739557267
15.79,0.5,155.0,24.53518486022949,0.3896369338035584,-79.78277573406974,40.45894672222618,271.33516239404685,0.006645035464316607,0.014071526937186718,-0.8860518336296082,0.4633249342441559,-0.005634433021507257,0.0009942360101062812,0.005752852476503052,0.0010648081079125404,-0.0213970597833395,-0.015287009999155996,-0.22286494351923467,-0.28503603039309383,-9.781857351064682
15.89,0.5,151.0,24.55647087097168,0.22264966368675232,-79.78277571686776,40.45894673058796,271.3312604802847,0.006632892414927483,0.014087992720305918,-0.8860445618629456,0.4633386135101318,-0.005634182468239742,0.000941631236648218,0.0030205538422394427,-0.011275882832705976,-0.010998704470694063,-0.003854878479614854,-0.15006971248425546,-0.2673699108324945,-9.813994817733763
16.09,0.5,154.0,24.50263214111328,1.924329280853272,-79.7827757154785,40.45894673215157,271.33165328979493,0.006726695690304041,0.014064615592360495,-0.8860471844673157,0.4633330404758453,-0.002410208496043809,-0.00014736428359259568,0.0037385172726428734,0.0049116117879748344,0.008510739542543888,0.002783655421808362,-0.15329128162935374,-0.2978517932072282,-9.801940782666207
16.2,0.6000000238418579,154.0,24.40372085571289,4.16672945022583,-79.78277569074048,40.45894675335608,271.3246767002344,0.006650349590927362,0.014111006632447244,-0.8860538601875305,0.46331986784935,-0.006639793356262036,0.0008209147809663068,-0.002631011595803053,-0.015636540949344642,-0.03142639622092247,-0.017381265759468082,-0.18491189097985627,-0.2287921746633947,-9.793827186226846
16.4,0.6000000238418579,157.0,24.30105209350586,6.083106994628906,-79.78277568748477,40.45894675813761,271.3244683521986,0.006599560379981996,0.014130300842225553,-0.8860524892807007,0.4633226096630096,-0.005012479792744135,-0.0017328092916002074,-0.0020074292082641523,-0.002599332015961409,0.013808270916342735,0.010119752027094364,-0.16541488029062748,-0.2794643099606037,-9.800935646295546
16.5,0.6000000238418579,158.0,24.23719787597656,7.41105318069458,-79.7827756636617,40.45894673856434,271.3202159780264,0.006479163654148579,0.014171903021633625,-0.8860564827919006,0.4633154273033142,-0.0040673756471495135,0.006161769525644398,-0.0018715902756792648,-0.01668880321085453,0.04790940135717392,-0.030366782099008564,-0.17160260489210488,-0.2856787124834955,-9.825268249511721
16.7,0.699999988079071,156.0,24.09195899963379,9.621646881103516,-79.78277562765201,40.458946741280386,271.31491076231003,0.006189465057104826,0.014461630024015903,-0.8861264586448669,0.4631764590740204,0.0011186224745609774,0.014501850726823497,0.0005273682224125677,-0.014937330037355425,0.03403973951935768,-0.004171053878962994,-0.1898842352628708,-0.376459567733109,-9.787750759720804
16.79,0.699999988079071,156.0,24.040626525878906,11.474410057067873,-79.78277562301403,40.45894673640492,271.31493470847613,0.006348222028464079,0.014831223525106909,-0.8861216902732849,0.4631718099117279,0.0019277369297900266,0.006696395840323367,0.001880164283861148,0.006479829549789429,-0.011022789403796196,0.042500369250774384,-0.2559136987477541,-0.32189886957407,-9.795536327362061
17.0,0.8999999761581421,153.0,23.89288330078125,14.623311996459961,-79.78277557898345,40.45894671998249,271.3132739889622,0.00662174541503191,0.015782706439495087,-0.8859226107597351,0.4635172784328461,0.006452309741693542,0.007461617291571985,0.002965727925555993,0.06692502647638321,-0.02151855081319809,-0.08038987964391707,-0.21698052495718004,-0.17736912896856666,-9.772004792690275
17.1,0.8999999761581421,150.0,23.79021644592285,16.062583923339847,-79.7827755599333,40.45894673210217,271.30896306812764,0.0022822783794254065,0.018965836614370343,-0.8861035108566284,0.4630937576293945,-0.007013829064379825,0.013839134993608136,0.01699757447930373,-0.018366200849413872,0.016592510044574738,0.025793399661779404,-0.2463203547522425,-0.3361342449858785,-9.923358800411227
17.29,1.0,148.0,23.63120460510254,19.4659423828125,-79.78277553593176,40.458946734331384,271.31121008872987,-0.0014842982636764646,0.02038057148456573,-0.8862701058387756,0.4627177119255066,-0.020310028977544428,0.0149825988068353,0.032057282362062844,-0.09227052330970764,-0.0793333351612091,0.061585865914821625,-0.3994867069646717,-0.3556655167043209,-9.91191930770874
17.4,1.100000023841858,145.0,23.541057586669922,21.445934295654297,-79.78277550189391,40.4589467030936,271.3094487267733,-0.017154885455965996,0.012537947855889795,-0.8865692615509033,0.4621075987815857,-0.05217800571453125,0.07773387997554017,0.07972500453883867,-0.25200408697128296,0.059945289045572274,0.1146824061870575,-0.040132885398343206,-0.238574365451932,-9.980132925510407
17.6,1.2000000476837158,144.0,23.33196449279785,25.58085632324219,-79.78277536556682,40.45894669738345,271.3219337838888,-0.02278837747871876,0.005243064370006323,-0.8860632181167603,0.4629743099212647,-0.057957444094418525,0.11403310733447758,0.1884903295987632,0.03006437793374062,0.11802230030298233,-0.0352943018078804,0.11091016922146082,-0.06127683746628464,-10.736567333936694
17.69,1.2000000476837158,141.0,23.680034637451172,17.040651321411133,-79.78277513503326,40.45894655099861,271.3567636835575,-0.01134687103331089,-0.002007962204515934,-0.8845284581184387,0.4663441479206085,-0.09504486901495383,0.12626826788124665,0.3490347368872211,0.18407779932022086,0.18719032406806946,-0.00532235624268651,0.0674150434602052,0.021064219800755384,-10.492379422187806
17.89,1.2000000476837158,139.0,23.61492919921875,18.29703140258789,-79.78277491233645,40.458946568419435,271.3910355645418,-0.0016852444969117641,-0.0058998093008995065,-0.8841705918312073,0.4671241044998169,-0.12056223730098467,0.14581898033757068,0.3433265358075005,0.13768452405929565,0.182981625199318,-0.0445600189268589,0.08166588658466936,-0.08800620524212717,-10.008089632987977
18.01,1.2999999523162842,139.0,23.61492919921875,19.108112335205078,-79.78277395228388,40.458946816668465,271.4347189295292,0.011369897052645685,-0.00865059345960617,-0.8844512701034546,0.4664138853549957,-0.14449950452285215,0.13717298275384576,0.2499765892736931,0.11108394712209704,0.051469795405864716,0.02326572872698307,0.1099191849399358,-0.1703881199285388,-9.691931852102279
18.2,1.399999976158142,136.0,23.54606628417969,19.919193267822266,-79.78277363620276,40.45894704469635,271.4461044895649,0.01646869815886021,-0.005542826373130083,-0.884913444519043,0.46543142199516296,-0.12322603687685114,0.10904998015115168,0.16825734309396864,0.13447736203670502,-0.06661267578601837,0.08188723772764206,0.1939518142864108,-0.1407935342565179,-9.397791761755943
18.3,1.5,137.0,23.50975608825684,20.292926788330078,-79.78277345584019,40.45894708338717,271.4622434604168,0.017219757661223408,-0.0007561866659671067,-0.8854120969772339,0.4644871652126312,-0.11346405856688085,0.09655166961983516,0.1453982551009494,0.04046909511089325,-0.05088823288679123,0.04927912354469298,0.0704864899115637,-0.18272112200036647,-9.537256041169167
18.49,1.600000023841858,139.0,23.46468162536621,21.175573348999023,-79.78277290388199,40.45894723752779,271.4987843263149,0.00798508059233427,-0.001944202114827931,-0.8870393633842468,0.4616206884384155,-0.13635367283231506,0.0780935756283721,0.1587787193530919,-0.17383962869644165,-0.0028548706322908397,0.006239124573767185,-0.01852785296738148,-0.07237893668934703,-9.755905653834343
18.6,1.600000023841858,138.0,23.43588447570801,21.318706512451172,-79.78277258442219,40.45894754229426,271.54818423867226,0.0019056390738114715,-0.0047525609843432895,-0.8883954882621765,0.4590504467487335,-0.14148102465440973,0.047916107161775,0.2044509761355993,0.06578934192657471,-0.06115597113966944,-5.841458187205716e-05,0.0666077074315399,0.05815453394316138,-9.993434171676636
18.79,1.8999999761581416,142.0,23.46217918395996,19.87943458557129,-79.78277245132342,40.458947623654964,271.5700877535343,0.00530905369669199,-0.003341327188536525,-0.888595461845398,0.4586489796638489,-0.13754616847753046,0.03459077694677064,0.2335262960105467,0.0910259559750557,0.038880277425050735,0.020277634263038642,0.0071963921422138815,-0.08427291336469353,-10.066347781419754
18.9,1.8999999761581416,143.0,23.48471450805664,21.485692977905273,-79.78277208386827,40.458947748693056,271.6124073195457,0.006228670943528414,-0.0030848379246890545,-0.8882919549942017,0.4592267572879791,-0.14320746515575036,0.034716297427192684,0.2196201811531016,-0.006537912413477898,-0.0016733907395973804,0.06987445801496506,-0.01708419369533658,-0.1170960482954979,-9.886910766363146
19.1,2.0,142.0,23.45591735839844,20.467866897583008,-79.78277195796258,40.45894784059214,271.63454093813897,0.004934053402394056,-0.0034909367095679045,-0.8877789378166199,0.4602305293083191,-0.14075815511183726,0.02738701317434353,0.21973082242215566,0.058461707085371024,-0.01585573330521584,0.0346941202878952,0.020480594588443642,-0.14132262504659593,-9.778558351993562
19.19,2.0,142.0,23.39832305908203,21.93894386291504,-79.78277181280086,40.45894801573061,271.6922256278992,0.007106188219040631,-0.00031508508254773915,-0.8864087462425232,0.4628489315509796,-0.13189290132550893,-0.002462231075664678,0.2635711937326711,0.06860147416591644,-0.032077662646770484,-0.04403095692396164,0.017648390620015563,-0.07379227723460645,-9.929024752378462
19.39,2.0999999046325684,143.0,23.83779335021973,7.943821907043457,-79.78277173289831,40.45894811402474,271.72028195142747,0.009362095035612585,0.0003326433361507952,-0.8857958912849426,0.4639804661273956,-0.12041068609483813,-0.00977091179550442,0.29288905859709435,0.12735630571842196,0.0848475769162178,0.029969980940222737,-0.0266665513208136,-0.2448319460079074,-10.068248126506807
19.49,2.200000047683716,145.0,23.569854736328125,20.8256950378418,-79.78277138948827,40.458948073399405,271.76857357501984,0.011415589600801468,0.002937083598226309,-0.8844668865203857,0.4664541780948639,-0.1097348113083108,0.02808564338115269,0.09450045282487192,-0.022756597027182586,-0.008548497222363949,0.03356245905160904,-0.014273092236835509,-0.14354815755039455,-8.614139149188995
19.7,2.0999999046325684,146.0,23.25183296203613,25.25483322143555,-79.78277128374515,40.458948014790174,271.795530371666,0.008943467400968075,0.002457457827404141,-0.8835471868515015,0.4682505130767822,-0.08025653861624217,0.018049304722889858,0.10515908241785464,-0.07024644315242767,0.001217721845023334,-0.03596610948443413,-0.03435585003811866,-0.06589625660330058,-9.35016268193722
19.8,2.0999999046325684,146.0,23.169198989868164,25.962541580200195,-79.78277121906359,40.45894805956152,271.80883245944983,0.006541271694004536,0.0009295700001530348,-0.8825873732566833,0.4701020419597626,-0.06915035283829754,0.017363485185700703,0.17050875429145018,-0.007000827230513096,0.06246749311685563,-0.07386461645364761,-0.06855162341147661,0.0391912735439837,-10.184131754636763
20.0,2.0999999046325684,148.0,22.99516296386719,29.707826614379893,-79.7827708983965,40.45894816188088,271.88157158374787,0.0027554160915315147,-0.001458792481571436,-0.8805713653564453,0.4739034473896026,-0.059568313654846924,0.04212806373525646,0.4690114432822256,-0.01550910621881485,-0.05263127386569977,3.2608750188956044e-05,0.08005379095673562,-0.2340434676781297,-11.306068596839905
20.1,2.0999999046325684,149.0,22.897502899169922,31.306133270263672,-79.7827707502707,40.458948199320496,272.0094574022293,0.0032670199871063232,-0.0025162491947412487,-0.8794885277748108,0.4759023189544678,-0.06508562879904949,0.03318942443823813,0.8846149999484835,0.04657987505197525,-0.018151963129639626,-0.07683169841766357,0.07055751987732947,0.11028634440153838,-12.019943461418151
20.3,2.0999999046325684,150.0,22.87621879577637,32.610225677490234,-79.7827706833278,40.45894823230922,272.10917370796204,0.005257498938590288,-0.0011849008733406665,-0.8792137503623962,0.4763970673084259,-0.06814759232725666,0.03188364553827259,1.1049803057985508,-0.00364636373706162,-0.027965176850557327,-0.005920037627220154,0.06428326562047006,-0.12348323604092006,-12.01567031621933
20.4,1.8999999761581416,150.0,22.95635032653809,30.956254959106445,-79.78277053854977,40.45894830194153,272.3669169473648,0.006024198140949011,0.002716779010370373,-0.8791907429695129,0.476424366235733,-0.07136726594708652,0.03511269201703735,1.5437263155451946,0.0023734725546091795,-0.01445863861590624,-0.05650276318192483,0.045350246289744975,-0.14551454876549544,-12.069677538871765
20.5,2.0,152.0,22.78857421875,34.39937210083008,-79.78277047736918,40.45894832056471,272.5333046245575,0.006145587656646967,0.005273084621876478,-0.8794495463371277,0.4759233295917511,-0.0572066127697663,0.0390035082207864,1.79030599998454,0.061732009053230286,-0.0184756051748991,0.049623772501945496,0.029318743273615836,-0.16702730482444167,-12.274180397987369
20.69,2.0999999046325684,153.0,22.8962516784668,30.852882385253906,-79.78277037809113,40.45894832206928,272.7100186872483,0.005868006031960249,0.007031451910734178,-0.8799129724502563,0.4750467240810394,-0.06537172963968083,0.04172679969473328,2.04973834261561,-0.028163671493530273,-0.005491137038916349,-0.02728086337447166,0.13413448752835394,-0.0469892939273268,-12.576466244459152
20.89,2.200000047683716,155.0,22.87621879577637,31.28227806091309,-79.78277021953406,40.45894828343481,273.1657763051987,0.0026063232216984034,0.0069379997439682475,-0.881269633769989,0.4725558161735535,-0.04624815599831448,0.06020027639036288,2.495877986146433,-0.03939448297023773,0.037020549178123474,0.0020200451835989948,0.04007570145651698,-0.10390696817077696,-12.027968180179595
20.99,2.200000047683716,153.0,22.92129325866699,29.37385368347168,-79.78277009221733,40.458948237789606,273.40175550460816,0.0030039718840271235,0.005002242978662252,-0.8819040656089783,0.4713927805423737,-0.02727055068853569,0.07263426179383342,2.656576079161233,0.05097412317991257,0.07128871977329254,0.06889215856790543,-0.009173808556515723,-0.18169325457885865,-11.796030185222628
21.1,2.299999952316284,154.0,22.882478713989247,30.36782455444336,-79.78276981014386,40.45894811205212,273.9367007541657,0.0049854330718517295,0.0012277599889785056,-0.8828817009925842,0.4695675373077393,-0.038341335117270885,0.1259175932892045,2.9579479629245995,-0.07479270547628403,0.01905061863362789,-0.004688057117164135,0.1329680136870593,-0.057269640080630776,-11.498979935646055
21.31,2.4000000953674316,155.0,23.10659599304199,25.52519416809082,-79.78276968460641,40.45894804501133,274.2388414669037,0.0049729598686099035,0.00044937350321561104,-0.8831802010536194,0.4690073430538178,-0.03743446036791051,0.1401571643576836,3.071746072684803,-0.1312410533428192,-0.008444162085652351,-0.0185862984508276,0.060977121982723474,-0.09351150495931508,-11.036835891008376
21.4,2.4000000953674316,160.0,23.195491790771484,23.69628715515137,-79.78276955554689,40.45894797370914,274.5498976039886,0.004497350659221411,-0.0009459876455366614,-0.8831046819686891,0.4691535234451294,-0.03433260426265309,0.14740806039411194,3.1421564588807933,-0.10446083545684813,-0.05549526587128639,-0.07052549719810486,0.12840302847325802,0.020474393342155964,-10.655103925466538
21.6,2.5999999046325684,163.0,23.13664436340332,24.66640281677246,-79.78276920681161,40.45894781321372,275.16236179351813,0.004676348529756069,-0.002347721718251705,-0.8817946910858154,0.471604585647583,-0.002621368600468037,0.16292936837478186,3.166461268797784,0.09684152901172638,0.06369524449110031,0.08287110179662703,0.08320476410910488,-0.35428893595933914,-10.030857521295546
21.79,2.799999952316284,168.0,23.14666175842285,24.57098197937012,-79.7827687742076,40.45894764756853,275.8009816932679,0.002314193174242973,-0.007745010778307916,-0.8801388740539551,0.4746475517749786,-0.02645320766544424,0.18859401046147456,3.1418287666047355,0.04293925687670709,0.07562443614006042,-0.0380544438958168,0.1307864997535944,-0.014367230124771597,-9.73626602590084
21.89,2.9000000953674316,168.0,23.21427154541016,23.64857482910156,-79.78276860977857,40.45894759781385,276.11460655212403,0.0028216419741511345,-0.007819993421435356,-0.8796253204345703,0.4755946695804596,-0.01772341371418692,0.1925023232777888,3.1257888086582244,0.115957073867321,0.017342811450362206,0.09011031687259674,0.08109885284677149,-0.3023701011948288,-9.682677463889123
22.09,3.0,171.0,23.12036895751953,25.827362060546875,-79.78276810723384,40.45894742178113,276.70695751190186,0.006479097064584494,-0.008618994615972042,-0.8795230984687805,0.4757339954376221,-0.06293299050122679,0.19680896898979727,3.0394201797469926,0.046060170978307724,0.01669028028845787,-0.04636690020561218,0.1082169782370329,0.030754481395706537,-9.519061844944952
22.19,3.0999999046325684,174.0,23.13664436340332,23.74399757385254,-79.78276772640233,40.4589472705396,277.25130193710334,0.012568967416882515,-0.007863081991672516,-0.8803722858428955,0.4740515947341919,-0.08236804885921131,0.2004682495718162,2.9558863289729,0.07307152450084686,-0.023465922102332115,0.06374271214008331,0.1918389411829412,-0.3485708341374993,-9.68616766691208
22.4,3.0999999046325684,177.0,23.07028579711914,25.827362060546875,-79.7827675651454,40.45894725746177,277.54664581298834,0.014145699329674244,-0.006426166743040085,-0.8811370134353638,0.4726057946681976,-0.108897182479222,0.1929331067049991,2.9423264106936817,-0.008465267717838287,-0.03753901273012161,-0.01905272901058197,0.1712431290373206,-0.059404335175640886,-9.712092466950416
22.49,3.2000000476837163,177.0,23.14540863037109,23.855321884155273,-79.78276766514587,40.45894745783964,277.7717654037476,0.015364184975624084,-0.006426672916859388,-0.8819331526756287,0.4710803925991058,-0.1018354470000902,0.1361647066910836,2.875980242011912,0.1101626306772232,0.05186381936073303,0.09843922406435013,0.13188355618156494,-0.2174424001760781,-9.822118939161301
22.69,3.299999952316284,179.0,23.152921676635746,22.765928268432607,-79.78276736315016,40.458947360066155,278.447478466034,0.013062722980976105,-0.013123013079166412,-0.8822700977325441,0.4703792035579682,-0.1201128498503828,0.12131795175915952,2.9089403502496056,-0.2407800555229187,-0.04116329923272133,-0.061788909137248986,0.1317813304066658,-0.04083280624821782,-9.832163286209108
22.8,3.299999952316284,181.0,23.16043472290039,23.50544357299805,-79.78276730812686,40.45894738861365,278.73891275405884,0.009769298136234285,-0.014428189024329184,-0.882003128528595,0.47092151641845703,-0.08776070792080874,0.11629573128472866,2.9074084573422714,-0.05032829940319061,-0.0719015821814537,-0.08562171459197998,0.2439789468795061,-0.009867103323340416,-9.791585363745687
22.99,3.4000000953674316,180.0,23.147912979125977,22.92496490478516,-79.78276703320853,40.45894726192285,279.4089361953736,0.007002150639891625,-0.006083115469664335,-0.8818010091781616,0.471530556678772,-0.0554343960644295,0.05788607859847018,2.8896381164365583,0.07162488251924515,-0.058401122689247124,0.07174274325370789,0.08001284217461943,-0.23407235657796266,-9.614857363700867
23.09,3.5,179.0,23.03147315979004,26.55892562866211,-79.7827670162532,40.458947311433306,279.69758480072016,0.007498176768422127,-0.004604743793606758,-0.8820292949676514,0.4711123704910278,-0.0815779357836307,0.026643130500382337,2.8796247083375954,-0.012627863325178623,-0.0058635659515857705,-0.03489163890480995,0.057074512098915876,0.06001276994124055,-9.648024525046347
23.29,3.4000000953674316,179.0,23.13038444519043,24.3801383972168,-79.78276691333221,40.45894722064428,280.3726259994507,0.00642653089016676,-0.0064947078935801966,-0.8830476999282837,0.4691943526268005,-0.06842092305848926,0.013953968422574679,2.9296993068185735,-0.1243426725268364,-0.05610509589314461,-0.04562370851635933,0.1129359370842576,-0.04570464237593114,-9.833717476129532
23.39,3.4000000953674316,178.0,23.03022003173828,25.723989486694336,-79.78276692487515,40.45894727291265,280.66643398284907,0.005717696622014046,-0.006937215104699135,-0.8836092948913574,0.4681385755538941,-0.07005653441777546,0.008189313356308127,2.9465374648456715,-0.06287236511707306,-0.023576950654387474,-0.002259038621559739,0.08793647719547153,-0.041954685933887965,-9.918868138790133
23.49,3.4000000953674316,179.0,23.151670455932607,24.332427978515625,-79.78276689978229,40.458947411986706,281.3583971786499,0.0072187623009085655,-0.010364803485572338,-0.883955180644989,0.4674011170864105,-0.07682467417487507,-0.016884351304558266,3.045011215336592,-0.07953383028507233,0.009115085937082771,-0.029746752232313163,0.13353921356610954,-0.046499420595355334,-9.955174670219424
23.69,3.299999952316284,182.0,23.08781433105469,24.69820976257324,-79.78276709151496,40.45894718760992,281.7328182983398,0.007866493426263329,-0.010659268125891684,-0.8837755918502808,0.4677235186100006,-0.04318658214124823,-0.0049758964827124825,3.0909783089849383,-0.05120297521352768,-0.016046004369854927,-0.11158867180347444,0.16193554943427446,0.15702569726854562,-9.878474403619768
23.89,3.2000000476837163,184.0,23.135393142700195,24.36423492431641,-79.78276723901253,40.458947315307704,282.3509823608398,0.009865539148449898,-0.009045175276696682,-0.8830000162124634,0.4691821932792664,-0.04219853108964198,-0.0278007333862024,3.0849518960302125,0.0009185044909827412,-0.016889663413167,-0.07978601008653641,0.2195941572636366,-0.03300026445183903,-9.727043212652207
24.0,3.2000000476837163,182.0,23.09282302856445,26.081817626953125,-79.7827673233844,40.45894720804148,282.7122103500366,0.011289947666227821,-0.008408453315496445,-0.8827473521232605,0.4696370959281922,-0.030443348719393755,-0.02569476990688989,3.072213050839752,0.13428445160388947,0.07602136582136154,0.04755830019712448,0.18885073989629747,-0.19612217282876374,-9.550456715226174
24.2,3.0999999046325684,181.0,23.208011627197266,21.692440032958984,-79.78276731902329,40.45894715743601,283.38189952850337,0.007001014892011881,-0.006217978429049254,-0.8824687004089355,0.4702781140804291,-0.032127995802757686,-0.03498198774935387,3.1035377406630285,-0.011652963235974312,0.05797876790165901,0.006957125850021839,0.07014932940714061,-0.050065760761499406,-9.83582715153694
24.29,3.0999999046325684,181.0,23.11160469055176,24.08592414855957,-79.78276742133431,40.45894720493627,283.6924521255493,0.004643206484615803,-0.007712771184742452,-0.8823201656341553,0.4705637097358704,-0.017075070782610446,-0.04804561999353549,3.1023980739758534,-0.1398341804742813,-0.02352685481309891,-0.04091505706310272,0.09920782590284943,-0.05145807417109609,-9.758591864705089
24.49,3.0,178.0,23.041488647460927,25.27868843078613,-79.78276759386435,40.45894712147949,284.35294692993165,0.006316399201750754,-0.007100154645740986,-0.8817565441131592,0.4716090857982636,0.019454862224637867,-0.04209455328688928,3.0871438162463303,0.016888871788978577,-0.03910056129097938,0.08739238232374191,0.10135066598653794,-0.2420835353806615,-9.721353287100793
24.59,3.0,175.0,23.17671012878418,22.288822174072266,-79.78276767392289,40.458946972867054,285.01144283294684,0.0015228296397253867,-0.004444886930286884,-0.8815636634826659,0.4720417559146881,0.03970228110414705,-0.030056206761269605,3.089078633181607,0.07525719702243805,-0.000939633056987077,-0.003060036571696401,0.1295059777982533,0.03245473293587565,-9.633815791010855
24.79,2.799999952316284,170.0,23.06527900695801,25.056039810180664,-79.78276777104641,40.4589469821392,285.31986968994136,-0.001217509387061,-0.002371079288423061,-0.8816339373588562,0.4719264209270477,0.04417275660206207,-0.05033589680441759,3.085511757632041,-0.0038598449900746346,-0.04370298236608505,0.0787828341126442,0.062173329829238365,-0.17306508488953115,-9.80168935239315
24.89,2.799999952316284,166.0,23.02145576477051,25.00832939147949,-79.78276786514397,40.45894699471246,285.62899559021,-0.0016588553553447127,-0.002484276657924056,-0.8818994164466858,0.4714282155036926,0.03333931191869595,-0.06508891834855715,3.098915066621902,-0.03110093250870705,0.04814838618040085,-0.10102789103984833,0.004763813386671245,0.19556537171825766,-9.881333692073822
25.1,2.700000047683716,157.0,23.046497344970703,24.55507850646973,-79.78276807105621,40.45894696994757,286.28861778259284,0.0013620821991935372,-0.002581600099802017,-0.8821004033088684,0.4710525274276733,0.02949707239419201,-0.051617931883161834,3.142592447499448,-0.09115490317344667,-0.06471037864685059,-0.011095160618424416,0.126877636089921,-0.0646305719576776,-9.942497906684876
25.19,2.5999999046325684,152.0,23.0715389251709,23.96664619445801,-79.7827681642852,40.458946933960455,286.6283337402344,0.0012098433217033744,-0.002391251968219877,-0.8825091123580933,0.4702876508235931,0.025648255088473626,-0.04524610320290784,3.163493268658112,0.0382203683257103,-0.0074314395897090435,0.04015389829874039,0.0715719478391111,-0.026676523564383388,-9.992532531023024
25.39,2.5999999046325684,149.0,23.091571807861328,23.5849609375,-79.7827683138221,40.4589469726706,287.262368850708,-0.0006831869250163437,-0.0059821787290275106,-0.8833800554275513,0.4686187505722046,0.027902714904245986,-0.04587764360141523,3.1676619215573107,0.08544231951236725,0.10303155332803726,-0.0013117522466927767,0.09776417576707902,0.09575405834242702,-9.778719150424003
25.5,2.5999999046325684,151.0,23.056514739990234,24.165441513061523,-79.78276843024663,40.45894693756485,287.9137436676025,-0.0002765361568890512,-0.004147398751229048,-0.8844488263130188,0.4666186571121216,0.015558420142540648,-0.014242674414398597,3.151448738741588,0.013344604521989822,0.03647206351161003,-0.022369123995304108,0.1083164265844971,0.02179999139159917,-9.792841930389407
25.59,2.5999999046325684,158.0,23.142906188964844,22.718217849731445,-79.78276858433435,40.45894689566255,288.24814193725587,0.00024714373284950847,-0.0044661820866167545,-0.8848279118537903,0.4658966660499573,-0.0031891932508409412,-0.040956810413986994,3.151555702701813,-0.11057765036821364,-0.009845723398029804,-0.0815475732088089,0.09677801543846727,0.03711491812951863,-9.786316437721252
25.79,2.5999999046325684,157.0,23.067781448364247,24.10182762145996,-79.78276863713,40.4589469380517,288.5623738098145,0.0017180233262479305,-0.007640726398676635,-0.8849929571151733,0.4655386507511139,-0.004725103474732146,-0.035072155041822935,3.132225976050566,0.027442414313554764,0.13321156799793246,-0.01910852268338204,0.14139852007851006,-0.03715495328418912,-9.62850885808468
26.0,2.5,164.0,23.05776596069336,23.89508056640625,-79.7827687672675,40.45894701873447,289.21149032592774,0.004788440652191639,-0.008030511438846588,-0.8846008181571959,0.4662552177906037,-0.012571200557053887,-0.0027897280252480072,3.1195340573857218,0.1107001081109047,-0.05391814559698105,0.10896577686071396,0.2250374216772616,-0.2508003817498684,-9.769760046601297
26.09,2.5,168.0,23.06527900695801,22.67845916748047,-79.78276880847524,40.45894707601251,289.5234677124024,0.004390405490994453,-0.0056593725457787505,-0.8843762874603271,0.466719776391983,-0.04136586366158688,-0.005905357438767092,3.1184468583742038,-0.008609659038484097,-0.0675017237663269,-0.10362914949655533,0.18562009843066327,0.040332074454054234,-9.745181275606157
26.29,2.4000000953674316,177.0,23.09657859802246,23.163516998291016,-79.78276885345659,40.45894715415098,290.16612594604493,0.006879572756588459,-0.0045512886717915535,-0.8833637237548828,0.4686156213283539,-0.04012240442106658,-0.014324300329708415,3.079905789196231,0.09116163104772568,0.010601750575006008,-0.05272461101412773,0.16693678261712194,0.0661244990117848,-9.533311509490012
26.39,2.4000000953674316,179.0,23.06152153015137,23.903032302856445,-79.78276893249479,40.4589472223426,290.8070046234132,0.005505291745066643,-0.0035947354044765234,-0.8833633065223694,0.468642920255661,-0.05231987144650997,-0.011404643330439765,3.0768125339322476,0.06874862313270569,0.06002708151936531,0.06825117766857147,0.2698967850767076,-0.15185666726902128,-9.63611725509167
26.6,2.4000000953674316,191.0,22.95134162902832,26.32832336425781,-79.78276895930513,40.458947271491816,291.11467903137213,0.003678439650684595,-0.005614412948489189,-0.8836131691932678,0.4681696891784668,-0.05799625735517772,-0.013084292265487796,3.0744832012800067,-0.10534094274044037,-0.024995988234877583,-0.05094656720757485,0.15875482857227327,0.040892781321890656,-9.75306332230568
26.7,2.4000000953674316,198.0,22.940073013305664,25.501338958740234,-79.78276900409817,40.45894729627013,291.44306343078614,0.0028552748262882233,-0.007098592817783357,-0.8839382529258728,0.4675411581993103,-0.02297863877196357,-0.00562014919225109,3.0849542519411237,0.09142602235078813,0.097678080201149,0.0963207185268402,0.1534293307363987,-0.12443987706676128,-9.82219027519226
26.89,2.4000000953674316,207.0,23.069034576416016,23.091951370239247,-79.78276904766284,40.45894737689761,292.06378524780274,0.005887729581445456,-0.0063092154450714606,-0.8840211033821106,0.4673673510551453,-0.02164799994510933,0.010483386410015356,3.110781463231987,0.07314708828926086,0.1138600930571556,0.00969765428453684,0.1449501371383667,0.0030022437404841197,-9.807748821973801
26.99,2.4000000953674316,205.0,23.052757263183594,25.032184600830078,-79.78276909379106,40.458947465977566,292.69577758789063,0.007347322069108486,-0.008872694335877895,-0.8835673928260803,0.4681624472141266,-0.038610367730969805,0.01681047429022954,3.0849518837443624,0.07208442687988281,0.054584462195634835,0.09756796061992644,0.16439649632200598,-0.13354252089746296,-9.716951503157617
27.19,2.200000047683716,203.0,23.00392723083496,23.5849609375,-79.78276913268826,40.45894747849931,293.018794708252,0.008083591237664223,-0.009463532827794552,-0.8836790919303894,0.4679277837276459,-0.04849525914520812,0.02500570284239173,3.082141547635886,-0.06573447585105896,-0.06845513731241226,-0.040342822670936584,0.15854010784998535,0.0527933406829834,-9.733192144632339
27.39,2.299999952316284,205.0,22.95635032653809,24.65049934387207,-79.78276918730539,40.45894756681332,293.63405769348145,0.0059325504116714,-0.006729121319949627,-0.8839809894561768,0.4674368500709534,-0.0453587570691072,0.019904930093552785,3.079000306181141,0.020521707832813263,-0.03131643310189247,-0.07592480629682541,0.1830097551830113,0.10556130993179977,-9.8250296831131
27.49,2.299999952316284,206.0,23.00518035888672,24.70616149902344,-79.78276925369316,40.45894767432323,294.2628227996826,0.0014962389832362533,-0.005451847333461046,-0.8840170502662659,0.4674205183982849,-0.047647494378694484,-0.007716645262438239,3.1036561419078788,-0.059025131165981286,0.03026703000068665,-0.09485787898302077,0.11212302792817357,0.18059808935970068,-9.90684158563614
27.6,2.200000047683716,212.0,22.98639869689941,24.411945343017567,-79.78276933879725,40.45894767324433,294.57627647399914,0.00272183190099895,-0.0048423404805362225,-0.883905827999115,0.4676320254802704,-0.02266766784118236,-0.0006690843675251842,3.0849978358914183,0.13064740598201752,0.06586417555809021,0.02916911616921425,0.19437886202707888,-0.026080381656065584,-9.878714139461517
27.8,2.200000047683716,219.0,22.992658615112305,24.984474182128906,-79.78276934549422,40.458947714610936,294.88540046691895,0.006401079706847668,-0.002533830003812909,-0.883881688117981,0.4676598906517029,-0.04757649196543637,0.010642059058411129,3.097809489840675,-0.07773006707429886,-0.0751696452498436,-0.14361105859279633,0.17199758430942896,0.2123580086231232,-9.888169087171557
27.99,2.299999952316284,226.0,23.047748565673828,24.04616355895996,-79.7827693708499,40.45894784290668,295.50949066162116,0.008338852785527706,-0.004904620349407196,-0.8837127685546875,0.4679296612739563,-0.07014007522900065,0.014625265538314109,3.0971837005274976,-0.0869828537106514,-0.029539238661527637,-0.022056948393583298,0.15434811104089022,-0.009229165814467706,-9.847692321538926
28.1,2.200000047683716,226.0,22.990154266357425,25.00832939147949,-79.78276940835711,40.458947884869104,296.1379601287842,0.0032598145771771674,-0.012104603461921215,-0.8836768269538879,0.4679296016693115,-0.03774134432713993,0.04865079266581699,3.084381799791278,-0.036061715334653854,0.01065763644874096,-0.10774937272071836,0.2601005061529577,0.18512072794139384,-9.760947707891463
28.2,2.0999999046325684,220.0,23.052757263183594,22.74207305908203,-79.78276941669985,40.4589479154649,296.4464031982422,0.002742154989391565,-0.012079826556146143,-0.8837088346481323,0.4678732454776764,0.011085619975761305,0.04894009737259837,3.0774148253776152,0.19553405046463013,0.014080528169870375,0.12164119631052014,0.2371968345344067,-0.18015717275440693,-9.741864734888075
28.4,2.0,217.0,22.988903045654297,25.5649528503418,-79.78276947625713,40.458947960378495,297.07225387573243,0.00638505769893527,-0.0063950857147574425,-0.8838174343109131,0.4677448272705078,-0.010336776955788815,0.030617888730832463,3.062362676505571,0.16533316671848294,0.0693834125995636,0.07730589807033539,0.22527171229943635,0.14578692851588132,-9.658034373521808
28.59,2.0,219.0,22.90752029418945,25.620615005493164,-79.78276949726856,40.45894799276657,297.37876670837414,0.007937495596706867,-0.004978566896170378,-0.8837970495223999,0.4677766561508178,-0.04109011588609686,0.01898082801301619,3.0645589197031633,-0.04924188554286957,-0.06496148556470871,-0.08570075035095215,0.13332340562716127,0.1900725156068802,-9.780289127826693
28.69,2.0,219.0,22.908771514892567,26.11362648010254,-79.78276954908604,40.45894798322336,297.69319694519044,0.008116497658193111,-0.0045269811525940895,-0.8840223550796509,0.4673523604869842,-0.02262527408159944,0.01989808504997009,3.0748145486304814,0.046460568904876716,0.05367277562618256,0.07417990267276764,0.1680023828521371,-0.0790397649910301,-9.947282098531725
28.89,1.8999999761581416,221.0,23.01644897460937,23.46568489074707,-79.78276960706924,40.45894800554488,298.31526725769044,0.004632096271961927,-0.0073788673616945735,-0.8857110142707825,0.4641552567481994,0.0016528662458696625,0.02282458237886387,3.124387293717146,0.017654364928603172,0.002394632203504443,0.14775927364826202,0.19791259026154875,-0.21880483796820047,-9.903149653673172
29.0,1.8999999761581416,224.0,23.00518035888672,24.09387588500977,-79.78276972957094,40.45894801978428,298.9387337493897,0.0031616778578609232,-0.008490098640322685,-0.8872390985488892,0.4612209796905518,0.013394675231330744,0.03232346574153006,3.0841900504456747,0.04723171144723892,-0.03835311159491539,0.012472247704863548,0.2802845829539001,-0.08157073228619993,-9.757151110768321
29.1,1.8999999761581416,225.0,23.047748565673828,22.89315795898437,-79.78276978769462,40.4589480412459,299.25662391662604,0.003776656929403544,-0.00816222373396158,-0.887167751789093,0.4613595008850098,0.01284431714115264,0.028252021042233382,3.0803030734558794,0.10856830328702928,0.05422031506896019,0.02700046822428704,0.21155597163364293,-0.09865028475411236,-9.746792768239976
29.29,1.7999999523162842,223.0,23.080303192138672,21.41412734985352,-79.78276981436724,40.45894805590988,299.56454437255866,0.005504318047314882,-0.007631681393831969,-0.8866503238677979,0.4623448550701141,-0.002363421563320539,0.03217886782406792,3.0790583164624885,0.03912859037518501,0.009519323706626892,-0.05390268191695213,0.1937908696755767,0.09109200934879484,-9.765054792165756
29.39,1.7999999523162842,219.0,22.998918533325195,23.49749183654785,-79.78276983980021,40.45894806776656,299.87268035888667,0.0074084154330194,-0.006631549913436174,-0.8859230279922485,0.463725745677948,-0.011738248503729102,0.03232992142957086,3.0809669974712635,-0.033180098980665214,-0.05601342022418977,-0.06159055605530739,0.20053373258560891,-0.01294914328493178,-9.818231710195542
29.6,1.8999999761581416,217.0,23.01018714904785,23.34640884399414,-79.78276992599636,40.458948075778366,300.5011765289307,0.007802924606949091,-0.008157606236636639,-0.8854020833969116,0.4646889269351959,-0.019050090869433843,0.03949672498031472,3.0888594699692784,-0.0680113360285759,0.0036031110212206854,-0.04146634042263031,0.16869158685207367,0.09100266572088003,-9.754902271628383
29.79,2.0,219.0,23.041488647460927,22.48761749267578,-79.78276996793353,40.45894808441444,301.1274639892578,0.006114865187555552,-0.009658083319664,-0.8856115341186523,0.4642862379550934,-0.012963978749993372,0.042762868702674484,3.082872808735092,-0.05030901357531548,-0.0015543537447229028,0.08474275469779967,0.1944671001657844,-0.2352193975634873,-9.864144047498703
29.89,2.0999999046325684,225.0,23.020204544067386,24.04616355895996,-79.78276999139749,40.45894809550515,301.43583457946784,0.003926300443708897,-0.011021364480257034,-0.8855480551719666,0.4644006788730621,-0.00012924719962434386,0.0462989877292516,3.0794217727501936,0.044524263590574265,0.027400348335504532,0.039987821131944656,0.1952968931570649,-0.0992426168359816,-9.774455945491793
30.09,2.200000047683716,226.0,22.91628456115723,24.133634567260746,-79.78277010902508,40.45894816067853,302.06188934326167,0.0050837979651987535,-0.007895058952271938,-0.8847694993019104,0.4659343659877777,0.0003107070507195365,0.028117357939178682,3.0609015300137155,0.07780102640390396,0.01765711791813374,0.08276785910129547,0.18051030803471804,-0.2736128185316921,-9.728821935653688
30.2,2.200000047683716,224.0,22.97012138366699,23.632671356201172,-79.78277019549951,40.45894811797482,302.3844792175293,0.006108801811933518,-0.007353885564953089,-0.8843376636505127,0.4667499959468842,-0.02876194624396307,0.043261398457431,3.077622927648479,-0.005646139848977327,-0.0528605692088604,-0.036989208310842514,0.16768566476181151,-0.038722367961891,-9.764629114866258
30.4,2.299999952316284,225.0,23.022708892822266,22.47171401977539,-79.78277019696256,40.458948168181465,302.99961631774914,0.010328957810997965,-0.006638914346694946,-0.88377845287323,0.4677446484565735,-0.058479523811913424,0.046851462299815336,3.072438027537234,-0.03147025778889656,-0.010718806646764278,-0.11146688461303712,0.2425692928209901,0.06030154930427671,-9.718556563854216
30.49,2.299999952316284,226.0,23.04023742675781,22.32858085632324,-79.78277023537487,40.458948241299034,303.3184735107422,0.011498469859361649,-0.005622412543743849,-0.883800208568573,0.4676894545555115,-0.06563896965654441,0.0446130227142285,3.083274662635228,0.06588877737522125,0.014587912708520891,0.03539939597249031,0.22498799443244927,-0.22726347494870425,-9.821016154289246
30.69,2.299999952316284,222.0,23.089067459106445,21.764005661010746,-79.78277023040522,40.45894826888247,303.94384735107417,0.01381972897797823,-0.004859458189457655,-0.8848649859428406,0.4656173586845398,-0.07803778263715197,0.0340166043416488,3.086105409932252,0.03851170837879181,0.03870460018515587,0.1304706484079361,0.17612849598750474,-0.27945908401161434,-9.863097395896911
30.79,2.4000000953674316,220.0,23.032724380493164,21.98665428161621,-79.7827702417542,40.4589482973967,304.25286071777344,0.01593862660229206,-0.0068284356966614715,-0.8855709433555603,0.4641804099082947,-0.08254620293894079,0.03855141656362007,3.08425235550134,0.03473805636167526,0.055816836655139916,0.054288171231746674,0.15839303210377695,-0.07702825885266068,-9.747682129740717
30.9,2.5,213.0,22.987651824951172,23.632671356201172,-79.78277025796606,40.45894832644018,304.56059997558594,0.016144033521413803,-0.007085063494741918,-0.8858649730682373,0.4636081755161285,-0.08706896283503797,0.04805801298992779,3.0636657993514733,-0.03776131570339203,-0.07454153895378113,0.09493005275726316,0.11529221881181002,-0.2414515244588256,-9.683268617391587
31.09,2.5999999046325684,211.0,23.08405876159668,21.93894386291504,-79.78277037716634,40.458948393640384,305.1778866577148,0.010544351302087307,-0.006621182896196842,-0.8855993747711182,0.4642829895019531,-0.08391037473014237,0.022535965519305853,3.0614860386985887,-0.1123594492673874,-0.0598149448633194,-0.052888594567775726,0.1925011566281319,-0.2385292688012124,-9.804062737226486
31.29,2.700000047683716,205.0,23.03147315979004,22.956771850585927,-79.78277044271505,40.458948496447135,305.7988125610352,0.013184967450797558,-0.002480922732502222,-0.8847728967666626,0.4658292829990387,-0.09047145376642947,0.0018592146793918183,3.041352348032728,0.08520225435495378,-0.02982220239937305,0.02771923877298832,0.1296317842975259,-0.4287181439995766,-9.631524267196657
31.4,2.799999952316284,202.0,23.0715389251709,21.445934295654297,-79.78277046139767,40.45894856825497,306.10187881469733,0.01781703718006611,0.002415372058749199,-0.884627103805542,0.4659525752067566,-0.12737903761732286,-0.010582017869196395,3.0236941157947146,0.17557290196418762,0.03384719043970108,-0.1047654077410698,0.10460774783045054,-0.19175439409911635,-9.64865427017212
31.5,2.799999952316284,198.0,23.07028579711914,22.169546127319336,-79.78277065664817,40.45894862003864,306.72369735717774,0.02427092380821705,0.009770080447196959,-0.8848950266838074,0.4650551676750183,-0.1559643452085002,-0.02958413372493688,2.9891014865446563,0.08719616383314133,-0.04904304817318916,0.034831803292036057,0.007906897366046906,-0.35677257735282186,-9.46329051733017
31.7,2.9000000953674316,198.0,22.97763442993164,24.316524505615234,-79.78277078552776,40.45894878686579,307.33306091308594,0.016124606132507324,0.007250453811138868,-0.8851901888847351,0.4648933708667755,-0.17321558683901786,-0.05964522536899505,2.961706830700199,-0.1727185845375061,0.08739471435546875,0.06440164893865585,0.09266562298871578,-0.4870468975603581,-9.597987561821938
31.89,3.0,197.0,22.92254447937012,23.767852783203125,-79.78277081064596,40.458948829512586,307.6294285583496,0.012983380816876888,0.002057909034192562,-0.8855729699134827,0.4643144309520722,-0.13611264144205507,-0.028945606043660393,2.9597414968422577,-0.09022794663906096,0.017296036705374718,0.02551419474184513,0.13209048366174106,-0.1771643850579858,-9.721273764967918
32.0,3.0999999046325684,198.0,22.94508171081543,24.32447624206543,-79.78277095911609,40.458948980726205,307.9368054199219,0.011897366493940352,-0.0010773491812869906,-0.8860904574394226,0.4633584320545197,-0.08542580316020118,-0.01129781339678832,2.9862274123644217,0.07915806025266647,0.08422360569238663,0.09487266093492508,0.1571755687147379,-0.3556755300611258,-9.858922483921052
32.19,3.2000000476837163,199.0,22.972625732421875,23.56110572814941,-79.78277101361799,40.458949069399296,308.53971832275386,0.015453830361366272,-0.0016409842064604163,-0.8870297074317932,0.4614507853984833,-0.07815688060420066,0.028946477813873894,2.991469848706353,0.2002229541540146,0.04562637582421303,0.2022654116153717,0.16690102323889733,-0.4460671617463231,-9.870710470676423
32.3,3.2000000476837163,200.0,23.015195846557607,22.71026611328125,-79.78277100711075,40.45894909985448,308.83997314453126,0.0177960954606533,0.00044846787932328874,-0.8875845670700073,0.4603006541728973,-0.11392343396791475,0.03775721184733821,3.005985579601784,-0.02289185486733913,-0.03552210330963135,0.03758099675178528,0.1906124694272876,-0.2909915839880705,-9.893819836378098
32.4,3.2000000476837163,204.0,22.952592849731445,24.82543754577637,-79.78277099230577,40.45894912690789,309.14047973632813,0.019394060596823692,0.002075304510071873,-0.8883233070373535,0.4588042795658112,-0.12673979645698993,0.043862759433822535,2.99654769348271,0.05637405812740326,0.02777509763836861,0.07566346973180771,0.1237682512588799,-0.367533135227859,-9.720065145492557
32.59,3.2000000476837163,208.0,22.91878890991211,25.708086013793945,-79.78277099815244,40.45894923613734,309.7347332763672,0.019271403551101685,0.0011225084308534858,-0.8887573480606079,0.4579714238643646,-0.14007199861632394,0.05715246225536976,2.9857179020713582,-0.08566614240407944,-0.014508939348161219,0.004877784755080938,0.32658680163323883,-0.2982397742383182,-9.865847926139832
32.79,3.2000000476837163,213.0,22.936317443847656,23.250986099243164,-79.78277099574208,40.45894929378335,310.33557861328126,0.015534515492618084,-0.0036151416134089227,-0.8884724974632263,0.4586527347564697,-0.1126797631484124,0.08427793068746084,3.022627308098877,-0.0669255182147026,-0.03666570410132408,-0.0911736711859703,0.28302135396748784,-0.2104435205832124,-10.023239768743517
32.9,3.2000000476837163,218.0,22.88873863220215,23.91098403930664,-79.78277094853169,40.4589492868754,310.63942306518555,0.01495992951095104,-0.005905707366764546,-0.8881042599678041,0.4593607187271118,-0.07555967974939297,0.10199695554939177,3.0455688942222667,0.1556328386068344,0.11092597246170044,0.033384673297405236,0.3603178172931075,-0.2882569691352546,-10.042601069211964
32.99,3.0999999046325684,225.0,22.882478713989247,25.827362060546875,-79.78277081344139,40.45894936558285,311.2429501342773,0.01887692324817181,-0.011625408194959164,-0.8864998817443848,0.4621975123882294,-0.09060487332376264,0.13909982203581478,3.061987885008332,0.04238880053162575,0.06757766753435135,0.00858778040856123,0.438134609721601,-0.35155481446534403,-10.033464210033415
33.2,3.0999999046325684,231.0,22.8424129486084,25.000377655029297,-79.78277064592037,40.45894938216256,311.85236328125,0.02031403407454491,-0.01100044511258602,-0.8854156732559204,0.4642256200313568,-0.09027634693192058,0.16783416062025214,3.0685505234903974,0.012636185623705387,-0.02104226872324944,0.01830466091632843,0.4644505519419909,-0.3304660272225738,-9.975478541851043
33.4,3.0,236.0,22.887487411499023,25.37411117553711,-79.78277059617876,40.45894937275328,312.1605145263672,0.020342601463198662,-0.010654121637344359,-0.8852806687355042,0.4644899964332581,-0.09362857787424954,0.15825337947675,3.0815841495484912,0.0337807759642601,0.07064156234264374,0.018527396023273468,0.3788460722565651,-0.0987093142233789,-9.915151648521423
33.5,3.0,239.0,22.86620140075684,25.77169990539551,-79.7827706719001,40.4589494187106,312.455577545166,0.020013272762298584,-0.012258782982826231,-0.8852100968360901,0.4645991921424866,-0.08669660956239196,0.1418840911256657,3.051069795080145,-0.04125850647687912,0.02930988930165768,0.03388863801956177,0.3579743994399905,-0.2441839648783207,-9.897117666006089
33.7,2.9000000953674316,237.0,22.87872314453125,24.93676376342773,-79.78277061695128,40.4589494166027,313.06597869873053,0.019242463633418083,-0.015805725008249283,-0.8852538466453552,0.464441180229187,-0.07722471506993872,0.15921997132814866,3.0508740714377773,-0.08379315584897995,-0.031566131860017776,0.05617743730545044,0.3176003620773554,-0.28585805755108595,-9.875747262239457
33.79,2.9000000953674316,240.0,22.87496566772461,24.88905143737793,-79.78277058369838,40.458949415217305,313.67675750732417,0.014727943576872347,-0.01416859496384859,-0.8842129707336426,0.4666367471218109,-0.040798740669092684,0.12981771674274906,3.049665062241582,0.09157922118902206,0.09330128133296968,-0.045286625623703,0.2921060632914305,0.07919102515093983,-9.783103392720225
33.99,2.9000000953674316,242.0,22.88122749328613,23.72809410095215,-79.78277067622888,40.45894943816362,313.9830815124512,0.014573006890714169,-0.01372523233294487,-0.883392333984375,0.4682064354419708,-0.05194232901338775,0.11076473401173734,3.0615338750838568,-0.026090741157531745,-0.06614921241998672,-0.012408324517309666,0.3059929811954498,-0.06371944785118103,-9.963664827346802
34.09,2.9000000953674316,244.0,22.889991760253906,24.54712677001953,-79.78277068192516,40.458949443609406,314.29106109619136,0.017670489847660058,-0.012311301194131373,-0.8829007148742676,0.46906578540802,-0.042417131450615694,0.11154580921425963,3.093334811912837,0.06232384219765664,0.008189897052943707,-0.16492676734924314,0.3216429442539812,0.16229465983808042,-9.993331260681153
34.29,2.9000000953674316,248.0,22.89124298095703,24.29266929626465,-79.78277071850476,40.4589494713998,314.9143940734864,0.023678286001086242,-0.009402154944837092,-0.8841063380241394,0.4665909111499786,-0.07679582528603028,0.12465792761595335,3.1179318321945355,-0.06558790057897568,-0.05442395433783531,0.061648555099964135,0.4632110518589616,-0.24578257536515594,-9.959244332313538
34.4,2.9000000953674316,249.0,22.920040130615234,24.54712677001953,-79.78277072887838,40.45894945188557,315.2273442077637,0.022049054503440857,-0.010213949717581272,-0.8854599595069885,0.4640800356864929,-0.0713509898985461,0.1282114672805788,3.1355184158218616,-0.02709686011075973,0.08553215861320496,0.05181097239255905,0.4469061641022563,-0.17716179035604002,-9.965786197185516
34.59,2.9000000953674316,249.0,22.940073013305664,22.670507431030273,-79.78277083948856,40.45894940499347,315.8606449890137,0.014213025569915771,-0.017601426690816883,-0.8880771994590759,0.4591374099254608,-0.0148953404379762,0.12737223038480533,3.184515253791316,-0.0060573695227503785,0.14877288043498993,0.00919462274760008,0.4889532725885511,-0.1879167568311096,-10.1193352496624
34.69,2.9000000953674316,249.0,22.92129325866699,22.47171401977539,-79.78277086159062,40.45894933903427,316.177802734375,0.01215214841067791,-0.02066592499613762,-0.8889936208724976,0.4572918117046356,-0.0002326322907627125,0.14483301541148386,3.1810241248113846,-0.06431690603494644,0.006675641983747482,-0.09153294563293456,0.4200243575870991,0.06065643874928355,-9.916205316781998
34.89,2.799999952316284,253.0,22.952592849731445,22.018461227416992,-79.78277091270961,40.45894930793712,316.8129727172852,0.015038252808153631,-0.020143952220678333,-0.889198899269104,0.4568298757076264,0.019051302431113845,0.13928090608644456,3.1678512114784514,0.1596132069826126,0.011675858870148659,0.0578313060104847,0.3399869388341904,-0.10227048782631756,-9.743851618766783
35.0,2.799999952316284,255.0,23.015195846557607,21.40617561340332,-79.78277106698847,40.45894931635258,317.452403717041,0.020118437707424164,-0.01558287627995014,-0.8887640237808228,0.4576581120491028,-0.02709105035837125,0.10627094165457912,3.122638037390607,-0.0011944241123273967,-0.031061798334121708,-0.03110936656594276,0.3406698570773006,-0.07049536123406143,-9.539700177311898
35.19,2.799999952316284,258.0,22.89249610900879,23.75990104675293,-79.78277115060563,40.45894932693631,317.7785450744629,0.02108214423060417,-0.014683708548545837,-0.8885011672973633,0.4581547379493714,-0.03058660401424207,0.10254465624107506,3.113756980273587,0.022384164854884148,0.008089878596365452,-0.07975063472986221,0.4297976496443153,-0.030762959858402605,-9.537313928604128
35.29,2.799999952316284,262.0,22.89875602722168,23.25893783569336,-79.78277121567649,40.45894932153964,318.0894047546387,0.02001745626330376,-0.013241791166365148,-0.8882877230644226,0.4586599767208099,-0.030751388343306107,0.09454959881878744,3.1021787731344954,-0.01821659505367279,-0.027952522039413445,0.00983051210641861,0.40828629143536094,-0.2142813771218061,-9.675620459318159
35.49,2.700000047683716,263.0,22.94257736206055,23.227130889892567,-79.78277139676706,40.45894927322081,318.7354847717285,0.012841688469052315,-0.013474272564053535,-0.8883708119392395,0.4587492048740387,0.0068062484770577535,0.07961225268176361,3.1399809680408084,-0.04081030562520027,-0.01934338361024857,0.053185924887657166,0.31316130213439464,-0.15054655292071406,-9.769790452122686
35.6,2.700000047683716,264.0,23.001422882080078,19.457990646362305,-79.78277160045448,40.45894920665989,319.3808781433105,0.008458069525659084,-0.016109948977828026,-0.8889086246490479,0.4577231705188751,0.05269296229793816,0.06710011840322508,3.1588854769500174,-0.06718698143959045,-0.0164212416857481,0.04150902479887009,0.2780812424607575,-0.061874313270673165,-9.697946882843972
35.8,2.5,262.0,22.96511459350586,22.074125289916992,-79.7827716873702,40.458949181710075,319.69540756225587,0.009518873877823351,-0.015998611226677898,-0.8888293504714966,0.4578602015972138,0.0612964878148566,0.07148673036605217,3.133865622453152,0.03543763607740402,-0.007335477042943239,-0.0504973977804184,0.3554880902543664,-0.009707364700734616,-9.580771604776382
35.9,2.5,260.0,22.980138778686523,22.137739181518555,-79.78277176757773,40.4589491650877,320.0075146484375,0.009594877250492571,-0.015506032854318619,-0.8886167407035828,0.4582878649234772,0.04406116519904652,0.07083535956297575,3.1083239621168475,-0.004975195042788982,-0.040580321103334434,-0.005872658453881741,0.3438658355176449,-0.1767178953252733,-9.55529528617859
36.09,2.4000000953674316,257.0,22.89875602722168,22.074125289916992,-79.78277190286902,40.45894908234885,320.6456524658203,0.009622682817280293,-0.014789163134992124,-0.8881672620773315,0.4591816663742066,0.03174012201097682,0.07099591803744347,3.0973160654681933,-0.035285156220197685,-0.056184865534305566,-0.08012957870960236,0.3323357840627432,-0.015499490902293475,-9.675270211100578
36.2,2.299999952316284,255.0,23.06653022766113,19.87943458557129,-79.7827720906102,40.45894903486147,320.97573440551764,0.009967871010303496,-0.01474896539002657,-0.887897253036499,0.4596973657608032,0.034613841891182065,0.06789603280179098,3.1218045254441034,-0.007893173024058342,0.022705785930156708,-0.08877737820148468,0.3144023736566305,-0.01556001186836511,-9.721854978203773
36.39,2.4000000953674316,248.0,22.89124298095703,22.57508659362793,-79.78277223815978,40.45894903856302,321.59303253173834,0.010093887336552143,-0.0184765812009573,-0.8876205682754517,0.4600940346717834,0.0055607406250139475,0.05438178061796181,3.051719189502528,0.017192019149661064,0.05245160683989525,0.021493099629878998,0.30824799645692114,-0.2400161243788898,-9.54667941391468
36.5,2.4000000953674316,245.0,22.998918533325195,21.056297302246094,-79.78277252695902,40.458949124700155,322.2273289489746,0.009948287159204485,-0.015586597844958304,-0.8878557682037354,0.4597502648830414,-0.009181424052472293,0.04346219648569686,3.0805715983737385,0.05202081426978111,-0.14180044829845428,-0.016781490296125412,0.2372125671990216,-0.21869134716689587,-9.682671031951905
36.6,2.5,242.0,23.05526161193848,20.412202835083008,-79.78277268872964,40.45894913832817,322.5468556213379,0.011163482442498207,-0.00966458860784769,-0.8874691724777222,0.4606306254863739,-0.028749897468030607,0.019078212855812987,3.054882107247263,0.04455894604325295,-0.03923650085926056,-0.12685921788215634,0.3000751969590783,-0.14786930473521356,-9.481793446540832
36.8,2.5,239.0,22.826135635375977,24.411945343017567,-79.7827727597933,40.458949200053354,322.84999053955084,0.012407280504703522,-0.004927541594952345,-0.8870044350624084,0.4615680575370789,-0.06198146322876411,-0.006149058055509554,3.016001931763184,0.06594090163707733,-0.003029963001608849,-0.08475052565336227,0.3518263445422053,-0.21715100783854724,-9.49464211821556
36.99,2.5999999046325684,235.0,22.92129325866699,23.577009201049805,-79.78277309344253,40.45894934063599,323.4771649169922,0.017522763460874557,-0.0002980819554068148,-0.8866081237792969,0.4621894061565399,-0.0992657991917447,-0.021524071428758784,3.065238877787768,0.018178453668951988,0.03879448026418686,0.05918896198272705,0.1951549519971013,-0.2964887158758939,-9.846595383882525
37.1,2.5999999046325684,233.0,22.936317443847656,22.88520622253418,-79.78277314414406,40.458949390052794,323.7841259765625,0.019207680597901344,-0.0020071605686098337,-0.886740505695343,0.4618639647960663,-0.12078490243544455,-0.007054606310091915,3.074911498150744,-0.04210226237773895,0.025431286543607712,-0.14523322880268094,0.3307369360327721,-0.11417185574769975,-9.873636417388916
37.2,2.700000047683716,228.0,22.910024642944336,21.756053924560547,-79.78277327568699,40.45894961059114,324.40560119628907,0.017485545948147774,-0.008483845740556717,-0.8881678581237793,0.4591080248355866,-0.12405481714644688,0.0250918342875232,3.0932519332083284,0.03937637805938722,0.056068625301122665,0.11881892383098602,0.20824354223907002,-0.3290356520935893,-9.91023180127144
37.39,2.799999952316284,227.0,22.9638614654541,22.16159439086914,-79.78277344453826,40.458949795788385,325.0176770019532,0.02059314399957657,-0.0050400178879499435,-0.8890734314918518,0.4572735130786896,-0.1127508148402436,0.03058188030421581,3.0575584172197328,0.1491648554801941,-0.0690532997250557,-0.008344914764165878,0.29542373690754176,-0.17507356692105533,-9.816249504089356
37.59,2.9000000953674316,226.0,22.93130874633789,23.24303436279297,-79.78277348040109,40.45894986134849,325.3223377990724,0.02337023988366127,-0.0004639629914890975,-0.8889690041542053,0.4573705196380615,-0.13577056683684258,0.02002616727627824,3.0301760402834126,0.07258987426757812,0.02672847919166088,-0.06730015575885773,0.3447733964771033,-0.2327565320581197,-9.5568278414011
37.7,3.0,225.0,22.84867286682129,24.348331451416016,-79.78277359721773,40.45895006093248,325.61827438354493,0.02352328039705753,0.0012932680547237394,-0.8888678550720215,0.4575576186180115,-0.16723239763760747,-0.006627636026529521,2.977061755025,-0.010838794521987438,0.031112512573599805,-0.060617174953222275,0.2951883316598833,-0.26770152105018497,-9.445364708304403
37.89,3.0,228.0,22.88873863220215,23.974597930908203,-79.7827736694093,40.458950182643406,326.21279495239264,0.01673271507024765,-0.00029056650237180287,-0.8888135552406311,0.4579633474349976,-0.15605634033722687,-0.004497479721521563,2.976887353253305,-0.19511720538139346,-0.029341276735067368,-0.1266804337501526,0.2683166664093733,-0.1350344014260918,-9.846460897922515
37.99,2.9000000953674316,228.0,22.88498306274414,22.86930084228516,-79.78277375303628,40.45895037359858,326.8185574340821,0.016352256760001186,-0.005081302020698786,-0.8888903260231018,0.4578001499176026,-0.11015848600660554,0.012820626988648104,2.9820299352273327,0.015968909487128258,0.057006910443305976,0.046041276305913925,0.14560814989730714,-0.20077149499207736,-9.69415847182274
38.1,2.9000000953674316,228.0,22.833648681640625,23.96664619445801,-79.78277384439322,40.45895050622363,327.1206852722168,0.0180788803845644,-0.005259893834590912,-0.8891222476959229,0.4572824239730835,-0.12095108739631005,0.029189994672690636,2.9920137823628536,-0.06106186658143997,-0.039481248706579215,-0.10506445169448853,0.2291374710202217,-0.0967395699955523,-9.816615539789199
38.3,3.0,227.0,22.93882179260254,22.257015228271484,-79.7827738525139,40.458950557924105,327.42030685424805,0.017504850402474403,-0.004194746259599924,-0.8894057869911194,0.4567640721797943,-0.11980227357022134,0.040479228055002286,2.9985991330016937,0.04715436324477197,0.02177221141755581,-0.0009706363780424,0.2697061293013394,-0.32501499697566033,-9.876701527833939
38.49,3.0,224.0,22.86995887756348,24.21315193176269,-79.78277392664779,40.45895072668362,328.01796310424805,0.017304282635450363,-0.004091149196028709,-0.8890635371208191,0.4574384689331055,-0.11965535850020755,0.026983712993552608,2.9995032358211136,0.04606076329946518,-0.01574924774467945,-0.010690693743526936,0.2700901817344129,-0.3426195745915175,-9.888954952955249
38.59,3.0,223.0,22.882478713989247,23.36231231689453,-79.78277393017615,40.458950778174476,328.3187367248535,0.02019685879349709,-0.002965726424008608,-0.8883956670761108,0.4586246311664581,-0.12368491711330305,0.03885082826134087,3.0123797154768157,0.11376345157623292,-0.02152363210916519,0.03086135350167752,0.2226403008028865,-0.3068780303746462,-9.905528301000595
38.7,3.0999999046325684,222.0,22.920040130615234,23.266889572143555,-79.78277398838914,40.45895098412293,328.9160420227052,0.022987626492977142,0.001011132961139083,-0.8872833847999573,0.460650384426117,-0.15344757919692067,0.03657645297523632,2.9985344018354594,0.05973920971155167,0.04545775055885315,0.08466678857803345,0.16769032426178454,-0.4286566385999322,-9.715297910571099
38.9,3.0999999046325684,221.0,22.84491729736328,24.68230628967285,-79.78277410014266,40.458951129569776,329.50958602905274,0.02041047625243664,-0.0017820774810388684,-0.8872225880622864,0.4608865082263946,-0.1380052887035921,0.029597073410252993,2.9724852952566767,0.0742814913392067,0.08607412874698639,0.07628434896469116,0.1691162226162851,-0.3379173899441958,-9.731779457330703
39.09,3.0999999046325684,220.0,22.82363319396973,25.42182159423828,-79.78277410921481,40.45895116626409,329.8072315979004,0.0201127752661705,-0.002684127306565643,-0.8874952793121338,0.4603698551654816,-0.1363544010545543,0.03567361641496065,2.9748048509455867,-0.07874662429094315,-0.09116247296333313,0.02443954721093177,0.19503990802913904,-0.19116589011624452,-9.814208825826645
39.2,3.2000000476837163,219.0,22.90251159667969,24.24495887756348,-79.78277415910472,40.45895125405689,330.10522430419917,0.02197251282632351,-0.0016861894400790336,-0.8878315687179565,0.459640771150589,-0.1183748771808021,0.04340877702034186,2.9682537900460524,0.1255156695842743,0.02234926074743271,0.15381799638271332,0.2218035094253719,-0.3992623931542039,-9.799648089408873
39.4,3.2000000476837163,217.0,22.841161727905273,24.411945343017567,-79.78277417495327,40.45895131429789,330.6969219970703,0.02395530790090561,-3.1119868708628933e-06,-0.8883646130561829,0.4585133194923401,-0.14192744782178598,0.04094942635234647,2.9560464539877667,0.07551856338977814,0.03799968585371971,0.10398025810718536,0.1865377641096712,-0.4856957522034646,-9.841903578042984
39.5,3.299999952316284,217.0,22.78481864929199,23.815563201904297,-79.78277413500619,40.458951417799355,331.29056900024415,0.02082292176783085,-0.0003616335743572563,-0.8889279365539551,0.4575735032558441,-0.14745765255678234,0.06150031306254624,2.9773049097402517,-0.0195806622505188,-0.005162621382623911,-0.07281995564699173,0.2951427964679897,-0.5107047320902348,-9.88906137228012
39.69,3.4000000953674316,217.0,22.84491729736328,24.88905143737793,-79.78277416036681,40.45895147941421,331.58736770629883,0.02081288211047649,-0.0005435500643216076,-0.8890435695648193,0.4573489725589752,-0.12103876468853447,0.06520673535342204,2.9849152153464464,0.10394182056188583,0.11569470167160036,-0.033923700451850884,0.3301900386437774,-0.489223194681108,-9.9866139793396
39.8,3.4000000953674316,215.0,22.80610275268555,25.1673641204834,-79.78277413750227,40.45895149187207,331.8872448730469,0.02338571473956108,-0.00015236918989103287,-0.8890771865844727,0.4571596086025238,-0.1387810679473373,0.07012714373986259,3.001358262423351,-0.006750002969056368,-0.03718594461679458,-0.11148829013109207,0.2535169433243573,-0.2081514485925436,-9.909836529493331
40.0,3.5,214.0,22.73598861694336,26.14543342590332,-79.78277419133727,40.45895158931718,332.4821049499512,0.02735676430165768,0.0009958554292097688,-0.8890425562858582,0.4570055603981018,-0.16269357137593798,0.07365696444099533,2.9738236686125212,-0.1711837500333786,-0.09677968919277193,-0.06427167356014253,0.27823136972263457,-0.35897409059107305,-9.762535811662676
40.1,3.5,214.0,22.807355880737305,24.006404876708984,-79.78277418343585,40.458951594310605,332.77983825683594,0.02491633035242557,-0.0002553333179093897,-0.8887285590171814,0.4577561616897583,-0.1557807949789065,0.07682254718133665,2.9735320605932527,-0.09024421125650406,0.018004339188337326,-0.055250223726034164,0.2284833868592977,-0.3101303248107434,-9.73278634786606
40.29,3.5999999046325684,214.0,22.83865737915039,25.31049728393555,-79.78277424157079,40.45895163319385,333.3745877075196,0.024189801886677745,-0.0019175522029399872,-0.8877314329147339,0.4597218334674835,-0.1234803266992017,0.0743498571781623,2.962479515890045,-0.1407642513513565,-0.11528635770082475,0.08800656348466873,0.21298718729987745,-0.4746654184162617,-9.812348241806033
40.39,3.5999999046325684,214.0,22.708444595336914,26.16133689880371,-79.78277424228547,40.45895162648948,333.6715657043457,0.023742778226733208,-0.003136859973892569,-0.8878470659255981,0.4595150947570801,-0.116668703980941,0.0814667739290057,2.9692868940440262,0.005005365703254938,0.00913615431636572,-0.02558748796582222,0.25771431226283315,-0.3394191011041403,-9.797943041324617
40.59,3.700000047683716,213.0,22.747257232666016,23.9825496673584,-79.78277429750905,40.458951696427604,334.2704159545898,0.021344872191548347,0.0014883116818964481,-0.8882242441177368,0.4589116275310517,-0.11169003273988301,0.06091121143024782,2.991802855378703,0.061140377074480064,-0.021646913141012192,0.1095016673207283,0.1724052448756993,-0.6115563016757369,-9.930549706220626
40.71,3.700000047683716,213.0,22.86495018005371,24.157489776611328,-79.7827742720353,40.45895175668364,334.86896865844733,0.028518807142972943,0.00024738372303545475,-0.888149619102478,0.4586687982082367,-0.13898998821416594,0.06653688380056376,2.979095149501941,0.14592351019382474,0.02218312956392765,0.16667790710926056,0.18385012798011305,-0.613096348643303,-9.710159377455712
40.89,3.700000047683716,210.0,22.77480316162109,24.94471549987793,-79.78277426392094,40.458951758203504,335.1670147705078,0.029689835384488106,0.0006488768849521875,-0.8879780173301697,0.4589262306690216,-0.15563724512399232,0.08011788752088236,2.9744811295344133,-0.026412177830934525,-0.08433842658996582,0.07584995031356813,0.2513917545229197,-0.6215366582572459,-9.760724928975105
40.99,3.700000047683716,211.0,22.816120147705078,24.642547607421875,-79.78277435639522,40.45895179524335,335.47088592529303,0.02838403917849064,0.00158921314869076,-0.8878979086875916,0.4591614007949829,-0.15356805774698346,0.07353824790417303,2.9918275598213286,-0.10307502001523973,-0.015998633578419685,-0.1797156035900116,0.1962718980945647,-0.2901229618303478,-9.88272415995598
41.2,3.799999952316284,210.0,22.700931549072266,24.849292755126953,-79.78277439729166,40.45895180101643,336.07499664306636,0.022232169285416603,-0.0015503281028941276,-0.8884097337722778,0.4585101604461671,-0.11695256201872813,0.06125080731358772,3.013897632539904,-0.0583956204354763,-0.0023592133074998856,0.08609228581190109,0.17968159312382342,-0.5387748390063644,-9.898246178627014
41.29,3.799999952316284,210.0,22.77980995178223,24.252910614013672,-79.78277441271575,40.4589517906631,336.37810485839844,0.020507035776972767,-0.003237710101529956,-0.8890095353126526,0.4574177861213684,-0.10205527145529214,0.06308559041596055,3.0455248710417067,-0.05881959944963455,0.06538745015859604,-0.11726046353578568,0.25295047603547577,-0.17341535137966274,-10.029064764976502
41.4,3.799999952316284,210.0,22.78356742858887,24.82543754577637,-79.78277461511858,40.458951818821454,336.98202484130866,0.02320241741836071,0.0016915425658226009,-0.889323353767395,0.4566868245601654,-0.07873731751569749,0.05479194907165935,3.0416560904539445,0.16164934635162356,0.026341194286942482,0.05302589014172554,0.24013376304879785,-0.5304381347447634,-9.844157094955444
41.59,3.799999952316284,213.0,22.747257232666016,25.58085632324219,-79.78277465023021,40.45895179201375,337.59352081298834,0.0243897195905447,-0.001746619236655533,-0.8898903131484985,0.4555188417434693,-0.11117326094494764,0.06881686565269139,3.0391935247556536,0.0437067449092865,0.14204567670822146,0.09862862527370453,0.2639218260347843,-0.2393650186434388,-9.74637410759926
41.8,3.9000000953674316,213.0,22.804851531982425,23.815563201904297,-79.78277465340159,40.45895176954032,337.89849822998053,0.02139158733189106,-0.005304163321852684,-0.8900772333145142,0.4552766680717468,-0.11724202217641405,0.0875739264804135,3.053839238125656,-0.20326562225818634,-0.03302573040127753,0.06695448607206345,0.2302506347000599,-0.452146475315094,-9.9302877509594
41.89,3.9000000953674316,214.0,22.70594024658203,26.10567283630371,-79.78277465336926,40.458951743092115,338.20471923828126,0.01922445371747017,-0.0068920468911528605,-0.8900024890899658,0.4554981589317322,-0.0898004033817772,0.1081228874400328,3.0691430913768496,-0.13108055293560028,0.06400839984416963,-0.2041694074869156,0.31742874629795553,-0.036009712144732475,-9.952778481245039
42.0,3.799999952316284,219.0,22.78481864929199,24.6027889251709,-79.78277475749822,40.45895176562835,338.8235928344726,0.019973453134298325,-0.007229901384562255,-0.8902086615562439,0.4550577104091644,-0.0772575631725702,0.11959160974718508,3.1154115284072077,0.10025173425674436,0.06443445384502411,0.014996738173067568,0.3625144334882498,-0.3611045601591468,-10.07750777721405
42.2,3.799999952316284,220.0,22.77229881286621,25.127605438232425,-79.78277474744084,40.458951785276774,339.4501110839844,0.033325206488370895,-0.002610381692647934,-0.8911525011062622,0.4524710178375244,-0.1235066132337369,0.1214616749034496,3.105669381774229,0.1092437580227852,0.18289653956890106,0.06469103693962097,0.245142506249249,-0.591518222540617,-9.78645209312439
42.39,3.5999999046325684,219.0,22.71720886230469,26.08976936340332,-79.78277472537741,40.4589517547259,339.7602612304688,0.029721314087510112,-0.007655189372599125,-0.8912060260772705,0.4525593519210816,-0.15362613737042288,0.13933991264800066,3.086883505868125,-0.17020517587661746,0.03853042423725128,-0.11376292258501053,0.3636295340582729,-0.25384997880086296,-9.666468397378924
42.49,3.5999999046325684,219.0,22.794836044311523,23.227130889892567,-79.78277472888679,40.4589517977404,340.07421844482417,0.025145193561911583,-0.010719582438468931,-0.8905885815620422,0.453987717628479,-0.09636134532059666,0.1417583220026319,3.100757906337672,-0.003705329960212112,0.036751966923475266,0.05616292357444763,0.17486812865361573,-0.3947418741881848,-9.907916303873062
42.7,3.5999999046325684,218.0,22.83865737915039,23.068096160888672,-79.78277483433479,40.45895179163989,340.7029110717773,0.02303796261548996,-0.014609817415475844,-0.8887670040130615,0.45754674077034,-0.05047073301645984,0.12295585810301701,3.0886582151589463,-0.06258510798215866,-0.006627402268350124,-0.046200405806303024,0.3065809552744031,-0.1669801981933415,-9.657399950623512
42.8,3.5999999046325684,217.0,22.68966293334961,26.10567283630371,-79.78277490151451,40.4589517743389,341.0106503295898,0.020296428352594376,-0.012489930726587772,-0.8885809779167175,0.4581004679203034,-0.03229620533571559,0.10428404916234517,3.058395493435856,-0.02796088717877865,-0.0988892912864685,-0.03905763104557991,0.31946792621165515,-0.2505005474947393,-9.531725744605064
42.9,3.5,214.0,22.79733848571777,24.30857276916504,-79.78277498221816,40.45895164173505,341.6493679809571,0.01578158140182495,-0.006088276859372854,-0.8882642388343811,0.4590213298797608,-0.03515902495271709,0.0375860076263117,3.0782094902810764,0.030022667720913887,-0.004601229913532735,0.07659655064344406,0.0782568502239883,-0.3389451477304101,-9.776827576160432
43.1,3.5,212.0,22.86870574951172,22.082077026367188,-79.78277526294029,40.45895165382938,342.2797467041016,0.017663143575191498,-0.002997682895511389,-0.8867958188056946,0.4618141055107117,-0.02345192496878971,0.005219984796792821,3.0806849951600586,0.1135196089744568,-0.006512526422739029,-0.02500041015446186,0.08330969422124326,-0.2967959139682353,-9.576144118309024
43.2,3.4000000953674316,205.0,22.826135635375977,24.197248458862305,-79.78277535361349,40.45895166275115,342.58561676025386,0.019182946532964703,0.0014276952715590596,-0.8864323496818542,0.4624584913253784,-0.05520630505456085,-0.005444204738465401,3.0425443859936,-0.009329743683338164,-0.10325111448764801,0.001968302996829152,0.1503295207209885,-0.3380569922178984,-9.527237421870232
43.39,3.299999952316284,203.0,22.87496566772461,23.64857482910156,-79.78277544697532,40.45895166818029,342.8896557617188,0.017916927114129066,0.005462164990603924,-0.8865276575088501,0.4622964859008789,-0.074269052346325,-0.023691429444673263,3.043975144378261,-0.112375445663929,-0.14137035608291626,0.029481504112482067,0.09683071346953513,-0.2152063883654773,-9.768933835029603
43.59,3.2000000476837163,199.0,22.74224853515625,25.23892974853516,-79.78277569174398,40.45895164746453,343.5193936157226,0.010033260099589823,0.006978890858590603,-0.8890838623046875,0.4575813114643097,-0.021591813157410003,-0.058012545408044826,3.0754951942875217,0.0338088721036911,0.06732260435819626,0.1622796356678009,0.03540065154433252,-0.40000959422439336,-9.842302358150482
43.69,3.2000000476837163,196.0,22.816120147705078,22.64665222167969,-79.78277592709401,40.45895161637501,344.15786712646485,0.008427616208791733,0.0005151425139047205,-0.8923981785774231,0.4511698484420776,0.0004913621789534741,-0.019079849172671973,3.144057774574977,-0.0366009846329689,0.025909004732966427,0.047609150409698486,0.06489323071204127,-0.17170641124248506,-9.969406793117523
43.9,3.2000000476837163,193.0,22.74850845336914,23.608816146850586,-79.78277598518329,40.458951582808716,344.47219818115235,0.010423633269965649,-0.0016033926513046026,-0.8934208750724792,0.4490968883037567,0.006966872530052997,0.005175731602299252,3.146327253649664,0.07602188736200333,0.12972140312194824,0.06567268818616867,0.19314939357340336,-0.37443814873695375,-9.921860743761066
43.99,3.2000000476837163,195.0,22.81987571716309,23.767852783203125,-79.78277628027965,40.458951572488,345.10952728271485,0.014138639904558659,-0.005903025157749653,-0.8935233354568481,0.4487555027008057,-0.009117973162444178,0.0233640022758524,3.1315209927768346,0.07260145246982573,0.07358841598033905,-0.04211974889039993,0.2497524145245552,-0.2921039802208543,-9.726259685754775
44.2,3.0999999046325684,195.0,22.76854133605957,24.32447624206543,-79.78277634148975,40.45895156243528,345.4224545288086,0.01511823106557131,-0.005071805324405432,-0.8928563594818115,0.45005929470062256,-0.03300185717485292,0.03997633548025725,3.1318686940848828,-0.041452504694461816,-0.06824351102113724,-0.11309920251369475,0.1933993620425463,-0.023945330246351662,-9.77216208279133
44.3,3.0,195.0,22.7785587310791,24.12568283081055,-79.7827764516256,40.458951605586094,345.7404705810547,0.016202501952648163,-0.003007071791216731,-0.8919953107833862,0.4517443180084229,-0.0195915824976286,0.0315923875019202,3.1319145717791437,0.08178345859050751,-0.03169155865907669,0.08372396975755693,0.1920838847011328,-0.4308541318774223,-9.875975303649902
44.49,2.9000000953674316,199.0,22.79608726501465,23.61676788330078,-79.78277657615955,40.458951660381324,346.37378662109376,0.015593316406011581,-0.0018030425999313593,-0.8905661106109619,0.454583078622818,-0.0410514507855408,0.026754792453407315,3.1438505265081407,0.09541559964418413,6.484507321147248e-05,0.08306104689836502,0.16718101350590586,-0.4833308823779226,-9.847754302024844
44.6,2.9000000953674316,200.0,22.79358291625977,23.680383682250977,-79.78277663188277,40.45895164698371,346.68818634033204,0.013113362714648248,-0.001878100680187345,-0.8901281952857971,0.4555178582668304,-0.049267571232061005,0.027838870866622317,3.142790439873212,-0.12415877729654312,-0.12116533517837524,-0.016603671014308933,0.21545633856207133,-0.22089278731495146,-9.814421664476397
44.69,2.799999952316284,202.0,22.94508171081543,22.17749786376953,-79.78277677152951,40.4589517075944,347.32510345458985,0.009689348749816421,0.00016329533536918459,-0.8902927041053772,0.4552858173847199,-0.025205709627507625,0.0229080273363548,3.144690294453835,-0.05233277007937431,-0.040721654891967766,-0.0012364069698378446,0.2097832603007555,-0.1797132594510913,-9.816559406518936
44.9,2.799999952316284,202.0,22.813615798950195,23.23508262634277,-79.78277688660832,40.45895173660313,347.96221130371094,0.01364157535135746,-0.0011928683379665015,-0.8910459280014038,0.4537067711353302,-0.039734218696743234,0.02935611275587185,3.161477763029315,-0.06439487636089325,0.031005509197711945,-0.08328525722026825,0.16476876296103002,-0.07844779836013914,-9.819761341810226
45.1,2.700000047683716,202.0,22.841161727905273,22.41604995727539,-79.78277690903435,40.4589517121144,348.27896087646485,0.016232259571552277,-0.0035335042048245673,-0.8915536403656006,0.4526103734970093,-0.03676163682813628,0.04843006178986167,3.173119090658026,0.035367701202631004,0.15847979485988614,-0.014720891602337359,0.22551314748823645,-0.2054560831747949,-9.930094792842867
45.2,2.5999999046325684,204.0,22.88873863220215,22.88520622253418,-79.78277698967054,40.45895173998047,348.60549896240235,0.01752045750617981,-0.0057062762789428225,-0.8919631242752075,0.4517325162887573,-0.056157767579782816,0.06645265149948362,3.1714519173304643,-0.14342930912971494,0.03072758764028549,-0.12230754643678665,0.2807148101180792,-0.08077879087999464,-9.80653610944748
45.39,2.5999999046325684,205.0,22.837404251098643,23.29074668884277,-79.78277704396162,40.458951686849375,349.2359768676758,0.015686249360442158,-0.005809443537145853,-0.892291784286499,0.4511492550373077,-0.034320834940337656,0.08011041841013865,3.1359484285930246,0.005959084257483482,0.03166571632027626,0.06247571110725403,0.2743054212257266,-0.3330321874469519,-9.697175635099413
45.49,2.5999999046325684,207.0,22.89875602722168,20.793888092041016,-79.78277716911678,40.45895169380482,349.87476318359376,0.014382045716047287,-0.006704536266624928,-0.8918325901031494,0.4520872533321381,-0.03863313898609237,0.06674587219750094,3.124164488174812,-0.045598454773426056,-0.008774274960160255,0.006234155036509037,0.25928617173805835,-0.3416301891580224,-9.681036150455474
45.69,2.5999999046325684,207.0,22.92880439758301,21.056297302246094,-79.7827771612505,40.4589517507396,350.20174377441407,0.01411615405231714,-0.0071371207013726234,-0.8915069699287415,0.4527308940887451,-0.04621337854726864,0.07692440041894183,3.1092106249309714,-0.047112155705690384,-0.01560843177139759,-0.10919052362442017,0.2822634817287326,-0.1424842932075262,-9.573726294636726
45.8,2.5999999046325684,210.0,22.794836044311523,23.688335418701172,-79.78277717062483,40.458951741744706,350.51106994628907,0.014692297205328941,-0.006881955079734325,-0.8912672400474548,0.4531881511211395,-0.04819495167575892,0.07390615070823475,3.072274399553723,0.0030700499191880226,-0.00695754261687398,0.0966937467455864,0.2297573672421277,-0.29672901816666125,-9.473611437678338
45.9,2.5999999046325684,212.0,22.847421646118164,22.55918312072754,-79.78277717599364,40.45895173839365,350.81697814941407,0.015693839639425278,-0.007016342598944902,-0.8911263942718506,0.4534294903278351,-0.056164102077056265,0.07563142146308657,3.045362904262272,0.0596044547855854,0.03647497668862343,0.043280646204948425,0.2562466794066131,-0.3906460458040238,-9.534989075660707
46.1,2.5999999046325684,214.0,22.83865737915039,22.29677391052246,-79.78277718639046,40.45895179285205,351.4550015258789,0.014938385225832462,-0.007255864795297384,-0.89075767993927,0.4541750252246857,-0.08213117437480985,0.09368786364314192,3.1026165648352526,-0.07995396852493286,-0.07597966492176056,-0.055179934948682785,0.3143248615041375,-0.20229933589696888,-9.970777380466462
