time,wind_speed,wind_angle,battery_voltage,battery_current,position_x,position_y,position_z,orientation_x,orientation_y,orientation_z,orientation_w,velocity_x,velocity_y,velocity_z,angular_x,angular_y,angular_z,linear_acceleration_x,linear_acceleration_y,linear_acceleration_z
0.0,1.0,125.0,23.62118911743164,-0.03180709481239319,-79.78276476500581,40.458959443104135,272.2865966706276,-0.0077875019051134595,0.009806079789996149,-0.7457119226455688,0.6661508679389954,0.0034501798436581146,-0.005043288227272624,0.0065394193302361035,-0.0028525798115879297,-0.0028035454452037807,-0.004380629397928715,-0.25289054207503797,-0.011410214368952438,-9.809636303186418
0.2,1.0,123.0,23.61868476867676,-0.039758868515491486,-79.78276478304896,40.45895944764708,272.280179813385,-0.007786485832184553,0.009810701943933964,-0.7457133531570435,0.6661492586135864,0.005878588456519209,-0.0036300174300756658,0.0035264658582787227,0.004004310350865126,0.0012036764528602366,0.004764892626553774,-0.2498624152690173,-0.029878929373808205,-9.812943488359453
0.3,0.8999999761581421,124.0,23.62619781494141,0.007951773703098297,-79.78276479380555,40.45895943990581,272.28095187234885,-0.007783951703459022,0.009815220721065998,-0.7457167506217957,0.6661454439163208,0.004412065538801993,-0.004946792878425032,0.003926851890373546,0.006432902999222279,0.005920845083892345,0.003712248289957642,-0.2513558124192059,-0.027777675327379257,-9.812918930053714
0.49,0.8999999761581421,124.0,23.623693466186523,0.0,-79.78276484015936,40.45895946361568,272.27719505119325,-0.007781584747135639,0.00981194619089365,-0.7457081079483032,0.6661550998687744,0.0008608699158804048,-0.008277261461211563,0.006409667448544987,-0.005279076285660267,-0.0021754014305770397,-0.006538360845297575,-0.25148178337141874,-0.019641418643295758,-9.810864218473435
0.6,0.8999999761581421,123.0,23.628700256347656,0.007951773703098297,-79.78276486997173,40.45895948085078,272.2726279644966,-0.007797229569405317,0.00981116108596325,-0.7457212209701538,0.6661402583122253,-0.0007354090031060183,-0.007023527434474965,0.004345502541468522,-0.006510407663881779,-0.0014046379365026946,-0.0019134352914989,-0.25123265543952583,-0.02675893732812256,-9.811747148036957
0.8,0.8999999761581421,123.0,23.62619781494141,0.007951773703098297,-79.78276487841427,40.45895948239345,272.2730893044472,-0.007803645450621843,0.009813717566430569,-0.7457191348075867,0.666142463684082,-0.0013345868302767835,-0.007796827408958937,0.004507599569917562,-0.0015060098376125095,-0.0004949539434164761,-0.004496035631746054,-0.2528524255380035,-0.015218734330264853,-9.81006782770157
0.9,0.8999999761581421,121.0,23.628700256347656,-0.03180709481239319,-79.78276490541082,40.458959472238604,272.26902212190635,-0.00781489722430706,0.009829917922616005,-0.7457115054130554,0.6661507487297058,0.0043067698822275464,-0.005502246858813587,0.0029488258866795466,-0.001399540458805859,0.0005988174234516919,-0.0045057926326990145,-0.25218312034383417,-0.011332882657879965,-9.809798271059993
1.1,1.0,121.0,23.623693466186523,-0.007951773703098297,-79.78276491267908,40.458959468787434,272.2693343906403,-0.007816947996616364,0.00983942486345768,-0.7457088232040405,0.6661535501480103,0.004395005688282062,-0.006338525350412536,0.0029884496107743467,0.006173092871904372,0.0007227925816550853,0.0062954104505479344,-0.25066832603886724,-0.0293556172773242,-9.81201495051384
1.2,1.0,120.0,23.62995338439941,-0.007951773703098297,-79.78276491569096,40.458959487110576,272.26736213254935,-0.007818209938704967,0.009877626784145832,-0.7457112669944763,0.6661501526832581,0.0008168174115570527,-0.002077521195163152,0.005516271505424866,0.006167412735521793,0.004469959530979395,0.004532346501946449,-0.2508079100400209,-0.026541174226440492,-9.811288726329805
1.39,0.8999999761581421,121.0,23.62619781494141,0.015903547406196594,-79.78276491805705,40.458959487334944,272.2679262905121,-0.007810838986188173,0.009872863069176674,-0.7457179427146912,0.6661428213119507,-0.0008979016719542703,-0.002455648388022432,0.00572836446375899,-0.004117686301469803,0.001179052167572081,-0.007085705641657114,-0.2508145977929235,-0.02054951864294708,-9.810953096151351
1.5,1.0,120.0,23.62744903564453,0.0,-79.78276493776283,40.458959532506974,272.2670801429749,-0.007809632923454045,0.009846556000411507,-0.745700478553772,0.6661628484725952,-0.007494254452839504,-0.003539971236158546,0.00786794735434551,-0.0014467778382822873,0.0003152606659568846,0.0001134600315708667,-0.2526051431335509,-0.027123566041700544,-9.811940106153491
1.7,0.8999999761581421,119.0,23.62494468688965,-0.015903547406196594,-79.78276497311687,40.45895952911835,272.263995066166,-0.007795437239110471,0.009845138527452946,-0.7457066178321838,0.6661561131477356,-0.0016407446601975836,-0.006270897613817402,0.004988175284473697,0.0012055407278239727,0.002088809385895729,-0.0008706190856173635,-0.2528024501167238,-0.014523412452545018,-9.809930418133737
1.8,0.8999999761581421,119.0,23.62744903564453,0.007951773703098297,-79.7827649882381,40.45895953464224,272.2650255112648,-0.007794134318828583,0.009823164902627468,-0.7457038760185242,0.6661595106124878,-0.003519959172217366,-0.007552900773987747,0.005065688954048356,-0.0031519797630608077,-0.0028731648344546556,-0.004694963805377482,-0.2526152113080025,-0.011871073177317159,-9.80912408709526
1.99,0.8999999761581421,116.0,23.62494468688965,-0.007951773703098297,-79.78276498806102,40.45895953741089,272.2639088182449,-0.007805868051946162,0.009832545183598995,-0.7457054257392883,0.6661575436592102,-0.00028493710562727464,-0.003019786570378949,0.006624156274802426,0.0028830571100115767,0.0016575594199821349,0.005901090335100889,-0.25072793109342456,-0.03014317327179015,-9.812140080928804
2.1,0.8999999761581421,117.0,23.62494468688965,0.007951773703098297,-79.78276503048306,40.458959516568704,272.26400764274604,-0.007811564486473799,0.009820275008678436,-0.7456905841827393,0.6661742925643921,0.008600957559559886,-0.0066923144094006605,0.008125785424116298,0.006635855417698622,0.002689246786758304,0.004611406940966845,-0.24976304914802314,-0.0272618275671266,-9.811584595441818
2.3,0.8999999761581421,115.0,23.628700256347656,0.0,-79.78276503935989,40.458959510337614,272.26485224056245,-0.007790477480739355,0.009804649278521538,-0.7456873059272766,0.6661784052848816,0.006819835245481412,-0.00708725186553115,0.008409141677690753,-0.005715847946703434,-0.0016761759761720894,-0.004941205959767103,-0.25118090758100153,-0.01790905652451329,-9.809714071154596
2.4,0.8999999761581421,115.0,23.62619781494141,0.015903547406196594,-79.7827650414027,40.458959509608434,272.26357336330415,-0.007818713784217834,0.009794785641133784,-0.7456795573234558,0.6661868691444397,0.005808255573760769,-0.0018114848324317773,0.005633364185612987,-0.007116342429071666,-0.004612850025296211,-0.003139924490824341,-0.2511965123377741,-0.02496869348455221,-9.812503777742387
2.6,0.8999999761581421,113.0,23.62494468688965,0.007951773703098297,-79.78276504445179,40.45895950464681,272.2641465811729,-0.007815506309270859,0.00979625154286623,-0.745676577091217,0.6661902070045471,0.005367837188493764,-0.002584841664610019,0.005774486879268964,0.0012632691068574786,0.0003560870827641338,-0.0008710540132597089,-0.2526753279939294,-0.01595023928093724,-9.810274819135666
2.7,0.8999999761581421,113.0,23.62494468688965,-0.015903547406196594,-79.78276506498612,40.45895951906441,272.26502145814896,-0.007808986119925977,0.009797058068215849,-0.7456798553466797,0.6661866903305054,0.0013789598945376429,-0.003330658829308873,0.0073863666305936096,-0.004073836375027895,-0.0010645046131685376,-0.007230713497847319,-0.25225727034732703,-0.012584510003216566,-9.809535146355632
2.89,0.8000000119209291,112.0,23.61492919921875,-0.10337305814027786,-79.7827650690802,40.45895951803865,272.2657689599991,-0.007814392447471619,0.009807819500565529,-0.7456814050674438,0.6661847233772278,0.0012561013275299928,-0.003997278911892222,0.007418070139978958,0.005121608264744282,0.003136145183816552,0.006457772105932236,-0.2496968477033079,-0.02984749145340175,-9.811772875785827
3.0,0.8000000119209291,112.0,23.59990310668945,-0.07156596332788467,-79.7827650925055,40.458959535022004,272.26486058521266,-0.0078003788366913795,0.009803030639886856,-0.7456896901130676,0.6661756038665771,-0.0009887924774607244,-0.004178136042352748,0.00484212393848151,0.005053837783634664,0.003213915508240461,0.004159142728894949,-0.2505333284474909,-0.02491769480053336,-9.810885268449784
3.1,0.8000000119209291,112.0,23.61117172241211,-0.08746951073408127,-79.78276511516344,40.45895953277402,272.2638418226242,-0.0077871307730674735,0.009808437898755074,-0.7456881999969482,0.6661773920059204,0.001825358066971129,-0.0029190120951465685,0.0031092513853840037,-0.003253904171288013,-0.0008169599459506571,-0.0054940334521234035,-0.2519253129512072,-0.02162452467251569,-9.81127937078476
3.3,0.8000000119209291,112.0,23.62995338439941,-0.007951773703098297,-79.7827651192027,40.45895953148899,272.2641574888229,-0.0077871307730674735,0.009808437898755074,-0.7456881999969482,0.6661773920059204,0.0015583989612717975,-0.0036950394140532867,0.003112198527527073,0.000516671861987561,-0.0010150929447263481,0.0015450919745489955,-0.25232509804889564,-0.017663696163799616,-9.810066658258439
3.39,0.8000000119209291,112.0,23.62244033813477,0.0,-79.7827651482259,40.458959547005634,272.2635219841004,-0.007789164315909147,0.00981111079454422,-0.7456901669502258,0.6661750674247742,-0.001308161605500811,-0.0034764459296342197,0.002061330962728152,-0.004040264058858156,-0.0020366290118545294,-0.0025745807215571412,-0.2525167222693563,-0.012336868999991566,-9.80954859495163
3.5,0.8000000119209291,112.0,23.619935989379893,0.0,-79.78276515236988,40.45895954853515,272.26373721647263,-0.0077870991080999374,0.009814919903874396,-0.7456901669502258,0.6661750674247742,-0.0015855715326048606,-0.0042143880751790075,0.002099610081969783,0.00319084688089788,0.002303923713043332,0.0041073597967624656,-0.2501187608577311,-0.03050376375205815,-9.813005468845368
3.7,0.8000000119209291,111.0,23.61868476867676,-0.015903547406196594,-79.78276518780616,40.458959563941214,272.2635994105339,-0.007786598522216082,0.00981607660651207,-0.7456933856010437,0.6661714911460876,-0.0026580710004685303,-0.004798166010463581,0.001506616847627091,0.003843359183520079,0.0024797131773084398,0.003636782523244619,-0.25189265990629794,-0.011449027546914296,-9.809679572582246
3.81,0.8999999761581421,111.0,23.63496208190918,0.0,-79.78276519301264,40.45895956757675,272.2637813835144,-0.007786895148456097,0.00981874018907547,-0.7456961870193481,0.6661682724952698,-0.0045129989106606795,-0.005270441322869494,0.0018009251638799414,-0.005753081291913986,-0.0035978539381176233,-0.005924274679273367,-0.25219037454575305,-0.016051053501432763,-9.809188406467438
4.0,0.8999999761581421,111.0,23.62118911743164,-0.007951773703098297,-79.7827652556401,40.45895958036177,272.2662236838341,-0.007783275097608565,0.009818716906011105,-0.7456967234611511,0.666167676448822,-0.003977210149387902,-0.0092754678950429,0.005481426835823265,-0.004984989762306213,-0.001022373791784048,0.0011653754627332091,-0.2517497137561441,-0.023474133743438867,-9.811142545938491
4.2,0.8000000119209291,111.0,23.62494468688965,-0.02385532110929489,-79.78276528825144,40.45895959006413,272.26753409194947,-0.007772127632051706,0.009830915369093418,-0.7456949353218079,0.6661697030067444,-0.0032352982478214467,-0.007059938823973092,0.007301028145912066,0.0004759397124871612,0.004589791875332594,-0.0007680968847125769,-0.2527922905795276,-0.01669191861525178,-9.810008186101914
4.3,0.8999999761581421,112.0,23.62118911743164,0.0,-79.78276530476124,40.45895959872999,272.26904232788087,-0.00778184924274683,0.009832138195633888,-0.7456878423690796,0.66617751121521,-0.005168050765021654,-0.008372720684749854,0.00751448481493798,-0.0020023672841489315,-0.0018356400541961195,-0.005471240263432264,-0.2523923775739968,-0.009514526497805492,-9.809434574246406
4.5,0.8999999761581421,112.0,23.62118911743164,0.11927660554647446,-79.78276533775555,40.45895956148469,272.27139069128043,-0.007771023083478212,0.0098557835444808,-0.7456835508346558,0.6661821007728577,0.0032919013127207554,-0.005795378949671057,0.008930146268957977,-0.007992628961801529,-0.0018011389765888453,-0.00762462057173252,-0.2497489975579083,-0.029854757075663662,-9.811834856271744
4.6,0.8999999761581421,112.0,23.62118911743164,0.08746951073408127,-79.7827653717709,40.45895957311915,272.27157635974885,-0.007788900751620531,0.009865821339190006,-0.7456738352775574,0.6661925911903381,0.0023313609012794822,-0.005052494790650649,0.006059372031226586,0.003398621454834938,0.0019463428761810066,0.004432341549545527,-0.2503178402781487,-0.02682299860054628,-9.811619678735731
4.8,0.8999999761581421,111.0,23.62494468688965,0.0,-79.78276537800969,40.45895957240149,272.27220930147166,-0.007778523024171591,0.009857759810984136,-0.7456686496734619,0.6661986708641052,0.0005520413775674333,-0.005580862441578379,0.006289196253391433,-0.006968193221837282,-0.002815810265019536,-0.005754274316132069,-0.2516719275154173,-0.01926068724598736,-9.811074718236924
4.9,0.8999999761581421,111.0,23.61367607116699,0.04771064221858978,-79.78276541644941,40.458959565803255,272.27512176322944,-0.007769589312374592,0.009871345944702624,-0.7456644177436829,0.6662033200263977,0.0025375466126583844,-0.0048458371476998606,0.007872853776463934,-0.005125743802636862,-0.0003192582516930997,0.0006317404913716017,-0.2521067228168249,-0.02586557642323896,-9.811900345087052
5.0,0.8999999761581421,112.0,23.623693466186523,0.06361418962478638,-79.78276542246192,40.45895956406789,272.275924220562,-0.007769100368022919,0.009880542755126951,-0.7456626296043396,0.666205108165741,0.0020896074399018,-0.0054321984288985894,0.007959469122942995,-4.355256896815263e-05,0.0005836095078848302,-0.0017169497441500425,-0.2517249361798167,-0.013890763133531436,-9.809221150875091
5.19,0.8999999761581421,113.0,23.616180419921875,0.07951773703098297,-79.78276543231621,40.45895957798685,272.2792062311173,-0.007761317305266856,0.009894613176584244,-0.7456623911857605,0.6662052869796753,-0.001035128318372366,-0.0008289039325044084,0.009393327374758693,-0.0025132768787443642,1.7783535440685228e-05,-0.00500698108226061,-0.2528256197087467,-0.011427978712599726,-9.809479013085364
5.3,0.8999999761581421,116.0,23.619935989379893,0.07156596332788467,-79.78276543323891,40.458959578753074,272.28014309692384,-0.007761221379041672,0.009884934872388841,-0.745652437210083,0.6662165522575378,-0.0007310404295391351,-0.00154915220151133,0.00929180454148323,0.008755804039537907,0.0038965770509094,0.005772688426077366,-0.2492156949453056,-0.028383924239315093,-9.811317962408069
5.49,1.0,118.0,23.61492919921875,0.198794350028038,-79.78276554580899,40.45895954041921,272.2834478764534,-0.007735151797533034,0.009879990480840206,-0.7456340193748474,0.6662376523017883,0.008752286351175387,-0.011425823425027534,0.009865640978786162,0.0011816635960713027,0.003470285562798381,0.004088064655661583,-0.25136675767600536,-0.02300103689543903,-9.811060684919358
5.6,1.0,119.0,23.61117172241211,0.05566241592168808,-79.78276558307233,40.45895955428663,272.2839031367302,-0.007742750924080609,0.009892342612147331,-0.7456343173980713,0.6662369966506958,0.004959209052513515,-0.008961261893965589,0.007238185507180939,-0.002114481758326292,-0.0009590158588252963,0.0007583308033645152,-0.25282419444993137,-0.02646675013471395,-9.812119030952454
5.8,1.0,121.0,23.619935989379893,0.07951773703098297,-79.78276560617441,40.45895954783923,272.28543086338044,-0.00774267828091979,0.009918603114783764,-0.7456139922142029,0.6662592887878418,0.004304762770477353,-0.010127406501404054,0.0075125162058176905,0.0042396625503897676,-0.0013241837732493875,0.007955236360430717,-0.2488348584808409,-0.0300209481921047,-9.812924777269364
5.99,1.0,122.0,23.61868476867676,0.08746951073408127,-79.78276564065214,40.458959548783945,272.2872855811119,-0.007747910916805267,0.009955818764865398,-0.7456098198890686,0.6662634611129761,0.004542206278073007,-0.007320128268530454,0.008653472856439573,-0.004411624278873204,-0.0033812120091170073,-0.007662245538085698,-0.2526773379743099,-0.011949181471718476,-9.809220566153527
6.1,1.0,123.0,23.616180419921875,0.10337305814027786,-79.78276569034318,40.458959550110826,272.2878875284195,-0.007768895011395216,0.009972848929464815,-0.7455817461013794,0.666294276714325,0.00533893859935754,-0.005093180499705152,0.005445122119426072,-0.0022502420470118523,-0.003209812566637993,-0.004474046174436808,-0.2522201588004828,-0.019194307643920185,-9.809894750118255
6.3,1.100000023841858,126.0,23.61868476867676,0.039758868515491486,-79.7827656973177,40.45895954562747,272.2884413747788,-0.007768034003674984,0.009972930885851385,-0.7455673813819885,0.6663103699684143,0.005682609812652594,-0.005774572502989493,0.005450481907269297,0.00013366036000661552,0.002242632210254669,0.0020937228109687567,-0.2519320007041097,-0.02008061306085437,-9.809974856972692
6.4,1.100000023841858,127.0,23.619935989379893,0.05566241592168808,-79.78276574723222,40.458959569221676,272.2882707862854,-0.007789173163473606,0.009965247474610806,-0.7455456852912903,0.6663346290588379,0.0016252255561474555,-0.004686129942113733,0.0033433405395449593,-0.001701460569165647,-0.000908496032934636,-0.005402615293860436,-0.2529661173373461,-0.011302694123005495,-9.809185482859613
6.6,1.100000023841858,130.0,23.619935989379893,0.07156596332788467,-79.78276575306131,40.45895956815996,272.2886194138527,-0.007794885430485009,0.009980686008930206,-0.7455400824546814,0.6663405299186707,0.0017261398882416614,-0.005158651423336357,0.003400086542299009,0.0034826486371457572,0.0004459217598196119,0.005142608191817999,-0.25053400453180075,-0.029787758491002025,-9.812407883405688
6.71,1.100000023841858,131.0,23.617431640625,0.02385532110929489,-79.78276583043615,40.45895959007863,272.28829278039933,-0.0077577270567417145,0.010025637224316595,-0.7455239295959473,0.6663583517074585,0.0005256898415418,-0.0082474898919667,0.002363007872844317,0.0037575506139546633,0.0010998679790645838,0.005922023672610521,-0.2508070146851242,-0.026684389896690846,-9.811458295583725
6.9,1.2000000476837158,135.0,23.62494468688965,0.07156596332788467,-79.78276584000304,40.45895959112855,272.2885590343476,-0.0077621815726161,0.010031008161604404,-0.7455238699913025,0.6663582921028137,-0.0009921310195124603,-0.008449783717507178,0.0026097822933541627,-0.0033841929398477077,-0.0009413228835910561,-0.0007586759747937323,-0.2514172264561057,-0.019332630839198832,-9.811061854362487
6.99,1.100000023841858,135.0,23.62118911743164,0.07951773703098297,-79.78276591928791,40.45895957981936,272.2875180988312,-0.007741527631878853,0.010069716721773148,-0.7455168366432191,0.6663658618927002,0.007446944683467139,-0.009409680445162487,0.001713769103162573,-0.002357908524572849,0.0028956378810107712,-0.001039694412611425,-0.2519536171294749,-0.02608873677905649,-9.812121369838717
7.19,1.100000023841858,140.0,23.61868476867676,0.07156596332788467,-79.78276595741491,40.458959612659136,272.2855098395348,-0.00773997837677598,0.010071620345115663,-0.7455266714096069,0.666354775428772,0.0035396869708851147,-0.0028389834337234805,0.001163563515208411,-0.0004671319911722094,0.0006024749600328505,-0.0010270432103425264,-0.2526422364078462,-0.013895665886811914,-9.809454454779628
7.3,1.100000023841858,141.0,23.62244033813477,0.09542128443717957,-79.78276596558268,40.45895960761512,272.2857604174614,-0.007739212829619645,0.010073138400912285,-0.7455304861068726,0.6663505434989929,0.002473743566128477,-0.0035081718699232585,0.0012715225482595582,-0.002632515504956245,0.0009666965925134717,-0.00220837676897645,-0.2527033763565123,-0.010042243420612069,-9.808576787710187
7.5,1.100000023841858,139.0,23.619935989379893,0.07951773703098297,-79.78276606617695,40.45895964343853,272.282789364338,-0.007737569976598022,0.010066328570246695,-0.7455298900604248,0.6663512587547302,0.0004353955765050625,-0.007864808581916505,0.000624879032835626,-0.004325925372540951,-0.003644621931016445,-0.004218666348606348,-0.2499724342860281,-0.030091868522576982,-9.81118581533432
7.6,1.2000000476837158,135.0,23.62494468688965,0.07951773703098297,-79.7827661338268,40.45895966604883,272.2792974858284,-0.007735900580883027,0.010070488788187506,-0.7455317974090576,0.6663490533828735,0.003895031653172783,-0.005753188071459153,0.00022532114824052988,0.0024499436840415,0.004049202892929316,0.005727738607674837,-0.24976970035582785,-0.027151207840070128,-9.811412687301637
7.8,1.2999999523162842,135.0,23.62744903564453,0.05566241592168808,-79.78276614107328,40.458959663798154,272.2793468980789,-0.007735900580883027,0.010070488788187506,-0.7455317974090576,0.6663490533828735,0.002483112638801061,-0.005984226172401198,0.00046024705680936033,-0.002530247438699007,-0.003238423727452755,-0.0009440670255571604,-0.2523173139430583,-0.019686127002350992,-9.809954391717909
7.9,1.399999976158142,134.0,23.60115623474121,-0.08746951073408127,-79.7827662211951,40.458959697372215,272.2751333861351,-0.007736488711088895,0.010071754455566406,-0.7455331087112427,0.6663476824760437,0.0008769654833489974,-0.0047093614232465155,7.440781461366097e-05,0.0013563412940129638,4.715726026915945e-05,0.0012766806175932288,-0.2512869249098003,-0.026196882859803736,-9.811592781543732
8.1,1.399999976158142,136.0,23.61117172241211,-0.07951773703098297,-79.7827662270312,40.45895969719938,272.27515543985373,-0.007738076150417328,0.010071631520986557,-0.7455331087112427,0.6663475632667542,0.00036098544665876567,-0.005101961993303992,0.00020420158586956832,-0.001937674707733095,-0.002266223542392254,-0.0026513608172535896,-0.25252925723791125,-0.012699327848386021,-9.810123960971833
8.2,1.399999976158142,135.0,23.6074161529541,-0.07951773703098297,-79.78276629653274,40.458959722336786,272.27211381483085,-0.007738491054624319,0.010077216662466526,-0.7455361485481262,0.6663440465927124,0.0016996653325609325,-0.0013168778724166044,0.0033797427090967234,-0.004494986031204462,-0.005347118712961675,-0.005680710077285768,-0.2529217698611319,-0.012767227498115971,-9.808924697041512
8.4,1.399999976158142,134.0,23.60866737365723,-0.07951773703098297,-79.78276641638234,40.45895974504238,272.26658613967896,-0.007727154530584812,0.01007650140672922,-0.7455375194549559,0.6663426756858826,0.005104226113100894,-0.006497970981976272,0.0013079105396643065,-0.002599929226562381,-0.0017692586407065392,-0.005790305323898792,-0.24988457987084986,-0.027297086734324696,-9.811568223237993
8.5,1.399999976158142,134.0,23.609920501708984,-0.05566241592168808,-79.78276642492607,40.458959740889675,272.26673002529145,-0.007728080730885267,0.01007673516869545,-0.7455375790596008,0.6663426160812378,0.005426087811476485,-0.0070024154238967785,0.0013558292467698773,0.00366212404333055,0.001406996394507587,0.004517730325460434,-0.25254488026723265,-0.0176609518553596,-9.810036252737046
8.7,1.399999976158142,136.0,23.61242485046387,-0.10337305814027786,-79.78276652119997,40.458959765445755,272.26121999311454,-0.007727043237537146,0.010077992454171179,-0.7455389499664307,0.6663411259651184,0.0054266654731841045,-0.006014722431490082,0.0009886026236265977,-0.0034818914718925953,-0.002809725236147642,-0.006004973780363797,-0.2518449137359858,-0.02873116662260145,-9.812217264175416
8.8,1.399999976158142,137.0,23.606164932250977,-0.08746951073408127,-79.78276661527016,40.45895980890389,272.2548077254296,-0.007729204837232828,0.010076696053147316,-0.7455416917800903,0.6663380265235901,0.003457091182606961,-0.004991784686496589,0.00013015638196969394,0.003930667415261269,0.00037223225808702415,0.006498254369944334,-0.2499450437352061,-0.029505114136263725,-9.812154114246367
8.9,1.399999976158142,142.0,23.606164932250977,-0.07951773703098297,-79.782766621601,40.45895980693394,272.2548491506577,-0.007729204837232828,0.010076696053147316,-0.7455416917800903,0.6663380265235901,0.002046553449138351,-0.005203646589384604,0.0004231194122987125,-0.0009129423997364935,-0.0027332764584571123,-0.00305735319852829,-0.2521643178910017,-0.017799239647574724,-9.810277158021927
9.1,1.399999976158142,146.0,23.61117172241211,-0.08746951073408127,-79.78276672681567,40.45895982470609,272.247956946373,-0.007722759153693914,0.010084044188261032,-0.7455431818962097,0.6663362979888916,0.008506237138899798,-0.003826351608275247,-0.0001643623677084199,0.0008053145138546824,0.00010364557965658604,0.0012194024166092274,-0.252108403891325,-0.02690850270912052,-9.811618509292604
9.3,1.2999999523162842,151.0,23.606164932250977,-0.08746951073408127,-79.7827667326792,40.45895981758531,272.24795116472245,-0.007722759153693914,0.010084044188261032,-0.7455431818962097,0.6663362979888916,0.008034445502535644,-0.004180094116117623,-2.351038448461661e-05,-0.0005173314712010324,-0.0018767912406474352,-0.0019760041031986475,-0.2520198185741901,-0.01099144980311394,-9.809973687529563
9.4,1.2999999523162842,153.0,23.60491180419922,-0.09542128443717957,-79.7827668395277,40.45895986505793,272.242311671257,-0.00772577803581953,0.010079844854772093,-0.7455465197563171,0.6663326025009155,0.003289288354005877,-0.0042870083579234055,0.003463360829420352,-0.005800561048090458,-0.0019455621950328352,-0.0041276835836470144,-0.25148626014590264,-0.016200972913065926,-9.81050052165985
9.6,1.2000000476837158,161.0,23.61242485046387,-0.08746951073408127,-79.78276684521066,40.45895986220205,272.2426683454514,-0.007725375238806009,0.010080756619572641,-0.7455465197563171,0.6663326025009155,0.003953735786416891,-0.0047726947668886785,0.003462046334565321,0.005177021957933903,0.004991465713828802,0.004697634838521481,-0.2501098438538611,-0.024450810619164258,-9.811179968118667
9.7,1.2000000476837158,160.0,23.609920501708984,-0.08746951073408127,-79.78276697672759,40.45895989331665,272.2351096420288,-0.007719005923718214,0.010078346356749536,-0.7455503940582275,0.6663284301757812,0.005283201161900986,-0.007955393424139841,0.0021076741866154322,0.0033414692152291536,-0.0012140219332650304,-0.0005472472403198482,-0.2539382534846664,-0.01669672429561615,-9.811455956697463
9.9,1.100000023841858,165.0,23.6074161529541,-0.07951773703098297,-79.78276698676811,40.45895988961671,272.23534657049186,-0.007719216402620076,0.01007963251322508,-0.7455536127090454,0.66632479429245,0.0049028666365704176,-0.0083483813372274,0.002196331144809938,0.003028350416570902,-0.0036912893410772094,0.0031796593684703107,-0.250622937027365,-0.02967298632720485,-9.812398527860642
9.99,1.2000000476837158,168.0,23.60366058349609,-0.06361418962478638,-79.78276708142505,40.458959906768605,272.22915299224854,-0.007717865984886885,0.01008759066462517,-0.7455535531044006,0.6663246750831604,0.008473012185973116,-0.003599483768272392,0.0042390750706889505,0.005722826812416315,0.004048636183142662,0.0060635642148554325,-0.2491985187493265,-0.03029626068659127,-9.812200891971589
10.1,1.100000023841858,168.0,23.61117172241211,-0.09542128443717957,-79.78276718708736,40.4589599650759,272.22224731731416,-0.007721222937107086,0.010081791318953036,-0.745556116104126,0.6663219332695007,0.0029143167835708745,-0.003316280496497961,0.006288518296702224,-0.006525325123220682,-0.004088031593710184,-0.0030752704478800297,-0.251285499650985,-0.012952299867756666,-9.809885394573213
10.3,1.2000000476837158,167.0,23.61242485046387,-0.07156596332788467,-79.78276719638721,40.458959960016045,272.22353096294404,-0.007720687426626681,0.010083088651299477,-0.7455586194992065,0.6663191318511963,0.002485236148060929,-0.004120467871295594,0.006513102356140718,-0.004914680030196904,-0.001518090022727847,-0.0005800296203233303,-0.2521914160810411,-0.021252095864620055,-9.811760011911392
10.5,1.2999999523162842,168.0,23.616180419921875,-0.03180709481239319,-79.78276729203922,40.458959998011494,272.2159332780838,-0.0077218497171998015,0.010085423476994038,-0.7455582022666931,0.6663195490837097,0.0042780063965664715,-0.0005867705694144423,0.006956271732462345,-0.0008831274462863803,0.00031654737540520733,-0.000658051110804081,-0.25289606038481,-0.017219569300068543,-9.809123502373696
10.6,1.2999999523162842,170.0,23.623693466186523,0.007951773703098297,-79.78276739262857,40.45896002034079,272.21040399360663,-0.0077186902053654185,0.010089839808642864,-0.7455623149871826,0.6663148999214172,0.0063870903997272025,0.0012760078865736975,0.010010477485331508,-0.0033878262620419264,-0.0006789933540858327,-0.005837231874465942,-0.2514814544655383,-0.011395217174431307,-9.809350374341012
10.8,1.2999999523162842,167.0,23.62494468688965,0.007951773703098297,-79.78276739197082,40.45896001440225,272.2114026098252,-0.0077186902053654185,0.010089839808642864,-0.7455623149871826,0.6663148999214172,0.0068052561337914605,0.0007873699086542924,0.009994947346841714,0.00449613481760025,0.0015578066231682894,0.0043893358670175076,-0.24947291761636736,-0.029931108921300617,-9.811209204196931
10.89,1.399999976158142,159.0,23.623693466186523,-0.007951773703098297,-79.78276753579878,40.45896006137272,272.2039911298752,-0.007714864797890186,0.010078939609229565,-0.7455644011497498,0.6663126945495605,0.0035808871088623493,-0.005993058273220201,0.009154296838940472,0.006353540811687708,0.002165436977520585,0.006657360121607781,-0.2512350856885314,-0.026964466958306732,-9.811229084730149
11.1,1.5,160.0,23.628700256347656,0.0,-79.78276754303825,40.4589600593695,272.2049345521927,-0.007716852240264416,0.010082860477268696,-0.7455679774284363,0.6663087010383606,0.0021576921559484496,-0.006277725236812845,0.009388118577341665,-0.003202769672498107,-0.00591480964794755,-0.007002581842243671,-0.2520701229013503,-0.018002980852033945,-9.810426846742633
11.2,1.5,161.0,23.62744903564453,0.0,-79.7827676454884,40.45896010517948,272.197116806984,-0.007723595947027206,0.010096763260662556,-0.745563268661499,0.6663135886192322,-0.00027209300263974183,-0.002738477632094225,0.00887375740297303,-0.007963329553604126,-0.0039570871740579605,-4.160631578997709e-05,-0.25219318851828576,-0.023943050745874644,-9.810796390771866
11.3,1.399999976158142,161.0,23.62995338439941,0.007951773703098297,-79.78276764872514,40.45896010527986,272.19800980377204,-0.007716512307524681,0.010114609263837336,-0.7455626130104065,0.6663141846656799,5.794063334893199e-05,-0.00317280055970083,0.008837450076687434,0.0006685013067908585,0.002045659814029932,0.005127585493028164,-0.2514468462578953,-0.020399761400185533,-9.810313410758972
11.5,1.399999976158142,161.0,23.62619781494141,0.007951773703098297,-79.78276777253531,40.4589601298389,272.1902951745987,-0.007727732416242361,0.010115073062479496,-0.745571494102478,0.6663040518760681,0.002641442780034084,-0.003744622885841261,0.008517184333131032,0.0011367738479748368,0.002196897752583027,0.0012098278384655714,-0.2528284519538284,-0.015253203209722416,-9.810224533081056
11.6,1.399999976158142,162.0,23.62744903564453,0.0,-79.78276786608897,40.458960151341316,272.18229861545564,-0.007740271277725696,0.010117026045918465,-0.745574951171875,0.6663000583648682,0.006301139587076886,-0.0009068122742125264,0.008366446616044331,0.002498761052265764,0.00016741295985411853,0.005136103834956884,-0.2500124328956008,-0.029322055173106494,-9.812472202777863
11.8,1.399999976158142,162.0,23.62494468688965,0.0,-79.7827678699947,40.458960141021926,272.1839848308564,-0.007739338092505931,0.010118157602846622,-0.7455716729164124,0.6663037538528442,0.005811508943449464,-0.001629433830446744,0.008396902509745206,9.401428542332725e-05,0.0026916242204606533,0.003492171177640557,-0.2505488601140678,-0.031450039674527946,-9.812040678262713
12.0,1.2999999523162842,165.0,23.62619781494141,0.007951773703098297,-79.78276796295387,40.45896016566874,272.1766266374588,-0.007764616515487432,0.010138985700905323,-0.7455737590789795,0.6663008332252502,0.0058699935797357,0.0006812059983140545,0.0082471646495659,0.006505492143332958,0.0014608163619413972,0.004803310614079237,-0.25271781167015434,-0.010616020871093498,-9.809126425981525
12.09,1.2999999523162842,166.0,23.62619781494141,0.0,-79.78276807922522,40.45896021113492,272.1680111436844,-0.007763592526316644,0.010129284113645557,-0.7455729246139526,0.6663018465042114,0.0016942158348263385,-0.0011474345912051926,0.008319527956769678,-0.006397204473614693,-0.001344379154033959,-0.006395122036337853,-0.25314546240493657,-0.013635695481207223,-9.810675938129426
12.3,1.2999999523162842,164.0,23.62744903564453,-0.007951773703098297,-79.7827680807937,40.458960209423964,272.16883511829377,-0.007761841639876366,0.010136766359210014,-0.7455689311027527,0.6663062572479248,0.0024537430328860693,-0.0015481076793228776,0.008185037641700955,0.003445463720709085,0.004750782158225775,0.009697270579636095,-0.24993488419801,-0.02767650479217992,-9.81177755355835
12.4,1.2999999523162842,163.0,23.61868476867676,0.0,-79.78276820127998,40.45896021422644,272.1606617717744,-0.007765365298837423,0.010169127956032751,-0.7455758452415466,0.6662980318069458,0.008324473873501279,-0.0017232587902837873,0.007996620151352923,0.0017481774557381866,0.003321806201711297,0.0022802867460995913,-0.250243014190346,-0.02345497040776536,-9.811430228948591
12.6,1.2000000476837158,168.0,23.62619781494141,0.0,-79.78276820423564,40.45896020751066,272.16148276615144,-0.0077748498879373065,0.0101673761382699,-0.7455773949623108,0.6662961840629578,0.007155315509225471,-0.0019660440679198886,0.008281304793436244,-0.002284687710925937,-0.0025216767098754644,-0.0017104618018493054,-0.2519554809294641,-0.023470052112825216,-9.812101489305496
12.7,1.2999999523162842,168.0,23.619935989379893,-0.015903547406196594,-79.78276831697087,40.45896022899912,272.15371341991425,-0.007772830780595541,0.01016582828015089,-0.745579183101654,0.6662942171096802,0.00705553513867247,-0.0024524564154512147,0.008312688398383223,-0.0022513901349157095,0.0024970707017928358,0.002883133478462696,-0.25238936260342604,-0.02792494065128267,-9.812314327955246
12.9,1.2999999523162842,169.0,23.6074161529541,-0.12722837924957275,-79.7827683206405,40.45896022277045,272.15455098438264,-0.007771241944283247,0.01016718614846468,-0.7455812096595764,0.6662918925285339,0.00683480771112406,-0.002695974873966893,0.008366043929483778,-0.001011416781693697,-4.634720608009958e-05,-0.0002432334877084941,-0.253313770852983,-0.0143835383746773,-9.809908198714258
13.0,1.399999976158142,168.0,23.60115623474121,-0.08746951073408127,-79.78276841206772,40.45896026150663,272.147003367424,-0.007793474942445755,0.010170184075832369,-0.7455794811248779,0.6662935614585876,0.002798158213949976,0.00018244812239521832,0.008484084442641466,-0.0010121464729309082,-0.0027951030060648922,-0.0031988637056201696,-0.2529338297434151,-0.010159328203881159,-9.810511046648026
13.1,1.399999976158142,169.0,23.6074161529541,-0.09542128443717957,-79.78276852609737,40.45896028374522,272.13872511672974,-0.007789521478116512,0.010190979577600956,-0.7455808520317078,0.6662917137145996,0.005731293832395311,-0.000938610246180492,0.008296659215858352,0.0015107400249689815,0.006563297472894193,0.0050710085779428465,-0.2508275895752013,-0.03158940440509468,-9.812931793928149
13.3,1.399999976158142,166.0,23.628700256347656,0.0,-79.78276852947748,40.458960274668726,272.14040763664246,-0.0077905198559165,0.010217778384685516,-0.7455748915672302,0.6662980914115906,0.005364525004831617,-0.0012159295690543992,0.0083719126655582,0.006153148133307695,0.0015630908310413358,0.0036824932321906094,-0.24922791928052904,-0.028901951001025737,-9.812144758701326
13.4,1.399999976158142,163.0,23.61242485046387,-0.007951773703098297,-79.78276864010593,40.45896031524414,272.1320447473526,-0.007784543093293904,0.010207568295300009,-0.7455683946609497,0.6663055419921875,0.0016656648087191989,-0.0021020543724072508,0.008160181536588406,-0.006568767130374909,-0.003314568428322673,-0.005395122338086368,-0.2517583018541336,-0.0144224863126874,-9.810088877677918
13.6,1.2999999523162842,166.0,23.619935989379893,-0.015903547406196594,-79.78276874612172,40.458960336261846,272.12688179302216,-0.007810729555785656,0.010212106630206108,-0.7455626726150513,0.666311502456665,0.003009781916469999,-0.0024755388624521273,0.01073410748813588,-0.004799261689186096,-0.00233182730153203,-0.004496064502745867,-0.25251290330663323,-0.020085430161561817,-9.810667752027511
13.8,1.2999999523162842,167.0,23.62494468688965,-0.015903547406196594,-79.78276874928537,40.4589603334669,272.12795515346534,-0.007795026991516352,0.010221348144114016,-0.7455607652664185,0.6663136482238771,0.003506132545392703,-0.002667669667035743,0.010647948127015637,0.006143738050013782,-0.0004941190709359944,-0.00023856988991610703,-0.2517479413188994,-0.02093070913804695,-9.810071336030962
13.9,1.2999999523162842,170.0,23.62744903564453,-0.015903547406196594,-79.78276883924252,40.45896033231874,272.12181754398347,-0.007799172308295965,0.010223767720162868,-0.7455557584762573,0.6663191914558411,0.007435222953584484,0.0009865119179489495,0.009964459911054949,0.0009090981911867856,-1.130248620029306e-05,-0.005785806570202111,-0.2542641078494489,-0.013512691534124316,-9.810217516422274
14.1,1.2999999523162842,169.0,23.617431640625,0.2942156493663788,-79.7827688389038,40.45896032542879,272.12280996131904,-0.0077972933650016785,0.010224835015833378,-0.7455556988716125,0.6663192510604858,0.007612913845184231,0.0008080999231031528,0.009926185765443421,0.005202013999223709,0.002466634847223759,0.0057114707306027395,-0.25095743430778383,-0.030345802134834232,-9.812007933855057
14.2,1.2999999523162842,166.0,23.563594818115234,1.248428463935852,-79.78276895028979,40.458960337044466,272.1165726928711,-0.007779493927955627,0.0102643221616745,-0.7454354166984558,0.66645348072052,0.008548793207940301,-0.0006963354214388432,0.009200330685415441,0.007735040970146656,0.00835871696472168,-0.0013788618380203845,-0.2488979718647897,-0.004431406029034407,-9.81206172823906
14.3,1.2999999523162842,162.0,23.61117172241211,0.2942156493663788,-79.78276895181189,40.45896033029808,272.1174971609116,-0.0077758682891726485,0.010236340574920176,-0.7456148266792297,0.6662531495094299,0.006722608821119812,-0.0006468197739152843,0.009533092328976357,-0.009871848858892921,-0.0003856577386613935,-0.004698870703577995,-0.2502335307374597,0.006407058571348898,-9.809694775342944
14.5,1.2000000476837158,165.0,23.6074161529541,0.2942156493663788,-79.78276897242141,40.45896031760243,272.1108727006913,-0.007813361473381521,0.010280227288603784,-0.745604932308197,0.6662631630897522,0.010390464200252272,0.010879505646722321,0.0090603541762701,0.0001483400264987722,-0.00191582553088665,0.0012061975430697205,-0.2557137605175376,-0.03481940404744819,-9.809362653493881
14.7,1.100000023841858,164.0,23.6074161529541,0.2942156493663788,-79.78276909754143,40.458960344595454,272.1064102201462,-0.007808437570929526,0.010281012393534185,-0.7455242872238159,0.6663534641265869,0.006019583068289157,0.0027726596223761482,0.012290933837673755,0.0011803841916844249,2.6907266146736223e-05,-0.00441754050552845,-0.25561221996322275,-0.008284672036534175,-9.810950757265092
14.8,1.0,163.0,23.61117172241211,0.3021674156188965,-79.78276909157249,40.458960332350415,272.10884471225745,-0.00782928988337517,0.010292099788784979,-0.7455191612243652,0.6663587689399719,0.005296394854138374,0.003934412862435507,0.012294975100793052,-0.004918495658785105,-0.009704263880848885,-0.006188265047967435,-0.2440332711674273,-0.01009821337996982,-9.808863301277162
15.0,1.0,162.0,23.60115623474121,0.37373337149620056,-79.78276925036427,40.458960382352025,272.1038726119995,-0.007798320613801479,0.01025916263461113,-0.7455207705497742,0.6663578748703003,-0.00036711758765554963,-0.008081423888108145,0.010817377075056587,-0.004210162907838821,0.0016773220850154755,0.004982858896255493,-0.24722703862935305,-0.035127166304737334,-9.812019628286363
15.1,1.0,161.0,23.602407455444336,0.41349223256111145,-79.78276933184372,40.4589603942495,272.0998011379242,-0.007783009670674802,0.010287463665008543,-0.7455743551254272,0.6662976741790771,0.0018281968379941442,-0.003218558570581091,0.01305654321929333,-0.0005529580521397293,0.0009208596893586217,-0.0051589906215667725,-0.25890624890103936,-0.02500535278581083,-9.807830098271367
15.3,1.0,156.0,22.534408569335927,16.158004760742188,-79.7827693349849,40.45896039281203,272.101116016388,-0.007795295678079128,0.01031582523137331,-0.745514452457428,0.6663640141487122,0.0020923607765358427,-0.0029965850550228703,0.0130425953245386,-0.0014805838000029323,-0.0016587749123573305,0.006706193555146457,-0.25449914764612913,-0.02020533234346658,-9.813778470754624
15.39,1.0,156.0,23.56109046936035,1.3836086988449097,-79.78276944140265,40.458960417689106,272.09645707893367,-0.007735635619610548,0.010424356907606123,-0.7455811500549316,0.6662884950637817,0.0053089251475394676,-0.0033424081154816983,0.010851253588890638,0.02188038825988769,0.01918957568705082,0.019647566601634026,-0.2373920949921012,-0.03477986910380424,-9.819847880601882
15.6,0.8999999761581421,155.0,23.60366058349609,0.2544567584991455,-79.78276944425008,40.45896041747843,272.09757120895387,-0.007734303828328849,0.01045665331184864,-0.7455952167510986,0.6662722229957581,0.0019150239333885367,-0.004065345706934964,0.010858119306556087,0.0014347060350701213,0.01414586789906025,-0.00920559000223875,-0.25292706890031696,-0.01217139051295817,-9.810164891481401
15.7,0.8999999761581421,153.0,23.11786460876465,7.824545383453369,-79.78276950742358,40.458960400068605,272.0949501543045,-0.0077680954709649095,0.010464835911989212,-0.7456187605857849,0.6662453413009644,0.008024076987637201,-0.0006130450826948466,0.014314323045127187,0.0006887213094159961,0.0186443068087101,0.00488555058836937,-0.2292998957075179,0.036475570779293774,-9.835386271476748
15.9,0.8999999761581421,153.0,23.59990310668945,0.326022744178772,-79.78276950770608,40.45896039173689,272.096279337883,-0.007733408827334642,0.010638563893735407,-0.7456145286560059,0.6662476658821106,0.008592644290132043,-0.0009395126594997586,0.01290988273155216,0.017948487773537636,0.012217515148222443,0.0004659848054870963,-0.264367000143975,8.751637302339077e-05,-9.802212093472482
15.99,0.8999999761581421,153.0,23.59990310668945,0.2624085247516632,-79.78276958693401,40.45896041848487,272.0924512891769,-0.007760305888950825,0.010487311519682407,-0.7456199526786804,0.6662437915802002,0.0075278477896816125,0.0028465732024400853,0.010742886557475271,0.025022657588124275,-0.02306341379880905,-0.0029580860864371053,-0.24758395632728936,-0.08388504196889697,-9.812978571653368
16.19,0.8999999761581421,155.0,23.51226043701172,2.1867377758026123,-79.78276968088402,40.458960446649925,272.08825309562684,-0.0077366214245557785,0.01048074010759592,-0.7455878257751465,0.6662801504135132,0.00345424136552084,0.00028895739851902616,0.01026343849283686,0.011758176609873772,0.0126944612711668,-0.01093887910246849,-0.2403352727182209,-0.033436877871863536,-9.806278247237207
16.3,0.8999999761581421,158.0,23.427120208740234,3.944079875946045,-79.78276967885596,40.458960442008475,272.0903300790787,-0.007741407025605441,0.010431589558720587,-0.7456055283546448,0.6662609577178955,0.0016144322500219743,-0.0002462069994523217,0.01122200273417747,-0.019522715359926224,0.004090331960469484,-0.00706939771771431,-0.2569698338024318,0.008618142628110946,-9.802355934977532
16.49,1.0,159.0,23.336973190307607,5.693470001220702,-79.7827698091368,40.45896043023232,272.08696253585816,-0.007787555456161498,0.010516371577978134,-0.7456318736076355,0.6662296056747437,0.011362703490950341,-0.0018662384180169094,0.011353250294324149,0.002779787406325341,-0.0060809818096458895,-0.0024908166378736496,-0.2967511279508472,-0.01619281193590723,-9.800343323349953
16.6,0.8999999761581421,159.0,23.288143157958984,6.846477508544923,-79.78276990399894,40.458960450000156,272.0863910465241,-0.007754882797598839,0.010566029697656631,-0.7456701397895813,0.6661863327026367,0.006600089847726058,-0.002706582184391609,0.013760585703402954,-0.0216887928545475,-0.0052005965262651435,-0.02165656536817551,-0.2927180840447545,-0.07964256724342704,-9.797188750505448
16.8,1.0,157.0,23.177963256835927,9.239961624145508,-79.78276990738327,40.45896044343951,272.08767648029334,-0.007712221704423427,0.010689148679375648,-0.7457171678543091,0.6661322712898254,0.0002585252701497931,-0.006187750917362964,0.010108581120434144,0.013667941093444824,-0.05378779396414757,0.04086189344525337,-0.23728439658880235,0.06275045458227396,-9.808496680855752
16.9,1.0,156.0,23.109100341796875,10.782605171203613,-79.78277000782082,40.45896044404069,272.08663816738135,-0.0075364094227552405,0.010977363213896751,-0.7456660270690918,0.6661868691444397,0.01809990303632825,-0.006356358276935925,0.012910097939008349,0.013179173693060877,-0.02547512948513031,-0.003544949926435948,-0.3023127802088857,0.011777681037783623,-9.83008284687996
17.1,1.0,156.0,22.97638320922852,13.764520645141602,-79.78277001469066,40.458960434939506,272.0881301908493,-0.007044346071779728,0.011014792136847971,-0.7456865906715393,0.6661685705184937,0.013838557137399914,-0.006260733592417937,0.014030763923687552,0.020503668114542958,-0.0026066091377288107,0.02029445208609104,-0.3022476202994585,-0.019502462761010968,-9.82614650130272
17.2,1.0,156.0,22.88873863220215,15.513911247253418,-79.78277009036563,40.4589604329736,272.0886562614441,-0.005150105804204941,0.011122647672891615,-0.7456274032592773,0.666250467300415,0.004280905234114207,-0.0042192459448674394,0.02333529146523381,-0.030340064316987988,0.02214860916137696,0.008929194882512094,-0.3244484017789364,-0.15030107949860394,-9.895406770706176
17.39,1.100000023841858,157.0,22.754770278930664,18.583295822143555,-79.7827701022529,40.45896042434424,272.0909908561706,-0.0035404299851506953,0.009780916385352613,-0.7457672953605652,0.6661254167556763,0.008112826173476273,-0.010768624328866437,0.022552120520312455,0.01205524802207947,0.03258710354566574,-0.01171383447945118,-0.18408164117485284,-0.0082342626422178,-9.818183763027193
17.5,1.100000023841858,158.0,22.648345947265625,20.587142944335934,-79.78277015623758,40.45896040403292,272.09345300483704,-0.002591598080471158,0.009338744916021824,-0.7455120086669922,0.6664217710494995,0.013085602158012707,0.006003259736503307,0.040165194380022334,-0.031275201588869095,0.03142745420336723,0.03363889455795288,-0.18157990995794526,-0.2732943280041218,-9.939901742935179
17.7,1.100000023841858,157.0,22.475563049316406,24.39604187011719,-79.78277024028759,40.45896042430157,272.09495325374604,-0.003861232427880168,0.005674350075423718,-0.7453088760375977,0.666684091091156,-0.007630772630405113,0.019310888767961186,0.040229624530833986,-0.11179155856370926,0.0436626672744751,-0.029641151428222656,0.04933996598236263,-0.06668505513109267,-9.847340319156649
17.81,1.100000023841858,154.0,22.395431518554688,26.33627510070801,-79.78277015787211,40.45896045499426,272.1100706605912,-0.009961921721696857,-0.004047124646604061,-0.7441571950912476,0.6679180860519409,-0.05033370043367673,0.032007315647502935,0.14872701542627528,-0.11166689544916153,0.19504688680171967,0.0010985711123794317,-0.08979178958572448,0.006693691480904818,-10.557408646345142
17.99,1.2000000476837158,154.0,22.61579132080078,21.64472770690918,-79.78277032814358,40.45896034708794,272.116592004776,-0.011985267512500286,-0.011185023002326487,-0.7422468662261963,0.6699260473251343,-0.09657211848368624,0.021015078671201712,0.2482276733933163,-0.3583853840827942,-0.045539967715740204,-0.18906649947166448,-0.0503754393523559,0.03225667221006006,-10.892415511608124
18.1,1.2000000476837158,154.0,22.70719146728516,19.609073638916016,-79.78277008868751,40.45896074725107,272.1675682811737,-0.0036952504888176922,-0.008670242503285408,-0.7399915456771851,0.6725502014160156,-0.10499266088274856,0.029649576773183674,0.3344470521408379,0.20625697076320648,-0.0412205345928669,0.1657954752445221,0.13012122365646064,-0.2543305833823979,-10.19652668237686
18.2,1.2999999523162842,156.0,22.67964744567871,19.96690368652344,-79.78277004573279,40.45896086542256,272.2000894098282,0.0008979159174486994,-0.002537204418331385,-0.7398020029067993,0.6728193163871765,-0.1434261702488637,0.030931003609695223,0.31166965866579593,0.08390642702579497,-0.06949928402900696,-0.08412598073482512,0.011083278497681022,0.15598741449415685,-9.646473843455317
18.4,1.2999999523162842,157.0,22.65085029602051,20.23726463317871,-79.7827699917692,40.45896115269842,272.2404162435532,0.008678700774908066,0.0028440146706998357,-0.7411172986030579,0.671313464641571,-0.12458625835106625,0.0484426966870819,0.1626334696571165,0.06877584010362625,0.006343383342027664,-0.0610300600528717,0.10772435031831264,-0.023040619804523887,-9.275900704264641
18.6,1.399999976158142,156.0,22.49684715270996,23.219179153442386,-79.78276992475179,40.4589612579303,272.25345434236533,0.012362083420157429,0.004404575563967228,-0.7418271899223328,0.6704627275466919,-0.11839997536406875,0.049037514035998035,0.10015922279338006,0.09170597046613692,-0.012400893494486807,-0.029745401814579964,0.17949771646410229,0.020447923270985484,-9.233204335570335
18.7,1.399999976158142,158.0,22.513124465942386,22.757976531982425,-79.78277008887162,40.45896165744126,272.2777925877571,0.01290347520262003,0.006176222115755081,-0.7427181005477905,0.6694514155387878,-0.12898963271440114,0.015184431343022518,0.1012642628028196,-0.0016260787378996608,0.09923756122589113,0.0513283871114254,0.002709335923427716,-0.2310293741896749,-9.762318879961967
18.9,1.399999976158142,160.0,22.453025817871094,23.950742721557607,-79.78276991178372,40.45896204720826,272.3236128835678,0.0105755515396595,0.0010053430451080203,-0.7429376840591431,0.6692762970924377,-0.1301041365487694,0.03994850684686498,0.1506330210354218,-0.08238820731639862,0.009197633713483807,-0.050714876502752304,0.06132638805080205,0.03007761136628688,-9.787582359910012
19.0,1.399999976158142,158.0,22.565710067749023,21.533403396606445,-79.78276984690541,40.458962156272115,272.33947612333304,0.00697154039517045,-0.0006572239217348398,-0.7429304122924805,0.6693320274353027,-0.12026467009643342,0.04389766557090543,0.1599073434716066,-0.016148310154676437,0.035044733434915536,-0.012063583359122276,0.0775158344116062,-0.15632459783926608,-9.857155455350878
19.19,1.5,156.0,22.43424415588379,24.451704025268555,-79.7827698481886,40.458962254816925,272.35336585330964,0.0036405450664460655,-0.0003314157074782997,-0.7428592443466187,0.6694377660751343,-0.1262635545668397,0.05137876515651997,0.15602225750540327,-0.09584131091833116,-0.07527750730514526,-0.1383322775363922,0.06228844231925905,0.022629300160333515,-9.853358273506165
19.3,1.5,153.0,22.44050407409668,23.89508056640625,-79.78276969752453,40.45896246175572,272.38876582670207,0.003923037089407444,0.0010823654010891914,-0.7426273226737976,0.6696925759315491,-0.13714463897770726,0.05187660782821514,0.19738565486194373,-0.10340964794158937,-0.013131563551723957,-0.1371595710515976,-0.035177244509104644,0.09335045071318747,-9.950280550718306
19.5,1.5,153.0,22.39668273925781,24.491464614868164,-79.78276974069709,40.458962693776094,272.41219152498246,0.006030668038874865,0.0007575024501420557,-0.7423858046531677,0.6699451208114624,-0.13171888757359973,0.047233925958919766,0.22172373235207726,0.1682576835155487,0.12854105234146118,0.034166794270277016,0.025666120131500058,-0.15006903639994562,-9.999270862340929
19.6,1.5,153.0,22.42422866821289,23.8076114654541,-79.78276973888123,40.45896296762845,272.45456399011607,0.011085168458521366,0.004308862145990132,-0.7421531677246094,0.670124888420105,-0.14528376231595638,0.042349693808607605,0.2745275299629897,0.06919822841882706,0.01957047171890736,0.01562676951289177,0.04147390319500119,0.0044034741539508105,-10.121244950294496
19.8,1.399999976158142,150.0,22.40043830871582,23.79170799255371,-79.78276967360661,40.458963087942976,272.482785001278,0.01186413038522005,0.004890617914497852,-0.7419563531875609,0.6703254580497742,-0.13216203115564598,0.03955651002176816,0.28465291200037623,0.05206354334950447,0.002552344463765621,0.10622216761112213,0.055760300131514666,-0.26104671355336906,-10.001450704336166
19.91,1.399999976158142,150.0,22.33407974243164,24.84134101867676,-79.78276955239792,40.45896331765686,272.53839839983,0.01260069850832224,0.004729855805635452,-0.7417252063751221,0.6705688834190369,-0.09295199021267833,0.041407357515528966,0.2987463696892093,0.09402592480182648,0.0036879172548651695,0.14418604969978333,0.13553675034083426,-0.3774978139624,-9.974765181541443
20.0,1.5,149.0,22.38165855407715,24.45965576171875,-79.7827694930852,40.45896339472932,272.5695909409523,0.013604647479951382,0.0058616865426301965,-0.741692841053009,0.6705762147903442,-0.09474001570793388,0.04670829227412447,0.31672552818944666,-0.012561195529997349,-0.05607818812131882,-0.08030429482460022,0.1458439936861396,-0.0443862871080637,-9.938380297422407
20.2,1.5,147.0,23.05776596069336,11.219952583312988,-79.78276948793142,40.45896364306906,272.6245487480164,0.013671254739165306,0.006386113818734884,-0.7416853904724121,0.6705781817436218,-0.08324439017570764,0.02938732650833356,0.3116051473895487,-0.03932147473096848,-0.05226420983672142,-0.04666421562433243,0.07485889616422356,0.020791949685662985,-9.748385549783707
20.39,1.5,145.0,22.205120086669922,28.16518402099609,-79.78276944896534,40.458963697424394,272.64910496759416,0.013486878946423529,0.0059859869070351115,-0.7415696978569031,0.6707135438919067,-0.06524672746161687,0.0285588534765223,0.1690999095436967,-0.07710607349872589,-0.04139494895935058,0.06103779748082161,0.0562743800226599,-0.3430719298124313,-8.788194971680642
20.5,1.5,142.0,22.12248420715332,29.6760196685791,-79.78276910467406,40.45896371077437,272.6813793926239,0.003644264070317149,-0.00498169707134366,-0.7405694723129272,0.6719514727592468,-0.03228260465359135,0.06676743906331452,0.17146638982682208,-0.02434955537319184,0.0679834634065628,0.05797171965241432,0.1193442844413221,-0.3252246196568012,-10.059437541961673
20.6,1.600000023841858,143.0,22.07740974426269,31.31408500671387,-79.78276918966293,40.458963953337424,272.71337957668305,0.002476910827681423,-0.006130372639745474,-0.7401092648506165,0.6724542379379272,-0.027505253290378225,0.0680957242966914,0.3089903780789876,0.05708686634898185,-0.022743858397006992,0.07050924003124237,0.08494913471862674,-0.2073179280012846,-10.674500309228895
20.8,1.600000023841858,144.0,21.950952529907227,33.85070037841797,-79.7827690380502,40.45896401385378,272.8052172510624,0.005425138864666224,-0.0004063882515765727,-0.7400206923484802,0.6725621223449707,-0.04814247648823829,0.06050193297264374,0.6136085587206439,0.0715925395488739,-0.05334102362394333,0.07367829978466034,0.054424741258844736,-0.046416650516912336,-11.328861043453214
20.99,1.600000023841858,147.0,21.984758377075195,32.49094772338867,-79.78276905262189,40.45896423169809,272.8558431713581,0.007621254771947861,0.002226831391453743,-0.7403431534767151,0.6721823215484619,-0.0506262174636883,0.05750396269072015,0.7520673919028198,0.06327236443758011,0.034126020967960365,0.029373355209827427,0.08354492587968708,-0.15976296164095402,-11.519495476484304
21.2,1.7999999523162842,149.0,21.872074127197266,36.09310150146485,-79.78276894961097,40.45896430097774,273.0333434789181,0.008369547314941883,0.003433341160416603,-0.741705060005188,0.6706652641296387,-0.062459176931337436,0.06118086751809983,1.084649985586336,-0.09444718807935716,0.05025134235620499,0.010588527657091621,0.10083963761106134,-0.12092127850279212,-11.594280195236205
21.39,1.8999999761581416,149.0,21.686769485473643,38.892127990722656,-79.78276880030597,40.45896435222304,273.28534066292644,0.006283567752689122,0.0033598674926906824,-0.7432166934013367,0.6690128445625305,-0.05311923014684397,0.07477866449975633,1.4541822632433672,-0.033820606768131256,-0.0394364595413208,-0.08675025403499602,0.0774127315543592,-0.11025646878406406,-11.803575432300567
21.49,2.0,150.0,21.790691375732425,37.21430206298828,-79.78276871723412,40.458964339169896,273.43010814476014,0.008068828843533995,0.006099715363234282,-0.7435473203659058,0.6686068177223206,-0.04381746839646063,0.08058498464134993,1.6942140278572984,0.07391424477100372,-0.039470348507165916,0.01164456456899643,0.11989861875772476,-0.008759930755477398,-12.308870759010315
21.6,2.200000047683716,152.0,21.799455642700195,37.09502410888672,-79.78276846862579,40.45896438201692,273.80573327827454,0.009854367002844807,0.008549220860004425,-0.7428827881813049,0.6692944765090942,-0.06040324514009818,0.0998547674768499,2.180961322549878,0.0037696412764489646,-0.04714269936084746,-0.10574262589216232,0.1059365275874734,-0.11636045943014325,-12.282426141500476
21.81,2.299999952316284,153.0,21.753129959106445,34.995758056640625,-79.78276821422277,40.45896435071365,274.27429921913154,0.0064052841626107675,0.0054002832621335975,-0.7410510182380676,0.6713964343070984,-0.0347707887832038,0.1169468010411872,2.6162341011057757,-0.004635646007955074,-0.0312611386179924,0.02416386269032955,0.18802021600306035,-0.1603340518847108,-12.073118040561676
21.9,2.5,154.0,21.98350715637207,31.79914474487305,-79.78276807487255,40.45896431813394,274.54582734394074,0.004658807069063187,0.005428832024335861,-0.7405487298965454,0.6719645857810974,-0.02059212901123322,0.13143100942975408,2.8019168432686703,-0.008770165033638477,-0.04847962409257889,-0.03454827889800072,0.15121618702076375,-0.11587916049174965,-11.70701919078827
22.1,2.5999999046325684,154.0,22.02607536315918,30.566619873046875,-79.78276792400189,40.45896427973996,274.83298702526093,0.003989097662270069,0.005303650163114071,-0.7399455904960632,0.6726340055465698,-0.013761245484274235,0.1307984846676576,2.939841029083935,-0.07549221068620683,0.0307240542024374,-0.08426996320486069,0.06927211458329112,-0.0376979860290885,-11.305952821969989
22.3,2.799999952316284,154.0,22.14627265930176,28.1572322845459,-79.78276745376837,40.45896417957464,275.75125129508973,0.009817913174629213,0.0023710839450359344,-0.7396306395530701,0.6729372143745422,-9.34424210684813e-05,0.17369274832398368,3.141771763929447,0.09016266465187073,-0.007916408590972424,0.02433158829808235,0.17834979839622975,-0.046665458679199225,-10.238972790241244
22.4,2.9000000953674316,154.0,22.001035690307614,30.57457160949707,-79.78276710089122,40.458964027845184,276.08293206977845,0.009846484288573263,0.004566678777337074,-0.7398641705513,0.6726687550544739,0.006085587558096697,0.186371856426772,3.1494152054110907,0.025612521916627884,0.02274860627949237,-0.06854871660470963,0.03051251630298793,0.049262225423008205,-9.972020498514176
22.49,3.0,156.0,22.02482414245605,30.240596771240234,-79.78276692459106,40.45896395843833,276.39849503326417,0.010373999364674091,0.006031295284628868,-0.7400539517402649,0.6724404692649841,0.005281666318614063,0.17525760993264766,3.174899553124282,-0.02968546189367771,-0.05426965653896332,-0.037696223706007004,0.0690679234173149,-0.09046778253279626,-10.081503764390948
22.7,3.0999999046325684,153.0,22.04110145568848,29.66011619567871,-79.78276639640039,40.45896374812005,277.04535253334046,0.009958405047655106,0.0025099641643464565,-0.7404646873474121,0.6720167994499207,0.01765595127542064,0.1845303377536273,3.2040555830432202,-0.06421497464179993,0.08751440048217772,0.021155312657356262,0.10824020264670252,-0.15590292222797872,-9.994445739984512
22.89,3.0999999046325684,154.0,22.230159759521484,25.501338958740234,-79.78276621674473,40.45896364906692,277.3665698318481,0.008550095371901989,-0.001572311739437282,-0.7409268021583557,0.6715295314788818,0.05087182364288717,0.1930164871205341,3.218276388073072,-0.022481650114059448,0.029952371492981918,0.005900661461055279,0.0900134904216975,-0.21637002082541587,-9.94945726275444
23.0,3.2000000476837163,153.0,22.191347122192386,26.360130310058594,-79.78276599200721,40.458963456072304,277.66278870391847,0.007501797750592231,-0.004129462409764528,-0.7415496706962585,0.6708434224128723,0.06755217411361644,0.20190635061197248,3.206303985211782,-0.0252977404743433,0.04068268090486527,0.07948674261569977,0.09508887360803783,-0.036306261909194296,-10.023168432712556
23.2,3.0999999046325684,150.0,22.160045623779297,26.908802032470703,-79.78276572062356,40.458963353287565,278.2785075454712,0.006948329973965882,-0.0042445966973900795,-0.7425513863563538,0.6697396636009216,0.07117516459626125,0.19013315449818446,3.1212748585990617,0.023024309426546097,0.04968999698758125,0.03665230795741081,0.08248816955834627,-0.091382908327505,-9.567262782454492
23.3,3.0999999046325684,150.0,22.20887565612793,25.382062911987305,-79.782765573672,40.45896326622746,278.590364768982,0.00793384574353695,-0.0041572111658751965,-0.7429131865501404,0.6693278551101685,0.07651574769793194,0.17686490500975507,3.1132516538072506,0.03332237899303436,-0.0014446298591792586,-0.01065141148865223,0.09637831256724896,-0.21063026603311305,-9.716888937950133
23.39,3.0,147.0,22.126239776611328,27.24277687072754,-79.78276458603392,40.458963309081454,279.15841610717774,0.011456387117505074,-0.006444908678531647,-0.7430572509765625,0.6690987944602966,0.03037761693105625,0.2142059560580674,3.0198733355305563,-0.04580332711338997,-0.027021128684282303,-0.048172153532505035,0.104786672629416,-0.01539861501194537,-9.603451784849169
23.6,2.9000000953674316,146.0,22.111215591430664,27.05988693237305,-79.7827643837386,40.45896307841749,279.8946021347046,0.004998532123863697,-0.010070811957120895,-0.741581916809082,0.6707682013511658,0.07398595645634969,0.1789478581139226,3.0205436086751334,0.06387379765510559,-0.012477679178118706,0.06544540822505951,0.1276580475177616,-0.2575610421225429,-9.520091539621353
23.69,2.799999952316284,143.0,22.071149826049805,28.30831527709961,-79.78276427812126,40.45896301606323,280.1955970077516,0.002273088786751032,-0.009410648606717588,-0.7403573393821716,0.6721438765525818,0.0717774153088308,0.15465706094410375,2.99485131386482,-0.03970099613070488,-0.0042260964401066295,-0.039653211832046516,0.0542920003272593,-0.001523569696582854,-9.547427857518194
23.9,2.799999952316284,142.0,22.170061111450195,26.12952995300293,-79.78276418163442,40.458962959710576,280.49501259613044,0.0016671232879161837,-0.008830928243696691,-0.7392522692680359,0.6733687520027161,0.07126309699872624,0.12830519126893153,2.9883843526475053,-0.07550787925720215,-0.06098089367151261,-0.07063829898834229,0.02031924798153341,-0.12390423556789755,-9.687776235938072
24.1,2.700000047683716,137.0,21.94344139099121,31.13119506835937,-79.78276363044569,40.458962745976294,281.19791682052613,0.0053792684338986865,-0.007772523909807204,-0.7384087443351746,0.6742872595787048,0.04512064031126643,0.10919160592852584,2.9968447538490284,-0.07847588509321213,0.005914706271141768,-0.1484755128622055,0.07611511106137188,0.22171143405139448,-9.571009678244591
24.2,2.5999999046325684,137.0,22.03609275817871,28.96831321716309,-79.78276359057243,40.45896241485502,281.88290055084235,0.007700389716774225,-0.006445917766541243,-0.7390971779823303,0.6735239624977112,0.04459880556739386,0.0959637421663328,3.0729964272667125,0.02129199728369713,0.022573793306946758,-0.01638803444802761,0.11830282224342227,0.03776795161888004,-10.014753119945524
24.39,2.4000000953674316,131.0,22.001035690307614,28.97626495361328,-79.78276355667651,40.458962369342416,282.1917279510498,0.00746826222166419,-0.00637735053896904,-0.7397714257240295,0.6727865934371948,0.028297581482541287,0.08851911632346425,3.0973689599736334,-0.08911890536546707,-0.09045660495758057,-0.059746172279119485,0.12906824061647054,0.07908527277410031,-10.010580546855929
24.5,2.4000000953674316,132.0,22.117475509643555,27.28253555297852,-79.78276336860785,40.458962375273174,282.5573151855469,0.005533724557608366,-0.0057976520620286465,-0.7404767274856567,0.6720342636108398,0.005623668415516226,0.08364739885734591,3.1471041270786646,-0.0409989133477211,-0.011096521280705929,-0.026748707517981533,0.14148753480054438,0.1820137550868094,-9.953017047643662
24.69,2.299999952316284,133.0,22.09619140625,27.5369930267334,-79.7827632922723,40.45896221508478,283.2280467300415,0.0028800466097891326,-0.005599488038569689,-0.7416397333145142,0.6707688570022583,0.028904163280185063,0.045908254254427266,3.1765451436034224,0.007725146133452655,0.08885043114423752,0.00889855157583952,0.05632551575079561,0.13478049522265792,-9.74120283007622
24.8,2.299999952316284,135.0,22.237672805786133,24.55507850646973,-79.78276329095681,40.45896217932847,283.85739071655274,0.004266367293894291,-0.0079308170825243,-0.7414425611495972,0.6709558963775635,0.025171299666843738,0.04166065986920482,3.1169380955843486,-0.028796661645174026,-0.02409772388637066,-0.06463658064603807,0.15716175466775895,-0.0337002264149487,-9.5608220744133
24.89,2.200000047683716,136.0,22.097442626953125,27.41771697998047,-79.78276322220299,40.45896209080514,284.20061333465577,0.005706377327442168,-0.008286070078611374,-0.741268515586853,0.6711331605911255,0.018254621636185176,0.040615392920063935,3.1006679702860054,-0.01972490362823009,0.012783691287040707,-0.07248449325561522,0.09168108891695738,0.12867439409717918,-9.4760970890522
25.1,2.299999952316284,138.0,22.091182708740234,27.67217254638672,-79.78276324285184,40.458962082831434,284.50945790100104,0.006004565395414829,-0.008510792627930641,-0.7410351037979126,0.6713855862617493,0.024543120935095558,0.04238037242860049,3.0785496762338576,0.08875659853219986,0.08401419967412949,0.09911426156759262,0.09449096839874983,-0.16817178765311838,-9.574414511919024
25.19,2.200000047683716,138.0,22.15503692626953,25.978445053100586,-79.7827633013494,40.45896204234568,285.1670239715576,0.006264558061957359,-0.007272092159837484,-0.7407630085945129,0.6716979742050171,0.014388051829105762,0.017338016547408013,3.0984003387468206,-0.004027890507131815,-0.00518714589998126,-0.02472501061856747,0.08587677720934153,0.0010729320952668788,-9.728376962542532
25.3,2.200000047683716,140.0,22.08867835998535,27.497234344482425,-79.78276335343743,40.458962040009645,285.47631390380866,0.006994356401264668,-0.0057336930185556394,-0.74053955078125,0.671951949596405,-0.011660072116866968,0.013621174706042244,3.0873706939037664,-0.11371707916259766,-0.09215733408927916,-0.08855180442333221,0.06175890385173261,0.2032816315814853,-9.684743869900704
25.5,2.0999999046325684,139.0,22.117475509643555,26.837236404418945,-79.78276357723259,40.458962183304855,286.1248486785889,0.0049150013364851475,-0.005695867352187634,-0.7397444248199463,0.6728459596633911,-0.03791105835887491,-0.028188410427392226,3.0943215382812177,0.03330838680267334,0.04846984520554543,0.08741487562656403,0.10652671264484526,-0.08504326575435699,-9.641783791780473
25.7,2.200000047683716,142.0,22.09243392944336,26.646394729614247,-79.78276369166701,40.45896219154748,286.4474805145264,0.0036895691882818937,-0.00570028740912676,-0.7396119236946106,0.672999382019043,-0.02260865522018012,-0.04734529506839839,3.094101549631944,-0.03809637203812599,-0.010636605322360992,0.015856858342885968,0.07026648385450245,-0.13919536231085658,-9.655460429191589
25.8,2.200000047683716,139.0,22.133752822875977,26.15338516235352,-79.7827639121418,40.45896225679278,287.0639117507935,0.004163558129221201,-0.0035723012406378984,-0.7402257323265076,0.6723360419273376,-0.03172719117261486,-0.06137661379974016,3.0673732261894444,0.013685788027942179,0.004481641110032797,-0.011019936762750149,0.149594754120335,0.0879888097755611,-9.650351716876033
26.0,2.299999952316284,139.0,22.107460021972656,26.69410514831543,-79.78276399327834,40.45896225279225,287.3853104858398,0.003978637978434564,-0.003285932820290327,-0.7406147718429565,0.6719101667404175,-0.04800563099591272,-0.05961694311894485,3.0638589357314028,-0.02333371527493,0.023145942017436028,0.017177782952785492,0.0855996740050614,0.04490511786192656,-9.602128559947014
26.2,2.4000000953674316,140.0,22.01981544494629,28.50710868835449,-79.78276411107319,40.45896234405149,288.0128882675172,0.0012473128736019135,-0.006161718163639307,-0.7409862875938416,0.6714907288551331,-0.052771309977657416,-0.0605486565626658,3.056176965570808,-0.1315823793411255,-0.05064393952488898,-0.057631701231002815,0.08905507695861163,0.0078297689370811,-9.659611367583274
26.3,2.4000000953674316,140.0,22.02357292175293,28.30036354064941,-79.78276431679006,40.458962463067046,288.62168152618415,0.004168108105659485,-0.00817014928907156,-0.7403305768966675,0.6721804141998291,-0.0469218126581671,-0.056522054272210284,3.043604080194513,0.01815764233469963,-0.046566884964704514,-0.015567312948405744,0.05663901787251234,0.025578859574161467,-9.787545522451401
26.4,2.5,135.0,22.02482414245605,27.966388702392567,-79.78276447781369,40.45896240556249,288.94684918212886,0.006563656497746706,-0.0064842826686799535,-0.7401006817817688,0.6724328398704529,-0.03673672319238392,-0.05143473650187393,3.074454223056516,0.12876589596271515,-0.02072792872786522,0.042590316385030746,0.11720498009584845,-0.03844981919042766,-9.90067745089531
26.6,2.5,135.0,21.981002807617188,28.89674568176269,-79.78276471096142,40.45896244858504,289.56285221862794,0.005467777606099844,0.0005384354153648019,-0.7402575016021729,0.6723010540008545,-0.05815759352583124,-0.06345804942722848,3.1017173819593484,0.05568685755133629,-0.037057727575302124,0.01951012201607228,0.08488331699743867,0.040953569523990166,-10.010312744379043
26.69,2.5,135.0,22.08867835998535,26.63049125671387,-79.78276482628478,40.458962492429364,289.87436421203614,0.0030211093835532665,0.0010555527405813336,-0.7403325438499451,0.6722332835197449,-0.06657054970983846,-0.08076686190479462,3.127466162458451,-0.010480713099241257,-0.015964535996317863,0.038201749324798584,0.049535093964077535,-0.043636080203577884,-10.0379045855999
26.9,2.5,135.0,22.157541275024414,25.49338722229004,-79.78276493605661,40.45896253668808,290.18743641662604,0.0005441842949949205,0.0004027103714179248,-0.7403398156166077,0.6722325682640076,-0.05516569998607175,-0.0887437968804429,3.1308233894108923,0.03112945891916752,-0.030114557594060894,0.04697968810796738,0.07286961858160794,-0.05233869682531804,-9.90139198064804
26.99,2.5,134.0,22.09243392944336,26.06591415405273,-79.78276514477342,40.458962540149706,290.79881031799323,0.0019038091413676734,0.00434510037302971,-0.7410911321640015,0.6713877320289612,-0.023521494884898318,-0.08003953301034522,3.078219316325644,0.1085321679711342,-0.018588017672300342,0.14913861453533173,0.04964201578404755,-0.20696640070527794,-9.629781796932221
27.2,2.5,132.0,22.01981544494629,27.91867828369141,-79.78276526622523,40.45896258890545,291.10079701232917,0.005082050804048778,0.006345955654978752,-0.7417603731155396,0.6706157326698303,-0.04008766472146325,-0.08517538449702955,3.0586512502708514,0.08277832716703415,0.01518663950264454,0.0410761833190918,0.07347204624675215,-0.22144544055685408,-9.71331862807274
27.3,2.4000000953674316,134.0,22.008546829223643,27.9266300201416,-79.78276541324499,40.45896262148678,291.71397145080573,0.007116910070180894,0.001971297897398472,-0.7427341938018799,0.6695457100868225,-0.058096510774285584,-0.054973011392172214,3.073719550409752,0.021385658532381058,0.0884590744972229,0.05862352997064591,0.12681449529714886,-0.10801106488332153,-9.92116375565529
27.51,2.4000000953674316,132.0,21.997278213500977,28.530963897705078,-79.78276552338997,40.45896267847872,292.3289387969972,0.0016201796242967248,-0.002595197409391403,-0.7418283224105835,0.6705828905105591,0.00299720322076036,-0.024253692895018792,3.064077139208424,0.11614928394556046,0.0047487523406744,0.0911676585674286,0.14842198538593948,-0.2405281760171056,-9.769193451404572
27.6,2.200000047683716,128.0,22.04610824584961,26.964466094970703,-79.78276568912888,40.45896281497254,292.6356099395752,8.866374264471233e-05,-0.0007743866299279034,-0.7410864830017091,0.6714092493057251,-0.02887577754638245,-0.037041207596021766,3.067198625382616,-0.02917827852070332,-0.048730626702308655,-0.0052823256701231,0.0638051004242152,0.005414539966732264,-9.882079796791077
27.8,2.0999999046325684,125.0,22.02607536315918,27.68807601928711,-79.78276574549719,40.4589628433225,292.9427426605225,-0.00031522123026661575,0.002073565497994423,-0.7403932809829712,0.6721706986427307,-0.010099524974306114,-0.043976956157062035,3.076453669929776,0.104440376162529,-0.035598333925008774,0.02991562709212303,0.1060523938201368,-0.2415196810662747,-9.93335403084755
27.99,2.0999999046325684,125.0,21.98976707458496,28.849035263061523,-79.7827659379094,40.45896292935095,293.55270321655274,0.0018518463475629687,0.003106392454355955,-0.7402312755584717,0.6723427176475525,-0.04660542312477573,-0.05030715761531472,3.0913798035347884,-0.0466349758207798,-0.042416855692863464,-0.06988340616226196,0.1328158307634294,0.0657047100411728,-9.909954643249511
28.1,2.0,124.0,22.028579711914066,27.37795829772949,-79.78276589099063,40.4589631534105,294.1580403594972,0.003586898790672421,0.001467042020522058,-0.7408434748649597,0.6716666221618652,-0.07174375182463702,-0.01918613742679754,3.073664111390056,0.009560290724039078,0.0013917525066062804,0.024127410724759102,0.10604987220838666,0.00819825315847993,-9.834199286699297
28.2,1.7999999523162842,118.0,22.14627265930176,25.056039810180664,-79.78276590490947,40.45896319447115,294.4656537322998,0.0029560122638940807,-0.00019209006859455258,-0.7408460974693298,0.6716683506965637,-0.04913627364407967,-0.0045375195233482105,3.0730432527924267,0.11857563257217407,0.07479912787675858,0.10086006671190262,0.15518636422231796,-0.2062407246977091,-9.789503754973412
28.4,1.7999999523162842,113.0,22.012304306030273,27.9266300201416,-79.78276603479469,40.45896340467886,294.77922756958014,0.004321135114878415,-0.0006851860671304166,-0.7407627701759338,0.6717525124549866,-0.08858856693480457,-0.007520706467916492,3.044246173447152,-0.024789640679955482,0.03304174169898033,-0.05211051553487778,0.11984627704136075,0.08928560343571007,-9.615370749235154
28.6,1.7000000476837158,109.0,22.04986572265625,26.48735809326172,-79.78276606733431,40.45896351530579,295.3850472717285,0.008532562293112278,-0.0014021232491359115,-0.7405394911766052,0.6719571948051453,-0.07624184857614953,0.006780791020522543,3.01750719438457,0.10807814449071884,0.11047239601612092,0.0622117891907692,0.1694304556399584,-0.04070820573717356,-9.727589342594149
28.71,1.7999999523162842,112.0,21.86080551147461,31.01987075805664,-79.78276602528683,40.45896347726554,295.6911996154785,0.008109167218208313,-0.0038955947384238243,-0.7395228743553162,0.6730713844299316,-0.06621715310840502,0.035668686357746546,3.0206264592622314,-0.05054113641381264,0.033457819372415536,0.0019450681284070013,0.12001308714039625,-0.1036017343774438,-9.726139233112336
28.8,1.7999999523162842,120.0,22.021068572998047,26.72591209411621,-79.78276603503572,40.45896354079694,296.29789479064937,0.0028840024024248123,-0.005250103306025268,-0.7372777462005615,0.6755632758140564,-0.03694918476885108,0.03929895459719804,3.0637884847946517,0.053265906870365136,-0.019920041784644127,0.017443392425775528,0.17610956562682986,-0.03096212150529027,-10.110215932130815
28.99,1.8999999761581416,125.0,22.001035690307614,28.181087493896484,-79.78276573824367,40.458963485760435,296.9073670654297,0.006177220493555069,0.0024668865371495485,-0.736318051815033,0.6766029596328735,-0.005817369906938767,0.044458684888005945,3.0927609793373834,0.13489246368408206,-0.036270804703235626,0.01904930360615253,0.07453280882444233,-0.1503504884708673,-9.899774640798569
29.1,1.8999999761581416,137.0,22.04861259460449,26.511213302612305,-79.78276563723199,40.45896357721078,297.2085526733398,0.008299213834106922,0.005671473685652018,-0.7365260720252991,0.6763345003128052,-0.04056864594192575,0.049507629695891335,3.0805125381636365,0.12742695212364194,0.00020321203919593245,0.03474583849310875,0.17414199583232404,-0.11599035808816552,-9.85125912308693
29.3,2.0,147.0,22.08241844177246,26.837236404418945,-79.782765589023,40.45896357867132,297.51641590881354,0.008897228166460991,0.005477708298712969,-0.7370558977127075,0.6757510900497437,-0.05444333653085811,0.05315673977458449,3.073630376855839,0.10771413892507553,0.11886280030012132,0.09570835530757904,0.17345933340489866,-0.11728754460811615,-9.774096926450733
29.49,2.0,166.0,22.01605987548828,27.529041290283203,-79.78276544952102,40.45896359648078,298.1270459442139,0.008910268545150757,-0.00036478537367656827,-0.7386184334754944,0.6740647554397583,-0.0365460921966429,0.08250305748972131,3.0281788084555603,-0.05717010423541069,0.059625029563903816,0.02823179587721825,0.137854632306844,-0.01726779626682401,-9.63116817176342
29.6,1.8999999761581416,167.0,22.081167221069336,25.88302421569824,-79.78276525128463,40.458963610499026,298.738160446167,0.011461078189313412,-0.00378223741427064,-0.7403565645217896,0.6721060276031494,-0.000790421253836146,0.10667368750452808,3.050485183787457,-0.010138391517102718,-0.0036490154452621937,0.02063208445906639,0.16132510012015702,-0.07878921180032195,-9.859661571979524
29.69,2.0,185.0,21.954710006713867,28.4912052154541,-79.7827651877738,40.458963573080894,299.0425751953125,0.014115635305643082,-0.00365762272849679,-0.7415822148323059,0.6707035303115845,0.0003301631775328032,0.11816034043077472,3.0321972048412835,0.011104324832558632,0.018646398559212685,-0.003483595326542855,0.2321426292322576,0.09983142231591048,-9.698158552050591
29.89,1.8999999761581416,195.0,21.984758377075195,27.84711265563965,-79.78276493840299,40.45896347874756,299.64881832885743,0.011094455607235432,-0.0061689922586083395,-0.7431185245513916,0.6690394282341003,0.01633758331576078,0.1330195081579324,3.0270105137165344,0.03717074543237686,0.009967604652047156,0.06155073270201681,0.2231957131996751,-0.060176857430487875,-9.799584354758263
30.1,1.7999999523162842,199.0,21.89711570739746,29.80324935913086,-79.78276487851406,40.45896342249528,299.95163853454585,0.008841266855597496,-0.00735356518998742,-0.7431107163429259,0.6690697073936462,0.040580602013798574,0.12801014620459938,3.021756993059101,0.03603588044643402,0.07172256708145143,0.06632144749164581,0.16800280312076213,-0.07280637728981675,-9.740586533546448
30.21,1.7999999523162842,197.0,22.00604248046875,27.099645614624023,-79.78276476302695,40.45896347322957,300.25981838989264,0.008188508450984955,-0.007454813923686744,-0.7428349256515503,0.6693831086158752,0.052042099945620535,0.12108468916030055,3.0297990058919577,0.0422716848552227,-0.03085356950759888,0.016535425558686256,0.20666788207367065,-0.2326932907663285,-9.842260258197783
30.39,1.8999999761581416,200.0,21.96347427368164,28.01409912109375,-79.78276465346029,40.45896337501434,300.87097103881837,0.006627701688557863,-0.006969891022890806,-0.7420375943183899,0.6702893376350403,0.04967578505481232,0.11530127719553496,3.072706507588957,0.041350167244672775,-0.003588682739064097,0.025285456329584118,0.2245119579881429,-0.22987189957872034,-9.982686989307405
30.5,2.0,204.0,22.07740974426269,26.495309829711914,-79.78276449867617,40.458963378854925,301.1760895996094,0.0058611910790205,-0.0070567415095865735,-0.7416270971298218,0.6707497239112854,0.03481070688680698,0.11627537627283095,3.070746229778588,-0.08485254645347595,0.009234460070729256,-0.11411385983228685,0.14216275116428734,-0.020303771132603288,-9.840742321014405
30.6,2.0,206.0,22.028579711914066,26.89289855957031,-79.7827643014243,40.458963333001996,301.7865765838623,0.007535814307630062,-0.006545064505189657,-0.7405781745910645,0.6718961596488953,0.03260823412067127,0.11236194971922048,3.035696274630212,0.01307702623307705,-0.006595331709831953,-0.024076957255601883,0.21139365658164025,0.011579743651673198,-9.61858204007149
30.8,2.0999999046325684,209.0,21.90087127685547,29.190961837768555,-79.78276417384474,40.45896326896014,302.39068348693854,0.006677018012851478,-0.005572505295276642,-0.7402662038803101,0.672257661819458,0.015064446573988591,0.11028851899100296,3.018815107459913,0.02927744947373867,-0.0024121692404150963,-0.00772895198315382,0.20575262837111952,-0.018664330635219814,-9.819410508871078
30.89,2.200000047683716,200.0,21.86080551147461,30.654088973999023,-79.78276401573248,40.45896324605032,302.70114071655274,0.006399684585630894,-0.006050968542695046,-0.7402431964874268,0.6722815036773682,0.00986840601263341,0.11047839796148304,3.0439832487389635,0.03121362440288067,0.044720340520143516,-0.014775946736335753,0.15453209733590484,0.0039935752004385,-9.872408502101898
31.11,2.299999952316284,201.0,21.942188262939453,27.266632080078125,-79.78276380223222,40.45896331471537,303.31319172668464,0.010458704084157944,-0.0035934357438236475,-0.740387499332428,0.6720893383026123,-0.014400681353774397,0.11489530860003624,3.0722630387862617,0.0645083412528038,-0.000426740269176662,0.02353472076356411,0.265420960765332,-0.03750636637676509,-9.90926350235939
31.3,2.5,203.0,21.905879974365234,28.9444580078125,-79.78276373439756,40.458963306932226,303.6209328918457,0.011815579608082771,-0.0013280318817123769,-0.7405372858047485,0.6719101071357727,-0.038667666060491684,0.12175356785466344,3.0745536418668378,-0.0752909705042839,-0.05333687737584114,-0.10730033367872238,0.17337935445830227,0.042225750060752035,-9.800965467095377
31.41,2.700000047683716,204.0,21.908382415771484,29.10349273681641,-79.78276366427272,40.458963293721816,303.92867596435553,0.011953012086451057,0.0001247585896635428,-0.7407411336898804,0.671684205532074,-0.03782095754060687,0.11616749281719947,3.0799306047188857,0.003684119088575244,-0.07014399766921997,-0.0534152127802372,0.2443143395148218,-0.009608811708167195,-9.886509647369383
31.5,2.9000000953674316,202.0,22.02607536315918,26.1772403717041,-79.78276346889359,40.458963391068565,304.53907521057135,0.011688965372741222,-0.001294829766266048,-0.7406188845634459,0.6718224287033081,-0.03053303017767155,0.10191549990657,3.1039973565627235,0.04566976800560951,0.04365420341491698,-0.048458997160196304,0.20286309884861112,0.0288257316313684,-9.970058172941206
31.7,3.0,200.0,21.959716796875,27.831209182739247,-79.78276334299777,40.458963440311706,305.14928753662116,0.014188424684107304,-0.007375692017376424,-0.7399441003799438,0.6724782586097717,-0.030710304639072268,0.11889391890214886,3.043205348875824,-0.04276154562830925,0.04055846855044365,0.07187788933515549,0.19370902692899108,-0.2349991219863296,-9.556217392086984
31.89,3.0999999046325684,197.0,21.869569778442386,29.501081466674805,-79.78276329799249,40.45896342497301,305.4522813110352,0.014594780281186104,-0.010498272255063057,-0.7397961020469666,0.6725909113883972,-0.0047532454296768355,0.12408624134316452,3.013349598461998,0.08852037787437439,0.08398133516311647,0.06104744598269464,0.299398674108088,-0.26451208418235184,-9.575861113071443
32.0,3.0999999046325684,197.0,21.92716407775879,28.87289047241211,-79.78276317783087,40.45896345187853,305.75313885498053,0.014917846769094469,-0.011572356335818771,-0.7400907278060913,0.6722419857978821,-0.006024509702216116,0.13230686856451684,3.01139064273785,-0.0339692048728466,0.05238262563943863,-0.039666347205638885,0.19553810907527805,-0.1348607939388603,-9.646639904379844
32.1,3.2000000476837163,193.0,21.835763931274414,30.359872817993164,-79.78276299287317,40.45896349648937,306.36156399536134,0.012421085499227049,-0.009927644394338131,-0.7406992912292479,0.6716485023498535,-0.0009150237234547343,0.12045507877833768,3.020397321510185,0.10249612480401993,0.027353404089808464,0.11933904141187668,0.2339636531844735,-0.18064738869667046,-9.800578381419182
32.3,3.299999952316284,191.0,21.981002807617188,27.3620548248291,-79.78276299041153,40.45896348866168,306.96572430419917,0.014564868994057178,-0.0035449734423309565,-0.7408411502838135,0.6715130805969238,-0.023374341101381767,0.07406999423016714,2.9983448686525254,0.13063892722129822,0.0002730796695686877,0.11724158376455307,0.182136601433158,-0.051119812745600936,-9.59061012983322
32.4,3.4000000953674316,189.0,21.908382415771484,28.96831321716309,-79.7827629904607,40.458963751778114,307.26013119506837,0.014037876389920713,-0.0006923432811163366,-0.7404900789260864,0.6719204187393188,-0.08486524069440707,0.04818442804725105,2.962037119160528,0.07747989147901535,-0.010157739743590357,0.09680474549531937,0.10807129120454192,-0.3468217857554555,-9.429835672974587
32.6,3.4000000953674316,189.0,21.895862579345703,28.96831321716309,-79.7827630190138,40.45896379564608,307.55491955566407,0.012014384381473064,0.00020297200535424054,-0.7398381233215332,0.6726776957511902,-0.09695657524601647,0.02741555788898169,2.9340845593542437,0.023806992918252945,-0.05156313255429268,0.02763062529265881,0.2179187655262649,-0.3467333100736141,-9.56191433429718
32.8,3.299999952316284,186.0,21.928415298461914,28.13337707519531,-79.78276316160076,40.45896418759236,308.1545251159668,0.0073788571171462545,-0.003422437934204936,-0.7399652004241943,0.6725959777832031,-0.13243025263455974,-0.006535544598683786,2.9624723581744212,-0.00633970508351922,-0.03696812689304352,0.05097493901848793,0.12855183097533882,-0.15326020915992558,-9.771805402636527
32.9,3.299999952316284,185.0,21.924659729003906,28.18903923034668,-79.78276321145904,40.458964277736726,308.45079739379884,0.00964280031621456,-0.001410578959621489,-0.7412264943122864,0.6711843013763428,-0.1127758880868282,-0.005350387269237159,2.9580918543645067,0.1241159364581108,-0.023478316143155098,0.003729413729161024,0.1998353192210197,-0.0031663951836526393,-9.747978583574298
33.0,3.5,181.0,21.942188262939453,27.81530570983887,-79.78276333173169,40.458964391935865,309.04812939453126,0.01551605574786663,0.004163319244980812,-0.7438125610351562,0.6681952476501465,-0.13578905885412898,-0.0019197930324451329,2.962921027871536,0.06164850294589996,-0.05049588158726692,0.03117555938661098,0.17710266038775446,-0.1674087625555694,-9.796600520610813
33.2,3.5,180.0,21.801958084106445,29.66011619567871,-79.78276342781798,40.458964389601995,309.6451905517578,0.013252702541649342,0.0019369054352864625,-0.7433632612228394,0.6687539219856262,-0.09731443526263234,-0.0010407737645082363,2.9598131419599274,-0.028335725888609886,0.009316204115748405,-0.0004684317682404071,0.1363616188801825,-0.3825173927843571,-9.794251694083217
33.3,3.4000000953674316,179.0,21.855796813964844,29.175058364868164,-79.78276347485341,40.45896441050967,309.94184429931636,0.011218718253076077,-0.0006845675525255501,-0.7422833442687988,0.6699918508529663,-0.08073699413235673,0.0017346994854747085,2.971662262577057,-0.0560283362865448,0.07095866650342941,-0.01470878813415766,0.09605188261717558,-0.1354118117876351,-9.875459579229355
33.5,3.5,177.0,21.862056732177734,27.48928260803223,-79.7827633727223,40.45896438543237,310.2264016418457,0.01051484327763319,-0.0033589736558496948,-0.7412288188934326,0.6711617708206177,-0.025324714501980032,0.005735996570396492,2.9716830326918204,0.06019758060574532,0.062414970248937614,-0.014022761024534702,0.10213294121436776,-0.3335088451579213,-9.827264488935473
33.69,3.5,175.0,21.90963554382324,28.642290115356445,-79.78276342902737,40.458964390821,310.8156350402832,0.011135892011225224,-0.006125027313828468,-0.7393044233322144,0.6732513904571533,-0.018517041613083655,0.011449125071869622,2.9995383955968955,0.04831074923276901,-0.02307490818202496,0.018027426674962044,0.15857217617332936,-0.019710022928193214,-9.922215085029602
33.81,3.4000000953674316,176.0,21.974742889404297,28.38783264160156,-79.78276356912245,40.45896439518332,311.41559536743165,0.006534846965223551,-0.0003920822637155652,-0.7381526231765747,0.6746020317077637,-0.035019659262762154,-0.002331505085492385,3.0108162178342424,-0.04149601981043816,-0.19591109454631805,-0.02669605426490307,0.1795141069404781,-0.26050816671922805,-9.935219292640687
33.9,3.0999999046325684,179.0,21.96597671508789,26.24880599975586,-79.78276362002428,40.458964508732414,311.70556958007813,0.005220465362071991,0.004361347295343876,-0.7376270294189453,0.6751741766929626,-0.04038155176277052,-0.025340046605930592,3.0159075637215853,0.07753013819456099,-0.03819497674703598,-0.027676768600940704,0.21017180778086186,-0.1242287377640605,-9.982456609010695
34.1,3.0999999046325684,179.0,21.8670654296875,29.61240577697754,-79.78276367653876,40.45896463096214,312.29769833374024,0.011756312102079391,0.006624963134527206,-0.739012598991394,0.6735565066337585,-0.10430329046284624,-0.03717370409498733,3.0088884795984043,-0.05965556204319,0.050668664276599884,0.018679730594158173,0.11662333745509387,-0.1153633447084576,-9.83630194544792
34.2,3.0999999046325684,182.0,21.992271423339844,25.89097595214844,-79.78276370132666,40.45896465863954,312.59931500244136,0.014401988126337528,0.0030795072671025987,-0.7406533360481262,0.6717259287834167,-0.1135501754074782,0.004530423378962499,3.023638255379232,-0.014016215689480305,0.09503765404224396,-0.06900488585233687,0.2260484966263175,-0.10560309011489154,-9.92175549387932
34.4,3.2000000476837163,184.0,21.894611358642575,28.419639587402344,-79.78276370735111,40.4589646911484,312.90222103881837,0.01579546183347702,-0.00019506944227032363,-0.7424315810203552,0.6697356700897217,-0.11430624699833375,0.043258530599885936,3.0244114883300877,0.02236064150929451,0.017423618584871292,0.18731042742729187,0.2722625868022442,-0.29165582768619064,-9.79430022597313
34.6,3.2000000476837163,190.0,21.80821990966797,30.04180145263672,-79.78276386777179,40.4589651342659,313.7826951293945,0.02233150042593479,0.001034356071613729,-0.7440981864929199,0.6676961779594421,-0.1855417206452392,0.0468751628923611,2.9714057756078627,-0.06606478989124298,0.022540118545293808,-0.11408966034650805,0.25983179004862905,0.04744346726685763,-9.77193579554558
34.7,3.0999999046325684,193.0,21.937179565429688,26.86904335021973,-79.7827638930277,40.45896520294007,314.0814851074219,0.02060697413980961,0.0004822743940167129,-0.7435677051544191,0.6683429479598999,-0.16141773634952966,0.05254957206194843,2.9969995286868265,0.0990983173251152,0.042342029511928565,0.0988745540380478,0.3205809071660042,-0.4645486755296589,-10.011267009973524
34.8,3.0999999046325684,199.0,21.9309196472168,27.84711265563965,-79.78276382769404,40.458965290627134,314.3786690979004,0.020017577335238457,-0.0004695905954577028,-0.7426645755767822,0.6693642139434814,-0.14942338240102007,0.0601944248984415,2.9995185090340057,0.055792894214391715,0.073570117354393,0.060045115649700165,0.2443994347751141,-0.4030101294815541,-9.880944267511367
34.99,3.0999999046325684,199.0,21.96347427368164,26.65434646606445,-79.7827638395511,40.458965344467174,314.6787942199707,0.021596042439341545,-0.0016059632180258634,-0.741522490978241,0.6705784797668457,-0.1409613781402218,0.06660986607631418,3.000304722052201,-0.0020551732741296287,0.09403976052999496,-0.116617850959301,0.286969978697598,-0.15919134149327874,-9.834130289554595
35.2,3.0,204.0,21.91339111328125,27.47337913513184,-79.7827638290967,40.45896551542689,315.2767403869629,0.02272243425250053,-0.002337257144972682,-0.7400344014167786,0.6721811294555664,-0.1455637106185718,0.08361396026960395,3.0042507021103444,-0.044092897325754166,0.00157785986084491,0.007527939975261687,0.3013101289048791,-0.11278920851647856,-9.817810710668565
35.3,2.9000000953674316,207.0,21.858301162719727,28.70590400695801,-79.78276386827636,40.45896558722828,315.8768037109375,0.01856456883251667,-0.0004129765438847244,-0.7396257519721985,0.6727621555328369,-0.12288788168621292,0.07205041440298797,2.982617280420714,-0.0560343898832798,-0.11830225586891174,-0.04673200845718384,0.29578326757997275,-0.019390637045726185,-9.671211073994636
35.5,2.9000000953674316,208.0,21.96096992492676,26.38398551940918,-79.78276377960732,40.45896553532865,316.1785691528321,0.01643991470336914,0.0007159255328588188,-0.7399353981018066,0.6724767684936523,-0.08030273536215561,0.06995550650065327,3.0014244692770498,0.06636595726013184,0.01539680827409029,0.0494973249733448,0.19843659214675427,-0.14810763359069826,-9.8712542617321
35.6,2.9000000953674316,209.0,21.87958526611328,28.5468692779541,-79.78276371795663,40.458965606655006,316.7797959594726,0.014094344340264797,0.0007741188164800408,-0.7410392761230469,0.6713134050369263,-0.06312177276217518,0.06444038715950272,3.0253582366950096,0.09289325773715973,0.04858146980404854,0.1054294928908348,0.28246965089812875,-0.29432414973154664,-9.904398618936538
35.8,2.9000000953674316,208.0,22.06614112854004,24.29266929626465,-79.78276370553951,40.45896560647196,317.0830453186035,0.014170460402965547,-0.00012370123295113444,-0.7417020201683044,0.6705798506736755,-0.06491898460580114,0.06743557138383942,3.035966043020625,-0.015195025131106375,0.06679421663284303,-0.015069257467985153,0.19722514042630795,-0.2302066709473729,-9.87969179391861
35.9,2.9000000953674316,209.0,22.192598342895508,21.73219871520996,-79.78276368151757,40.4589656037146,317.38606579589845,0.014174159616231918,-0.00011770248238462956,-0.7424516677856445,0.6697496771812439,-0.07312832756619497,0.0860642479907941,3.0108736454804643,-0.11081434786319733,-0.0796639546751976,-0.008833074010908605,0.2730348578095436,-0.09438032811507584,-9.57218964636326
36.1,2.799999952316284,211.0,22.160045623779297,21.97075080871582,-79.78276356299048,40.45896558612039,317.9673913269043,0.017425868660211563,0.0018404347356408839,-0.7434815168380737,0.6685269474983215,-0.05555874879806441,0.09325437397985034,2.8478493352009537,0.0027786095160990953,-0.02061899751424789,0.00020505784777924416,0.23003783259540803,-0.1723701981268823,-8.966174860596658
36.21,2.700000047683716,210.0,22.15629005432129,22.074125289916992,-79.78276360506891,40.458965554949714,318.2620652465821,0.02130849845707416,0.0003976648149546236,-0.7434357404708862,0.6684677600860596,-0.06795366539077052,0.09675735706847374,2.7866981550539607,-0.04292633384466171,0.020878294482827187,-0.07782057672739029,0.24377469632774595,-0.11372194904834032,-8.796982752084732
36.3,2.700000047683716,210.0,22.18132972717285,21.461837768554688,-79.78276352869331,40.458965503054365,318.7966950683594,0.026585029438138008,-0.00625948840752244,-0.7419317960739136,0.669918954372406,-0.05307681995126605,0.12472538211438715,2.5516338095826105,-0.02467779815196991,0.062240436673164375,-0.13306903839111328,0.31364786356687546,0.05561589217744768,-8.617486680150032
36.5,2.700000047683716,210.0,22.153785705566406,21.84352302551269,-79.78276348335989,40.45896545673768,319.289954498291,0.027458960190415386,-0.011097528040409088,-0.7398381233215332,0.6721327900886536,-0.016747211670592677,0.1241650068021681,2.3090342733881464,-0.02708788774907589,0.010387999005615713,-0.08448199927806854,0.2520758056640625,-0.15626046119257808,-8.456206439137459
36.6,2.700000047683716,210.0,22.165054321289066,21.80376434326172,-79.7827634642226,40.45896545557344,319.52220471191407,0.02719791792333126,-0.011172162368893623,-0.7391546964645386,0.6728936433792114,-0.0031847141344375496,0.11073546250667564,2.208828006738461,0.02264072000980377,-0.0038178686518222094,-0.019134223461151127,0.32849971823394297,-0.2252737770974637,-8.588371054530144
36.8,2.700000047683716,209.0,22.09243392944336,23.75990104675293,-79.78276348824453,40.4589654106561,319.7374604492188,0.026035381481051445,-0.0090095279738307,-0.7387455701828003,0.6734211444854736,0.001593616061228497,0.08492528421435858,2.090626182020671,0.04667617753148079,-0.03557319194078445,0.07804735004901886,0.2720354224741459,-0.2394876822642982,-8.612775578498841
36.99,2.799999952316284,207.0,22.153785705566406,22.0661735534668,-79.78276351589672,40.45896533378868,320.14535076904303,0.02267683856189251,-0.0036038456019014116,-0.738601565361023,0.6737510561943054,-0.0011556209360735013,0.03046344544716072,1.9279730737844605,-0.011252258904278278,-0.08795134723186493,-0.07639065384864807,0.2424361224845052,-0.07500724185258151,-8.90248932659626
37.1,2.799999952316284,206.0,22.153785705566406,22.67845916748047,-79.78276358593513,40.45896528707855,320.3341401367188,0.021645430475473404,-0.0024617372546344995,-0.7386184930801392,0.6737716197967529,0.01081010694689398,0.0005421620336733036,1.8482038965623584,0.007341149728745222,-0.050624892115592963,0.0797942504286766,0.17691763255745174,-0.3877943587303162,-8.972032601237297
37.2,2.700000047683716,202.0,22.129995346069336,22.81363868713379,-79.7827636571443,40.45896519852246,320.71224530029303,0.018249372020363808,0.00032485413248650735,-0.7391058802604675,0.6733418703079224,0.010471729179814978,-0.014784089119344937,1.7178000179258603,-0.07382432371377945,-0.08414691686630249,0.04154687747359277,0.2288239506259561,-0.2930213900841773,-8.991810223460197
37.39,2.700000047683716,202.0,22.1988582611084,21.088104248046875,-79.78276367126975,40.458965092670624,321.07817013549806,0.011445214971899986,0.005200530402362347,-0.7394992709159851,0.6730400919914246,0.02829196039070812,-0.02302186245651431,1.6210798991969249,0.029295651242136955,-0.06722430884838104,0.09566116333007812,0.18588313177227966,-0.32426673609763385,-9.07781516432762
37.6,2.700000047683716,195.0,22.008546829223643,25.09579849243164,-79.78276373477563,40.45896503501202,321.2358773498535,0.011114167049527168,0.006998152006417513,-0.739589512348175,0.6729300618171692,0.028867856881172924,-0.02609583040455935,1.537877801114243,0.03656429052352905,0.047367982566356666,0.004835862200707197,0.13184374943375587,-0.13499773755669595,-9.008045017719267
37.69,2.700000047683716,192.0,22.101198196411133,23.4179744720459,-79.78276369393609,40.45896498642748,321.4220155029297,0.012714540585875513,0.007638406939804555,-0.7397765517234802,0.6726891398429871,0.024633282497507455,-0.014541991745668972,1.5219893671696336,0.0061847674660384655,0.02844710648059845,-0.005333207547664642,0.20257901553064586,-0.16077851336449386,-9.166938425302506
37.8,2.799999952316284,187.0,22.167558670043945,21.326658248901367,-79.7827637435147,40.45896486038187,321.7163575439453,0.016731856390833855,0.004680812358856201,-0.740244448184967,0.6721133589744568,0.03579057995944996,0.006487538043589353,1.4246194154842784,0.055748090147972114,0.1661507487297058,-0.020825257524847984,0.18445988293737173,-0.2818920556269586,-9.318570175766943
38.0,2.700000047683716,184.0,22.24768829345703,18.44016456604004,-79.7827637430692,40.458964689035135,322.0068200378418,0.01665179617702961,0.0005143523449078202,-0.7319199442863464,0.6811869740486145,0.01958944128141959,0.007105879511879091,1.0250314844897013,0.006447825580835342,0.0277332104742527,-0.6325656175613403,0.09563086481764912,-0.4825079598650336,-7.244156987071038
38.1,2.5999999046325684,184.0,22.21012687683105,20.110036849975586,-79.78276372820024,40.45896473582955,322.0890191345215,0.014253452420234682,0.0010100867366418242,-0.7061783075332642,0.7078899145126343,0.012643988089500492,0.0017056182688088074,0.7945378965706571,0.0509331040084362,-0.06869171559810637,-0.8744742274284363,0.11004391335882246,-0.3300102733075619,-7.33159157216549
38.3,2.5999999046325684,178.0,22.0673942565918,22.956771850585927,-79.78276375094742,40.458964711995954,322.1583092956543,0.01231143344193697,0.00624734815210104,-0.6745688319206238,0.7380828261375427,0.0158344781865564,-0.010523381264878073,0.6036480456652992,0.08038457483053207,-0.0802956372499466,-0.926382541656494,0.0054794669011607785,-0.25953592093661426,-7.7705215859413155
38.4,2.4000000953674316,176.0,22.097442626953125,22.82954216003418,-79.78276373989428,40.458964725347,322.19840557861335,0.012869400903582571,0.010484506376087666,-0.6099828481674194,0.7922406792640686,0.011358589686217805,-0.01769285693419704,0.37059962441737787,-0.0184522233903408,-0.04433023557066917,-0.7158793807029724,0.09265298752114176,-0.1288019547611475,-8.840388972759246
38.6,2.4000000953674316,176.0,22.111215591430664,22.75002479553223,-79.78276375015757,40.458964691790904,322.2324708251953,0.0127372145652771,0.009749485179781914,-0.5812808871269226,0.8135449290275574,0.019809565625694726,-0.013471097820834863,0.31385492103193785,-0.09036705642938614,-0.08878587186336517,-0.6809096932411194,0.06982262536883355,0.02814645647769794,-9.11144776403904
38.69,2.299999952316284,164.0,21.902122497558594,27.19506645202637,-79.78276379113271,40.45896469235613,322.2000840454102,0.01556207425892353,0.007402629591524602,-0.5422440767288208,0.8400443792343141,0.08307546162498214,-0.0003326731124934645,0.2298455280027073,0.17278742790222168,0.05307646840810777,-0.3613947927951813,0.18633552353829147,0.07974188768304885,-9.653758889436721
38.89,2.299999952316284,161.0,22.031084060668945,24.57893371582031,-79.78276349969823,40.458964598148405,322.21464093017585,0.010396363213658331,0.0386059507727623,-0.5262317657470703,0.8494008779525757,0.1466480144882257,0.1145969844745967,0.23799415302599705,0.10907401889562607,-0.4506663680076599,-0.1253373622894287,0.5981035395339132,-0.3543487602844835,-9.668213206529618
38.99,2.200000047683716,161.0,22.04861259460449,24.316524505615234,-79.78276335441562,40.45896453819135,322.23636944580085,-0.01572244055569172,0.05350339785218239,-0.5253893733024597,0.8490325808525085,0.16138055965176432,0.1882180551293237,0.2363975603598387,-0.15138255059719086,-0.6546180844306946,0.010140894912183285,0.4906866796687245,-0.3226841506361961,-9.75478298842907
39.2,2.200000047683716,160.0,22.022319793701172,25.09579849243164,-79.78276271836731,40.45896461095303,322.2549775390625,-0.045303333550691605,0.0630745142698288,-0.5262012481689453,0.8468067049980164,0.1823150739287641,0.2921210337419708,0.2857680969655166,-0.24219949543476105,-0.6384450793266296,0.04411125555634498,0.19416764963418245,-0.14710352048277855,-9.815560702085497
39.39,2.200000047683716,144.0,22.08241844177246,23.378215789794922,-79.78276144544782,40.45896460376407,322.30112393188483,-0.08011564612388611,0.06926016509532927,-0.5327901840209961,0.8395946025848389,0.2362676483132451,0.6206890580289794,0.35473509384079704,-0.14267632365226746,-0.2547167837619781,0.05260912328958512,-0.007693301547551528,-0.13087779854424295,-9.931353113651276
39.5,2.200000047683716,140.0,21.950952529907227,26.034107208251953,-79.78275961746931,40.45896524089176,322.3075516967773,-0.0873614251613617,0.07189350575208664,-0.5397201776504517,0.8342071175575256,0.2165609168129627,1.028192542235869,0.4822873511839068,0.04415055364370346,-0.017286084592342377,-0.0436088852584362,0.16089660884812476,-0.09957218052819372,-10.025352952480317
39.6,2.200000047683716,140.0,22.06363677978516,23.64857482910156,-79.78275860759915,40.45896583808923,322.2366669921875,-0.08841007947921753,0.07629959285259247,-0.5421195030212402,0.832146942615509,0.16586400851617394,1.2272151086840821,0.5012605000987311,-0.04265309125185013,-0.1238279864192009,-0.0791851356625557,0.14961696440353991,-0.0010186626249924302,-9.981887090206149
39.7,2.299999952316284,138.0,22.04610824584961,24.49941635131836,-79.78275698261766,40.45896620615574,322.2564538269043,-0.0908222272992134,0.08171926438808441,-0.543718695640564,0.8303272724151611,0.1656754718517364,1.4628784336029903,0.5396936614062244,0.047533329576253884,-0.06036349385976793,-0.12566286325454712,0.16579728819429876,0.04944087613373995,-9.852581763267516
39.9,2.299999952316284,134.0,21.96597671508789,26.3521785736084,-79.78275316990768,40.458967597553354,322.20736630249024,-0.09823273122310636,0.09273727238178253,-0.5435038805007935,0.8284647464752197,0.14351394941108114,1.9127869136372169,0.6392860390933901,-0.02128746546804905,-0.08774494379758835,-0.11107709258794783,-0.006390878800302743,-0.1505342006776482,-9.995226927995684
40.0,2.5,131.0,22.053621292114254,23.624719619750977,-79.7827507766735,40.458968220638624,322.2202981262207,-0.10245739668607713,0.09681986272335052,-0.5426085591316223,0.828072726726532,0.15041830812243834,2.1551260640045267,0.7340226243872622,-0.09611360728740692,-0.16881205141544342,-0.11504610627889633,-0.10772698156535626,-0.2001978100463748,-10.120173740386964
40.2,2.5999999046325684,128.0,22.00604248046875,25.286640167236328,-79.78274825179359,40.45896941229711,322.1530869750977,-0.10757701098918916,0.1003265529870987,-0.5409561991691589,0.8280870318412781,0.13121591279341324,2.3944330489328145,0.7916766179066901,-0.06835280358791351,-0.18173900246620173,-0.0013552448945119975,-0.11754118585959078,-0.33297561563551425,-10.082090824842453
40.4,2.9000000953674316,114.0,21.87833404541016,28.04590606689453,-79.78274205452244,40.45897112599848,322.16947872924806,-0.11621851474046707,0.10745158046483994,-0.5383110642433167,0.8277491927146912,0.1717611033372351,2.9041607323466856,0.9867901449016468,-0.04921378940343857,-0.1877901256084442,0.02374310232698917,-0.21497697651386266,-0.4840112424641848,-10.045145777463912
40.5,3.0,109.0,21.82699966430664,28.41168785095215,-79.78273871795291,40.45897277197683,322.1006959228516,-0.11916524916887285,0.11178649961948396,-0.5366150140762329,0.8278574347496033,0.15727948635114047,3.1641060718979857,1.0681626486924063,0.08558265119791031,-0.07343144714832306,-0.08537618815898895,-0.3453788025677204,-0.37051364377141,-10.23569484114647
40.59,3.299999952316284,102.0,21.948448181152344,26.1772403717041,-79.78273104580003,40.458975945696295,322.0393136291504,-0.12328574806451795,0.11858836561441426,-0.5339191555976868,0.8280506134033203,0.12378126537558055,3.689838295251512,1.307737689033402,-0.07343310862779617,-0.08181694149971007,-0.002653342438861728,-0.5607099741697311,-0.3175007401406765,-10.252795608043671
40.8,3.5,98.0,21.915895462036133,27.00422477722168,-79.78272180095466,40.45897869356503,322.04505856323243,-0.12157100439071655,0.12293654680252075,-0.5339647531509399,0.8276405334472656,0.20810034564872906,4.2111514579212646,1.5470769838568792,0.061559993773698814,0.1253974586725235,-0.17096391320228574,-0.6188174837082625,-0.14706434413790706,-10.203912885189057
40.99,3.9000000953674316,88.0,21.93342399597168,25.71603775024414,-79.78271731472694,40.45898137604032,321.98075802612306,-0.1189892515540123,0.1220448836684227,-0.532946765422821,0.8288030028343201,0.14939714376157198,4.4667021438391545,1.60969835631257,0.002124532824382186,0.07619757950305939,0.015393944457173347,-0.7780004746466875,-0.4001259172707796,-10.155727150440217
41.1,4.199999809265137,84.0,21.91714859008789,26.23290252685547,-79.78271196597838,40.45898299861664,321.9824822692871,-0.1160278469324112,0.12033894658088685,-0.5341867804527283,0.8286740183830261,0.2016143598852692,4.716075970584057,1.6734278025190532,0.06858675926923752,0.07903196662664412,0.10487610846757887,-0.8393277534842492,-0.3667848012596369,-10.102054388523102
41.19,4.699999809265137,78.0,21.955961227416992,25.83531379699707,-79.78270098730727,40.45898766181957,321.9308388977052,-0.115292027592659,0.11728250235319138,-0.5363227128982544,0.8278348445892334,0.183987545693694,5.188192809571032,1.7544563920568628,0.04096968099474907,0.05047596618533135,0.17937882244586945,-0.9054039946943522,-0.3835959482565521,-10.146004400253297
41.4,5.0,75.0,21.959716796875,25.827362060546875,-79.78268985680836,40.45899320608951,321.87993557739264,-0.1121307611465454,0.1201990768313408,-0.5413095355033875,0.8245986104011536,0.08328210429133856,5.587326855772628,1.8187813990116242,0.1057802066206932,0.05074963346123696,-0.00995198730379343,-1.0990945480763912,-0.1029296517558396,-9.72201285302639
41.49,5.599999904632568,72.0,21.895862579345703,26.511213302612305,-79.7826833403627,40.4589952520968,321.8746064453125,-0.11059786379337312,0.12132282555103302,-0.5447834730148315,0.8223502039909363,0.0718525413819944,5.779273947444923,1.8634831473822189,0.07279834151268005,0.012572615407407284,0.152932807803154,-1.2261055006831885,-0.25005911925807595,-9.786786553859713
41.7,5.9000000953674325,69.0,21.72182846069336,31.186857223510746,-79.78267750309153,40.45899922059879,321.8235429077148,-0.11027274280786514,0.11824329197406767,-0.5445805191993713,0.8229767084121704,-0.09140233545105964,5.9780878059965925,1.879686638666625,-0.03344319015741348,-0.054563988000154495,0.3127104640007019,-1.1820148634165526,-0.36442314740270376,-9.747095654010774
41.89,6.4000000953674325,66.0,22.118728637695312,22.05821990966797,-79.78266345733293,40.4590037025951,321.80476696777345,-0.11169669032096864,0.10999821871519087,-0.5469867587089539,0.822331964969635,-0.007885409541500174,6.3478083000004855,1.9767513416903848,-0.027261883020401,0.10473310202360152,-0.09624076634645462,-1.167386006936431,0.013541201278567314,-10.131822563409807
42.0,6.699999809265138,64.0,22.07740974426269,22.78183174133301,-79.78265702070551,40.45900825912493,321.76394207763667,-0.11063069850206377,0.10490052402019501,-0.5433568358421326,0.8255422711372375,-0.13891891506434784,6.547473139700145,2.0203883958572324,-0.05580906197428703,0.02965919114649296,-0.2281348556280136,-1.0892620895057916,0.072021324634552,-10.080308593511583
42.09,7.199999809265138,64.0,21.848285675048828,27.9345817565918,-79.7826424745848,40.459015085996974,321.71350033569337,-0.10760559886693953,0.1096046343445778,-0.5390608906745911,0.8281432390213013,-0.11623944642352893,6.915499174572423,1.9724385733096281,0.09962528944015504,0.0015018675476312635,-0.056164324283599854,-1.1092689956724644,-0.2317331962287426,-9.530938709378242
42.3,7.5,61.0,21.783178329467773,28.80927658081055,-79.78263463178942,40.45901772742665,321.698272064209,-0.11015336215496063,0.11330661177635193,-0.5378818511962891,0.8280767202377319,-0.02399386820615709,7.0636874564735255,2.0412153408913394,0.02983716316521168,-0.019547799602150917,0.08367980271577835,-1.3547978201508524,-0.6061238363385201,-9.889834374189377
42.4,7.900000095367432,59.0,21.87457847595215,27.34615135192871,-79.78261901377262,40.459025269227226,321.64591534423835,-0.11994032561779022,0.10575524717569353,-0.530563473701477,0.8324257731437683,-0.07356681758936631,7.371655751262003,2.29119487244129,-0.08960288763046265,-0.06056135520339013,-0.1518974006175995,-1.3710921098291875,-0.0006228289660066366,-10.040475021600724
42.6,8.100000381469728,59.0,21.82699966430664,27.099645614624023,-79.78261061056313,40.45902814716143,321.63594372558595,-0.12463876605033875,0.10306262224912643,-0.5277144908905029,0.8338829874992371,0.06590196498489807,7.541951267788949,2.3749803223681765,-0.14361536502838135,-0.029438372701406482,-0.19199606776237488,-1.3306130053102971,-0.275590346865356,-9.92375407218933
42.8,8.5,60.0,21.950952529907227,25.22302627563477,-79.78259382321328,40.45903644433714,321.58672268676764,-0.1239921823143959,0.10108909010887146,-0.5209383368492126,0.8384690284729004,0.1164571531734114,7.858689051960113,2.584367708285616,0.13519686460494995,0.11477775871753693,-0.19289059937000275,-1.4898769801855087,-0.005291054081171752,-10.091501333713532
42.9,8.699999809265138,58.0,21.875829696655273,25.89097595214844,-79.78258488944141,40.459039625657255,321.5810082702637,-0.11904799938201906,0.10606221109628676,-0.5198474526405334,0.83924800157547,0.14358048779723515,8.034184012276777,2.6027696928143174,0.13469597697257996,-0.04524091258645058,-0.10976072400808334,-1.3274539008736612,-0.2448393463902176,-10.06342417359352
43.1,8.899999618530273,58.0,21.83952140808105,27.29048728942871,-79.78256684495736,40.4590485252548,321.5242455749512,-0.12635411322116852,0.1190468817949295,-0.5154604911804199,0.8391443490982056,0.08992573859345201,8.391053165102143,2.6890981745411064,-0.03163551911711693,-0.1803918480873108,-0.13423579931259155,-1.3920507234334951,-0.20102705486118794,-9.65298413336277
43.2,9.100000381469727,58.0,21.634183883666992,32.10131072998047,-79.78254778042137,40.45905722348253,321.4641183166504,-0.15231961011886594,0.11539603769779205,-0.5107207894325256,0.838240385055542,0.06191983803552234,8.65312204527733,3.1158817883997614,-0.2201267331838608,-0.08843255788087845,0.02346521057188511,-1.7717430339753628,-0.5023399246484042,-9.686567616462707
43.4,9.399999618530273,55.0,21.73810386657715,29.715778350830078,-79.78253794977105,40.45906092758089,321.44764645385743,-0.1598067283630371,0.1107717826962471,-0.5097772479057312,0.8380445837974548,0.10352434362408984,8.770105453289446,3.373864209876672,-0.15899229049682614,-0.06856976449489594,0.13850341737270355,-2.183931684046984,-0.3482052004337311,-9.889411035776137
43.49,9.600000381469727,55.0,21.710559844970703,30.35192108154297,-79.78252793265713,40.45906626744075,321.42854626464845,-0.16036558151245114,0.10834138840436937,-0.5076133012771606,0.8395676016807556,0.043460046269265334,8.93917282204491,3.545548582707686,0.0430544912815094,0.10115373879671097,-0.09332971274852753,-2.0589354626834395,-0.10020974630489947,-10.01243645310402
43.69,9.899999618530273,55.0,21.620410919189453,32.22058868408203,-79.78250734297353,40.45907560620948,321.3969071655273,-0.14881326258182526,0.1170261725783348,-0.5085279941558838,0.8399754762649536,-0.035232147224205916,9.345014002985536,3.6366515493711686,0.14301934838294986,0.01803762279450893,-0.20731286704540253,-1.7464390620589256,-0.37372994128614667,-9.868696689605713
43.8,10.0,55.0,21.669240951538086,31.68781852722168,-79.7824967465675,40.459079799892336,321.38521893310553,-0.14524874091148374,0.12034404277801515,-0.5093367695808411,0.8396405577659607,-0.04547554274440935,9.548091544264091,3.6631085832306383,0.00918734259903431,-0.04240958392620087,-0.1575479954481125,-1.692434909194708,-0.3950245505198837,-9.852356060743332
43.91,10.399999618530273,54.0,21.590362548828125,32.70564651489258,-79.7824749275776,40.459089676984135,321.35139019775386,-0.13857634365558624,0.11871463060379027,-0.5076798796653748,0.8420003652572632,-0.11323224943278935,9.899085988333942,3.7690166500472255,-0.05566610023379327,0.10760582983493804,-0.1366296112537384,-1.8671232542395595,-0.40655957210809,-10.070120404958725
44.1,10.5,55.0,21.55280113220215,33.763233184814446,-79.78245240109622,40.459099411518785,321.33007366943366,-0.1342194825410843,0.11279098689556122,-0.5072082877159119,0.8438027501106262,-0.062069506884764536,10.24907171900793,3.727966576768136,0.003355788066983223,-0.024040987715125084,-0.02030667103827,-2.009062221497297,-0.1735625550337136,-10.002414325475694
44.3,10.800000190734863,54.0,21.594118118286133,33.294078826904304,-79.78244091689658,40.459103986341695,321.3290093688965,-0.1372246891260147,0.11360453069210052,-0.5073340535163879,0.8431344628334045,-0.011607528579184815,10.3912492768165,3.778853347789633,0.006523897871375085,-0.10978308320045473,0.300163596868515,-2.058989257067442,-0.6482087324559689,-10.00603959918022
44.4,11.0,53.0,21.61415100097656,32.069503784179695,-79.78241732731158,40.459114242435064,321.3192742614746,-0.1460547298192978,0.11257929354906082,-0.5045716762542725,0.8434461355209351,-0.04138005390909469,10.627789697139956,4.075238773821047,-0.057529695332050323,-0.06895299255847931,0.05030450224876404,-2.378251617103816,-0.17273332849144934,-9.972481259107587
44.6,11.199999809265137,54.0,21.477678298950195,35.472862243652344,-79.78240535181214,40.459119026529024,321.32632000732417,-0.15003405511379242,0.11598120629787445,-0.5040184855461121,0.8426170945167542,0.038584300602299865,10.73811768761242,4.231448343476156,0.10355332493782043,-0.08771864324808121,-0.011837681755423546,-2.073107651621104,-0.02740010736510157,-9.90003542661667
44.7,11.300000190734865,52.0,21.480182647705078,34.44708633422852,-79.78238086669793,40.459129723391,321.32626278686524,-0.1474400907754898,0.11950841546058655,-0.5024401545524597,0.8435242176055908,0.018191837678600886,10.920468047017481,4.660925660678752,0.08402375131845474,0.21112623810768127,-0.16253969073295593,-2.4735911992192268,-0.141682676486671,-10.344952404499056
44.89,11.5,51.0,21.690526962280273,30.4711971282959,-79.78236839693044,40.45913470723158,321.34870465087886,-0.12722159922122955,0.1107332855463028,-0.5046484470367432,0.8466892838478088,0.049130258084648604,11.045723666278038,4.691871878447731,0.0366387665271759,0.5224595665931702,0.10758394747972487,-2.592657759189606,-0.5111259874328972,-10.513273862600327
45.0,11.600000381469727,51.0,21.7844295501709,27.139404296875,-79.78235565569777,40.45914078474032,321.35272915649415,-0.09755966067314148,0.0956762433052063,-0.5072680711746216,0.8508862853050232,0.005793704615242534,11.292479859502427,4.295092945551809,0.10075557976961136,0.7476176619529724,0.0027338725049048662,-2.5505852884054185,-0.09625726606696844,-10.522494921684263
45.1,11.800000190734865,59.0,22.008546829223643,23.012434005737305,-79.78232987959491,40.459151595706416,321.41876919555665,-0.04671699181199074,0.06600110232830048,-0.5151009559631348,0.853306770324707,-0.02211463568934016,11.732103554203247,2.8926835777826043,-0.015848176553845406,0.3830837607383728,0.06311836838722229,-2.368336493521929,-0.2903676312603057,-10.316228542327881
45.3,11.800000190734865,67.0,22.129995346069336,20.292926788330078,-79.78231729824606,40.45915661762751,321.47135479736335,-0.032963018864393234,0.05458899214863777,-0.5189669728279114,0.8524124622344971,-0.04783931972936477,11.780586205797515,2.307917048082198,-0.09094712883234024,0.22441016137599945,0.00047660720883868635,-2.30958674043417,-0.31363171063363554,-9.96854374408722
45.39,12.0,66.0,22.19635581970215,18.662813186645508,-79.7822917875818,40.45916702418785,321.5559724121094,-0.010185392573475838,0.04427194595336914,-0.5272180438041687,0.8485148549079895,-0.1924147836801985,11.66256732497056,1.5573765012451943,0.09204042702913284,0.2986443340778351,0.06406936794519424,-2.204355423599482,-0.2426433697342873,-9.631655244827273
45.6,12.100000381469727,66.0,21.977245330810547,23.282794952392567,-79.78226659295228,40.45917725748788,321.64011318969733,0.00676576839759946,0.045246947556734085,-0.5329262614250183,0.8449240326881409,-0.3479271120875809,11.456442479257136,0.9963751418185528,0.12074539065361024,0.14275644719600675,0.13219641149044034,-2.0036981320381164,-0.4274029590189457,-9.662489951848984
45.69,12.100000381469727,76.0,22.203866958618164,18.925222396850586,-79.78225465352226,40.459181953173896,321.68827374267585,0.01809967122972012,0.04152090102434158,-0.5345813632011414,0.8439024090766907,-0.3841684681075525,11.265139500645251,0.878586136137985,-0.049604561179876334,0.2924144268035889,-0.2104675769805908,-1.9983797970414163,-0.3203722712025047,-9.91865179181099
45.9,12.100000381469727,77.0,22.22890853881836,18.853656768798828,-79.78223029712466,40.45919179148096,321.7782548217773,0.04044381901621818,0.02601698599755764,-0.5357364416122437,0.8430148363113403,-0.3769108661073108,10.948138867077407,0.26701281840861785,0.021562406793236732,0.31406229734420776,0.15885446965694427,-1.884115993827581,-0.2414160757139325,-9.844564061164856
46.1,12.0,77.0,22.296518325805664,16.730531692504886,-79.78221889324921,40.459196201588895,321.821017578125,0.04551016911864282,0.017359966412186626,-0.5349174737930298,0.8434991836547852,-0.32242943133259616,10.741482998239665,-0.05795858006404975,-0.0804605633020401,0.0844087302684784,-0.16343334317207334,-1.6802893652021886,-0.4130508951097727,-9.376994385123254
46.2,12.0,77.0,22.19635581970215,19.322811126708984,-79.78220691356714,40.4592008989067,321.8699563293457,0.043605361133813865,0.008745422586798668,-0.5330598354339601,0.8449079394340515,-0.2790047792731917,10.554839514027917,-0.2587506268550265,-0.16953560709953308,-0.07953865826129912,-0.0594312809407711,-1.7570185755193235,-0.2687043550796807,-9.526909393072133
46.3,11.899999618530273,87.0,22.33407974243164,15.951258659362793,-79.78218514216009,40.45920926791063,321.93531735229493,0.025660267099738118,-0.0074445800855755815,-0.5276563763618469,0.8490377068519592,-0.18111244761381032,10.114536197094724,-0.3687883365374091,-0.4018058776855469,-0.11928828805685045,0.09771174937486647,-1.5273247419297695,-0.3092836845293641,-9.38617860674858
46.5,11.800000190734865,88.0,22.35161018371582,16.261377334594727,-79.78216333369419,40.459217779514645,322.0049889831543,0.002006667433306575,-0.017631703987717632,-0.5206432938575745,0.8535898923873901,-0.07563845253378777,9.790529539638063,-0.20042974422193646,-0.16351233422756195,-0.2579402327537537,0.26435235142707825,-1.61812600761652,-0.2374225005134941,-9.135112030506132
