time,wind_speed,wind_angle,battery_voltage,battery_current,position_x,position_y,position_z,orientation_x,orientation_y,orientation_z,orientation_w,velocity_x,velocity_y,velocity_z,angular_x,angular_y,angular_z,linear_acceleration_x,linear_acceleration_y,linear_acceleration_z
0.0,0.699999988079071,205.0,25.708356857299805,-0.039758868515491486,-79.78279210685484,40.45898167057452,270.3139363389015,-0.005529579240828753,0.016453132033348083,-0.7861064076423645,0.6178475022315979,-0.02007074139386134,-0.02377943289319784,0.007332397663845036,-0.007970554754137995,0.0005702563212253152,-0.005477776285260916,-0.34974272578954696,-0.1287028261832893,-9.805932676792144
0.1,0.699999988079071,203.0,25.70334815979004,-0.015903547406196594,-79.78279212207444,40.45898161931848,270.31500714379547,-0.0055077658034861105,0.016510345041751858,-0.7860950231552124,0.6178606152534485,-0.01063679231871376,-0.022971557143409867,0.0055249682466501976,-0.005587576888501644,-0.003449402982369065,-0.006134303286671639,-0.3480991831049323,-0.14485438898205755,-9.805577750802039
0.3,0.6000000238418579,204.0,25.70960998535156,-0.007951773703098297,-79.78279214673586,40.458981634167905,270.3156603510976,-0.005495274905115366,0.016500135883688927,-0.7860739827156067,0.6178877949714661,-0.011621677433271605,-0.025857457821002718,0.005698176137899137,0.007043823599815369,0.0006065749330446124,0.006507407873868942,-0.3502486926689744,-0.14381443426944315,-9.80661855518818
0.4,0.699999988079071,198.0,25.71211242675781,-0.007951773703098297,-79.78279207380149,40.45898160561183,270.3160580183864,-0.005519547965377568,0.016556264832615852,-0.7860525846481323,0.6179133653640747,-0.012070161650557323,-0.015451262377912925,0.003875614686520128,0.0067994375713169575,0.0035963109694421287,0.002054347423836589,-0.35142548136413104,-0.1424782267212868,-9.8050854152441
0.59,0.6000000238418579,198.0,25.71086120605469,-0.007951773703098297,-79.78279204469534,40.45898154645885,270.31861074376104,-0.005525355227291584,0.0165794026106596,-0.7860284447669983,0.6179434061050415,-0.0037297326394420093,-0.011803739901351964,0.006029352468416225,-0.002621094463393092,-0.003861557925119996,-0.0040637715719640255,-0.3509966977313161,-0.13777832614257932,-9.805411105155946
0.69,0.8000000119209291,192.0,25.705852508544922,-0.007951773703098297,-79.78279207314938,40.45898156006433,270.31996231633417,-0.005518075544387102,0.016596991568803787,-0.7860156297683716,0.617959201335907,-0.007667232081300852,-0.016927276396491334,0.006498242262273336,-0.004832254257053137,0.00040805019671097403,0.0003217757912352681,-0.34860098384320737,-0.13703207524493338,-9.807016165852547
0.89,0.8000000119209291,193.0,25.71086120605469,-0.007951773703098297,-79.78279203112925,40.458981529804795,270.3226637254953,-0.005518862511962652,0.0166412815451622,-0.7860179543495178,0.6179550290107727,-0.005303432763768067,-0.013214228968039329,0.0076748630002707935,0.00671506579965353,0.003707623807713389,0.0009855241514742372,-0.3492344565689564,-0.13811276860535146,-9.806273569464684
1.0,1.0,189.0,25.71336555480957,0.015903547406196594,-79.78279203115454,40.45898151462204,270.3266145150661,-0.005514533258974552,0.016640849411487583,-0.7859961986541748,0.6179826855659485,-0.006178564278935504,-0.01633107393548235,0.008952436753928929,0.00663108890876174,-0.0013266041642054911,0.0017035289201885462,-0.3493700754269958,-0.1340552851650864,-9.806275908350946
1.2,1.100000023841858,181.0,25.71086120605469,-0.007951773703098297,-79.78279204777327,40.4589815237361,270.3275915096998,-0.005538294557482004,0.01666465401649475,-0.7859897017478943,0.6179901361465454,-0.008458038323738658,-0.01872744968464604,0.009219244733091405,-0.00354092731140554,-0.0039356439374387256,0.0043352325446903706,-0.3496758482605219,-0.14497411985881628,-9.807198598980905
1.31,1.100000023841858,176.0,25.71336555480957,0.0,-79.78279200715369,40.45898151018376,270.3320851187706,-0.00554951373487711,0.0167071670293808,-0.7859677672386169,0.6180168390274048,-0.009811402353303869,-0.014907398003007674,0.010044577786077535,0.002328332513570785,0.0025770326610654593,0.002815708285197616,-0.3512390648201108,-0.1284764658473432,-9.804193130135538
1.49,1.2000000476837158,173.0,25.70334815979004,-0.015903547406196594,-79.7827920222145,40.45898152316122,270.3331679563522,-0.005516434088349342,0.01669654063880444,-0.7859460115432739,0.6180451512336731,-0.012626948522774377,-0.017369237216343102,0.010307261207671205,-0.00673523498699069,-0.0011101808631792665,-0.006042005494236946,-0.3511768285185099,-0.1281567601952702,-9.805759014487268
1.59,1.2999999523162842,174.0,25.70960998535156,-0.02385532110929489,-79.78279196628606,40.458981501194216,270.3382628868818,-0.005514980293810368,0.01671604439616203,-0.7859237790107727,0.6180729269981384,-0.013021176579042686,-0.013360701878941693,0.011127350592852218,-0.006142517551779747,-0.0016465805238112807,-0.0029516569338738927,-0.3497415928915143,-0.1423493869788945,-9.805242705345156
1.8,1.2999999523162842,181.0,25.71211242675781,-0.02385532110929489,-79.78279197886623,40.45898151594759,270.3394535194635,-0.005506295245140791,0.016714634373784062,-0.7859072685241699,0.6180939078330994,-0.01446627711348336,-0.015851623361863312,0.011430218650117195,-0.000593081465922296,0.0018681440269574523,-0.0009321435936726633,-0.3510246181860566,-0.13002821638248865,-9.804960284829141
1.9,1.600000023841858,190.0,25.71211242675781,-0.02385532110929489,-79.78279195094206,40.45898147332226,270.3449140797853,-0.0055062253959476965,0.016752755269408226,-0.7858811020851135,0.6181261539459229,-0.010349902431019074,-0.01544767357160661,0.011865508946606028,-0.005914432927966118,0.0012281076051294804,-0.007957490161061287,-0.3489445443078876,-0.1466528189275414,-9.805122252702713
2.1,1.5,196.0,25.71211242675781,-0.015903547406196594,-79.78279185651134,40.45898144287164,270.3492841135263,-0.005511200986802578,0.0167806688696146,-0.7858725786209106,0.6181362271308899,-0.009283603489506085,-0.005041429791534611,0.011842008364240104,0.007882355712354183,0.002664828207343817,0.0024628720711916685,-0.34958492405712605,-0.14445020020008087,-9.805630960464477
2.2,1.5,189.0,25.70084571838379,-0.02385532110929489,-79.78279186504244,40.45898146455146,270.3517909209728,-0.005486132577061653,0.01678542979061604,-0.7858629822731018,0.6181484460830688,-0.013157894911809893,-0.009661594335596334,0.0124275783150673,0.0026452976744621988,0.0016693504294380546,0.0003800495178438723,-0.3508307464420796,-0.1318932680413127,-9.805291237235073
2.39,1.5,184.0,25.71336555480957,-0.007951773703098297,-79.78279184545188,40.45898139684615,270.3563443135023,-0.005480590742081404,0.01682831346988678,-0.7858501672744751,0.6181637644767761,-0.003720633190585993,-0.010585848674716477,0.012266550758479973,-0.00207593129016459,0.002823515795171261,0.00485303346067667,-0.3492437390238047,-0.1452673668600619,-9.8058408755064
2.49,1.5,176.0,25.705852508544922,-0.007951773703098297,-79.78279174372408,40.458981392741755,270.36253109681604,-0.005534638185054064,0.0168295931071043,-0.7858295440673828,0.6181893348693848,-0.010708698151852443,-0.0019103244521858106,0.012241728939381458,0.0021301982924342155,0.003868542611598969,0.0045207804068923,-0.34957925956696273,-0.1453955487906933,-9.805763107538224
2.69,1.2999999523162842,183.0,25.705852508544922,-0.02385532110929489,-79.7827917423692,40.458981402505295,270.36378939557073,-0.005526731722056866,0.016826769337058067,-0.7858214974403381,0.6181997656822205,-0.013620052973237064,-0.0038714126489437922,0.01247270144122289,-0.006497967056930065,-0.005607894156128168,-0.0056813303381204605,-0.3493399988114834,-0.12878240313380954,-9.805062026381494
2.79,1.2999999523162842,185.0,25.7046012878418,-0.015903547406196594,-79.78279172290938,40.4589813587439,270.37061464893816,-0.005490945652127266,0.01686263084411621,-0.7858079671859741,0.6182163953781128,-0.007996065990309916,-0.008899506203391264,0.012581431500184507,-0.007943875156342983,-0.0035356974694877867,-0.0036336584016680717,-0.3494107135757804,-0.1364036274701357,-9.807478095889092
2.99,1.399999976158142,190.0,25.70960998535156,-0.007951773703098297,-79.7827917317138,40.458981367868155,270.3719322543144,-0.0054916455410420895,0.016866309568285942,-0.7858029007911682,0.6182227730751038,-0.008694188798219541,-0.01121195287382469,0.012835857016770705,0.006088083144277334,0.0029115001671016216,-4.5559681893792e-05,-0.349862703345716,-0.136606900440529,-9.806343151330946
3.1,1.399999976158142,184.0,25.71336555480957,-0.007951773703098297,-79.78279170106167,40.458981350098426,270.3775378029346,-0.0054748328402638435,0.016858788207173347,-0.7857821583747864,0.6182494759559631,-0.01010278927758724,-0.01293734359909405,0.011006757685835427,0.0004532390739768744,0.0017650893423706293,-0.000809526420198381,-0.3505336713418365,-0.1426692662201822,-9.807572820782662
3.3,1.399999976158142,186.0,25.7046012878418,0.0,-79.78279171379434,40.458981362440355,270.3787075589895,-0.005473451223224402,0.016846520826220512,-0.7857731580734253,0.6182610988616943,-0.011494321479652306,-0.015346206637200854,0.011244028916657102,0.0023276722058653827,0.0017944549908861516,0.003332112915813923,-0.3497862875461579,-0.14626608956605194,-9.807274028062821
3.39,1.399999976158142,179.0,25.70334815979004,-0.015903547406196594,-79.78279165671623,40.45898132251872,270.3844636391401,-0.00548105500638485,0.016888335347175598,-0.7857564687728882,0.6182811260223389,-0.009026122146427564,-0.011966943827981602,0.009181162894270449,0.004627686459571122,0.0059873140417039394,0.00289134681224823,-0.3511477751657367,-0.1257485935650766,-9.804946251511574
3.59,1.2000000476837158,175.0,25.72087860107422,0.05566241592168808,-79.78279162729947,40.45898127948947,270.3915248672962,-0.005474219564348459,0.016882317140698433,-0.785749614238739,0.6182900667190552,-0.006253619569641062,-0.013057854546937992,0.010303919250901107,-0.0074439593590795985,-0.004080623853951693,-0.006908171344548464,-0.3507234865799547,-0.1306015998311341,-9.806464773416518
3.7,1.399999976158142,177.0,25.702096939086914,-0.03180709481239319,-79.78279165635294,40.458981297581,270.39373755562303,-0.0054955314844846725,0.016869934275746346,-0.7857500910758972,0.618289589881897,-0.009510506803388524,-0.01726852655688431,0.010690634626136652,-0.0060673486441373825,-0.003983634989708662,5.175381011213176e-05,-0.3488044304028153,-0.13835972210392355,-9.806797479987145
3.89,1.2999999523162842,179.0,25.71086120605469,-0.015903547406196594,-79.78279156357854,40.45898123056383,270.40137302982805,-0.005483387969434261,0.016924429684877396,-0.785751223564148,0.6182867288589478,-0.0030089998723172857,-0.0072253152537151265,0.01162813899968913,0.005288633052259685,-0.0009251695009879768,0.003016939386725425,-0.3491834761574865,-0.13898494477383794,-9.806380573511122
4.0,1.2999999523162842,182.0,25.69708824157715,-0.015903547406196594,-79.78279154325716,40.458981217899854,270.41021999824045,-0.005472913384437561,0.01692492514848709,-0.7857575416564941,0.6182788610458374,-0.00701004817121325,-0.012241825563757495,0.011894391013546621,0.0005833485629409553,0.0012742136605083942,-0.0021153709385544053,-0.35125982243567705,-0.13178575236350298,-9.803953979015349
4.2,1.2999999523162842,185.0,25.70710563659668,-0.03180709481239319,-79.78279155503762,40.458981226847506,270.4114774327278,-0.005487610585987568,0.01693977415561676,-0.7857585549354553,0.6182770133018494,-0.00881332546864567,-0.014358977204391598,0.012181160739995409,-0.0012677607592195272,-0.0003920579911209643,0.00698008993640542,-0.3509291258454323,-0.1444534253049642,-9.806815606355668
4.29,1.399999976158142,180.0,25.69708824157715,-0.015903547406196594,-79.78279154348836,40.45898119849727,270.4191332917213,-0.005517925601452589,0.016945291310548782,-0.7857494354248047,0.6182882189750671,-0.007534235023600311,-0.016340075238005437,0.0090362520218498,-0.0011809654533863068,0.0001276766124647111,0.0027605616487562656,-0.3494715977087617,-0.14529511372558773,-9.806226207017898
4.5,1.399999976158142,179.0,25.71336555480957,-0.015903547406196594,-79.78279156069456,40.458981209456745,270.42012398052213,-0.005522972438484429,0.016934635117650032,-0.7857373952865601,0.6183037757873535,-0.009648966936763722,-0.018357093585819124,0.009415602118241941,-0.0010512284934520721,0.0001883198565337807,-0.006212094333022833,-0.3508061881363392,-0.1253183298557997,-9.804690143465995
4.6,1.399999976158142,177.0,25.71086120605469,-0.02385532110929489,-79.7827914712047,40.45898115470608,270.4276704947948,-0.005566520616412164,0.016983583569526672,-0.785714864730835,0.6183305978775024,-0.007451159876944545,-0.007521924711864427,0.007569208989663852,-0.0027803187258541584,-0.001995184924453497,-0.008399229496717453,-0.34870049614459275,-0.14637719579972328,-9.806997454762461
4.79,1.5,179.0,25.708356857299805,-0.015903547406196594,-79.78279147851374,40.45898116329492,270.4284678112268,-0.005568538326770067,0.01698847860097885,-0.7857016324996948,0.6183473467826843,-0.008190474094444395,-0.009533392976329188,0.007629077729028144,0.004409183282405138,0.002327502705156803,0.004979426506906748,-0.3474244509637356,-0.1461787650547922,-9.805280127525329
4.9,1.5,178.0,25.708356857299805,-0.015903547406196594,-79.78279144061581,40.45898112748359,270.43942451584337,-0.005562218837440014,0.01701573096215725,-0.7856791615486145,0.6183751821517944,-0.008079091758194936,-0.00989407922994896,0.009713413003514144,0.009223963133990765,0.002560414839535952,0.001274033566005528,-0.350083143375814,-0.12701833471655846,-9.80466850876808
5.09,1.5,176.0,25.69333267211914,0.015903547406196594,-79.78279138963596,40.45898108418623,270.4494386773109,-0.00556726660579443,0.017022565007209778,-0.7856562733650208,0.6184040307998657,-0.007486950941589767,-0.007248760587032755,0.010835067693400448,-0.007640120107680559,-0.0037246432621032,-0.005250025540590286,-0.3505186147615313,-0.12758574304170908,-9.806109847426416
5.2,1.600000023841858,180.0,25.70710563659668,-0.03180709481239319,-79.78279140464826,40.458981101742594,270.4517425160408,-0.005583227146416903,0.01702752336859703,-0.7856361269950867,0.6184293627738953,-0.01052104709428715,-0.011205707009231652,0.011519932191716237,-0.007235027849674225,-0.002387723186984659,-0.00443612365052104,-0.3515421333163977,-0.12953999214805664,-9.806657146811483
5.39,1.600000023841858,182.0,25.705852508544922,-0.04771064221858978,-79.78279136034782,40.458981058673615,270.462023065567,-0.005574313923716545,0.017051929607987404,-0.7856339812278748,0.6184315085411072,-0.007248796201497584,-0.00951955373406102,0.011820133876936471,0.006117604672908783,0.004201089031994343,0.0023915274068713197,-0.3511145556718111,-0.14189621862955393,-9.804247509241103
5.5,1.7999999523162842,185.0,25.69708824157715,0.03180709481239319,-79.78279131349295,40.45898101600589,270.4741531472206,-0.005581058096140622,0.017065070569515232,-0.7856189012527466,0.6184502243995667,-0.005334284195774573,-0.005936492562448943,0.012787712068967793,0.003491064999252557,0.001764110871590674,0.0010210281470790503,-0.3502914869785309,-0.1362740659620613,-9.80578942000866
5.7,1.8999999761581416,182.0,25.70084571838379,0.04771064221858978,-79.78279131828133,40.458981022161005,270.4754664163589,-0.005593244452029468,0.017070921137928963,-0.7856191992759705,0.6184495091438293,-0.0076764489724583315,-0.007716252672119702,0.012922791898805406,-0.0009881352307274938,-0.002876990009099245,0.0017941121477633715,-0.3499081289023161,-0.1410544571187347,-9.806612707972523
5.79,1.8999999761581416,189.0,25.694583892822266,0.04771064221858978,-79.78279130427742,40.45898102401984,270.48621861743925,-0.005585516337305307,0.017038976773619652,-0.7856003642082214,0.6184744238853455,-0.013346510415778577,-0.012907774760432415,0.010145110174243485,-0.0007765914197079838,-0.0003751560871023685,0.002973690163344145,-0.35084686283022165,-0.1416358896251768,-9.80644021511078
6.0,1.8999999761581416,192.0,25.694583892822266,0.13518016040325165,-79.78279131598622,40.458981038913024,270.48731272029875,-0.005576208233833313,0.01705000549554825,-0.7855898141860962,0.618487536907196,-0.014562749666042903,-0.01484104402527529,0.010457604904569184,0.0007708898046985269,0.0016287845792248845,-0.002447153441607952,-0.35180229786783457,-0.13032629647292202,-9.804648043513296
6.09,1.7999999523162842,192.0,25.698341369628906,0.02385532110929489,-79.782791291147,40.4589809909667,270.4983474771976,-0.005571152549237013,0.017070690169930458,-0.7855890393257141,0.618488073348999,-0.009478353969840021,-0.013362484478199686,0.00943431244137241,0.000223134076804854,0.003432607976719737,-0.001960838446393609,-0.3495338705554605,-0.14509083576500414,-9.805906949043274
6.3,1.7999999523162842,196.0,25.7046012878418,0.06361418962478638,-79.78279130436107,40.45898100272677,270.4993621866703,-0.005570455454289913,0.017064576968550682,-0.7855800986289978,0.6184995174407959,-0.010751924917454787,-0.01523094339775726,0.009680167019801927,0.003246622160077095,-0.000847505172714591,0.0044609238393604755,-0.34860248219221834,-0.14637937023304404,-9.8069261187315
6.4,1.7999999523162842,198.0,25.690828323364247,0.04771064221858978,-79.7827912781403,40.458980956652695,270.5129274289608,-0.005550019908696413,0.017093909904360768,-0.7855843305587769,0.6184934973716736,-0.007631302408344709,-0.014066393047062857,0.011539889327117771,0.0033645746298134327,0.003201641840860248,0.007007269188761711,-0.3510582762211561,-0.12489183029159905,-9.805135116577151
6.6,1.7000000476837158,197.0,25.70710563659668,0.06361418962478638,-79.78279121886337,40.45898089751475,270.525835470438,-0.0055598136968910685,0.01710229180753231,-0.7855745553970337,0.6185056567192078,-0.004786021790178186,-0.007630217218507809,0.012902178290960915,-0.0047270264476537704,-0.0048963422887027255,-0.0068890410475432855,-0.3499775280430913,-0.12373468458652495,-9.805104711055755
6.69,1.7000000476837158,199.0,25.70334815979004,0.05566241592168808,-79.78279123537459,40.45898091071228,270.52852361011503,-0.005573107395321132,0.01710323989391327,-0.7855452299118042,0.6185429096221924,-0.007951175036546375,-0.01115490352134315,0.0133748426721961,-0.005925016012042761,-0.0017569976625964046,-0.005128115881234407,-0.34949896998703484,-0.12629543613642455,-9.805663704872133
6.91,1.600000023841858,198.0,25.702096939086914,0.08746951073408127,-79.7827912179702,40.458980861575945,270.53968806672094,-0.00556813133880496,0.01711398363113403,-0.7855340838432312,0.6185566782951355,-0.004549875006029096,-0.012311674586954813,0.010337829263403207,0.0074787046760320655,0.0005548456101678312,0.002996674505993724,-0.3490436546131969,-0.14667338468134405,-9.806226791739462
6.99,1.7000000476837158,195.0,25.698341369628906,0.05566241592168808,-79.7827911341415,40.45898084417821,270.5519201915264,-0.005581486504524946,0.01712089218199253,-0.7855299711227417,0.6185615658760071,-0.010416636247826228,-0.0038841626409558336,0.008007781008597847,0.007833403535187244,0.004380438476800919,0.003456156002357602,-0.3495749837905169,-0.1463768029399216,-9.805949633717537
7.19,1.7000000476837158,192.0,25.694583892822266,0.04771064221858978,-79.78279113548302,40.45898085448147,270.5527715246677,-0.005589759908616543,0.017136432230472558,-0.7855289578437805,0.6185624599456787,-0.013046470479996642,-0.005504940386474716,0.008328436429122869,-0.0038663574960082774,-0.002293375553563237,-0.006905393209308386,-0.35083056371659044,-0.12837673427537086,-9.805012909770012
7.3,1.600000023841858,196.0,25.705852508544922,0.09542128443717957,-79.78279113887857,40.458980867234025,270.5536568920612,-0.005592626519501209,0.017121301963925358,-0.7855320572853088,0.6185588240623474,-0.013274495078874302,-0.007328932105878945,0.008609787348575959,0.00676864478737116,0.0021710596047341824,0.005003908649086952,-0.3489309495314956,-0.1442220765631646,-9.805519278645516
7.5,1.600000023841858,194.0,25.702096939086914,0.05566241592168808,-79.78279114583977,40.458980799562,270.5673714737892,-0.005580618977546692,0.017130432650446892,-0.7855217456817627,0.6185717582702637,-0.005774279423635726,-0.01111396050225649,0.006579071779475814,0.008524072356522083,0.0017673273105174305,0.003303030738607049,-0.3506449877098203,-0.14455001399852335,-9.805940278172491
7.6,1.600000023841858,196.0,25.70334815979004,0.05566241592168808,-79.78279114951712,40.458980740526044,270.58152572917936,-0.0055544180795550355,0.017150042578577995,-0.7854968309402466,0.6186031699180603,-0.0014480393396010074,-0.013102541748540024,0.005679478590142894,0.005507343448698521,0.0027038722764700647,0.003909012768417597,-0.3496295821666718,-0.13463944028131666,-9.806909746527673
7.8,1.7000000476837158,195.0,25.705852508544922,0.07951773703098297,-79.78279116458634,40.45898074571874,270.58216108489034,-0.0055555147118866435,0.01716199517250061,-0.78549724817276,0.6186022162437439,-0.003868596530903905,-0.014924810608312272,0.0060303529766834,-0.003624211065471172,-0.0027522570453584194,0.0018695181934162968,-0.3508534409478307,-0.13925885941833258,-9.807269935011863
7.89,1.600000023841858,193.0,25.702096939086914,0.06361418962478638,-79.78279114040137,40.45898070229524,270.59936367082594,-0.005560683086514473,0.017182737588882446,-0.7854991555213928,0.6185991168022156,-0.0049008450098891685,-0.012914053879104992,0.009214963164241046,-0.002552486723288893,-0.003052721964195371,0.0003642886586021632,-0.3514942592382431,-0.13659104900434613,-9.805735040903091
8.1,1.600000023841858,194.0,25.705852508544922,0.06361418962478638,-79.78279110208814,40.458980656892116,270.61364819216726,-0.0055479449220001715,0.017209772020578384,-0.7854886054992676,0.6186119914054871,-0.00500444592049035,-0.008300534180359184,0.007949586715323108,0.002783005125820637,0.0010175834177061915,-0.0018257593037560586,-0.3509715181589127,-0.13115636355243626,-9.805293576121331
8.19,1.600000023841858,199.0,25.69333267211914,0.05566241592168808,-79.78279111011607,40.4589806632319,270.61450041937826,-0.005556552670896053,0.017219696193933487,-0.7854732275009155,0.6186312437057495,-0.006403880316630529,-0.009937002820185808,0.008331309613926498,-0.0009566972730681301,0.00023305538343265655,0.007082538679242134,-0.350100977383554,-0.14539238763973114,-9.807340101599694
8.4,1.600000023841858,198.0,25.70960998535156,-0.015903547406196594,-79.78279111865487,40.45898061989536,270.6305465261936,-0.005540767218917607,0.017266353592276573,-0.7854482531547546,0.6186617612838745,-0.005074416485190085,-0.012868544920465713,0.006897055489125601,0.00286644184961915,0.0030263063963502645,0.0032738037407398233,-0.3493764342740178,-0.14609641981311144,-9.806340812444688
8.5,1.600000023841858,201.0,25.705852508544922,-0.007951773703098297,-79.78279110773734,40.45898058648903,270.6492367248535,-0.00555532891303301,0.017279120162129402,-0.7854207158088684,0.6186961531639099,-0.00830137494063752,-0.011532172234831316,0.009668364074117643,0.006528249941766262,0.0018860945710912347,0.003514672629535198,-0.3495756416022778,-0.14652483799494806,-9.806648375988008
8.7,1.5,201.0,25.708356857299805,-0.015903547406196594,-79.78279111835691,40.45898059638918,270.65028114724157,-0.005542899947613478,0.017289062961935997,-0.7854115962982178,0.6187076568603516,-0.010677475350872724,-0.01299798008581315,0.01010150480297204,-0.007883552461862564,-0.005384087096899748,-0.005562159232795239,-0.3501624827831984,-0.13107793777249754,-9.806143761277198
8.79,1.399999976158142,198.0,25.708356857299805,-0.02385532110929489,-79.78279111189325,40.45898054667367,270.6678538780212,-0.005515111610293388,0.017361301928758618,-0.7853851914405823,0.6187393665313721,-0.009044257386758629,-0.011600771416191785,0.009070732858263741,-0.006039394531399012,-0.003196772886440158,-0.0010421585757285357,-0.3504848836362362,-0.13526657243259252,-9.806765905022619
8.99,1.399999976158142,198.0,25.705852508544922,0.0,-79.78279112325913,40.45898055701291,270.6688200097084,-0.005493533331900835,0.017356669530272484,-0.7853814959526062,0.6187442541122437,-0.009136485085786523,-0.013149991293699056,0.009251854789560884,0.003189534414559603,0.0017089716857299204,0.0042186444625258454,-0.3496695259585977,-0.13901968088932334,-9.805566056370736
9.09,1.399999976158142,198.0,25.702096939086914,-0.007951773703098297,-79.78279114348494,40.45898051135108,270.68525312948225,-0.0054613021202385426,0.0173825491219759,-0.7853730916976929,0.6187545657157898,-0.007336102519421186,-0.015143719830572043,0.007960796431346511,0.004131789319217205,0.001475461176596582,-0.00247288984246552,-0.35038230154663325,-0.1417675524763763,-9.80653844833374
9.29,1.2999999523162842,197.0,25.69708824157715,-0.03180709481239319,-79.78279115911774,40.45898052168495,270.68612451958654,-0.005455453880131246,0.017375487834215164,-0.7853556871414185,0.6187769770622253,-0.008790437152443027,-0.016609635131300426,0.008203977514778313,-0.0009507401264272632,-0.002008791547268629,7.447582902386785e-05,-0.35011110037565235,-0.1431423425115645,-9.80542046070099
9.41,1.2000000476837158,197.0,25.70334815979004,-0.09542128443717957,-79.78279114397753,40.45898045421743,270.7033596496582,-0.00545199029147625,0.01743251644074917,-0.7853288054466248,0.6188094615936279,-0.005359173566231114,-0.01180795029745212,0.00818437757060169,0.0019861042965203524,0.001015495858155191,-0.000685286067891866,-0.3505559273064137,-0.1300111224129796,-9.805178385972976
9.59,1.2000000476837158,197.0,25.70960998535156,0.0,-79.78279113188927,40.45898036859909,270.72016416597364,-0.005415343213826418,0.017461217939853668,-0.7853277325630188,0.6188102960586548,0.0017162630486984374,-0.00802402870412881,0.007861459994563669,-0.002573787933215499,-0.00035307733924128115,-0.0039869206957519054,-0.3501228678971529,-0.12462140570394695,-9.805172538757324
9.7,1.0,195.0,25.705852508544922,-0.02385532110929489,-79.78279115311436,40.4589803698664,270.7218559246063,-0.005425358656793833,0.01748121902346611,-0.7852906584739685,0.6188567876815796,-0.00012753845469298287,-0.010886181781820374,0.008506799746086261,-0.008134005591273308,-0.001153914607129991,-0.004816758446395397,-0.35040470369160176,-0.12658481849357486,-9.805278373360633
9.89,1.0,194.0,25.7046012878418,-0.007951773703098297,-79.78279119024492,40.45898032683956,270.7386614542007,-0.005418890621513128,0.017485393211245537,-0.7852805256843567,0.6188695430755615,-0.001179367613204603,-0.01673381164309827,0.006881599959313618,0.006043022032827139,0.0015830756165087225,0.003801425453275442,-0.3497444434091449,-0.14663057209923866,-9.804921108484267
10.0,1.0,193.0,25.708356857299805,0.0,-79.7827911483007,40.45898027375261,270.7553517680168,-0.005418459419161081,0.017512576654553413,-0.7852494716644287,0.618908166885376,-0.0031732899985050626,-0.006275487434106917,0.006263400411683225,0.0037785046733915814,0.0011257040314376354,0.0033777377102524038,-0.3497007354721427,-0.129957629526034,-9.806067162752152
10.19,1.0,193.0,25.70334815979004,-0.03180709481239319,-79.78279115421202,40.45898027832051,270.75603102254865,-0.005419027991592884,0.017531327903270718,-0.7852361798286438,0.6189244985580444,-0.005004029162877148,-0.00757781527488748,0.006670140160675961,-0.007264430169016124,-0.003229917027056217,-0.0019477410241961481,-0.35057737927883864,-0.13640960259363055,-9.806619139909747
10.3,1.0,193.0,25.70334815979004,-0.007951773703098297,-79.78279114314974,40.45898020299148,270.7739953856468,-0.005411358550190926,0.01756567507982254,-0.7852119207382202,0.6189543008804321,-9.837488109147287e-05,-0.004244391369869074,0.007090669477338998,-0.00555296940729022,-0.0013439517933875322,-0.0009495066478848457,-0.3512139948830009,-0.141456718146801,-9.806744855046274
10.49,1.0,196.0,25.705852508544922,0.007951773703098297,-79.78279114849957,40.45898020392545,270.77474050331114,-0.0053991489112377175,0.017574427649378777,-0.7851944565773009,0.6189762353897095,-0.0001298486791738461,-0.005553358199406679,0.007456490680038358,0.0031824430916458373,0.0032634553499519825,-0.0012549906969070435,-0.3503423577547073,-0.13255515458062292,-9.804645119905473
10.6,1.100000023841858,197.0,25.70960998535156,-0.015903547406196594,-79.78279114687206,40.45898018712728,270.79480438041685,-0.005399907939136028,0.017560498788952827,-0.7851737141609192,0.6190029978752136,-0.008193502841003147,-0.007986920464754072,0.01041246125944338,-0.0005037272348999976,-0.00035061212838627403,-0.00021094649855513128,-0.35092119555920365,-0.14509426186792554,-9.806984590888023
10.79,1.0,197.0,25.69959259033203,0.007951773703098297,-79.78279115413964,40.458980196149284,270.79590408611296,-0.005414591170847416,0.017554687336087227,-0.7851583361625671,0.6190226078033447,-0.008577323061985878,-0.009440408306258728,0.010758247618658227,-0.0012636479223147035,-0.001124323345720768,0.004138424526900053,-0.3499997474625707,-0.1466557882167399,-9.807107967138293
10.9,1.0,200.0,25.71962547302246,-0.007951773703098297,-79.7827911844889,40.45898007367909,270.8137178878784,-0.005376515910029411,0.01756839081645012,-0.7851381301879883,0.6190480589866638,0.005156575426216325,-0.010005208597741795,0.00954173339547204,0.006146920844912529,0.0016766840126365425,0.004600785207003355,-0.35114090468734505,-0.12573631441220642,-9.805664874315262
11.1,1.0,200.0,25.70710563659668,-0.007951773703098297,-79.7827911610179,40.45898003393406,270.8328523497581,-0.005381987430155277,0.0175648033618927,-0.7851272225379944,0.619062066078186,-0.0014835865898543046,-0.005707147342463319,0.01117677893691704,-0.0051644807681441324,-0.0029182890430092807,-0.007234516553580761,-0.3503460122644901,-0.12759452300146226,-9.805252060890199
11.2,1.100000023841858,200.0,25.70334815979004,-0.02385532110929489,-79.78279117486791,40.45898003893032,270.835212395668,-0.00538410060107708,0.017535796388983727,-0.7851011157035828,0.6190959811210632,-0.0028415199171297075,-0.00841346740993685,0.011883742559497168,-0.005831544753164053,-0.0023491522297263145,-0.006348935421556234,-0.3495696847513318,-0.13468989992514252,-9.80619053900242
11.4,1.100000023841858,200.0,25.70710563659668,-0.03180709481239319,-79.78279117411037,40.458979982703255,270.85470335292814,-0.0053718420676887035,0.017543910071253777,-0.785086989402771,0.6191136837005615,-0.0013392486927594528,-0.00786839520527568,0.013157853392035377,0.002271291567012668,0.0007978824432939291,0.0036472151987254615,-0.35165228024125106,-0.13880825836211444,-9.805735040903091
11.49,1.0,199.0,25.70334815979004,-0.02385532110929489,-79.7827911584375,40.4589799054993,270.87435416984556,-0.005353739019483328,0.017586421221494675,-0.7850791215896606,0.6191226840019226,0.0035708851047029813,-0.003307845953631557,0.01200256274738024,0.0027447051834315053,0.0014067125739529727,-0.0020696159917861228,-0.35098825581371784,-0.1281230107974261,-9.805310533046725
11.69,0.8999999761581421,194.0,25.705852508544922,-0.02385532110929489,-79.78279116275856,40.45897990294911,270.8755786876678,-0.005351252853870392,0.017590990290045738,-0.785064160823822,0.6191416382789612,0.0032963531274117137,-0.004516646382527797,0.012222697553606715,0.002159635303542018,-0.0015418955590575931,0.0006693226750940084,-0.34868017707020044,-0.14567722926847634,-9.805795851945877
11.8,0.8000000119209291,190.0,25.70710563659668,-0.02385532110929489,-79.78279116442332,40.458979832928186,270.89490471887586,-0.005321693141013385,0.017617836594581604,-0.7850427031517029,0.6191681623458862,0.005833103119672778,-0.004511779190836418,0.010513737460069351,0.005677257664501667,0.002936153439804912,0.0009238255443051457,-0.3507286394387484,-0.1270284759812057,-9.805038052797318
11.99,0.8000000119209291,191.0,25.698341369628906,-0.007951773703098297,-79.78279117135568,40.45897982940859,270.8959897022247,-0.005323869176208973,0.01762210577726364,-0.7850300669670105,0.619184136390686,0.0041971048908115705,-0.005878218445295663,0.010967776048927786,-0.007020177319645882,-0.004658970981836319,-0.005990304052829742,-0.3513242879882455,-0.13136446961201728,-9.806268891692161
12.09,0.699999988079071,189.0,25.695837020874023,-0.007951773703098297,-79.78279117834498,40.45897978326045,270.91500251102445,-0.005316513124853373,0.017616624012589455,-0.7850172519683838,0.619200587272644,0.002807839096331181,-0.007248782932025683,0.010540196961525479,-0.003087494056671858,-0.0010309688514098523,0.0023405973333865404,-0.35241636514663705,-0.1417646654136479,-9.806268891692161
12.3,0.6000000238418579,187.0,25.70710563659668,-0.015903547406196594,-79.7827911879196,40.458979782098886,270.9160947065353,-0.00530674634501338,0.01762600615620613,-0.7850043177604675,0.6192167401313782,0.0029279055200111107,-0.008692612320920307,0.010875572387749343,0.002352054696530104,0.0017572229262441395,0.00011702893243636936,-0.35161920692771675,-0.13297728700563313,-9.805661950707435
12.4,0.6000000238418579,186.0,25.70710563659668,-0.015903547406196594,-79.782791187583,40.4589797407253,270.93769066143034,-0.005293400026857853,0.0176506657153368,-0.7849717736244202,0.6192574501037598,0.000704248943102343,-0.008306004806419218,0.012929654919852188,-0.0015211878344416616,0.00014804964303039014,-0.0039691412821412095,-0.3488972184062004,-0.1462443360965699,-9.805536235570909
12.6,0.6000000238418579,184.0,25.70084571838379,-0.04771064221858978,-79.78279118823444,40.45897967932272,270.9572139840126,-0.005290680099278688,0.017652608454227448,-0.7849594354629517,0.6192731261253357,0.004347168699076599,-0.006367621062602295,0.011333515751785804,0.00662836991250515,0.002644846448674798,0.0045602647587656975,-0.34883359339088205,-0.14553932634182276,-9.806931381225588
12.7,0.6000000238418579,183.0,25.698341369628906,-0.06361418962478638,-79.78279120637455,40.4589796752932,270.9595998983383,-0.005284610204398632,0.01767541654407978,-0.7849311232566833,0.6193084120750427,0.003936708907918078,-0.008937299847269741,0.012061571099293915,0.007706562522798777,0.0045551559887826425,0.004334229975938797,-0.3500023787096143,-0.1437680859491229,-9.80564791738987
12.9,0.5,179.0,25.705852508544922,-0.02385532110929489,-79.78279118412418,40.458979631042,270.98110215473173,-0.005306587088853121,0.01768573932349682,-0.7849241495132446,0.6193167567253113,0.0011862294675480062,-0.004912454811408534,0.01434855356994049,-0.005305496510118246,-0.0008550388156436384,-0.002091068541631102,-0.3499012949690223,-0.13670160706155002,-9.807293908596039
13.01,0.6000000238418579,178.0,25.69959259033203,-0.03180709481239319,-79.78279119821943,40.45897959027872,271.0027987818718,-0.005299540236592293,0.017684102058410645,-0.7848816514015198,0.619370698928833,0.0010310584601491422,-0.006230077241189886,0.01575472551850756,0.00012085564230801538,-0.0007866768282838166,0.003646252676844597,-0.35073488865047703,-0.14517397586256267,-9.809007142782212
13.2,0.699999988079071,179.0,25.702096939086914,-0.03180709481239319,-79.7827912051223,40.458979589875604,271.00441853809355,-0.005284246057271957,0.017698759213089943,-0.784882128238678,0.6193698048591614,0.0007114816009792244,-0.007389238130690768,0.016203970324054073,-0.00031453336123377085,-0.00017957919044420126,-0.0007756707491353152,-0.3509048599004745,-0.12855660011060538,-9.806074179410937
13.29,0.699999988079071,175.0,25.69333267211914,-0.03180709481239319,-79.78279123982072,40.4589795697441,271.02447562026975,-0.005283119156956673,0.017702631652355194,-0.7848587632179259,0.6193992495536804,-0.002339848444435677,-0.011112025095323115,0.01394157545319193,-0.005993362050503492,-0.004772437270730735,-0.0061950827948749065,-0.3514767541363836,-0.124894068678841,-9.805176631808283
13.49,0.699999988079071,177.0,25.69333267211914,-0.015903547406196594,-79.78279125230533,40.45897957367968,271.0259340267181,-0.005271222442388535,0.01769423484802246,-0.7848409414291382,0.6194222569465637,-0.001516050330965151,-0.012522698691792957,0.014396954789214362,0.005984856747090817,0.0043919789604842645,0.006701956503093243,-0.350984820574522,-0.14544761641882362,-9.806738423109056
13.59,0.8000000119209291,172.0,25.69959259033203,-0.02385532110929489,-79.7827912404307,40.4589795387425,271.0454014997482,-0.0052816946990787966,0.01771332323551178,-0.7848396301269531,0.6194232702255249,-0.001873021149236204,-0.007607186246900347,0.01256434270188331,0.003721117740496993,0.002042439766228199,0.0006803233991377058,-0.3494815379753709,-0.1365040716715157,-9.805262001156807
13.8,0.8000000119209291,170.0,25.698341369628906,0.0,-79.7827912487868,40.458979542334006,271.0467046957016,-0.005266583058983088,0.01771039143204689,-0.7848279476165771,0.6194382309913635,-0.0026665361001996014,-0.008945873183110133,0.012921216833118577,-0.003991890698671341,-0.0007253224030137062,-0.0013505530077964067,-0.350216496437788,-0.14470080820843578,-9.807779227495194
13.9,0.8000000119209291,168.0,25.70334815979004,0.0,-79.78279132339995,40.45897954813058,271.0689210157394,-0.005244280211627482,0.01770046167075634,-0.7848193645477295,0.6194495558738708,-0.006269673190335657,-0.017341448464325945,0.014661048598642753,0.006800604052841663,0.003974820021539927,0.003263316350057721,-0.35024065274745225,-0.12788651833310724,-9.806641944050787
14.1,0.8000000119209291,166.0,25.71086120605469,0.0,-79.78279133715509,40.45897950393734,271.08844642448423,-0.0052270041778683645,0.01771654188632965,-0.7848057746887207,0.6194664835929871,-0.0034010666978753572,-0.014507788062187575,0.01578382076209441,-0.004769544117152691,-0.0015149388927966356,-0.003054357133805752,-0.35039765048772104,-0.12801223346963525,-9.80616948902607
14.2,0.8000000119209291,163.0,25.698341369628906,-0.02385532110929489,-79.78279136981702,40.45897951514453,271.0917868475914,-0.005227206274867058,0.017717698588967323,-0.7847939133644104,0.61948162317276,-0.003615980021592185,-0.017109662682348578,0.016479190398239047,-0.006968362256884575,-0.00011625484330579638,0.0019874654244631533,-0.35126424439251425,-0.14060265007428827,-9.805897008776663
14.4,0.8000000119209291,161.0,25.69959259033203,-0.015903547406196594,-79.78279134271153,40.45897949987884,271.11070864009855,-0.005221344530582428,0.017739968374371532,-0.7847900390625,0.6194858551025391,-0.006192416792304171,-0.009589528985886052,0.016106264691349667,0.0039683813229203216,-0.00013632247282657772,-0.0020625356119126077,-0.35184881977736954,-0.13202506793662908,-9.804429942369461
14.49,0.8000000119209291,159.0,25.70710563659668,-0.007951773703098297,-79.78279134924617,40.4589794561483,271.13172285366056,-0.0052123283967375755,0.01775519736111164,-0.7847923636436462,0.6194825768470764,-0.0021774195626252817,-0.00519415618723937,0.01677308414392385,-0.006484233308583498,-0.0004442687786649913,-0.00684700021520257,-0.3492499151453376,-0.1270958194602281,-9.805222824811935
14.7,0.8999999761581421,159.0,25.68581962585449,0.40554046630859375,-79.78279135424815,40.458979458682926,271.13344006347654,-0.005211657378822565,0.01775592751801014,-0.7847868204116821,0.6194894909858704,-0.0014397401054964667,-0.006538233088152367,0.017157678319509692,0.004176639020442964,0.005642117001116276,0.004330761730670929,-0.34992099277675154,-0.14710205867886544,-9.806613877415655
14.79,0.8999999761581421,161.0,25.63573837280273,0.3578298389911652,-79.78279140730808,40.458979404873475,271.1534672241211,-0.005188110750168562,0.017777640372514725,-0.7847411632537842,0.6195469498634338,0.00413983031666612,-0.01073342568938906,0.016815529156241318,0.0039733736775815496,0.001044363249093294,-0.0026137877721339464,-0.3633705754950643,-0.1346650858037174,-9.809524036645893
14.99,0.8999999761581421,165.0,25.68957710266113,0.3101191818714142,-79.78279141976458,40.458979403155816,271.1551719765663,-0.005192936398088932,0.017754849046468738,-0.7847641110420227,0.619518518447876,0.0032868017527910623,-0.009638533450780348,0.016659007743462847,-0.0034363593440502878,-0.006479278206825256,-0.002724679186940193,-0.3418760280311108,-0.1548155045695603,-9.800997042059901
15.1,0.8999999761581421,171.0,25.68707275390625,0.2862638533115387,-79.78279145837436,40.45897936439308,271.1731510620117,-0.005160767585039139,0.017765721306204796,-0.7847141623497009,0.6195817589759827,0.006172085716331704,-0.011164949298519862,0.015272053567698975,0.00670842407271266,0.0013716964749619365,0.009228572249412537,-0.3510605420172215,-0.12589201480150222,-9.801579424738883
15.29,0.8999999761581421,170.0,25.68957710266113,0.2862638533115387,-79.78279147259961,40.458979361795656,271.1747240285873,-0.005152377765625715,0.01775592751801014,-0.7847132086753845,0.6195833086967468,0.004638075619273202,-0.012102903738964324,0.015608380705834025,-0.007527020294219255,0.0011332142166793346,-0.01170447189360857,-0.3522550550848246,-0.1370107877254486,-9.807242453098297
15.4,0.8999999761581421,171.0,25.68832397460937,0.3101191818714142,-79.78279147109015,40.458979342637306,271.1930147271156,-0.005157966166734696,0.01776536554098129,-0.7847014665603638,0.619597852230072,0.0021470477418772628,-0.007925270220788455,0.015918898503733358,-0.0098068630322814,-0.0009490676457062364,0.006029020529240371,-0.3407878977432847,-0.14848217516206205,-9.80588531434536
15.59,0.8999999761581421,177.0,25.68081283569336,0.3816851377487183,-79.78279149698275,40.4589792965101,271.20735089588163,-0.0051437909714877605,0.017778011038899418,-0.7846824526786804,0.6196216344833374,0.008672133722484047,-0.005304627842421496,0.012441929984109508,0.0037321655545383687,-0.0003317653900012373,0.0004718501004390418,-0.3533517734706402,-0.13111079181544485,-9.805136286020279
15.7,0.8999999761581421,178.0,25.668291091918945,0.41349223256111145,-79.78279151507861,40.45897928380586,271.2099329690933,-0.005133789498358965,0.017782634124159813,-0.784683346748352,0.6196205019950867,0.008202132704202295,-0.008009893239771354,0.013275046587586593,0.0006113028503023088,-0.0016202679835259914,-0.0029104810673743486,-0.3521571142226458,-0.1306073100026697,-9.804933972358704
15.9,0.8000000119209291,177.0,24.994688034057607,8.166471481323242,-79.78279154607718,40.458979264360345,271.2244831781387,-0.005146249663084745,0.017802456393837932,-0.784683346748352,0.6196198463439941,0.008537872289365306,-0.0072175843306948985,0.011626759825337318,0.01202133111655712,0.010547956451773643,0.004820550791919231,-0.3554653957486153,-0.15656314596533774,-9.807264087796213
16.0,0.8000000119209291,185.0,25.63198280334473,0.7236114144325256,-79.78279155765671,40.458979259154226,271.2258068780899,-0.004948425106704235,0.01802851818501949,-0.7847471833229065,0.6195340156555176,0.008900186898285369,-0.011785792287259672,0.014174880390624553,0.02090516872704029,0.02957819029688835,-0.018775636330246925,-0.3528237333521247,-0.10191557097248734,-9.829700438976287
16.2,0.8000000119209291,188.0,25.68456840515137,0.22264966368675232,-79.78279160763445,40.458979212786005,271.24042253303526,-0.004700986668467522,0.018275389447808262,-0.7847422957420349,0.6195348501205444,0.01003625096199245,-0.007678208846694592,0.01023117533902052,-0.03087138384580612,0.022097285836935043,-0.012438850477337835,-0.3409753740951419,-0.18963764721527696,-9.795287235975266
16.3,0.8000000119209291,193.0,25.31270980834961,4.914196491241455,-79.78279165088433,40.45897919790946,271.25419966983793,-0.004605375230312346,0.018382837995886803,-0.7847689986228943,0.619498610496521,0.0043046463085441395,-0.007583690947148613,0.010239337492312492,0.0068731498904526225,0.02782468870282173,-0.0013045346131548285,-0.3556540780887008,-0.14584291560575366,-9.816879833936694
16.49,0.699999988079071,186.0,25.67705535888672,0.3021674156188965,-79.78279166262475,40.458979194262135,271.2551368932724,-0.004524958319962025,0.018430115655064583,-0.784723699092865,0.6195551753044128,0.0025212175577170627,-0.008842456928950429,0.009564365441555471,0.005253877025097609,0.022659968584775925,-0.0081460140645504,-0.3858505249768496,-0.17131373416632414,-9.761019043922424
16.6,0.699999988079071,175.0,25.68081283569336,0.2306014448404312,-79.7827916673316,40.458979209499375,271.27045898246763,-0.004726822022348642,0.018297398462891586,-0.7846751809120178,0.6196190714836121,-0.0024853582598123865,-0.004173945233963458,0.012086198034849772,0.008635970763862133,-0.007147088181227446,-0.013675177469849586,-0.33612010203301906,-0.2085693417862058,-9.82683296442032
16.8,0.8000000119209291,172.0,25.53056526184082,3.7611889839172363,-79.78279167326049,40.458979212918045,271.27162830638883,-0.004813849925994873,0.01822547800838948,-0.7846861481666565,0.619606614112854,-0.002757907635264986,-0.0064903007210028426,0.011570708397310706,-0.004025427158921957,0.003056313144043088,0.00420940387994051,-0.3406556775793433,-0.1532083059847355,-9.81047479391098
16.9,0.8000000119209291,173.0,25.427898406982425,4.85853385925293,-79.78279172213426,40.45897915064271,271.28420464801786,-0.004743806086480618,0.018226310610771183,-0.7846277952194214,0.6196810603141785,0.005588623491794676,-0.009381512171660436,0.010576575573870909,-0.000605581677518785,0.011036074720323086,0.005354094319045544,-0.3480752095207572,-0.14629379075020552,-9.814497678279876
17.1,0.8000000119209291,178.0,25.30394554138184,7.4667158126831055,-79.7827917722308,40.45897914389176,271.29505424308775,-0.004629672504961491,0.01824142411351204,-0.7846152782440186,0.6196972131729126,0.003219975934341229,-0.010580250164683402,0.010053539245390227,0.010019481182098387,-0.02778258733451366,0.0007134994957596064,-0.3637404849752784,-0.12591482807882132,-9.802472294569016
17.19,0.8999999761581421,178.0,25.22005653381348,8.174423217773438,-79.78279179978041,40.458979138767226,271.2974211435318,-0.003929634112864733,0.018846811726689342,-0.7846576571464539,0.6196303367614746,0.0009426190333616961,-0.012838975647338696,0.013594169018463423,-0.06843052059412003,0.005597740411758423,0.07462900131940843,-0.35919902566820383,-0.15016335929743946,-9.8210220015049
17.41,1.0,179.0,25.042266845703125,11.784528732299805,-79.78279184624947,40.4589790809535,271.3071878414154,-0.003304027253761888,0.019437329843640327,-0.7847176790237427,0.6195397973060608,0.011963146992778857,-0.014668293055952544,0.009543991677829732,0.03474118188023567,-0.035706598311662674,0.024354668334126472,-0.4600433227792383,-0.07804748335853219,-9.739934569001198
17.49,1.0,183.0,24.94836235046387,12.913681030273438,-79.78279182104484,40.458979082496704,271.31634812164305,-0.0014916193904355168,0.02074575237929821,-0.7847231030464172,0.6194974184036255,0.006044091334753974,0.003545815542999994,0.01011572938259387,0.04640781879425049,0.026133839040994644,-0.02657867595553398,-0.2122971610352397,-0.0955991254001856,-9.861482394933699
17.7,1.100000023841858,180.0,24.76931953430176,16.913423538208008,-79.78279182431531,40.458979079255705,271.31753794956205,-0.00031563013908453286,0.021266279742121696,-0.7847654223442078,0.6194280385971069,0.004554402407316224,-0.0038097228901182094,0.013606981886331049,0.045061394572257996,-0.01965336687862873,-0.029653098434209824,-0.3900246695056558,-0.24488151943311096,-9.81050169110298
17.89,1.100000023841858,182.0,24.520160675048828,20.348588943481445,-79.78279188122968,40.458979017436064,271.3298891048431,0.0029008651617914447,0.0204959437251091,-0.7849943041801453,0.619157075881958,0.02123685207982267,-0.015999086160459003,0.02611467990402096,0.02740044705569744,0.07353610545396805,-0.02209872379899025,-0.3325768355280161,-0.23711389543488626,-9.929106613397597
17.99,1.0,181.0,24.43251800537109,22.46376037597656,-79.78279189616258,40.45897901224121,271.33380763339994,0.002121360506862402,0.01901566796004772,-0.7851250171661377,0.6190416812896729,-0.005177878241159532,-0.015226781988516113,0.05370091201609575,-0.06501118093729019,0.02850733883678913,-0.009594975039362907,-0.3814020363986492,-0.4684140139818192,-9.978727254867556
18.09,1.100000023841858,192.0,24.29604339599609,24.73796844482422,-79.78279188274686,40.45897894985582,271.355954454422,-0.006794112268835306,0.008384599350392818,-0.7833003401756287,0.6215498447418213,0.004324702626959934,0.03965176217924028,0.18156083359817832,-0.09557606279850006,0.054918039590120316,0.025162573903799057,-0.1855362274311483,-0.22380334854125972,-10.188795493841173
18.3,1.100000023841858,194.0,24.687936782836914,16.778242111206055,-79.78279180833678,40.458978935911105,271.3807845573425,-0.009302256628870964,0.001712591852992773,-0.7817630171775818,0.6235038638114929,0.0038521739011336117,0.058632215937203185,0.32943392385666315,-0.035186108201742165,0.22612763941287994,-0.14872166514396667,-0.024027698328718542,0.09108842792920767,-11.200049221515656
18.4,1.100000023841858,196.0,24.65287780761719,17.81992530822754,-79.78279163956485,40.458978755088786,271.4403969507217,-0.0015814579091966152,-0.005055496469140053,-0.7789760231971741,0.6270313262939453,-0.017858723326209844,0.09371343808150108,0.28677184391109145,0.04330996423959732,0.05073421820998192,-0.02383572980761528,0.13256330413743855,0.3712547418102623,-10.367984586954117
18.6,1.2000000476837158,196.0,24.521413803100586,19.903289794921875,-79.78279149393643,40.45897894523692,271.4614117603302,0.001720762113109231,-0.005958879366517067,-0.7786981463432312,0.6273682117462158,-0.03251837465174137,0.0863809230817979,0.2134816472454203,0.17123515903949738,0.09397286921739577,0.0443318709731102,0.11250892588868737,0.03743508973158896,-9.464137778878213
18.69,1.100000023841858,191.0,24.56523513793945,19.22739028930664,-79.78279124586767,40.458979004580996,271.4965769510269,0.002860815031453967,-7.668670878047124e-05,-0.7799474000930786,0.6258385181427002,-0.0541611574721137,0.0961399912277832,0.1458572217615242,0.0817335695028305,0.01185374055057764,0.05865220725536345,0.19204262528568508,0.05678934613242745,-9.397523959279061
18.89,1.100000023841858,185.0,24.44128227233887,21.0483455657959,-79.78279102661622,40.45897911838721,271.5127164583206,0.004401132930070162,-0.0007295001414604485,-0.7805509567260742,0.6250762939453125,-0.07904015207137452,0.11757273454914614,0.1170909980355994,-0.007820868864655495,0.04952368885278702,-0.04962829127907753,0.020396677907556296,0.11554061584174635,-9.62829718887806
19.0,1.100000023841858,179.0,24.513900756835927,19.61702537536621,-79.78279075455785,40.45897924548702,271.54309670734403,0.0088417436927557,-0.005008333828300239,-0.7824609875679016,0.6226168274879456,-0.06623579994861054,0.11168631078639002,0.08959235071930248,0.108805812895298,0.14563719928264618,0.12527334690093994,0.11516705185174946,-0.2393949125334621,-9.638333934545518
19.2,1.100000023841858,175.0,24.398712158203125,21.899185180664066,-79.7827906020554,40.45897928472159,271.55142574119566,0.011115035973489285,-0.004989043343812227,-0.7834000587463379,0.6213985085487366,-0.06870004713346453,0.11312818780417075,0.08174775966593772,0.052859678864479065,0.016917966306209564,0.09940243512392044,0.09375014444813133,-0.12825405238196255,-9.74438605427742
19.3,1.100000023841858,166.0,24.356142044067386,21.85147476196289,-79.78279033308621,40.45897940711771,271.58713774490354,0.011899917386472223,-0.00405079172924161,-0.7842948436737059,0.620261013507843,-0.056465835091600275,0.09239308519531483,0.14728404974210393,0.04009856283664704,0.04383046180009842,0.10694657266139984,0.10289266811683774,-0.31015824526548386,-10.111145639419556
19.5,1.100000023841858,157.0,24.41749382019043,21.771957397460934,-79.78279021734045,40.45897943614776,271.6030529003143,0.0115210497751832,-0.0042170691303908825,-0.7844003438949585,0.6201335191726685,-0.060710593159138675,0.08413235829952588,0.1653497190973592,-0.032549332827329636,-0.04346244782209397,-0.07140324264764786,0.0642568800598383,0.06457964636385441,-10.002422511577604
19.6,1.100000023841858,148.0,24.33736228942871,22.018461227416992,-79.78278996890593,40.45897949558201,271.6341741542816,0.013828011229634285,-0.005841916427016258,-0.7843648791313171,0.6201181411743164,-0.030888904017956163,0.0627024005510096,0.17674181131378364,0.10483607649803164,0.09089026600122453,0.02227679081261158,0.04989904202520848,-0.19554978523403407,-9.92152043581009
19.8,1.100000023841858,143.0,24.35739517211914,23.04424095153809,-79.78278989693077,40.45897950911179,271.6525623064041,0.014975175261497498,-0.005537645891308785,-0.7841155529022217,0.6204094886779785,-0.027622552572327472,0.05671891768574808,0.18858881270266853,-0.006130299996584654,-0.054354239255189896,-0.03900428116321564,0.13915810458362105,-0.10156867576763036,-9.941382257938386
19.89,1.0,137.0,24.20589637756348,24.69025802612305,-79.78278992422634,40.4589797723093,271.6960480670929,0.013384644873440266,-0.005010838620364666,-0.7837519645690918,0.620909571647644,-0.04933004450900087,0.02176808292168667,0.21292912124990546,-0.027602734044194215,-0.022227928042411804,-0.060490947216749184,0.1480387095361948,-0.13294269707053902,-9.899772301912307
20.09,1.0,135.0,24.631593704223643,10.885978698730467,-79.78278987016574,40.4589796619631,271.71728293704984,0.014463397674262525,-0.0051718908362090605,-0.7834975719451904,0.6212050318717957,-0.024015077133258518,0.03658982533828739,0.24916565153216802,0.049794018268585205,-0.009685610421001913,-0.041801027953624725,0.17802452875301242,0.030050467494875194,-10.162854906320572
20.2,1.0,132.0,24.33861351013184,24.077970504760746,-79.78278984087724,40.45897966963566,271.74353258419035,0.01488925702869892,-0.00466634426265955,-0.7834217548370361,0.6212946176528931,-0.006377936410682354,0.025229332310094485,0.2442347596031345,0.08499938249588013,0.030458388850092888,0.10707150399684906,0.20145008264109493,-0.2601320445723832,-9.657079523205756
20.4,0.8999999761581421,136.0,24.02309608459473,27.9345817565918,-79.78278987945014,40.45897961531952,271.77079062271116,0.0027554137632250786,-0.004002110101282597,-0.7839095592498779,0.6208560466766357,-0.004564296481229489,0.0219512267836654,0.058329121934821086,-0.18564161658287048,-0.1489630788564682,0.007816297933459282,0.2605847104266286,-0.12118202777579427,-9.402111684679983
20.5,0.8999999761581421,142.0,23.957990646362305,28.332170486450195,-79.78278986675438,40.45897960690083,271.77959708976744,-0.0032069534063339233,-0.004014370962977409,-0.7843396067619324,0.6203104257583618,0.0043585283036635634,0.014054878147696459,0.12250533964882622,-0.023220879957079887,0.0003111390979029238,0.07308937609195709,0.029491528496146207,0.17311511512845754,-10.20328138589859
20.7,1.0,149.0,23.73011779785156,32.626129150390625,-79.782789616751,40.45897960740862,271.85405068206785,0.0012415157398208974,-0.005623628851026297,-0.7846687436103821,0.6198886036872864,0.013392029273810212,0.043726648372598965,0.4310953925204695,0.09119238704442978,0.0809030532836914,-0.011630008928477764,0.12202469377778473,0.021784345521591603,-11.228622225522995
20.81,1.0,159.0,23.93670463562012,29.43746757507324,-79.78278935801207,40.45897974930447,271.96522931861875,0.008630449883639812,-0.008869292214512825,-0.7847551703453064,0.6196823120117188,-0.004804409430962937,0.045471093454171295,0.7916536498094758,0.10243823379278184,0.04802611842751503,0.0357353538274765,0.2040931885689497,0.03561343080829829,-11.8038911819458
20.99,1.100000023841858,164.0,23.70632743835449,32.634078979492195,-79.7827893140433,40.458979753895996,272.05463723945616,0.009590839967131616,-0.008474274538457394,-0.7846871018409729,0.6197599172592163,-0.01378571827013004,0.053678780120509056,0.998137073451014,0.010920612141489984,0.00709803169593215,-0.009225783869624138,0.1854855576530099,-0.04978027502540499,-11.853516501188276
21.1,1.2000000476837158,173.0,23.732622146606445,33.02371597290039,-79.78278926459045,40.458979800656046,272.1618715982437,0.007335994858294725,-0.008577688597142695,-0.7843906879425049,0.6201644539833069,-0.020733444633769683,0.04885427698405879,1.198734522683188,0.008471386507153511,0.014883623458445072,-0.008457028307020664,0.2569283733889461,0.056715141311287874,-11.959926470518113
21.3,1.2999999523162842,177.0,23.67377471923828,32.47504425048828,-79.78278921161241,40.458979831652826,272.4453201751709,0.006701333448290825,-0.0080658458173275,-0.7833419442176819,0.6215026378631592,-0.024101287418216738,0.039068184507990836,1.6588888218451938,0.03276355192065239,0.044555991888046265,-0.03491772338747978,0.2178732120618224,0.08170571160502732,-12.25832041025162
21.4,1.399999976158142,188.0,23.617431640625,34.72539520263672,-79.7827891602134,40.45897988740215,272.6147776107788,0.009200181812047958,-0.006844255141913891,-0.7830539345741272,0.6218481659889221,-0.03092541361619352,0.04736551655594573,1.9064857416631884,0.037992291152477264,-0.010545823723077774,0.06365124136209488,0.2313952819816769,-0.1411570300720632,-12.399116685390473
21.6,1.5,195.0,23.62744903564453,33.32588577270508,-79.7827891127317,40.45897997303606,273.0312891464233,0.012325254268944263,-0.0024149185046553607,-0.7829604148864746,0.6219447255134583,-0.06320209006062671,0.05204143780763156,2.3677608341371883,-0.023221902549266808,-0.02733179554343224,0.03139514848589897,0.1925763664394617,-0.20271390348672869,-12.167223129272461
21.7,1.7000000476837158,201.0,23.57110595703125,33.795040130615234,-79.78278910202498,40.45897999971882,273.54701523590086,0.015020630322396757,-0.002958255121484399,-0.7838141918182373,0.6208068132400513,-0.058997352485758686,0.05636459347464218,2.7856825346191445,-0.010015538893640041,0.03213464468717575,0.007478466257452966,0.2657420642673969,-0.1317536383587867,-11.911225011348725
21.89,1.7999999523162842,202.0,24.09947204589844,25.27868843078613,-79.78278904070491,40.45898005296037,273.8228517036438,0.015678342431783676,-0.003789201378822328,-0.7856706976890564,0.618434727191925,-0.06776148877269629,0.06685277063349619,2.9364977088181856,-0.06056200340390205,0.009232749231159687,0.09613790363073348,0.22084699630737306,-0.16134894579648973,-11.50965812087059
21.99,2.299999952316284,200.0,23.909160614013672,28.67409706115723,-79.78278904781472,40.45898005550143,274.12108473587034,0.014992034062743187,-0.0036629769019782548,-0.7875013947486877,0.6161196827888489,-0.0581711606140834,0.06368691881949047,3.01228996606758,-0.03531363978981972,0.007147343829274178,0.0533607229590416,0.11063614494167268,-0.1760425601899624,-10.741759661436081
22.2,2.4000000953674316,196.0,24.09321212768555,25.73989295959473,-79.78278898675288,40.458980136355954,274.705538318634,0.01481921039521694,0.004176603630185127,-0.7879340648651123,0.6155672073364258,-0.07220854256950801,0.036555255125483035,3.078973927946272,0.09216724336147307,-0.09974806010723114,-0.00468677980825305,0.1318188987672329,-0.28093291126191616,-10.430003664493562
22.3,2.700000047683716,192.0,24.06191062927246,24.66640281677246,-79.78278894469307,40.45898020113963,275.31216244506834,0.02166150137782097,0.012662049382925034,-0.7840499877929688,0.6201905012130737,-0.09933176313731153,-0.004855356365697557,3.0969559360511227,0.2315904498100281,0.0064436504617333395,-0.038559041917324066,0.1873248724266887,-0.2734257989935577,-10.181618621349337
22.5,2.799999952316284,191.0,23.97426605224609,27.139404296875,-79.78278897225077,40.458980199085424,275.62027125167845,0.02780050039291382,0.012750948779284954,-0.782126784324646,0.6223683953285217,-0.12234286316218695,-8.444333113590691e-05,3.0545906687509845,0.1630566269159317,0.11996913701295853,0.06837312877178192,0.13025370877236128,-0.5762082750722767,-9.491960000395775
22.6,2.9000000953674316,192.0,23.8077449798584,28.371929168701172,-79.7827888616068,40.45898027807789,275.9380903701782,0.029803058132529262,0.010693907737731934,-0.7807959914207458,0.6239832639694214,-0.15291389026536736,0.031785424670312916,3.0003288802283214,-0.0493164211511612,0.070782870054245,-0.04829137027263642,0.18448668876662846,-0.3404729886353016,-9.344069883227347
22.8,3.0,197.0,24.10823631286621,24.85724449157715,-79.78278891064957,40.45898017074779,276.53388743209837,0.026734130457043648,0.005366877187043428,-0.7801718711853027,0.6249707341194153,-0.06230586730716184,0.05888740799476885,2.9586704846375724,0.000829900149255991,0.0614759661257267,0.07186876237392427,0.2334205199405551,-0.17027309423312545,-9.56722360610962
22.9,3.2000000476837163,198.0,23.88912773132324,26.495309829711914,-79.78278875135248,40.45898033538223,276.7947993736267,0.024189246818423268,0.00178616086486727,-0.7810680866241455,0.6239747405052185,-0.037892446719431996,0.05691050670222776,2.8938196993760097,-0.1024697721004486,0.1005132719874382,0.026349391788244247,0.16076566776260734,-0.049826426915824416,-9.499909874796867
23.09,3.4000000953674316,198.0,24.06191062927246,24.65049934387207,-79.78278822945762,40.458979864354376,277.35978131103514,0.01911352574825287,-0.008792297914624214,-0.7835429310798645,0.6209813356399536,0.04158033155845782,0.10630606604254904,2.8231674006832486,-0.024413995444774628,0.09924233704805374,0.10019722580909728,0.23033017510548234,-0.12006844382733108,-9.579313893914225
23.2,3.5,196.0,23.93420219421387,27.10759735107422,-79.78278824805417,40.45897975258736,277.6413126449585,0.01743956096470356,-0.012005849741399288,-0.7844734191894531,0.6198009848594666,0.06882560674406969,0.11452742603795305,2.8048555985017862,-0.06349202990531921,-0.01859455741941929,0.07921843230724335,0.1992882025614381,-0.17485298071056604,-9.585631225705148
23.4,3.5,196.0,23.955486297607425,25.652421951293945,-79.78278753758549,40.45897945697492,278.1084061126709,0.016286678612232208,-0.013611790724098679,-0.7851378321647644,0.6189572811126709,0.07255514772998431,0.14282641581268826,2.7078281291128925,0.014793669804930687,-0.009219890460371971,0.029335035011172295,0.2117692122794688,-0.06544680671766401,-9.778585249185562
23.51,3.4000000953674316,201.0,23.904151916503906,28.38783264160156,-79.78278744192326,40.4589792538166,278.7292910079956,0.01649741269648075,-0.010829927399754524,-0.7846879959106445,0.6195767521858215,0.03276507941326773,0.11571936691814852,2.7226799152632752,-0.06897108256816864,-0.06284092366695404,-0.06598519533872604,0.2887300088815391,-0.13505484840832652,-9.827335824966429
23.69,3.4000000953674316,204.0,23.827777862548828,28.62638664245605,-79.78278744344888,40.45897918863196,279.0030203323364,0.014507319778203962,-0.01020187046378851,-0.7847167849540709,0.6196008324623108,0.024684600122420054,0.10187283536371283,2.7561335064266155,-0.06766975671052933,0.04097041115164757,-0.029859401285648342,0.25098573848605155,-0.2272486376389861,-10.102303479909898
23.81,3.4000000953674316,208.0,23.9003963470459,25.843265533447266,-79.78278746378571,40.458979139751655,279.28073220062254,0.013963606208562851,-0.010598303750157356,-0.7848161458969116,0.6194807291030884,0.02957513125663323,0.0862143101005668,2.7963778600946276,0.03528383746743202,-0.001202798099257052,0.02829620614647865,0.2388929473422468,-0.3154502677917481,-10.195105808973313
24.0,3.4000000953674316,212.0,23.851566314697266,28.45939826965332,-79.78278740526213,40.458978658195626,279.9440470199585,0.0194123163819313,-0.010564826428890228,-0.7853047251701355,0.6187149286270142,0.02476551836179929,0.08739574123274771,2.838393642464125,0.04374027997255325,0.047937437891960144,-0.003735043806955217,0.3461363093554974,-0.12112859884276987,-9.73271852016449
24.1,3.4000000953674316,216.0,23.966754913330078,24.08592414855957,-79.7827873374775,40.45897848244524,280.29245285797117,0.01951185241341591,-0.010658412240445614,-0.7855295538902283,0.6184247136116028,0.0018266719931061613,0.0941612985344818,2.8152625457649108,-0.00885440595448017,-0.0122592244297266,0.09938357025384904,0.2908169715106487,-0.22187294511124486,-9.594714290499688
24.29,3.4000000953674316,216.0,23.91416931152344,26.95651435852051,-79.7827874329565,40.45897841668089,280.8548565368652,0.017200849950313568,-0.013679496943950651,-0.7854348421096802,0.6185541749000549,0.006303454060735046,0.073550368888166,2.785488052825771,-0.04133401438593864,0.01078645884990692,0.06569655239582063,0.3033911895006895,-0.3064147847145796,-9.516797218322754
24.41,3.4000000953674316,219.0,23.89413642883301,27.234825134277344,-79.78278746401905,40.45897816420964,281.486254737854,0.015633661299943924,-0.015757108107209206,-0.7849346399307251,0.6191808581352234,0.020417694731191118,0.07307426011156433,2.784616901026091,-0.0010821693576872347,-0.01816406100988388,0.06167566031217575,0.38763549719005824,-0.3883365052565933,-9.57291177749634
24.6,3.299999952316284,219.0,23.796476364135746,28.98421669006348,-79.78278732694841,40.45897802662672,281.8487530212402,0.014466810971498491,-0.013290543109178543,-0.7850490212440491,0.6191222071647644,0.03204192118917916,0.058707495346739774,2.820316669732442,0.1307520717382431,-0.04311239346861839,0.07832996547222137,0.3685209126770497,-0.2685960354097188,-9.723937171697617
24.7,3.299999952316284,220.0,23.91542053222656,25.98639678955078,-79.78278741680245,40.45897801751024,282.1307812194824,0.01386156864464283,-0.012591883540153505,-0.7852919101715088,0.6188424229621887,0.009277774467808746,0.03252028154211625,2.8283583314923804,-0.030985936522483826,0.05863777920603753,-0.04618677496910095,0.24793798696249725,-0.20448696199804545,-9.862150146961213
24.89,3.299999952316284,221.0,23.827777862548828,28.24470138549805,-79.7827874192743,40.45897764442547,282.7766561965942,0.01206688303500414,-0.013983564451336859,-0.7855159640312195,0.6185657978057861,0.03646866110778696,0.034734211795676595,2.8775326618400072,0.0881715714931488,0.07672752439975739,0.00020803231745958328,0.34296225797384977,-0.07840525986626745,-9.810670090913774
25.01,3.299999952316284,223.0,23.72010040283203,28.713855743408203,-79.78278755269197,40.4589774487379,283.4219818572998,0.012422366067767143,-0.010801133699715136,-0.7857820391654968,0.6182844042778015,0.008400447726990595,0.02582065946054673,2.940380620981777,0.028659747913479805,0.013586774468421936,0.035667963325977325,0.3400890823826194,-0.2786366183124483,-10.075557146072386
25.19,3.299999952316284,221.0,23.94296646118164,25.95458984375,-79.78278764882802,40.458977460087326,283.7171383361816,0.012534073553979395,-0.010067738592624664,-0.7858355641365051,0.6182265281677246,-0.010476594695930756,0.010081464504398565,2.9573052112986726,0.08227448165416718,-0.0013516414910554884,0.04448963329195976,0.3459438263252378,-0.2717168040387333,-9.98708994269371
25.29,3.2000000476837163,220.0,23.94672203063965,24.93676376342773,-79.78278774760788,40.458977479765814,284.0126181106567,0.01480309385806322,-0.009428552351891994,-0.785614013671875,0.6184679865837097,-0.02795997567642875,0.0050233132405054035,2.950949489220663,0.07824427634477615,0.05953898653388024,0.028742851689457893,0.3374751942604781,-0.15692658696323633,-9.79124914884567
25.5,3.2000000476837163,221.0,23.81901359558105,29.62830924987793,-79.78278787762208,40.45897739120865,284.64784340667717,0.01721581444144249,-0.00828554481267929,-0.7847718596458435,0.6194902658462524,-0.038941028083461074,0.007296889043568107,2.931424045315876,0.07685687392950058,0.02816357091069221,0.05536050349473953,0.3353546284139157,-0.33924145538359884,-9.621650074124338
25.6,3.2000000476837163,222.0,23.77769470214844,28.849035263061523,-79.78278787196975,40.45897732031172,284.99093727874754,0.016275953501462936,-0.007818532176315784,-0.7845216989517212,0.6198384761810303,-0.04828012763467672,0.009447667432137557,2.9508076682141366,-0.04351145401597023,0.012305931188166142,-0.03107473812997341,0.2414773070253432,-0.1664364254102111,-9.7442433822155
25.79,3.2000000476837163,223.0,23.97426605224609,24.63459587097168,-79.78278808096948,40.458977363540384,285.5870390396118,0.011919581331312656,-0.009165859781205654,-0.7840200066566467,0.6205534934997559,-0.03998562220056661,0.0016253024638079525,3.0023905514973426,-0.017892515286803246,0.019298486411571503,0.05554570257663727,0.3202137385681272,-0.11809488063678145,-9.980771441459655
25.9,3.0999999046325684,225.0,23.89413642883301,26.050010681152344,-79.7827880254641,40.458977206072866,286.2233677368164,0.009340737015008926,-0.008421380072832108,-0.7839770913124084,0.6206623911857605,0.011286403605546828,0.012371834573263192,2.9953151649723053,0.14896540343761444,0.09213191270828247,0.04700234904885292,0.2876511062309146,-0.3168769518658519,-9.767425838112832
26.1,3.0999999046325684,226.0,23.821516036987305,27.43362045288086,-79.78278803654113,40.458977160216726,286.55985455322264,0.011004609987139702,-0.007962663657963276,-0.7841576337814331,0.6204130053520203,-0.005987063327830805,0.016517446323444922,3.0029245979627532,0.00953734666109085,0.032594550400972366,0.058189317584037774,0.3799763755872846,-0.1843662909418345,-9.729027172923088
26.2,3.0999999046325684,227.0,23.85407066345215,26.622539520263672,-79.78278809601481,40.45897716741533,286.8599415283203,0.010706594213843346,-0.007000867743045093,-0.7844523191452026,0.6200571656227112,-0.018517896101474092,0.03619975836643044,3.003453286337544,-0.0132454177364707,-0.09744267165660858,0.04555773735046387,0.3071854111924768,-0.2453862803243101,-9.81969936132431
26.4,3.0,229.0,23.86659049987793,26.67820167541504,-79.782788140284,40.45897716730476,287.4944038848877,0.010540051385760307,-0.0088645089417696,-0.7852685451507568,0.6190022230148315,-0.026737941158151857,0.037300979117165615,3.0664435896317346,-0.08915189653635025,0.04910396412014961,-0.0046102991327643394,0.2288996903412044,-0.11012589314952494,-10.067621304988863
26.51,3.0,232.0,23.97802352905273,24.73796844482422,-79.78278817708218,40.45897717352108,287.8028278808593,0.012079874984920023,-0.0113232908770442,-0.7854458093643188,0.6187090277671814,-0.010358974669882556,0.05568500588824482,3.0983349084970344,0.0768098384141922,0.0639888346195221,0.026119152083992958,0.38047543544322254,-0.17687279172241688,-10.109316630363463
26.69,3.0,234.0,23.907907485961914,25.07989501953125,-79.78278820602634,40.45897716143789,288.4500370483398,0.012756037525832651,-0.011982022784650326,-0.7858003973960876,0.6182326078414917,-0.010734252481457866,0.08033955671823273,3.1006959125660267,0.07627332955598831,-0.01858188211917877,-0.03971658274531365,0.4064158767834306,-0.08247106645256283,-9.874973090887073
26.81,3.0,242.0,23.8465576171875,27.807353973388672,-79.7827882359297,40.45897717037131,288.76037030029295,0.01386582013219595,-0.011347445659339428,-0.7859178781509399,0.6180713176727295,-0.02713505780278944,0.07973828851912743,3.10159991128215,-0.05245279520750047,0.018425963819026947,0.02750922739505768,0.3465437871962786,-0.09929981905035674,-9.799521789550784
26.99,3.0,244.0,23.6612548828125,29.56469535827637,-79.78278813328345,40.45897720766439,289.40645413208006,0.01260815281420946,-0.0121960137039423,-0.7861506342887878,0.6177861094474792,-0.040719277485222916,0.08488127277604476,3.1043355022467862,0.04407949000597,-0.033714555203914635,-0.06647542864084244,0.4814785940945149,-0.0016794756520539524,-9.875991675853733
27.09,3.0999999046325684,246.0,23.70507621765137,28.554821014404297,-79.78278811345784,40.45897725492471,289.7480183105468,0.012177754193544388,-0.011143720708787441,-0.7860690951347351,0.6179183125495911,-0.055963292632531685,0.07806046374147316,3.14201429519911,-0.058705937117338174,-0.02472527697682381,-0.06440255045890808,0.38713391572237016,0.13378487884998322,-10.06569289326668
27.3,3.0999999046325684,249.0,23.89288330078125,26.455551147460927,-79.78278815624179,40.458977328278976,290.38664440917967,0.011461148969829079,-0.010201340541243551,-0.7857353687286377,0.6183724403381348,-0.060659342740794965,0.071788574447481,3.2138320371137183,-0.09869268536567688,0.02201436646282673,-0.07225243002176285,0.3605327024683356,0.1446035251580179,-9.94426376581192
27.4,3.0,252.0,23.92668914794922,24.252910614013672,-79.78278811893136,40.45897739609432,290.7197342376709,0.0132687296718359,-0.010615382343530657,-0.7857897877693176,0.6182603240013123,-0.06382763908448576,0.07557877261528298,3.148066841659332,0.021192589774727814,0.019199253991246223,0.023319842293858528,0.3539894854277372,0.10580698435194792,-9.499267265796664
27.59,3.0,255.0,24.05189323425293,23.12375831604004,-79.78278800864719,40.45897736701917,291.3777523498535,0.013929427601397038,-0.013287006877362728,-0.7868797779083252,0.616806149482727,-0.05241620275740348,0.11088175426724016,3.1202604799232136,-0.017216254025697708,0.0021229072008281946,-0.026981741189956658,0.4160686796531081,-0.06742890318855642,-9.641687312722206
27.7,3.0,256.0,23.87285041809082,23.306650161743164,-79.78278800148712,40.45897739072663,291.6889725189209,0.014754869043827057,-0.013579961843788624,-0.7874849438667297,0.6160076856613159,-0.05389911501766197,0.11689438024200345,3.092071997542152,-0.07333305478096007,0.02026159130036831,-0.08093274384737015,0.336503642834723,0.2657875263690949,-9.487771639823912
27.9,3.0,258.0,23.875354766845703,25.859169006347656,-79.78278777411396,40.45897752788174,292.3458862762451,0.01419731043279171,-0.01455215271562338,-0.7882590293884277,0.6150075793266296,-0.06787101509742557,0.12428680461609727,3.0702789378182715,-0.10170335322618483,-0.12176485359668733,-0.020363155752420425,0.39762382060289386,-0.09259650707244874,-9.554946792125703
28.0,3.0,259.0,23.84530639648437,26.320371627807607,-79.78278776384012,40.458977562277866,292.65215306091307,0.014381770975887775,-0.014221645891666412,-0.7883138656616211,0.614940881729126,-0.04713182892695784,0.11950630440019155,3.0489086664845138,0.1413261890411377,0.07659047096967697,0.06506945937871933,0.4620386485755444,-0.05497725745663047,-9.599777979254725
28.19,3.0,261.0,23.89288330078125,25.87507247924805,-79.78278757505952,40.45897759622688,293.305738494873,0.015384909696877003,-0.013634900562465193,-0.7872464656829834,0.6162957549095154,-0.05476815573231019,0.126832456505083,3.0887116877860468,-0.14485204219818115,-0.08812232315540314,-0.10900764167308807,0.2996827208809555,0.07865258795209229,-9.817016658782961
28.3,3.0,261.0,23.937957763671875,23.688335418701172,-79.78278756915681,40.45897761167132,293.61466603088377,0.015850171446800232,-0.014294298365712166,-0.7866408824920654,0.6170417666435242,-0.03121413319913346,0.122594257853733,3.0826681394179225,0.12949566543102264,0.020351255312561992,0.06039941310882568,0.40373262606561183,-0.049312420114874835,-9.80868028342724
28.49,2.9000000953674316,262.0,23.96174621582031,24.30857276916504,-79.78278749375869,40.45897760595957,294.2543220977783,0.0149004515260458,-0.01417603436857462,-0.7857213616371155,0.618238627910614,-0.04474897910844931,0.12962083559672968,3.088590746659658,-0.13717177510261536,-0.02311224304139614,-0.0457952618598938,0.30108482837677003,0.032043317360803486,-9.708063735365867
28.59,2.9000000953674316,262.0,23.781450271606445,26.98036956787109,-79.78278733456735,40.45897758869064,294.5886803131104,0.014552506618201731,-0.014641300775110722,-0.7857285141944885,0.6182270646095276,-0.04117110415442402,0.13606744198280893,3.0995482441937985,-0.08354905247688292,-0.01839825324714184,-0.13661323487758634,0.34176613692194224,0.2747009122744203,-9.714455326795578
28.79,2.799999952316284,262.0,23.88286781311035,24.45965576171875,-79.78278731866662,40.458977611406695,295.20983319091795,0.015941636636853218,-0.015524431131780148,-0.7868719696998596,0.616715133190155,-0.019677849487706518,0.1264950200714418,3.104017350413093,0.07719922810792923,0.0024410623591393232,0.07419190555810927,0.3303862858191133,-0.2756940618529916,-9.765462927818296
28.9,2.700000047683716,261.0,23.830280303955078,25.453628540039066,-79.78278715090536,40.45897763114475,295.54205517578123,0.01680012419819832,-0.016104307025671002,-0.787765383720398,0.6155356764793396,-0.041351495807345366,0.1339524001890271,3.100846547056076,-0.017998339608311653,-0.00723132211714983,-0.09783979505300522,0.4094036212563515,0.14859256876632573,-9.703879467844963
29.1,2.799999952316284,261.0,23.95298194885254,24.22905540466309,-79.7827870021676,40.45897765515495,296.17845349121086,0.015282498672604559,-0.015117403119802475,-0.7888808250427246,0.614170253276825,-0.03668168802421376,0.13829323574952293,3.0960999173230688,-0.14671726524829865,-0.12031932175159454,-0.030594652518630024,0.3735252887383104,-0.009127905629575252,-9.685704567432404
29.19,2.799999952316284,263.0,23.875354766845703,24.57893371582031,-79.78278701552516,40.45897766265306,296.48701863098137,0.015394536778330803,-0.013459425419569016,-0.7892798185348511,0.6136931777000427,-0.01787710584214082,0.11468710154048545,3.0665478008431966,0.08504442125558853,-0.01874835044145584,0.12379644066095352,0.34701255116611723,-0.17683858551084994,-9.570230244398116
29.39,2.799999952316284,263.0,23.85907745361328,25.191219329833984,-79.78278690737902,40.4589776783208,297.11417202758787,0.011832207441329956,-0.013778435066342354,-0.7887381911277771,0.6144609451293945,-0.022023964789695236,0.09131000561054722,3.049407969769584,-0.054164770990610116,0.03850500658154488,-0.025719180703163147,0.341684860624373,0.12763656813651325,-9.735726912617684
29.61,2.700000047683716,264.0,23.830280303955078,25.3900146484375,-79.78278687854869,40.45897761393272,297.74211125183103,0.009450425393879414,-0.01443174574524164,-0.78760826587677,0.6159348487854004,0.01452674481941782,0.08296108008139272,3.0772048061535946,-0.02893790230154991,0.011516246944665907,0.0014187593478709461,0.3042096169665456,0.0042040475551038976,-9.885420895814898
29.69,2.700000047683716,266.0,23.911664962768555,24.809534072875977,-79.78278690863111,40.458977608488816,298.0505562286377,0.010420599952340126,-0.013452736660838129,-0.7872936129570007,0.6163435578346252,0.009157289064300623,0.08384212185320879,3.0907047957914715,-0.07503379881381989,-0.04152611643075943,-0.12223928421735765,0.2705743129178882,0.2859555415995419,-9.885700392723084
29.8,2.700000047683716,266.0,23.83278465270996,25.175315856933594,-79.78278694220779,40.458977601313826,298.35975842285154,0.012156151235103607,-0.011946875602006912,-0.7871303558349609,0.6165512800216675,0.02896461519058746,0.0730836985127589,3.0885888753230937,0.17868000268936154,0.03556190431118012,0.08938581496477127,0.31226291399449113,-0.08566374669782817,-9.826726545095443
29.99,2.799999952316284,267.0,23.85407066345215,25.453628540039066,-79.78278687961053,40.45897767395849,298.9752579193115,0.012998479418456554,-0.011198949068784714,-0.7874374389648438,0.6161558628082275,-0.024458902753488613,0.07644410182152786,3.0574409924958963,-0.15459731221199036,-0.07782557606697083,-0.0930003970861435,0.2625984184071421,0.1993768609687686,-9.657046194076539
30.09,2.799999952316284,269.0,23.97051048278809,23.624719619750977,-79.7827868043055,40.45897762098211,299.5972652893066,0.01000692043453455,-0.010604839771986008,-0.7879662513732909,0.6155458688735962,0.004964411915793675,0.07271770798868749,3.03910991458075,-0.01007999572902918,0.04941181465983392,0.042745381593704224,0.3540652068704367,-0.09469086094759403,-9.71964005291462
30.3,2.700000047683716,271.0,23.72135353088379,27.97434043884277,-79.78278683278026,40.458977608917714,299.9006615142822,0.008851815015077591,-0.011684858240187168,-0.7878549098968506,0.6156864762306213,-0.006528393953289784,0.07084328985016147,3.0325527589618075,-0.19651953876018524,-0.06304904073476791,-0.13723914325237274,0.2335033494047821,0.21736622191965585,-9.70089563369751
30.4,2.799999952316284,275.0,23.90665626525879,25.11965370178223,-79.78278676295439,40.45897764023653,300.2150440673828,0.008746204897761345,-0.012665004469454287,-0.7876856327056885,0.6158852577209473,0.029024403305349937,0.06820080128468288,3.0460976792334686,0.11528544127941133,0.028133979067206383,0.005862370133399963,0.3622055908665061,-0.034781851675361394,-9.897345707416537
30.6,2.799999952316284,275.0,23.891632080078125,23.354360580444336,-79.78278669962872,40.45897754794562,300.82818226623533,0.009551933966577051,-0.013538937084376812,-0.7870851159095764,0.6166219115257263,0.046703253314411684,0.0848989051131874,3.067495534775184,0.044877056032419205,-0.07563651353120804,0.0055037778802216036,0.29464227480813865,-0.1372933178767562,-9.9299848651886
30.69,2.9000000953674316,278.0,23.901647567749023,24.21315193176269,-79.7827867670722,40.45897748883344,301.4457722167968,0.008623742498457432,-0.012141150422394277,-0.7870211601257324,0.6167463064193726,0.032887062611694,0.07753696226130039,3.0831603626334454,-0.16476210951805115,-0.07692155241966248,-0.1658821552991867,0.2498825150728225,0.2986152933910489,-9.71911848127842
30.89,2.9000000953674316,277.0,23.7251091003418,26.39193725585937,-79.78278666010837,40.45897753731652,301.7477055053712,0.008011112920939922,-0.012237397022545338,-0.7875549793243408,0.6160709261894226,0.0451474588958721,0.06660251696801811,3.0547596462369526,0.10485050827264786,-0.011946666054427624,0.1494220346212387,0.33951642069965604,-0.14693813564255834,-9.767664404511454
31.0,2.9000000953674316,278.0,23.795223236083984,26.46350288391113,-79.78278669526145,40.458977513822155,302.05364804077146,0.007720022462308406,-0.012647440657019615,-0.78818678855896,0.6152577400207521,0.03606665098217399,0.06664653600998405,3.0644044804890727,-0.028996324166655537,0.02633285149931908,0.046752188354730606,0.29537988279014826,-0.04040759489871562,-9.873254009485246
31.19,2.9000000953674316,277.0,23.82652473449707,25.24688148498535,-79.782786609901,40.45897755311256,302.6674442749023,0.007270731963217258,-0.015047583729028704,-0.7890380620956421,0.6141170263290405,0.04732891476158374,0.0705043917867405,3.0796811066022114,0.1591034084558487,0.056515730917453766,0.0989011824131012,0.3723395099490881,-0.1586900706589222,-9.905814814567568
31.3,2.9000000953674316,277.0,23.85782623291016,25.22302627563477,-79.78278664015856,40.45897754578727,302.9752445678712,0.008713888935744762,-0.01576133817434311,-0.7890442609786987,0.6140723824501038,0.026927672555260667,0.07680790697331838,3.0738394853842186,-0.06036153808236123,0.011401057243347168,-0.02076700516045093,0.3000772983022034,0.12748477807268502,-9.760919056534767
31.5,2.9000000953674316,277.0,23.911664962768555,24.21315193176269,-79.78278657833725,40.45897749669173,303.5888233642578,0.00949738547205925,-0.015709135681390762,-0.7888617515563965,0.614296555519104,0.03285461515473388,0.0828706431571912,3.071990034056588,0.05392309650778769,-0.017803285270929337,0.017025627195835114,0.3751050236821175,-0.12159728972241285,-9.875053782463077
31.6,2.799999952316284,280.0,23.901647567749023,23.847370147705078,-79.78278648506462,40.458977439034186,304.20821194458006,0.01001708023250103,-0.015562550164759159,-0.7899375557899475,0.6129080653190613,0.03555576140119748,0.09118893952500087,3.0775641048762625,0.05413474142551422,-0.02269632369279861,0.05839173123240472,0.3205396842956543,0.3026402242854237,-9.853888031244276
31.79,2.799999952316284,280.0,24.006820678710927,21.811716079711914,-79.78278651915274,40.458977430782454,304.5160885314941,0.008902339264750479,-0.014968394301831722,-0.7906792163848877,0.6119830012321472,0.018229019728324847,0.08280910928056127,3.0814013970213896,-0.08050677180290222,-0.034690260887146,-0.0750948116183281,0.28642421420663594,0.12455343182198705,-9.842561974525452
31.89,2.5999999046325684,278.0,23.85782623291016,24.626644134521484,-79.78278647258249,40.458977489098075,304.824781463623,0.006657843012362719,-0.014534488320350647,-0.7911583185195923,0.6114024519920349,0.020856485802926112,0.07180081423406864,3.0765965737283443,0.06493957340717316,-0.004169979598373175,0.09517394006252287,0.27067689500749115,-0.13181748264469206,-9.76917649447918
32.09,2.5999999046325684,282.0,23.862834930419922,23.990501403808594,-79.78278641831353,40.4589774636402,305.4413853149414,0.005826525390148164,-0.011020608246326448,-0.7911254167556763,0.6115270256996155,0.029042360071845182,0.049071276245287634,3.06294070880562,0.05028529465198517,0.06979066878557205,0.014445643872022629,0.2228078966215253,-0.051067384234629566,-9.805622774362565
32.2,2.4000000953674316,285.0,23.92293357849121,24.483510971069336,-79.78278650731481,40.45897746805781,306.05127529907224,0.006964950356632471,-0.01227816566824913,-0.7897292375564575,0.6132932305335999,0.026519498507184373,0.03678190155466873,3.018817693596805,0.06743597239255905,0.05811139196157456,0.05446798354387283,0.2702045861631632,-0.1597862043231726,-9.54189814567566
32.4,2.299999952316284,285.0,23.82402038574219,25.191219329833984,-79.78278647097059,40.45897747493596,306.3617496948242,0.006906164810061455,-0.012848200276494026,-0.7889281511306763,0.6143124103546143,0.01718944384306931,0.04394126365783565,3.0035778919283933,-0.07352571934461594,0.027958571910858158,-0.046842075884342194,0.28415344800800085,0.2811911206506193,-9.553170992732053
32.5,2.299999952316284,290.0,23.801483154296875,23.42592620849609,-79.78278645857948,40.458977445759366,306.9735546569824,0.0025959673803299665,-0.012147736735641956,-0.7874439358711243,0.6162611246109009,0.03888298276911216,0.037478964031437065,3.0052122034550504,-0.03679000213742256,0.03873712569475174,-0.05491297692060471,0.19993081156164408,0.3057168464362621,-9.720491407513617
32.69,2.0999999046325684,292.0,23.801483154296875,25.318449020385746,-79.78278650686947,40.45897744031654,307.2738781433105,0.0027617942541837692,-0.012251713313162329,-0.7869843244552612,0.6168451309204102,0.05285065853758738,0.029406316482436107,3.0024964674907,0.04162764549255371,0.0450071319937706,0.0904705598950386,0.1870137457363308,-0.015254353238269687,-9.775800220370293
32.79,2.0999999046325684,292.0,23.827777862548828,24.3801383972168,-79.78278655492177,40.45897743945073,307.57405667114256,0.0029154291842132807,-0.013434606604278088,-0.7867223024368286,0.6171540021896362,0.044962543830880684,0.028553333990070706,3.0012578061398636,0.02228209748864174,0.00355671625584364,-0.03081686608493328,0.2403754540532828,-0.034639691244810825,-9.775555806756019
33.0,2.200000047683716,293.0,23.89413642883301,23.67243003845215,-79.78278647447914,40.45897747618717,308.18498425292967,0.0017728861421346664,-0.012378235347568987,-0.7870137095451355,0.6168088316917419,0.03551555770949923,0.052274312620855766,2.990284601064618,0.0193942878395319,-0.07048624008893968,0.029749648645520214,0.21425424238666893,0.15926963936537505,-9.630818508267405
33.09,2.200000047683716,294.0,23.755157470703125,25.93868637084961,-79.78278646351276,40.45897750903956,308.48820690917967,0.0009388898615725336,-0.010821403004229069,-0.7872992753982544,0.6164754033088684,0.05172156981867805,0.033324135251195375,2.991264664871363,0.17990197241306305,0.04523979872465134,0.12846550345420835,0.31919062200933696,-0.2142051075026393,-9.710167563557627
33.3,2.0999999046325684,290.0,23.8077449798584,25.620615005493164,-79.78278651830473,40.458977536953675,309.0847492675781,0.002043378772214055,-0.010755791328847408,-0.788333535194397,0.6151506900787354,0.009670640226010241,0.03268378735721523,2.972597973834055,-0.0363687202334404,-0.009011567570269108,-0.038823258131742484,0.20154226765036584,0.22679365117102865,-9.668579826951026
33.39,2.200000047683716,298.0,23.692556381225586,26.566877365112305,-79.78278644405661,40.45897759281196,309.6851482849121,0.005530483089387417,-0.010127466171979904,-0.789620041847229,0.6134877204895021,0.00958415064531667,0.06556495569114333,2.9949557737962347,-0.013427781872451305,0.015601214021444319,-0.025226008147001263,0.3249827641993761,-0.16703932816162706,-9.817641141414645
33.59,2.4000000953674316,303.0,23.658750534057607,27.32229423522949,-79.782786413642,40.458977662887094,309.98409085083006,0.007808094844222069,-0.009307628497481346,-0.7900133728981018,0.6129692196846008,-0.004839149724396856,0.049922670047113225,2.997625393916719,-0.016689829528331757,-0.037544269114732735,-0.08295578509569168,0.2584500564448536,0.20104254998266705,-9.83420981168747
33.7,2.5,309.0,23.94421768188477,24.22905540466309,-79.78278643630223,40.458977674276255,310.2837353210449,0.009303749538958073,-0.01208345778286457,-0.7899391651153564,0.6129955649375916,-0.004211868936668167,0.04975228961330783,2.997480032407746,0.008111163973808289,0.10602967441082001,0.0284942090511322,0.26580665772780776,0.18591452401131392,-9.847830315828325
33.9,2.5,312.0,23.75265312194824,25.11965370178223,-79.7827863292743,40.458977688321866,310.8779201965332,0.006312523037195207,-0.013440888375043869,-0.7895811796188354,0.6134665608406067,0.022333255075642898,0.07763995693189436,2.9701747284561004,-0.11494679003953935,-0.009464598260819912,-0.0610782615840435,0.18543729985132806,0.2813683826476336,-9.718381732106213
34.01,2.700000047683716,324.0,23.74764633178711,26.28061294555664,-79.7827862327117,40.458977697417424,311.46965603637693,0.00522362906485796,-0.011866511777043344,-0.7886065840721129,0.6147615313529968,0.05780903733267865,0.06552099547204747,2.9529104568342515,0.03375581279397012,0.0641503557562828,0.01795811951160431,0.2443311319872737,0.2479898079112172,-9.680045047402382
34.19,2.5999999046325684,329.0,23.68253898620605,26.646394729614247,-79.78278626432157,40.45897766884898,311.76506237792967,0.003277052426710725,-0.0120781771838665,-0.7882511615753174,0.6152263283729553,0.0697010710414502,0.05622966475676415,2.9559187702498417,0.005508377682417631,-0.09134037047624588,0.06642758846282959,0.21476647675037386,-0.030285333702340725,-9.801396991610527
34.3,2.700000047683716,340.0,23.67252349853516,28.348073959350586,-79.78278630503304,40.45897763265844,312.06182675170896,0.0008827726705931127,-0.013457294553518295,-0.7885420918464661,0.6148329377174377,0.08494904185971214,0.047511915383764224,2.975963772582627,-0.050546105951070786,0.007547450717538595,0.06108367815613746,0.18592541445046665,0.08419784973375499,-9.938303114175797
34.5,2.700000047683716,349.0,23.70132064819336,26.686153411865234,-79.7827862700326,40.458977586302034,312.6579609375,-0.004162530414760114,-0.017524465918540955,-0.7905291914939879,0.6121595501899719,0.10393745710163146,0.044862852781639116,3.017849931186805,-0.05394938215613365,-0.06266406178474426,0.06579136103391647,0.1900894177146256,0.009076541494578124,-10.030111416578293
34.6,2.4000000953674316,6.0,23.63496208190918,28.729759216308594,-79.78278619183905,40.458977582286465,312.9497204284668,-0.006377202458679676,-0.01786007545888424,-0.7916723489761353,0.6106516122817993,0.1088774652094349,0.04624498656680177,3.0084439231501947,-0.02474481426179409,-0.013093487359583378,0.11089639365673064,0.1626580825634301,-0.009353736061602832,-9.930702903270722
34.8,2.299999952316284,6.0,23.57110595703125,27.79940223693848,-79.78278625308405,40.45897757760262,313.5517712097168,-0.003236694261431694,-0.00947184395045042,-0.7926108241081238,0.6096457839012146,0.08280541648690164,0.02491591748415764,3.019018916366609,0.11583229899406433,-0.06508958339691162,-0.0012398723047226667,0.09847052855417134,-0.007917924849316478,-9.904225541353227
34.9,2.4000000953674316,10.0,23.716344833374023,26.209047317504893,-79.78278620319955,40.45897774563535,314.14282803344724,0.001735402038320899,-0.004597492516040802,-0.791458785533905,0.6112027764320374,0.007512444276822978,0.005116090893480316,3.0531254324831987,0.03386295959353447,0.04632986336946488,-0.04440722614526749,0.0899023841880262,-0.02287303769029677,-10.06602852344513
35.09,2.4000000953674316,12.0,23.64122200012207,27.234825134277344,-79.78278612470348,40.458977813179615,314.43329052734373,0.0028242059051990518,-0.0051846192218363285,-0.7908931374549866,0.6119258999824524,-0.0007177548255797826,0.014147504154612215,3.02762869425125,-0.03358292207121849,-0.005361339543014765,-0.06393398344516754,0.14400209334678948,0.09506148305721583,-9.878428795337678
35.2,2.299999952316284,11.0,23.77769470214844,25.06399154663086,-79.78278613717842,40.45897782102128,314.7358952026367,0.0026649152860045433,-0.00604257732629776,-0.790277361869812,0.6127136945724487,-0.0016425096469348274,0.02861909894966956,3.0262894628500145,-0.076434426009655,0.046884343028068536,-0.04829825460910797,0.1449413480423391,0.12291506026871506,-9.802714369297028
35.4,2.200000047683716,10.0,23.57361030578613,28.849035263061523,-79.78278605971016,40.458977867931104,315.33424572753904,0.003779435530304909,-0.008569284342229366,-0.7896263599395752,0.6135165691375732,0.014519452100532878,0.04558676669595714,3.0186451565604084,-0.0647222176194191,0.07360448688268661,-0.03968917578458786,0.2398027558252216,0.2935543820634485,-9.920319417715072
35.5,2.0,8.0,23.62244033813477,27.24277687072754,-79.78278595851256,40.45897790517532,315.9408817749023,0.0017318385653197765,-0.016981376335024834,-0.7896422743797302,0.6133300065994263,0.014203029593099768,0.06646328378745325,3.077312673975878,-0.08797307312488556,0.0007511625881306827,-0.0728304535150528,0.2519712501391769,0.2330453845113516,-10.122258857488633
35.69,2.0,10.0,23.844053268432607,22.980627059936523,-79.78278596640116,40.45897791494128,316.25063900756834,0.0017029449809342625,-0.01974249072372913,-0.7900620698928833,0.6127066016197205,0.04164748231332351,0.0789771528150128,3.1172145404671503,-0.05713774636387825,0.025403067469596863,-0.00423897337168455,0.20638990178704264,0.1744725279696286,-10.186294054985046
35.8,2.0999999046325684,5.0,23.632457733154297,27.17121124267578,-79.78278592049526,40.45897806144744,316.8515148620605,0.0015272980090230706,-0.017353970557451248,-0.7920565605163574,0.6101991534233093,0.031140072383035983,0.0700456491032223,3.0403601099906084,0.09181629866361618,-0.08303934335708618,0.060600541532039635,0.2004523101076484,0.16834850147366526,-9.518404617905617
36.0,2.0,5.0,23.649986267089844,26.86109161376953,-79.78278594579035,40.458978102139326,317.154241607666,-9.952107211574912e-05,-0.015382258221507072,-0.7930688858032227,0.6089377403259277,0.02231831860443581,0.051025738200764836,3.01324799735204,0.024197295308113098,0.04183969274163246,0.07180208712816237,0.1805768932029605,-0.016167332008481028,-9.551632590293883
36.1,2.0,355.0,23.75766181945801,27.07579040527344,-79.78278582163773,40.45897816832236,317.4593639831543,-0.0002208266232628376,-0.013227853924036026,-0.7937017679214478,0.6081631779670715,0.0041957922618177,0.0455047618520219,3.0063674728304552,-0.020427042618393898,-0.10110512375831604,-0.08159565925598145,0.2006867469102145,0.2871144049242139,-9.62235700249672
36.29,2.200000047683716,352.0,23.56735038757324,27.71988296508789,-79.78278584820009,40.45897825958966,318.05723767089836,0.0010856103617697954,-0.009436028078198431,-0.7936943769454956,0.6082426905632019,-0.0041908356783773104,0.03542211438803272,2.982835773464918,0.07702925056219101,0.02061558328568936,0.036850251257419586,0.2397320958785713,-0.0396420755982399,-9.764602802395821
36.4,2.4000000953674316,349.0,23.62619781494141,27.81530570983887,-79.78278574095407,40.45897832537709,318.36388592529295,0.00019963781232945616,-0.009669058956205843,-0.79332035779953,0.608727753162384,-0.02127645825256646,0.035795740161098884,3.0232814240804755,-0.07000449299812317,-0.0637514665722847,-0.09484346210956572,0.2037842728570104,0.1589629346318543,-9.917380607128145
36.6,2.4000000953674316,346.0,23.68128776550293,26.65434646606445,-79.78278566329747,40.45897845969324,318.97235302734373,0.0015046625630930064,-0.010505660437047482,-0.7919374704360962,0.610509991645813,-0.0030850860516441862,0.04627914436855042,3.037371993947501,0.07548359781503677,0.03060218319296837,0.014992366544902325,0.2665192505903542,0.09597060631960633,-9.805475424528122
36.69,2.5,342.0,23.66501045227051,25.88302421569824,-79.78278563753314,40.45897852809098,319.5776157836914,0.0047888639383018025,-0.010854698717594148,-0.7906143665313721,0.6121995449066162,-0.021685605516038327,0.07137209630661764,3.021521289201605,-0.07927519828081131,0.03298119828104973,-0.04063422977924347,0.24150389358401295,0.1449224907718599,-9.750447862744332
36.9,2.5,345.0,23.616180419921875,25.5570011138916,-79.78278554653599,40.45897863537599,319.8853207092285,0.0051191640086472034,-0.012776083312928677,-0.7901492714881897,0.6127600073814392,-0.02403240819751833,0.07699199576254552,3.0157741647960887,-0.06244910135865212,-0.02367197908461094,-0.08999321609735489,0.2122802772000432,0.2717113222740591,-9.595540502071383
36.99,2.700000047683716,350.0,23.756410598754893,25.33435249328613,-79.78278553107117,40.45897866484458,320.1868000488281,0.00480797840282321,-0.01596767269074917,-0.7896018624305725,0.6133930087089539,-0.002519439703415997,0.0776976099201267,3.0166361732709315,0.019260253757238388,0.11894456297159195,0.1055067777633667,0.22312116120010614,0.019781231051310896,-9.790811192393305
37.2,2.799999952316284,351.0,23.6074161529541,26.98036956787109,-79.7827854229625,40.45897876801204,320.7934780578613,0.003364776028320193,-0.017331818118691444,-0.7893663644790649,0.6136686205863953,0.03133702094466252,0.09116097527206267,3.0364117081112982,-0.012919706292450428,-0.02097528986632824,0.049815185368061066,0.19650797942653306,0.08587266588583589,-9.979299112558364
37.3,2.9000000953674316,354.0,23.644977569580078,26.1772403717041,-79.78278533232057,40.4589788905402,321.406683013916,-0.0032219353597611193,-0.014769000932574272,-0.7902837991714478,0.6125544905662537,0.039714951922520864,0.05493841755777181,3.106234804701732,0.0554015152156353,-0.0790962427854538,0.04278811812400818,0.16490114757791166,0.14457033307291567,-10.149703348875047
37.49,2.9000000953674316,355.0,23.529788970947266,27.72783470153809,-79.78278535068655,40.45897891833194,321.7184010009765,-0.0039869104512035855,-0.012386188842356205,-0.7909804582595825,0.6117031574249268,0.052560139593777255,0.04019608506739651,3.129856050186881,0.04669026657938957,-0.045938786119222634,0.061017010360956185,0.17006546325981614,0.1273979195114225,-10.08293750166893
37.6,3.0,358.0,23.685043334960927,25.914831161499023,-79.7827852478207,40.45897906595725,322.02183728027336,-0.004352310206741096,-0.01001847255975008,-0.7915076017379761,0.6110618114471436,0.031082093144393155,0.03139015146036216,3.1501631277227817,-0.009327228181064129,0.008910255506634712,-0.03316155821084976,0.14797524897381664,0.12862623679451646,-10.15663463830948
37.8,3.0999999046325684,3.0,23.715091705322266,24.3721866607666,-79.78278525580737,40.45897914360083,322.65421109008787,-0.0016259188996627927,-0.011634410358965395,-0.7922924757003784,0.6100285053253174,-0.00017842631339808762,0.02783352540727261,3.155717235578741,-0.0810430496931076,-0.02094411663711071,-0.05115331709384918,0.16896837942302229,0.3147362131252885,-9.734040575623514
37.9,3.0,9.0,23.755157470703125,24.403993606567386,-79.78278514080624,40.45897923853696,322.95780377197264,-0.0009452261729165912,-0.011830748058855534,-0.7923334240913391,0.6099729537963867,0.02192251174344657,0.037687091805967216,3.119786711987897,0.09738373011350633,0.049918785691261285,0.02776250243186951,0.2471509151905775,0.16376344386488198,-9.694430367350579
38.09,3.0,15.0,23.772686004638672,24.39604187011719,-79.78278487419001,40.45897945861368,323.57351116943363,-0.0013898077886551619,-0.012515905313193798,-0.7931016683578491,0.6089591383934021,-0.018445136922762586,0.06501318127449164,3.088410086565882,-0.07324598729610443,-0.010152597911655905,-0.0024868515320122238,0.10293305958621203,0.15674358738586308,-9.689143899679184
38.21,3.0999999046325684,25.0,23.49723625183105,28.25265312194824,-79.7827848437862,40.458979507350655,323.8817921142578,-0.002234737854450941,-0.013218650594353676,-0.7939452528953552,0.6078414916992188,-0.014173752032221591,0.06736219615831457,3.0729646851824666,-0.0943395271897316,-0.11564695835113525,-0.029601287096738805,0.10755444302223624,0.22931188249960546,-9.634149667024614
38.39,3.0,28.0,23.666261672973643,25.994348526000977,-79.78278465449317,40.458979710347954,324.49265866088865,-0.0025261165574193,-0.011164746247231959,-0.7947078943252563,0.6068841218948364,-0.004116108767026845,0.06104730445941652,3.068199472895189,0.13368594646453855,-0.00047440081834793085,0.07081930339336395,0.18641330977901813,-0.055939636062830686,-9.746831359863284
38.5,2.799999952316284,27.0,23.617431640625,26.59868431091309,-79.78278460484184,40.4589798965519,325.10964779663084,-0.0008027019794099032,-0.009259377606213093,-0.7936140298843384,0.6083506345748901,-0.057363672470723465,0.03919560853857,3.0864850730449014,-0.1007344201207161,0.02253449894487857,-0.06890179216861725,0.13162487170659007,0.13991943033412102,-9.87156182527542
38.7,2.700000047683716,25.0,23.65749740600586,25.83531379699707,-79.78278457813492,40.45897997411496,325.41815380859373,-0.0013288863701745868,-0.009859295561909677,-0.7927080392837524,0.6095203757286072,-0.05714516718245896,0.041681380562989714,3.0836486360501825,-0.02315679006278515,-0.02154458872973919,-0.10242690145969392,0.18074266176670792,0.1829816337302327,-9.827181458473207
38.8,2.5999999046325684,29.0,23.75015068054199,24.32447624206543,-79.78278454809963,40.458980053219626,325.7269611816406,-0.000776789675001055,-0.0104706808924675,-0.7919857501983643,0.6104493737220764,-0.048957644426980564,0.04573107450659362,3.093213911226234,0.014796337112784387,0.03288038447499275,-0.005484603811055422,0.11874413170851768,0.16931109935045244,-9.849647630453113
39.0,2.5,33.0,23.7000675201416,25.71603775024414,-79.78278446505556,40.45898024158837,326.3427639465332,0.004172958433628082,-0.010156740434467793,-0.7913912534713745,0.6112114191055298,-0.04626134064677144,0.057889573356718925,3.0530827726308463,0.011010759510099888,-0.0017806924879550934,-0.02220500074326992,0.16498969634994864,0.015647934805601837,-9.552802618145943
39.1,2.299999952316284,35.0,23.691303253173828,25.636518478393555,-79.78278435144945,40.45898024719652,326.6625614624023,0.006008640863001347,-0.008227696642279625,-0.791589617729187,0.6109681725502014,-0.05373398887977607,0.06543400353859638,3.070197358962456,-0.016039052978157997,-0.05656993389129639,-0.05294355750083923,0.2208054079860449,0.1372710162308067,-9.715774458646775
39.3,2.299999952316284,35.0,23.59239196777344,26.781574249267567,-79.78278431596169,40.458980361474545,327.2769451599121,0.003579089650884271,-0.009993698447942734,-0.7931525111198425,0.6089305281639099,-0.042286745443585,0.06146111696454115,3.061973413276743,0.11910242587327954,-0.00019813339167740201,0.12619329988956451,0.31003066632896664,-0.21213607024401426,-9.737890382409097
39.4,2.4000000953674316,27.0,23.7251091003418,25.07989501953125,-79.78278414452427,40.458980491092895,327.5900211791992,0.0034132476430386305,-0.009012768045067787,-0.7933652997016907,0.608669638633728,-0.049937423882771566,0.07587111146617159,3.080993213864593,-0.05006695166230202,-0.02187006920576096,-0.06012398004531861,0.27002105668187143,0.1844529210962355,-9.830875729322434
39.6,2.299999952316284,19.0,23.55858612060547,27.354103088378906,-79.78278403666722,40.45898066285185,328.2127323608398,0.0068165347911417476,-0.008421872742474079,-0.7925674915313721,0.6096879243850708,-0.04490379548461579,0.05549710424753843,3.1100348951749037,0.10424439609050752,0.15953291952610016,0.14277398586273193,0.21370016388595106,-0.12553250240162014,-9.925532795190813
39.7,2.299999952316284,7.0,23.76267051696777,22.92496490478516,-79.78278401746185,40.45898071271122,328.5247250061035,0.008625932969152927,-0.011994969099760056,-0.7919681072235107,0.6103838086128235,-0.0582010092192605,0.06874535702387456,3.1316065868330307,-0.05465951934456825,0.017318731173872948,-0.03511593118309975,0.1446888305526227,-0.00978489512577653,-9.99441767334938
39.9,2.4000000953674316,5.0,23.65624618530273,26.15338516235352,-79.78278388933434,40.45898085788404,329.1491260986328,0.010575912892818451,-0.013501901179552078,-0.7917153239250183,0.6106495261192322,-0.04448561958005949,0.10177428496820716,3.1125634649040785,-0.1382267326116562,-0.11824100464582445,-0.10369478911161424,0.15919629335403446,0.2617253560200334,-9.542113323211673
39.99,2.4000000953674316,5.0,23.74514198303223,24.58688545227051,-79.78278371400302,40.45898101927319,329.7780895690918,0.005558510776609182,-0.010757318697869778,-0.7922841310501099,0.6100321412086487,-0.036025858845290096,0.07514260311708194,3.1008478709523497,-0.1384812295436859,-0.021161459386348724,-0.08365381509065628,0.11309453367255627,0.2006489592790604,-9.653465943932536
40.2,2.4000000953674316,6.0,23.670019149780273,24.252910614013672,-79.78278372762314,40.458981049310225,330.0873203735352,0.0037907140795141454,-0.010487349703907968,-0.7926557660102844,0.6095674633979797,-0.017198704539289872,0.0481135576572288,3.087778882411597,-0.012111769057810308,-0.06445880979299545,-0.04375232383608818,0.11786423538811505,0.21432208836078645,-9.690676454901695
40.3,2.5,2.0,23.65749740600586,24.91290855407715,-79.78278375097659,40.45898107731345,330.39632229614256,0.003058768808841705,-0.011100604198873043,-0.7928170561790466,0.6093509793281555,0.006826827066473444,0.03418668230714489,3.0919775757115047,0.08505944162607193,0.08092556893825531,0.1669684797525406,0.14738142767921092,-0.08249070944264532,-9.810618635416027
40.49,2.5,356.0,23.74514198303223,24.411945343017567,-79.78278375150013,40.458981173423204,331.01883511352537,0.0020612189546227455,-0.011495459824800491,-0.7930766344070435,0.6090099811553955,0.012372489948220959,0.03267515577383188,3.085538081949037,0.04321690276265144,0.05558309704065323,-0.01887352950870991,0.2355246770381928,0.2777926275506616,-9.721273180246351
40.6,2.700000047683716,356.0,23.68379211425781,25.517242431640625,-79.78278369883463,40.4589812644817,331.6391735534668,0.001793081872165203,-0.011502690613269806,-0.7927020788192749,0.6094982028007507,0.011565382430952096,0.03707316058411665,3.0852709095507365,-0.04293878749012947,-0.07147389650344849,-0.05509170517325401,0.1909886646643281,-0.004621831113472581,-9.712716364860537
40.79,2.700000047683716,350.0,23.756410598754893,23.17942047119141,-79.78278372327117,40.45898128491433,331.9475231628418,0.0025765788741409787,-0.01196445431560278,-0.7926793694496155,0.6095159649848938,0.010433276734718793,0.03479882652278344,3.0836739658456027,-0.0058863800950348395,0.069181427359581,-0.03271026909351349,0.2139693368040025,0.3730322222784162,-9.780877942442894
40.9,2.5999999046325684,349.0,23.61367607116699,26.38398551940918,-79.78278373032836,40.458981298816646,332.57328991699217,0.003590529784560204,-0.012162897735834122,-0.7927784919738771,0.609377920627594,0.023938679667743164,0.05098509707787165,3.0747073978154997,0.03091273084282875,0.030125234276056286,-0.008892749436199665,0.1986530122160912,-0.020547860409133138,-9.744274372458456
41.09,2.5,351.0,23.770183563232425,23.219179153442386,-79.78278369465612,40.4589813144809,332.8867321472168,0.005234731826931238,-0.013103296048939228,-0.7929386496543884,0.6091380715370178,0.013433580521543064,0.060395564007407525,3.0639785991227724,-0.08910244703292848,0.012617642991244793,-0.07836610823869705,0.2604723342508078,0.40550875436514616,-9.532011088728906
41.19,2.5,356.0,23.62494468688965,25.962541580200195,-79.78278370778689,40.45898131671761,333.19236569213865,0.004745569080114365,-0.013784359209239485,-0.7930424809455872,0.6089919209480286,0.033107854522205105,0.07639149304998588,3.0442129923567967,0.010625734925270079,-0.05455357208848,0.10258302837610243,0.2965942033007741,-0.10695961673744024,-9.580105606913568
41.4,2.4000000953674316,358.0,23.690052032470703,24.61074066162109,-79.78278363758649,40.45898137300611,333.805177734375,0.0030090974178165197,-0.01437351945787668,-0.7931566834449768,0.6088406443595886,0.031124332215679507,0.06772973032577577,3.0288529592362727,-0.0940808728337288,0.009274008683860302,-0.0949857160449028,0.24705418031662704,0.4960940750688314,-9.670764346718787
41.5,2.5,359.0,23.517269134521484,27.640365600585927,-79.78278365491144,40.45898136939178,334.1076374511718,0.002788585377857089,-0.01506984792649746,-0.7931492924690247,0.608834445476532,0.0581778129878365,0.06644058877709391,3.0146433817359304,0.1124756559729576,-0.026338772848248482,0.07237511873245239,0.2818931337073445,0.03876475113909692,-9.645530687570572
41.69,2.5999999046325684,1.0,23.64748191833496,25.44567680358887,-79.78278359879556,40.45898138359468,334.71462445068363,-0.0013751271180808544,-0.015185507945716381,-0.7937541604042053,0.608047604560852,0.04773595090186855,0.05324324420996073,3.0114565470852974,-0.08489412069320679,-0.09369122236967088,-0.04995209351181984,0.13382747216150165,0.1687054922617972,-9.655432947278024
41.8,2.5999999046325684,3.0,23.596147537231445,26.14543342590332,-79.78278359730595,40.45898137797364,335.32061962890623,-0.001677430234849453,-0.015350393019616604,-0.7944172024726868,0.6071762442588806,0.07238336961690281,0.0337955496880043,2.9971969412750474,0.0571286603808403,-0.020039606839418408,0.03843096643686295,0.11379394289106133,0.17100434336811304,-9.676774114966396
42.0,2.5999999046325684,6.0,23.61367607116699,25.73194122314453,-79.78278363438487,40.45898138782764,335.62059979248045,0.00017369554552715272,-0.013939584605395794,-0.7947233319282532,0.6068117618560791,0.06800560097841157,0.02850206475802416,3.001079609336468,0.1559205800294876,0.0710064172744751,0.10991336405277252,0.20457636957988146,0.1314188761264086,-9.819090081453325
42.1,2.5999999046325684,9.0,23.450910568237305,29.10349273681641,-79.78278353363307,40.458981413439545,335.9225635986328,0.001047333935275674,-0.010445231571793556,-0.7949818968772888,0.6065423488616943,0.056013421796506466,0.04247665887703682,3.0138910384662903,0.12901374697685242,-0.06982149928808212,0.04099058359861374,0.20871455373242492,-0.05617585443891585,-9.832158608436584
42.3,2.5999999046325684,7.0,23.59239196777344,27.028079986572266,-79.78278358279803,40.458981428413246,336.52887921142576,-0.00037015348789282143,-0.004345918539911509,-0.7950668334960938,0.6065062284469604,0.017692774773319434,0.014193792889144016,3.047889452571313,-0.06601610034704207,-0.01808531209826469,-0.05367162451148033,0.14679957490414386,0.2369748047925532,-9.920927528142931
42.39,2.700000047683716,15.0,23.628700256347656,26.19314384460449,-79.78278357786185,40.45898151613921,337.1241703491212,-0.00284845638088882,-0.005427607800811529,-0.7946851253509521,0.6069910526275635,0.04165348053139832,0.007940593422204632,3.035888917534608,0.0015700941439718008,0.11262761801481247,0.07912041991949081,0.10300133496522904,0.2748979634419084,-9.867134313583373
42.6,2.700000047683716,17.0,23.65749740600586,25.636518478393555,-79.7827835437882,40.45898151213894,337.4176807861328,-0.00440911529585719,-0.009394860826432705,-0.7945487499237059,0.6071116328239441,0.04894184779511583,0.01448231389306042,3.0313514672062984,-0.092426098883152,0.025543000549077988,-0.06793719530105591,0.11756384382024407,0.08216359427198767,-9.903914469480515
42.69,2.9000000953674316,24.0,23.56735038757324,26.805429458618164,-79.78278354956022,40.45898150068994,337.72171978759764,-0.005248624831438065,-0.013727261684834955,-0.7945696115493774,0.6069952845573425,0.06458755686030555,0.03168422101036526,3.0429698955708164,-0.0977964699268341,0.05060766637325287,-0.06194090470671654,0.08327630113810301,0.2548232113011181,-9.875850173234939
42.89,2.9000000953674316,27.0,23.633708953857425,25.77169990539551,-79.78278348873397,40.45898156551065,338.3204136352539,-0.004328378941863775,-0.014316502958536146,-0.794615626335144,0.6069286465644836,0.0661387217140509,0.052777855065592016,3.048901115171851,-0.037625405937433236,-0.07155241072177887,-0.11447158455848695,0.17557847399264576,0.3082466442883015,-9.946833032369614
43.1,3.0,30.0,23.63746452331543,25.54904937744141,-79.78278338727206,40.45898174539523,338.91666607666014,-0.004886083770543337,-0.011349582113325596,-0.794555127620697,0.6070663928985596,0.018947820082810568,0.03479206010031797,3.0758612766314584,-0.05339684337377548,0.05317413806915283,-0.02068893425166607,0.07094007396139204,0.30333480041474103,-10.079755446910859
43.2,2.9000000953674316,29.0,23.552326202392567,26.7497673034668,-79.78278338541178,40.458981787487005,339.2250767211914,-0.004700753372162581,-0.010429244488477709,-0.7946524024009705,0.6069570779800415,0.012748750596153584,0.025301354579159246,3.0869482161792927,-0.023267950862646103,0.0018740871455520391,-0.025542160496115685,0.11730196164920928,0.28876511044800285,-9.917308101654053
43.29,2.9000000953674316,26.0,23.45216178894043,28.4912052154541,-79.78278340117706,40.458981683352825,339.8206425170898,-0.003079829039052129,-0.009995791129767895,-0.7950622439384459,0.6064378023147583,0.05228509146808438,0.02704191428608527,3.0620779327699665,-0.0032199937850236893,0.0007856342708691955,-0.017903810366988182,0.0910333179216832,0.25734626658260823,-9.853545384407044
43.5,3.0,28.0,23.62118911743164,25.914831161499023,-79.78278340785556,40.45898168845401,340.1282978515625,-0.0016174002084881067,-0.009313357062637806,-0.7950108647346497,0.6065216660499573,0.044697600032482056,0.030894392358465018,3.092649687194072,-0.03903726488351822,0.047390133142471313,-0.01737011969089508,0.12167504855431616,0.20069314230233432,-10.032688869237901
43.6,3.0999999046325684,30.0,23.72385597229004,22.972675323486328,-79.7827833364788,40.458981798070475,340.42275433349613,-0.000788381090387702,-0.010077068582177162,-0.7949578166007996,0.6065805554389954,0.0190953995532977,0.033073117160765164,3.0907428100434258,-0.06600982695817947,-0.01940559595823288,0.005379248876124621,0.10665621019899846,0.14264421455562115,-9.945609794855116
43.8,3.299999952316284,30.0,23.61868476867676,26.76567077636719,-79.7827833373261,40.45898182641427,341.03981213378904,-0.002458420116454363,-0.01147247850894928,-0.7944857478141785,0.607169508934021,0.04480327462655874,0.043136310588139916,3.0597622653115963,0.047644391655921936,0.05354824289679527,0.09167689085006714,0.14323339462280274,0.15919066540896892,-9.614060972929002
43.89,3.299999952316284,30.0,23.56860160827637,26.81338119506836,-79.78278340559473,40.458981945678616,341.6359653930664,-0.0042123342864215365,-0.009988111443817616,-0.794763445854187,0.6068225502967834,0.028712705718015208,0.023973358779451767,2.9677458516150304,-0.11246967315673828,-0.019029727205634117,-0.08663223683834076,0.16180342063307762,0.011226690597832205,-9.41643326997757
44.1,3.4000000953674316,29.0,23.499740600585927,27.78349876403809,-79.78278322215131,40.458981954380974,341.9403934936523,-0.004092029295861721,-0.009257579222321509,-0.7945476174354553,0.6071175932884216,0.022082665333083847,0.02808901023078396,2.9371201227790595,0.04167476296424866,0.0012201438657939436,-0.09136788547039032,0.12112973174080252,0.3467384263873101,-9.263454321026805
44.19,3.299999952316284,21.0,23.494731903076172,27.94253349304199,-79.78278321623753,40.458981985631375,342.2319431762695,-0.0028826529160141945,-0.01160005759447813,-0.7940707802772522,0.6077077984809875,0.020149191468469985,0.023770527657710518,2.895211196202858,0.048568934202194214,0.13917024433612826,0.061081856489181525,0.1673046455718577,0.16260752242058515,-9.415088410377503
44.4,3.299999952316284,17.0,23.54481315612793,25.64447021484375,-79.78278310768488,40.45898216272529,342.82828717041014,-0.002317541278898716,-0.014761731959879397,-0.7939568161964417,0.6077906489372253,0.015504168274908938,0.07158928798767593,2.914285527304253,0.07069944590330124,-0.07910747081041336,0.05200252309441567,0.2855377580411733,0.12580302748829128,-9.67859376847744
44.5,3.299999952316284,9.0,23.47970771789551,27.958436965942386,-79.7827829516182,40.45898232559967,343.4180012207031,-0.00029921470559202135,-0.00934989843517542,-0.7941665053367615,0.6076282858848572,-0.00786079686270295,0.06351370854293416,2.931148525984552,0.11607687175273895,-0.07207925617694855,0.02979758940637112,0.2313356951996685,0.09174724468030036,-9.775173983573914
44.7,3.2000000476837163,6.0,23.541057586669922,27.457475662231445,-79.78278291706822,40.45898238102854,343.7119236450195,0.00017200807633344084,-0.009217367507517338,-0.7942268848419191,0.6075513362884521,-0.034724220133275724,0.05859884400183477,2.9521326009465927,0.014374340884387491,0.07830570638179779,0.053867697715759284,0.24039378141984344,0.08708382524549961,-10.01634940981865
44.8,3.0999999046325684,357.0,23.55858612060547,25.024232864379893,-79.78278279391962,40.458982561050256,344.30590252685545,0.0018861432326957586,-0.012776432558894156,-0.7951377630233765,0.6062914729118347,-0.03398670109398804,0.07372321706802708,3.0064435989134592,0.031987592577934265,0.034462105482816696,0.03308200091123581,0.20276493871584536,0.20411091294139624,-9.980384355783462
44.99,3.0999999046325684,356.0,23.448406219482425,28.18903923034668,-79.78278274844807,40.45898262123141,344.60624890136717,0.0034064759965986013,-0.013737225905060768,-0.7956221103668213,0.6056279540061951,-0.038110660256747225,0.08426343240063701,2.9983972568151573,0.02756620012223721,0.08774030208587646,0.033411841839551926,0.24281538750976325,0.17333159001544118,-9.798113780021668
45.09,3.0,344.0,23.38580322265625,29.25457572937012,-79.78278264935533,40.458982732166454,344.89665417480467,0.0038828256074339147,-0.013655547052621841,-0.7961246967315674,0.6049660444259644,-0.0413849413142684,0.09885405481992746,2.9975951249442665,0.02726093865931034,-0.08059173822402954,-0.013762540183961391,0.2638717957958579,0.1616150671988726,-9.87108352303505
45.3,2.9000000953674316,340.0,23.410844802856445,29.365901947021484,-79.78278255720214,40.458982851300895,345.50284771728514,0.004316548351198435,-0.008633952587842941,-0.7965966463088989,0.6044341921806335,-0.04664690607757395,0.08873272532582073,3.0536138411898803,0.04472411796450615,-0.04266030713915825,-0.033925365656614304,0.2445943297818303,0.17153426555916668,-10.015155408382416
45.4,2.700000047683716,337.0,23.51977348327637,26.137481689453125,-79.78278244310043,40.45898312073055,346.09474377441404,0.004554847255349159,-0.006679349578917026,-0.7965602278709412,0.604505181312561,-0.07632644318589839,0.0706609808152869,3.0912221231925545,-0.06408008933067323,0.052917975932359695,-0.03507760167121887,0.20848718840628866,0.17926618499681354,-10.114505449533462
45.6,2.5999999046325684,334.0,23.583627700805664,25.692180633544922,-79.78278228097906,40.45898329883251,346.3860187988281,0.004837289452552795,-0.00841000396758318,-0.7965782284736633,0.6044576168060303,-0.08524048889411953,0.07079574860334216,3.0853782789905724,-0.04651853814721108,-0.010110395960509777,-0.0861264318227768,0.2353055891767145,0.17176230696961284,-10.051781197786333
45.69,2.4000000953674316,334.0,23.57486343383789,25.906879425048828,-79.78278223031825,40.45898336265336,346.69569592285154,0.005804006475955248,-0.010367376729846,-0.7967764139175415,0.6041573882102966,-0.0751836331530622,0.085995515733934,3.10085165064875,-0.08268122375011444,0.012655401602387428,-0.02701433189213276,0.20449893051758408,0.17447271069511772,-9.923855813741683
45.9,2.200000047683716,335.0,23.50975608825684,25.946638107299805,-79.78278203692655,40.45898361342185,347.29525952148435,0.0062160762026906005,-0.009961443953216076,-0.7971721887588501,0.6036378741264343,-0.0826716647549334,0.09484251009043193,3.069149414750392,-0.01104368269443512,-0.057404335588216775,-0.01448781415820122,0.19593926461413505,0.18250519528985026,-9.839886288642884
46.0,2.0999999046325684,334.0,23.642473220825195,25.20712280273437,-79.78278187615619,40.458983794995774,347.89763073730467,0.0051571959629654884,-0.010002891533076765,-0.7975875735282898,0.6030983328819275,-0.06276700675733017,0.08796573289396288,3.0415883270102224,0.09519930183887483,-0.0005681755137629808,0.021864628419280045,0.2290097276307643,0.04131436100229621,-9.683551037907598
46.19,1.8999999761581416,337.0,23.50474739074707,26.853139877319336,-79.78278182882347,40.45898385900061,348.2012043457031,0.005718833766877651,-0.010037085972726343,-0.7976671457290649,0.6029874086380005,-0.05839893396212624,0.08588629148028278,3.0306412617118847,0.03396670892834664,0.0615287758409977,0.07387686520814896,0.2029428950697184,-0.06687948418781163,-9.716669667363169
46.29,1.7999999523162842,340.0,23.52853775024414,26.86109161376953,-79.78278168151273,40.45898406012135,348.8034229736328,0.006475873291492461,-0.010392041876912115,-0.7972056865692139,0.603583574295044,-0.07139729999643585,0.08822467355652916,3.0356282645101205,-0.04864781349897385,-0.019573992118239403,-0.01387739274650812,0.14010206446051598,0.022205842975527048,-9.815672968626023
46.5,1.7999999523162842,340.0,23.522275924682607,26.781574249267567,-79.78278164527184,40.45898411994783,349.1073322753906,0.00668637827038765,-0.01075467560440302,-0.797001838684082,0.6038441061973572,-0.06765719279583292,0.08351981250263224,3.0350262849774143,-0.03946015611290932,0.037955813109874725,-0.014596713706851006,0.19356359571218493,0.07913656381890179,-9.765300959944726
