time,wind_speed,wind_angle,battery_voltage,battery_current,position_x,position_y,position_z,orientation_x,orientation_y,orientation_z,orientation_w,velocity_x,velocity_y,velocity_z,angular_x,angular_y,angular_z,linear_acceleration_x,linear_acceleration_y,linear_acceleration_z
0.0,0.699999988079071,241.0,23.5247802734375,0.015903547406196594,-79.7827606935638,40.45898541569362,270.7318032236099,0.01620522327721119,0.016020569950342182,-0.76376873254776,0.6450877189636229,0.010973685075719258,-0.005806517417033904,-0.017259809940634387,0.00339491106569767,-0.00027046026661992073,-0.0036362418904900547,-0.037969566355459394,-0.4409962736070157,-9.795008908510207
0.1,0.8000000119209291,239.0,23.53104019165039,0.0,-79.78276076373541,40.45898540673025,270.73156575870513,0.016204457730054855,0.01601411588490009,-0.7637686133384705,0.6450880169868469,0.007303351950923458,-0.008567038848802905,-0.017681498386886742,0.0014654683182016015,-9.39160781854298e-06,-0.004678961355239153,-0.03686293511185795,-0.4522717884555459,-9.795866110324859
0.3,0.8999999761581421,241.0,23.5247802734375,0.0,-79.78276079896736,40.458985387255076,270.73280738306045,0.016204895451664925,0.016020148992538452,-0.7637685537338257,0.6450879573822021,0.00856200859922974,-0.005990985576309522,-0.017872097340668806,0.002036847872659564,-0.0005734689184464513,0.003693095408380032,-0.03761565449181945,-0.4544908067956567,-9.796748455166817
0.4,0.8999999761581421,242.0,23.52102470397949,0.007951773703098297,-79.7827608166604,40.458985375881625,270.7292102725506,0.016204996034502983,0.016021285206079483,-0.7637679576873779,0.6450885534286499,0.008468287472000109,-0.0066222792258782606,-0.017415977460477232,-0.00013193739869166168,0.001478102058172226,0.005891846027225256,-0.038640580032952135,-0.4387751356512308,-9.7950814139843
0.6,0.8000000119209291,240.0,23.533544540405273,0.007951773703098297,-79.78276087088261,40.458985356033004,270.7303568572998,0.01620903238654137,0.016021514311432842,-0.763767659664154,0.645088791847229,0.009478687463096935,-0.007648466395193977,-0.017707364968784604,-0.003604321042075753,-0.0009188393596559764,-0.0032004890963435173,-0.037653311931062486,-0.4391090116649866,-9.795385469198227
0.7,0.8000000119209291,238.0,23.533544540405273,0.015903547406196594,-79.78276093134205,40.45898535453488,270.7296969742775,0.016203930601477626,0.01601383090019226,-0.7637665271759033,0.6450904011726379,0.0036848636503930376,-0.009662707312702402,-0.0180364104637708,-0.0047645438462495795,-0.0020730409305542707,-0.007337490096688271,-0.03496828192379326,-0.4524921188503504,-9.797013334035874
0.9,0.8000000119209291,241.0,23.533544540405273,0.015903547406196594,-79.78276094350075,40.458985353206245,270.727883294344,0.016203930601477626,0.01601383090019226,-0.7637665271759033,0.6450904011726379,0.004347753062240137,-0.010127905588935978,-0.017953299486342045,0.0001531461748527363,-0.0008898435044102371,0.00029655674006789923,-0.03780321535421535,-0.4476390394940973,-9.796091812849047
1.0,0.8000000119209291,243.0,23.53604888916016,0.04771064221858978,-79.7827610268741,40.45898532881481,270.72517900180816,0.016215084120631218,0.01601601205766201,-0.7637638449668884,0.6450933814048767,0.00829581221151259,-0.014405264850176906,-0.02230788481052024,0.0010792143875733018,-0.00021765301062259823,-0.0014196039410308006,-0.03935960940085352,-0.4508656061813235,-9.795274372100833
1.21,0.8000000119209291,258.0,23.53104019165039,0.02385532110929489,-79.7827610451755,40.45898532463418,270.72293175768846,0.016215084120631218,0.01601601205766201,-0.7637638449668884,0.6450933814048767,0.008337009711048721,-0.01458089272933266,-0.0220877395727508,0.0003881785669364035,-0.00172083533834666,-0.00033584964694455266,-0.036927227075211705,-0.4527907653898001,-9.795971944928171
1.3,0.699999988079071,256.0,23.53104019165039,0.039758868515491486,-79.78276108588398,40.45898531594953,270.71891723585134,0.016208816319704056,0.016018660739064217,-0.7637639045715332,0.6450933814048767,0.006472856294299409,-0.011212993491888965,-0.02656268402034697,0.0066214539110660536,9.881491132546216e-05,0.003893783083185553,-0.0376896948600188,-0.4384793030843139,-9.794597264528273
1.5,0.8000000119209291,259.0,23.52853775024414,0.02385532110929489,-79.78276110008885,40.45898531324395,270.7162503750324,0.016209648922085762,0.01602049916982651,-0.7637633681297302,0.6450939178466797,0.0056378910666125895,-0.011403172262488765,-0.026386263591032327,-0.00837443396449089,0.00013866439985577017,-0.002197256311774254,-0.03750679578166456,-0.44595277559012175,-9.794719471335412
1.6,0.8000000119209291,259.0,23.533544540405273,0.02385532110929489,-79.78276115094678,40.45898529200912,270.7118719370365,0.016212115064263344,0.016023673117160797,-0.7637625336647034,0.6450947523117065,0.008081721005122335,-0.010897139038947179,-0.030393599866317417,-0.003804066218435764,-0.002944653620943427,0.0059209601022303104,-0.03776875561103225,-0.4459066556766629,-9.79530887067318
1.8,0.699999988079071,262.0,23.53229331970215,0.0,-79.78276120270772,40.458985301589365,270.71116168808936,0.016211124137043953,0.016014888882637024,-0.7637617588043213,0.645095944404602,0.0032177392932031664,-0.015110957951127798,-0.033589168540032945,0.001830281806178391,0.0005184397450648248,-0.0027882829308509827,-0.03754628275986762,-0.4415816164389253,-9.795029373764992
1.9,0.699999988079071,265.0,23.53229331970215,0.007951773703098297,-79.78276123935207,40.458985303178736,270.7044844181537,0.016211342066526413,0.016016075387597084,-0.7637614011764526,0.6450963020324707,0.002756389211560473,-0.015569653355921757,-0.033020022474992035,-0.000657624623272568,0.0016497652977705002,-0.004924326203763485,-0.03650480228941888,-0.4535191457346082,-9.796718049645424
2.1,0.699999988079071,272.0,23.53604888916016,0.02385532110929489,-79.78276128851431,40.45898529743933,270.70374013495444,0.016214508563280106,0.01601444557309151,-0.7637608647346497,0.6450968980789185,0.004157565850752113,-0.017719237439481283,-0.035349441119294944,0.005290905945003033,0.0004534331092145294,0.006600206717848778,-0.03563512260792777,-0.4518654800578952,-9.796218112707141
2.2,0.8000000119209291,271.0,23.53479766845703,0.03180709481239319,-79.78276133614561,40.45898529369565,270.6999408454895,0.0162135548889637,0.01601797714829445,-0.7637602090835571,0.6450976729393005,0.0038282106627386616,-0.01631418721002101,-0.036144158808215504,0.0037039222661405797,0.0010923959780484438,0.0011042216792702675,-0.03803161993157119,-0.44677580773830416,-9.794344664812089
2.4,0.8000000119209291,275.0,23.533544540405273,0.015903547406196594,-79.78276135576304,40.4589852945177,270.6963315756321,0.0162135548889637,0.01601797714829445,-0.7637602090835571,0.6450976729393005,0.003452502963140282,-0.016643758948889913,-0.03591852209391561,0.0008762764045968653,-0.003724006935954094,0.0013304511085152626,-0.03894897040911019,-0.4505605642497539,-9.795536912083627
2.51,0.8000000119209291,278.0,23.537302017211914,0.039758868515491486,-79.78276141495719,40.458985289574336,270.69062097382545,0.01621444150805473,0.01601792499423027,-0.7637584209442139,0.6450997591018677,0.004327621887979116,-0.018330694089640262,-0.04053609077808264,-0.00017474225023761392,0.003740654792636633,0.004413490649312736,-0.038428284991532564,-0.44091086771339183,-9.794974994659423
2.7,0.8000000119209291,279.0,23.53604888916016,0.039758868515491486,-79.78276143704656,40.458985290446854,270.6865696461201,0.01623082160949707,0.016042878851294518,-0.7637568712234497,0.645100474357605,0.0035402430939415436,-0.01861717358117292,-0.0403128340831689,-0.00481718173250556,0.00019319857528898865,-0.0066291959956288355,-0.0387149767158553,-0.4397250158339739,-9.794163985848428
2.8,0.699999988079071,278.0,23.53479766845703,0.02385532110929489,-79.7827614668824,40.458985286386735,270.68075661373143,0.016212986782193184,0.01606183685362339,-0.7637655138969421,0.6450902819633484,0.003459735552757505,-0.01590777569297326,-0.04318099893071658,-0.008017481304705143,-0.002468847203999757,0.0006811508210375905,-0.03698645297437907,-0.4520218930765987,-9.796261382102966
3.0,0.8000000119209291,284.0,23.5247802734375,0.02385532110929489,-79.7827614860109,40.45898528728206,270.6764284224509,0.016202863305807114,0.016054851934313774,-0.7637768983840942,0.6450771689414978,0.003922280007561675,-0.016191756305841916,-0.04324482238867952,0.003855178598314524,0.0018517161952331664,0.0007583803962916138,-0.037137564669828864,-0.4477341663837433,-9.794814780950547
3.1,0.8000000119209291,285.0,23.53229331970215,0.039758868515491486,-79.78276151084826,40.45898528254965,270.67302884173387,0.016210597008466717,0.016048040241003036,-0.7637798190116882,0.6450737118721008,0.003458985434418897,-0.014156856242240575,-0.04130087967923706,-0.0012040834408253431,0.0002917659003287554,-0.004077740013599396,-0.0381490918644704,-0.4516305681690574,-9.795240458250047
3.3,0.8999999761581421,286.0,23.533544540405273,0.02385532110929489,-79.78276152185619,40.45898527809393,270.6731015594005,0.016191687434911728,0.016051243990659714,-0.7637801766395569,0.6450737118721008,0.003901941173272812,-0.013140061048877529,-0.04061301990309922,0.0037841680459678173,0.0005375395994633436,0.0052659432403743284,-0.03670227600960061,-0.4526683758571744,-9.795532819032667
3.4,1.0,289.0,23.527284622192386,0.015903547406196594,-79.78276155367493,40.45898527938325,270.66499085736274,0.016192683950066566,0.016045756638050083,-0.7637878060340881,0.6450647711753845,0.003598922620914189,-0.01349656027982046,-0.04041558673781005,0.007828917354345322,0.002880162326619029,-0.0009738394292071463,-0.038638378190808,-0.4423033455759287,-9.794017805457118
3.61,1.0,286.0,23.533544540405273,0.015903547406196594,-79.78276153845877,40.45898524328396,270.6631311924457,0.016184348613023758,0.016066526994109154,-0.7637832760810852,0.6450698971748352,0.010539768102857476,-0.006863671156718778,-0.043307378913483865,-0.004526739940047264,-0.0024320599623024464,-0.00014444861153606323,-0.03852768765762449,-0.4487567347660661,-9.795124098658563
3.71,1.0,289.0,23.53229331970215,0.03180709481239319,-79.78276155864857,40.45898523746216,270.6591952593326,0.016191227361559868,0.016070196405053142,-0.7637819647789001,0.6450711488723755,0.00820781099961535,-0.008179364717073315,-0.041638580682813314,0.00254726130515337,0.0019308350747451184,0.0006055833655409515,-0.03904462720267475,-0.4409621404856444,-9.795089015364647
3.91,1.100000023841858,296.0,23.53229331970215,0.007951773703098297,-79.78276156965259,40.45898523337788,270.65500892710685,0.016191227361559868,0.016070196405053142,-0.7637819647789001,0.6450711488723755,0.0074703333821788094,-0.00832410203949935,-0.04151353991252274,-0.007045900449156761,-0.0016590055311098695,-0.006269415840506554,-0.0378552715620026,-0.4409947387129069,-9.793953486084938
4.0,1.100000023841858,295.0,23.54606628417969,0.07156596332788467,-79.7827615897862,40.45898523055475,270.6514240653515,0.016189543530344963,0.016068661585450172,-0.7637804746627808,0.6450729966163635,0.0057805497371636394,-0.009158237707158684,-0.04028546551104518,-0.0038373051211237907,-0.0027326233685016628,-0.0017327714012935758,-0.036318435994908214,-0.4493167883902788,-9.795169122219086
4.2,1.100000023841858,294.0,23.53479766845703,0.02385532110929489,-79.78276160154121,40.45898522835185,270.64737086009984,0.016189543530344963,0.016068661585450172,-0.7637804746627808,0.6450729966163635,0.005765699318361109,-0.009392914679367249,-0.04039324253961876,0.0015785170253366232,-0.0019804874900728464,-0.0007382489275187254,-0.038173791782464835,-0.44205721434205775,-9.793945299983026
4.3,1.100000023841858,295.0,23.53229331970215,0.015903547406196594,-79.78276162045722,40.45898522597209,270.64371241641044,0.016189709305763245,0.01606959849596024,-0.7637803554534912,0.6450731158256531,0.004639059195955727,-0.009884653128092537,-0.03974572086590501,-0.005892244167625904,0.00020747077360283583,-0.003899312578141689,-0.03763340170495212,-0.4535755713656545,-9.794480320215223
4.5,1.0,294.0,23.526033401489247,0.07156596332788467,-79.78276163283923,40.45898522473807,270.6397275925874,0.0161893367767334,0.01607002504169941,-0.7637794613838196,0.645074188709259,0.005209559119234001,-0.010111384582757885,-0.039684903573602666,0.005902046803385018,4.352594987722114e-05,0.0033259568735957146,-0.03641433261567727,-0.4496658306196332,-9.796036849021911
4.6,1.0,296.0,23.53479766845703,0.03180709481239319,-79.78276165060804,40.45898522313177,270.6386698783636,0.016188642010092742,0.016069917008280754,-0.7637802958488464,0.6450732350349426,0.0038666811474271476,-0.010280780758730595,-0.03545613127323961,-0.0016423058696091175,-0.0008427750435657799,0.00019942880317103118,-0.03841116818133742,-0.4517688182741404,-9.795410027503967
4.8,1.0,297.0,23.529788970947266,0.11927660554647446,-79.78276163554365,40.458985207823936,270.6411275119781,0.016188172623515133,0.016079545021057132,-0.7637802958488464,0.6450729966163635,0.00693639977575682,-0.005692542632563274,-0.03259876650104919,0.001792530412785709,0.0022238001693040133,0.004916797857731582,-0.03710601026192308,-0.4527885361388326,-9.795415874719618
4.9,0.8999999761581421,298.0,23.52853775024414,-0.007951773703098297,-79.78276165130806,40.458985200725174,270.6345783473253,0.016187528148293495,0.01607990451157093,-0.763778567314148,0.6450750827789307,0.006720650218143373,-0.006073254658017909,-0.032446549325312456,0.004831502679735422,0.0022202187683433294,0.0054523893631994716,-0.03797490879194811,-0.4420372972637415,-9.794140012264252
5.1,0.8999999761581421,300.0,23.52853775024414,0.07156596332788467,-79.78276165871934,40.4589852025314,270.6372171492576,0.01618742197751999,0.016077466309070587,-0.7637789249420166,0.645074725151062,0.005020199813576434,-0.007619910148402216,-0.030888838226557875,-0.0026850635185837746,-0.0027125447522848845,5.6967779528349645e-05,-0.039242130615748466,-0.4516509237885475,-9.795094277858734
5.2,0.8999999761581421,301.0,23.5247802734375,0.11927660554647446,-79.78276167848855,40.45898519834702,270.6310453416109,0.016188478097319603,0.016078712418675426,-0.7637788653373718,0.6450746655464172,0.00527699034852538,-0.007897015035096688,-0.030539457262421323,0.0024225120432674885,0.002526442287489772,0.002650388516485691,-0.03903433518949896,-0.43907984867692,-9.794798993468287
5.4,0.8999999761581421,302.0,23.529788970947266,0.11132483184337616,-79.782761677344,40.458985200394785,270.63391754043096,0.016187947243452072,0.016077484935522083,-0.7637791633605957,0.6450743079185486,0.003695337429327228,-0.008642153725480856,-0.029498586004286155,-0.006323388777673245,-0.002453343244269491,-0.004186584614217281,-0.037739848438650365,-0.4428624490275979,-9.795147487521172
5.51,0.8999999761581421,302.0,23.5247802734375,0.15903547406196594,-79.78276170894833,40.4589851720985,270.63340790581697,0.016196390613913536,0.01608117111027241,-0.7637782096862793,0.6450751423835754,0.010352144383283392,-0.011421533696666758,-0.028761793593958918,-0.0004214992804918438,-0.0008415865595452487,0.0009652812732383608,-0.037373833295423535,-0.4487349173426629,-9.79564099252224
5.7,1.0,304.0,23.526033401489247,0.07951773703098297,-79.78276172424059,40.45898516574558,270.63049142074584,0.016196390613913536,0.01608117111027241,-0.7637782096862793,0.6450751423835754,0.010228397267270999,-0.011590822172490871,-0.0287458681316024,-0.0008502244600094856,0.0005578837590292096,-0.004810373764485121,-0.03848248593974859,-0.4382791821286082,-9.793266438245773
5.8,1.0,304.0,23.522275924682607,0.07951773703098297,-79.78276173147269,40.45898517003436,270.6302468777895,0.016193551942706108,0.016080986708402634,-0.7637796998023987,0.6450734734535217,0.007261921901396495,-0.011179657231288921,-0.02828354381864292,-0.004065608140081167,-0.0015908228233456616,-0.003728612326085568,-0.03687597257550807,-0.4532535359635949,-9.795687770247461
6.0,1.100000023841858,305.0,23.53104019165039,0.11132483184337616,-79.78276174591491,40.45898516618305,270.627393409729,0.016192778944969174,0.016080867499113083,-0.7637786865234375,0.645074725151062,0.007911287017798665,-0.011414054471582473,-0.028225418076365045,0.006256552878767252,3.274268601671793e-05,-0.0004631869960576296,-0.038002420398406685,-0.44691467911005023,-9.796000596284868
6.11,1.100000023841858,308.0,23.52853775024414,0.09542128443717957,-79.78276178474209,40.45898512936635,270.63013450813287,0.016202846542000767,0.016085553914308548,-0.7637791633605957,0.6450737714767456,0.014666919448878662,-0.014006873805634444,-0.023312645103420047,-0.00202636793255806,-0.001324383309110999,-0.004484251607209444,-0.03861321689095348,-0.4513253435119986,-9.794691989421842
6.3,1.2999999523162842,309.0,23.53104019165039,0.07951773703098297,-79.78276173070574,40.45898514373109,270.63473649334907,0.016186920925974846,0.016092125326395038,-0.7637805342674255,0.6450724005699158,0.008606039641883828,-0.0041979585040554405,-0.02134234409058495,0.005774359218776226,0.002015498001128435,0.0035769178066402674,-0.03752531044185162,-0.4531056744977832,-9.796694660782814
6.4,1.2999999523162842,312.0,23.52102470397949,0.07951773703098297,-79.78276174372564,40.45898513247183,270.6304335446357,0.016186175867915154,0.016092156991362568,-0.7637801170349121,0.6450729370117188,0.008219817442332434,-0.004529810917245858,-0.02112394386499434,0.0030367518775165077,0.0021302117966115475,0.0028843781910836697,-0.039531389633193616,-0.4441980627179146,-9.793862854242326
6.6,1.399999976158142,312.0,23.52352905273437,0.11132483184337616,-79.78276173917268,40.458985130184935,270.63449646544456,0.016188085079193115,0.016092361882328987,-0.7637803554534912,0.6450725793838501,0.009026282946254335,-0.0054883149195818345,-0.02002305454648169,0.002264996524900198,-0.0014123459113761785,0.0028230324387550354,-0.03670725071104244,-0.4533568124100566,-9.796344997286797
6.7,1.5,313.0,23.527284622192386,0.12722837924957275,-79.7827617213956,40.458985116567376,270.6365542860031,0.016186751425266266,0.01609787531197071,-0.7637797594070435,0.6450731158256531,0.010043869860768764,-0.0029276110753190697,-0.019314213066851795,0.0040057809092104435,0.0010145959677174687,0.002489976119250059,-0.03778685457073152,-0.4399829511344433,-9.795043407082556
6.9,1.5,312.0,23.53104019165039,0.09542128443717957,-79.78276172659852,40.4589851093618,270.6345876903534,0.016186751425266266,0.01609787531197071,-0.7637797594070435,0.6450731158256531,0.009099923448091796,-0.002951696711299323,-0.019228003983254662,-0.0044434256851673135,-0.0008995250682346524,-0.004999266937375069,-0.0384249867964536,-0.44402597185224296,-9.792275919914246
7.0,1.5,313.0,23.5247802734375,0.11132483184337616,-79.7827617253218,40.45898511000296,270.6349150539636,0.016184903681278232,0.016092978417873386,-0.7637777924537659,0.6450756192207336,0.006811473440891182,-0.005537992083853253,-0.022600750202710226,-0.002024997491389513,-0.0010235045338049527,0.0030537277925759554,-0.03660252616507933,-0.44623698681592944,-9.794639364480972
7.2,1.600000023841858,316.0,23.529788970947266,0.11132483184337616,-79.7827617330488,40.45898510573941,270.632632494092,0.016184903681278232,0.016092978417873386,-0.7637777924537659,0.6450756192207336,0.006521260446438815,-0.005686605709290361,-0.022489203955887348,-0.0017691110260784626,-0.0020691785030066967,-0.006440475583076477,-0.0378862663730979,-0.43929572056978944,-9.794340571761133
7.31,1.600000023841858,318.0,23.529788970947266,0.12722837924957275,-79.78276172773548,40.45898510436609,270.6328594089746,0.016185039654374126,0.016091294586658478,-0.7637758255004883,0.6450779438018799,0.004617494106854736,-0.007246134815613182,-0.02487990190027993,-0.0055871098302304745,-0.0030099768191576004,-0.0029754131101071835,-0.036128531678114084,-0.4503914700821042,-9.795516446828843
7.5,1.600000023841858,320.0,23.529788970947266,0.12722837924957275,-79.78276173714823,40.458985102124274,270.63035574567317,0.016184177249670032,0.016091013327240944,-0.7637741565704346,0.6450801491737366,0.004941062850404899,-0.007496070757547481,-0.02486309106939634,0.0026845671236515045,-0.0010278080590069294,0.000712839828338474,-0.03802259557647631,-0.4435629089176655,-9.79412305533886
7.6,1.600000023841858,319.0,23.53104019165039,0.11132483184337616,-79.7827617334693,40.45898508568118,270.630606427908,0.016186274588108063,0.016093501821160316,-0.763774037361145,0.645080029964447,0.006610839844427372,-0.007804957120842772,-0.02564188720061792,-0.005432998761534691,0.0006045302725397049,-0.002549937227740884,-0.03761316714109853,-0.4539071815833449,-9.795060364007947
7.81,1.600000023841858,318.0,23.53104019165039,0.07951773703098297,-79.78276173281999,40.458985080078655,270.6335997135639,0.016189895570278168,0.0160905160009861,-0.7637730836868286,0.6450811624526978,0.006450986758185366,-0.011809606277551656,-0.026755460782958942,0.003314492525532841,0.00265130028128624,0.002483805408701301,-0.036569605884142216,-0.4514455403387546,-9.795262677669523
7.9,1.5,319.0,23.527284622192386,0.02385532110929489,-79.78276176295095,40.45898507527243,270.6282280237674,0.016188940033316612,0.016090324148535732,-0.7637725472450256,0.6450818777084351,0.0060398590464469685,-0.012330147250637516,-0.026609663975070155,0.002502052811905741,-0.001967873889952898,0.0007223649881780148,-0.03903278202284128,-0.44835788156837225,-9.793575755953787
8.1,1.399999976158142,319.0,23.533544540405273,0.02385532110929489,-79.78276172207936,40.4589850703084,270.63152800512313,0.016181712970137596,0.016094906255602837,-0.7637730240821838,0.6450814008712769,0.004217759376453386,-0.007059257565036567,-0.027408321569356103,0.0004992469912394881,0.0002740936179179698,0.0064759734086692325,-0.03663515408523381,-0.4545354283601046,-9.795198943018914
8.2,1.2999999523162842,319.0,23.53479766845703,0.03180709481239319,-79.78276169063297,40.458985028237535,270.6343768240213,0.016186406835913658,0.016108551993966103,-0.763774037361145,0.6450797319412231,0.01139125657990549,-0.0024779226578942053,-0.023224919604803964,0.007970488630235195,0.002646082080900669,0.002895658602938056,-0.03783549152780325,-0.4402264145761728,-9.79416866362095
8.4,1.2000000476837158,323.0,23.529788970947266,0.007951773703098297,-79.78276169551751,40.45898501988274,270.6320210994482,0.016186406835913658,0.016108551993966103,-0.763774037361145,0.6450797319412231,0.010654606260636964,-0.002427853092246111,-0.02296243323536332,-0.0041370955295860785,-0.0012200177880004044,-0.00037344652810134,-0.03840985712595285,-0.4492582796886563,-9.794856880903245
8.5,1.2000000476837158,324.0,23.5247802734375,0.02385532110929489,-79.78276167815011,40.458984999784505,270.6333396584988,0.016184357926249504,0.016105294227600098,-0.7637741565704346,0.6450796723365784,0.009040259263925307,-0.004444575267915639,-0.024184595025314483,0.0018702555680647488,0.0013524399837478993,0.0038470081053674217,-0.037924010606948284,-0.4412069560959935,-9.795448619127274
8.7,1.100000023841858,320.0,23.533544540405273,0.02385532110929489,-79.78276168494669,40.458984993741566,270.63089653861516,0.016184357926249504,0.016105294227600098,-0.7637741565704346,0.6450796723365784,0.008322469027898785,-0.004527685174979364,-0.023959640694384502,-0.005700173322111368,-0.0007193920901045202,-0.001955766696482897,-0.03840246131177992,-0.4422546675056219,-9.794185620546342
8.8,1.0,319.0,23.53479766845703,0.039758868515491486,-79.78276165351312,40.458984986511844,270.63230396819114,0.01617826521396637,0.016103556379675858,-0.7637743353843689,0.6450796723365784,0.00301805585803368,-0.003403944499800888,-0.025246317454708025,-0.0029581713024526834,0.0036429997999221095,0.00424695061519742,-0.03786903535947204,-0.4455396332591772,-9.795633391141893
9.0,0.8999999761581421,318.0,23.53229331970215,0.03180709481239319,-79.78276165797568,40.45898498544286,270.6297683120966,0.016177942976355553,0.01610376127064228,-0.7637732625007629,0.6450808644294739,0.002548511172899791,-0.0034980714537336645,-0.025171770201679718,-0.004393712617456913,-0.0005785424145869911,-0.0009155821171589196,-0.03762884727213532,-0.4403921465948225,-9.794348757863043
9.1,0.8000000119209291,317.0,23.533544540405273,0.03180709481239319,-79.7827616447128,40.4589849431004,270.6313514561653,0.016183583065867424,0.016107041388750076,-0.7637732625007629,0.6450808048248291,0.006774665678411857,-0.00505849646705751,-0.026009010474267187,-0.006531409453600645,-0.0010120599763467908,-0.0006397586548700929,-0.03613605768419802,-0.4511783956736327,-9.795983639359477
9.3,0.699999988079071,319.0,23.53229331970215,0.03180709481239319,-79.78276159446159,40.45898491928185,270.6380410642624,0.016179202124476433,0.01610962487757206,-0.7637746334075928,0.6450791954994202,0.0043866655225803936,-0.0026240486362815035,-0.022686002628622595,-0.0004961153026670218,-0.0002083459839923308,-0.00284973462112248,-0.03835584347136319,-0.44025228850543496,-9.794134749770166
9.4,0.6000000238418579,321.0,23.53104019165039,0.03180709481239319,-79.78276160226167,40.458984914160254,270.63350859296315,0.016179703176021576,0.016110660508275032,-0.7637739181518555,0.6450799107551575,0.00385458839910865,-0.002740544775215681,-0.022221447963820903,-0.007344316691160201,-0.00046244545956142247,-0.0016981980297714472,-0.03543521407060325,-0.4531198174506426,-9.795646255016328
9.6,0.6000000238418579,325.0,23.529788970947266,0.05566241592168808,-79.78276155741432,40.4589848473739,270.639812782526,0.016185926273465157,0.016122590750455856,-0.7637743949890137,0.6450788974761963,0.012874220640838938,-5.634519713107292e-05,-0.02041199196577507,0.0022247713059186935,0.0013647490413859489,0.002518087858334184,-0.0376799144782126,-0.4461606806516648,-9.796171919703484
9.7,0.6000000238418579,325.0,23.537302017211914,0.039758868515491486,-79.78276149375186,40.458984798139866,270.64378121507167,0.01617962308228016,0.016128191724419594,-0.763775110244751,0.6450780034065247,0.010949812590539471,0.004866415069398563,-0.0192774644344158,-0.0036004348658025265,-0.002513311337679625,-0.005464340094476938,-0.03794490069849417,-0.4526219270378352,-9.795093108415603
9.91,0.6000000238418579,322.0,23.529788970947266,0.0,-79.7827614901823,40.458984788278094,270.6418056936264,0.01617962308228016,0.016128191724419594,-0.763775110244751,0.6450780034065247,0.011558416318559651,0.004853614226206271,-0.01926074201903338,0.005867974366992712,0.002079507801681757,0.002331059193238616,-0.03591629145434126,-0.4510132118314505,-9.795496566295622
10.0,0.5,324.0,23.53229331970215,0.03180709481239319,-79.78276146457414,40.45898474148047,270.648251399517,0.016185671091079712,0.016125744208693504,-0.7637744545936584,0.6450787782669067,0.011285332016457912,-0.00035648758088249917,-0.014374196720069366,0.0009167748503386974,0.0009282473474740982,-0.005224824883043766,-0.038796074856072664,-0.4508669218048453,-9.79389793753624
10.2,0.5,324.0,23.53104019165039,0.03180709481239319,-79.7827614672277,40.45898473208648,270.64677658689016,0.016185671091079712,0.016125744208693504,-0.7637744545936584,0.6450787782669067,0.011672200229123887,-0.0005060399877662956,-0.014205423112509647,0.0018168058013543489,0.0010230315383523703,0.0052727218717336655,-0.03760264900512993,-0.452720489166677,-9.794259880185127
10.3,0.5,328.0,23.51100730895996,-0.07156596332788467,-79.78276144733867,40.45898468322014,270.6538110525608,0.016188153997063637,0.016123738139867786,-0.7637753486633301,0.6450777649879456,0.011799464403741845,-0.0038757447188514345,-0.010952988209780756,0.003187318099662661,0.0020104520954191685,0.0019723891746252775,-0.03767521158093587,-0.44393534000962975,-9.79474929213524
10.5,0.5,330.0,23.53479766845703,0.03180709481239319,-79.78276145411417,40.45898467387338,270.6526785643101,0.016189472749829292,0.0161249190568924,-0.7637745141983032,0.6450786590576172,0.011638283491387392,-0.003902559231966197,-0.010647237608399822,0.0006640273495577277,0.0014063810231164098,0.004901184234768152,-0.0371244701044634,-0.4541830605268479,-9.79654029428959
10.6,0.5,333.0,23.52352905273437,0.039758868515491486,-79.78276139535849,40.458984612802,270.6607955248356,0.016187038272619247,0.016133060678839684,-0.7637756466865541,0.6450771689414978,0.013715428175241023,0.0006529292620064478,-0.0066568565706139156,0.0065299435518682,0.00498232152312994,-0.00035086215939372783,-0.03902243062388152,-0.4384641003236175,-9.794991951584816
10.8,0.5,335.0,23.53104019165039,0.03180709481239319,-79.78276133146652,40.45898457615439,270.6696313173771,0.01618033088743687,0.016137268394231796,-0.7637760639190674,0.6450767517089844,0.011289878125296521,0.0050038555270572075,-0.003397009981861569,-0.005148930009454489,-0.0006623489316552877,-0.00017267953080590812,-0.03930270411539823,-0.4499191612377763,-9.795286066532137
10.91,0.5,335.0,23.53104019165039,0.007951773703098297,-79.78276132447537,40.4589845544515,270.6688654870987,0.016181286424398422,0.016137851402163506,-0.7637748122215271,0.645078182220459,0.011814722445623468,0.00495266867534405,-0.0031659905404139536,0.004143114201724529,-0.0017096992814913392,0.002207667799666524,-0.0377709757257253,-0.44190617345273503,-9.795373774766922
11.1,0.5,335.0,23.527284622192386,0.02385532110929489,-79.78276131986235,40.45898451406475,270.67789675307273,0.016191227361559868,0.016129571944475174,-0.7637752294540405,0.645077645778656,0.012052287260614978,-0.005246695646889007,-0.0006840010786067553,-0.001663053990341723,-0.0022414482664316893,-0.003698376473039389,-0.03715680566383527,-0.4445243373513222,-9.792923791408539
11.2,0.5,334.0,23.53479766845703,0.03180709481239319,-79.7827612657269,40.45898445338226,270.68643952918046,0.01619080454111099,0.01613833196461201,-0.7637747526168823,0.6450780630111694,0.015553250845681281,-0.001306878618219487,0.001085368447343357,0.0004167323058936745,0.00134700583294034,0.0068639060482382774,-0.036822338076308365,-0.4459663338214159,-9.795857924222947
11.4,0.5,333.0,23.527284622192386,0.015903547406196594,-79.78276127032817,40.45898443984147,270.6864935011864,0.01619080454111099,0.01613833196461201,-0.7637747526168823,0.6450780630111694,0.015107204044657015,-0.0013502394191281491,0.0013728001384443276,-0.004668934270739554,0.0005868210573680699,-0.00453663244843483,-0.037886163590010256,-0.4397469428926705,-9.79491535305977
11.51,0.5,330.0,23.53104019165039,0.02385532110929489,-79.7827612390016,40.45898440675828,270.69446299982064,0.016187967732548714,0.01613282784819603,-0.763775110244751,0.6450778245925903,0.010605514970717258,-0.003903184579879656,0.0016784538205821182,-0.002962699625641108,-0.001701267436146736,-0.0005196005804464222,-0.036456855121068665,-0.4502509541809559,-9.796114032268523
11.7,0.6000000238418579,328.0,23.529788970947266,0.02385532110929489,-79.78276124575521,40.45898439773815,270.6945936830044,0.016187967732548714,0.01613282784819603,-0.763775110244751,0.6450778245925903,0.0106329892670149,-0.004013554226515311,0.0018774386825684266,0.003076152177527547,-0.0012108378577977419,-0.0016854210989549756,-0.03754429790424183,-0.4404961173981428,-9.794638779759408
11.81,0.6000000238418579,326.0,23.52102470397949,0.015903547406196594,-79.78276119237731,40.45898433863349,270.70241655421256,0.01618925854563713,0.016141347587108612,-0.763774573802948,0.6450781226158142,0.013665386539865272,-0.001005722707249997,0.0025447337219022515,-0.005826801992952825,0.0016938553890213368,-0.005185308400541544,-0.036647417249623684,-0.4540337738022208,-9.796099998950961
12.0,0.6000000238418579,321.0,23.517269134521484,-0.06361418962478638,-79.78276119638882,40.458984326248896,270.7026138753891,0.016188444569706917,0.016140876337885857,-0.7637741565704346,0.6450786590576172,0.014275725861730362,-0.001152411509009842,0.002719319156474768,0.0026722680777311325,-0.002641500206664205,0.0045522190630435935,-0.03896324126981199,-0.4437717276066542,-9.795481363534927
12.11,0.6000000238418579,317.0,23.52102470397949,-0.04771064221858978,-79.78276111472715,40.45898428249368,270.7101974041462,0.016181280836462975,0.016146084293723106,-0.7637747526168823,0.6450780034065247,0.011677367671888378,0.004269558124458652,0.003106200984549958,-0.003433664795011282,0.001575491507537663,-0.006525863893330097,-0.03765765394549817,-0.4518629949912429,-9.796686474680902
12.3,0.8000000119209291,313.0,23.517269134521484,-0.039758868515491486,-79.78276104171142,40.458984238524266,270.7173493058681,0.016181156039237976,0.016154464334249496,-0.7637754678726196,0.6450769901275635,0.01474441753515411,0.008182562751110106,0.0030893012003700283,0.0052210744470357895,0.002258130349218845,0.0005166831542737782,-0.03542467309394851,-0.4513190212100744,-9.796616308093073
12.4,0.8000000119209291,310.0,23.51852035522461,-0.07156596332788467,-79.78276102850108,40.45898421021294,270.71790798020356,0.016180308535695076,0.016153931617736816,-0.7637754678726196,0.6450770497322083,0.014451397403984741,0.008022579759834744,0.003781362517581928,-8.845839147397783e-06,-0.0008061705157160759,-0.0014899132074788213,-0.038987292512319985,-0.4499305998533965,-9.795226424932482
12.61,0.8999999761581421,308.0,23.51601600646973,-0.04771064221858978,-79.78276096073174,40.458984145970334,270.72585527610784,0.016184363514184952,0.016164179891347885,-0.7637761831283569,0.645075798034668,0.021710219535177447,0.011000731688635615,0.0068556032476805645,0.004699460230767728,-0.0001537630014354363,0.0016115052858367562,-0.03716660431819037,-0.4516290332749486,-9.796269568204881
12.71,0.8999999761581421,303.0,23.507251739501953,-0.07951773703098297,-79.7827608829043,40.45898409915794,270.7329191119671,0.01617979258298874,0.01616290770471096,-0.7637771368026733,0.6450747847557068,0.017341935764808625,0.011844964086155235,0.0055973718612005365,0.0018485229229554527,0.0033365138806402683,0.0004674110386986285,-0.03825998796382919,-0.4456715976074338,-9.794617145061494
12.9,0.8999999761581421,310.0,23.51226043701172,-0.11132483184337616,-79.78276087241612,40.45898408191961,270.7334127278328,0.01617979258298874,0.01616290770471096,-0.7637771368026733,0.6450747847557068,0.017306674881270103,0.011989499243334327,0.005906675560398578,-0.0013347244821488855,-0.0007873809663578867,0.004114535637199879,-0.03678508491721005,-0.4531160167604685,-9.795906456112863
13.01,0.8999999761581421,311.0,23.51100730895996,-0.10337305814027786,-79.78276086550606,40.45898404941103,270.7399962694645,0.016188612207770348,0.016148686408996582,-0.7637756466865541,0.6450767517089844,0.015534774457207322,-0.0010724379554970297,0.0044974225799763075,0.005467795301228762,0.004766493104398251,0.003288207808509469,-0.03788266211282462,-0.4404470738768578,-9.794140596985818
13.2,0.8999999761581421,312.0,23.517269134521484,-0.05566241592168808,-79.78276086982308,40.458984035849305,270.7403952331543,0.016188612207770348,0.016148686408996582,-0.7637756466865541,0.6450767517089844,0.015183556348312944,-0.0010807711932769165,0.004804664977773317,-0.003746591508388519,0.0008968594484031199,0.0024377466179430485,-0.03713807173306122,-0.4528326826170087,-9.795176138877867
13.31,1.0,314.0,23.50224304199219,-0.08746951073408127,-79.78276079329288,40.458983984568576,270.7488479764461,0.016184432432055473,0.016156472265720367,-0.7637779116630554,0.6450739502906799,0.016542674673839006,0.004528186534639188,0.007981437160597305,0.005243407096713781,0.005636773072183132,0.002902612555772066,-0.037892524721100926,-0.44002442982047796,-9.794416585564614
13.5,1.0,320.0,23.51601600646973,-0.05566241592168808,-79.78276079116783,40.45898396922183,270.74958919000625,0.016185136511921886,0.016157029196619987,-0.7637773156166077,0.6450746655464172,0.015858257547805874,0.004681634745031605,0.008389756573199405,-0.004016800317913294,-0.0007522815722040832,-0.00024892151122912765,-0.03931606591679157,-0.4482282195612789,-9.794920615553856
13.6,0.8999999761581421,321.0,23.507251739501953,-0.10337305814027786,-79.78276071724666,40.45898392341749,270.75563319039344,0.01618232578039169,0.016161328181624413,-0.763777494430542,0.6450744271278381,0.01685484050869039,0.007457175573202912,0.007205332732068109,0.005137215368449688,0.002280218293890357,0.005388790741562843,-0.03904956079088152,-0.4401600486785174,-9.795062702894214
13.8,0.8999999761581421,321.0,23.51852035522461,-0.07951773703098297,-79.78276066888006,40.458983909241425,270.76060907554626,0.016179531812667847,0.0161574836820364,-0.7637777328491211,0.6450743079185486,0.013372082251989437,0.005827336607543591,0.005283823211077335,-0.004992503207176925,-0.0033008921891450878,-0.0025641852989792824,-0.03650981582002714,-0.4445288323983551,-9.794308412075043
13.9,0.8999999761581421,321.0,23.513511657714844,-0.09542128443717957,-79.7827606610118,40.45898388251089,270.76157949876784,0.016181059181690216,0.016158150508999825,-0.7637781500816345,0.6450737714767456,0.013947920669363284,0.005785757644834349,0.005811078282122877,0.0007162875845097005,0.001954980194568634,0.001901924377307296,-0.03770558512536809,-0.446020895652473,-9.79552521765232
14.1,0.8999999761581421,324.0,23.51977348327637,-0.06361418962478638,-79.78276060859842,40.45898385499989,270.76641716074937,0.016182661056518555,0.016160456463694572,-0.7637782096862793,0.6450735926628113,0.015603421159249618,0.0053530745994310935,0.004726757243947764,-0.0031782581936568017,0.0024667016696184874,-0.007535655982792378,-0.038281012815423315,-0.4391108754649759,-9.794543470144273
14.2,0.8999999761581421,321.0,23.49723625183105,0.604334831237793,-79.7827605757153,40.45898383090221,270.77152346086496,0.01617936231195927,0.01614850014448166,-0.7637894153594971,0.645060658454895,0.013072959634556028,0.0004886903073366396,0.00400498669906453,-0.005480008199810982,0.0015187737299129367,-0.006506640464067459,-0.03676766204182059,-0.44904134798794987,-9.797426732182505
14.4,1.0,321.0,23.513511657714844,0.2942156493663788,-79.78276057847596,40.45898381821353,270.77186353516583,0.016193611547350883,0.016145581379532814,-0.7637975811958313,0.6450507044792175,0.01425607818860158,0.00016870016966540494,0.004188851304000712,-0.0017413381719961762,0.0010598317021504042,0.0007753832032904028,-0.037817630111239856,-0.4425075595825911,-9.793750587701796
14.5,1.100000023841858,322.0,23.506000518798828,0.2306014448404312,-79.78276054751305,40.458983783358995,270.77667193126683,0.016173165291547775,0.016129959374666214,-0.7638081312179565,0.6450391411781311,0.015362376027216294,-0.0017893248691688449,0.004104470763617928,-0.006055647507309914,-0.001159792416729033,-0.0039467462338507175,-0.03756187838036567,-0.4471573385596276,-9.794524759054184
14.7,1.0,322.0,23.49723625183105,0.2385532110929489,-79.78276055274941,40.45898376934048,270.77701212477683,0.01616888307034969,0.016137298196554184,-0.7637933492660522,0.6450566053390503,0.015824738274240708,-0.0019085969680472208,0.0041921354366628505,0.004319882020354271,0.001333203981630504,0.003150965785607696,-0.038999101147055626,-0.4468304792046547,-9.795855585336684
14.8,1.100000023841858,323.0,23.503496170043945,0.22264966368675232,-79.78276048279194,40.45898374838986,270.7816737742424,0.016163330525159836,0.016117796301841736,-0.763799786567688,0.645049512386322,0.01305848737324996,0.003104354003789703,0.003688970107015664,-0.003274422837421298,-0.0038145023863762617,-0.005242988932877779,-0.03626354754203931,-0.45558313976973297,-9.795766707658768
15.0,1.0,324.0,23.49222755432129,0.3101191818714142,-79.78276048156674,40.458983736214336,270.781997099638,0.016146764159202576,0.01610100455582142,-0.763785719871521,0.645067036151886,0.013280195764201228,0.003335725618672916,0.003941348875022885,0.0014886728022247553,0.002438817406073213,0.001748720183968544,-0.03812301236903295,-0.445450061224401,-9.79486623644829
15.1,1.0,324.0,23.50474739074707,0.37373337149620056,-79.78276042457699,40.45898370409411,270.7860366852284,0.016125207766890526,0.016134090721607208,-0.7637691497802734,0.645086407661438,0.0150190965462658,0.0039392179040208895,0.003706116130657281,-0.002480529947206378,-0.002722697099670768,-0.0049161110073328036,-0.037501976396888494,-0.4531484322622419,-9.798009114861491
15.3,1.0,331.0,23.50850486755371,2.2105932235717773,-79.78276037027713,40.458983675973066,270.789630726099,0.016127023845911026,0.016140459105372432,-0.7637719511985779,0.6450827717781067,0.021315579042404338,0.005103157725169193,0.003262481555476766,0.006172175984829664,0.0010202700505033138,0.003116527805104852,-0.03556186795933172,-0.45260434884578005,-9.79437156200409
15.4,1.0,335.0,23.274370193481445,3.6498641967773438,-79.78276036930123,40.458983635871896,270.79026053857797,0.016350409016013145,0.016143320128321648,-0.7636904716491699,0.6451736092567444,0.01978171198294547,0.005415812608034342,0.004758199079359489,-0.018168743699789047,0.011022552847862244,-0.017407789826393127,-0.052505566310137516,-0.4354027174785733,-9.806482899785044
15.6,1.0,341.0,23.51226043701172,0.2624085247516632,-79.78276028823916,40.458983664485416,270.79280607414245,0.016297083348035812,0.01612517237663269,-0.7637062072753906,0.6451568603515625,0.013068061398075348,0.0075229521877506434,0.002727456352869758,-0.0008653674740344286,0.011766800656914713,0.009103800170123577,-0.049058038825169216,-0.4293318092823029,-9.793474599123002
15.71,0.8999999761581421,339.0,23.50850486755371,8.476591110229492,-79.78276025034263,40.45898364623824,270.79589097213744,0.016308434307575226,0.016132967546582222,-0.7636844515800476,0.6451820135116577,0.01767277701758949,0.0012197509766451364,0.004662772278005571,0.014798027463257313,0.018109384924173355,0.0002523336443118751,-0.014106053730938584,-0.44543452955782414,-9.793913140296937
15.9,0.8999999761581421,340.0,23.48346328735352,0.4771064221858978,-79.78276025129533,40.45898363215826,270.79614020895957,0.016396159306168556,0.016109278425574303,-0.7636730074882507,0.6451939344406128,0.015297917821465338,0.0030302106039200045,0.0025298415118480853,0.005137820262461901,0.0019545108079910287,0.0064649898558855065,0.00050629350123927,-0.4504311215132475,-9.798421928286553
16.0,0.8999999761581421,345.0,23.50474739074707,0.2703603208065033,-79.78276019921131,40.45898363553104,270.79931332182883,0.01630902662873268,0.01605591364204884,-0.7637103796005249,0.645153284072876,0.011037523523079846,0.0017327549685834127,0.002579210301983646,-0.011730643920600414,-0.003167686052620411,0.002684756647795439,-0.05590035921894014,-0.4126085532456637,-9.788413833975794
16.2,0.8999999761581421,347.0,23.480958938598643,1.4233675003051758,-79.7827601990179,40.45898362438478,270.7995450348854,0.016253085806965828,0.016093706712126732,-0.7637074589729309,0.6451572179794312,0.009859977980990605,0.0021787772875860745,0.003845857417280308,-0.006816105917096138,0.00502106174826622,-0.010543319396674631,-0.04108928888104856,-0.44095556236803535,-9.79793134689331
16.3,0.8999999761581421,348.0,23.38830757141113,3.419262886047364,-79.78276014676963,40.45898361325058,270.8025008888244,0.01623489148914814,0.016099564731121063,-0.7637357711791992,0.6451240181922913,0.013471597929735386,0.0027230479731993424,0.0033848930797309496,-0.01026574056595564,-0.0065674809738993645,-0.0016842195764183998,-0.038326611961238086,-0.4602779057621956,-9.793245388269423
16.5,0.8000000119209291,348.0,23.294403076171875,5.446965217590332,-79.78276014655478,40.45898360024764,270.8027808816433,0.016236286610364914,0.016088394448161125,-0.7637644410133362,0.6450902819633484,0.013881205861627144,0.003248594998575231,0.003771245206213167,-0.008478697389364244,-0.01094454899430275,-0.016057699918746948,-0.046834105169400585,-0.4514233209192753,-9.781346304416656
16.6,0.8999999761581421,346.0,23.248077392578125,6.456840515136719,-79.78276009419389,40.45898359330077,270.80536638212203,0.01635199785232544,0.016155052930116653,-0.7637284398078918,0.6451283097267151,0.015807280707351122,0.005590630283887193,0.005583003453924292,-0.019959371536970142,-0.03316476568579674,0.038646798580884933,-0.04540704650804401,-0.4652313014119864,-9.80778858304024
16.81,0.8999999761581421,341.0,23.142906188964844,8.905986785888672,-79.78276005768349,40.4589836310399,270.8057963104248,0.016524624079465866,0.01609913259744644,-0.763715922832489,0.6451401114463806,0.01558945051994324,-0.003544652801579733,-0.0024554009781535217,0.057784650474786765,0.034897275269031525,-0.017896082252264026,-0.008569625584641472,-0.512813238054514,-9.799768542051316
16.9,0.8999999761581421,338.0,23.07404327392578,10.369112968444824,-79.78276006742063,40.45898361313142,270.8055208773613,0.016773303970694542,0.01624753698706627,-0.763606071472168,0.6452600955963135,0.008962817597575647,0.0019590893206722234,0.002304119160070575,-0.053065910935401917,0.05592562258243562,0.028036115691065792,0.035977790001779794,-0.4706199857220054,-9.851408811807632
17.1,1.0,336.0,22.94758605957031,12.913681030273438,-79.78275997219127,40.45898362480319,270.80903686594957,0.017088966444134712,0.01644260250031948,-0.7635869979858398,0.6452693939208984,0.019328304173695063,0.0072519619334316145,0.005312510540902009,0.009783796034753323,0.07040293514728546,-0.014735343866050243,-0.07108994997572153,-0.3927893427014351,-9.823060340881348
17.2,1.0,330.0,22.887487411499023,14.869816780090332,-79.78275992009073,40.458983663801305,270.81036745023727,0.01721716672182083,0.01689370535314083,-0.7634315490722656,0.6454381942749023,0.0076142058135826455,0.006182870554950944,0.003081587720236757,0.019031288102269173,-0.012282736599445343,-0.017321214079856873,-0.06032378699630499,-0.4972154979407787,-9.796683551073077
17.4,1.0,329.0,22.727224349975586,17.668842315673828,-79.78275991713876,40.45898365825863,270.81058759999274,0.0166567824780941,0.01725426502525806,-0.7633065581321716,0.6455912590026855,0.006660439031923798,0.005879868544116639,0.002607809936920561,-0.04043992981314658,-0.02388462051749229,0.09123291075229643,0.004346146315801889,-0.41132984027266506,-9.816647114753724
17.5,1.0,328.0,22.66837882995605,19.13991928100586,-79.78275987768114,40.458983663009036,270.81065459561347,0.014421675354242325,0.018739659339189533,-0.7630854249000549,0.6458649635314941,0.0062582515583588716,0.0057491463646893535,0.00490192030998256,-0.006469934713095426,0.016122935339808464,-0.027580326423048973,-0.05114387769252062,-0.5140889908745885,-9.826491487026217
17.7,1.100000023841858,320.0,22.475563049316406,23.64857482910156,-79.78275986532883,40.45898365648139,270.812404856205,0.011954035609960556,0.0195505041629076,-0.7629097104072571,0.6460989117622375,0.01239335240927552,0.0158722018003398,0.028694372386423857,0.014128959737718104,-0.04840683937072754,0.044206544756889336,-0.03870800573844463,-0.5872262931615114,-9.912691140174866
17.8,1.100000023841858,321.0,22.38791847229004,24.87314796447754,-79.78275979317412,40.458983640958856,270.81751246762275,-0.0007281640428118408,0.012967331334948541,-0.7586920261383057,0.6513200998306274,0.03864259367233357,0.054601065747442126,0.061522457162422266,-0.028101759031414986,0.060954034328460686,-0.0965750813484192,-0.10825721438974142,-0.5207093180716038,-10.032019947767258
18.0,1.100000023841858,316.0,22.237672805786133,28.57072448730469,-79.78275971202173,40.45898359315182,270.8254713566303,-0.006264131050556897,0.007223112042993306,-0.7556537389755249,0.6549015045166016,0.04647405087072547,0.08998901271578509,0.10817400113240744,-0.13102662563323975,0.0418047308921814,-0.15167075395584104,0.12380710783414545,0.24029224086552856,-10.259663747549057
18.11,1.100000023841858,314.0,22.141263961791992,30.88468933105469,-79.7827594932745,40.458983325062476,270.86979652953147,-0.016910070553421974,-0.00223331549204886,-0.7499851584434509,0.6612347364425659,0.0397725559066394,0.14495365167545762,0.2889058747346745,-0.16209262609481812,-0.06516242772340775,-0.07009430974721909,0.04565493190661074,0.04988569392822683,-10.624100818634034
18.3,1.2000000476837158,310.0,22.436748504638672,22.16159439086914,-79.782759119385,40.45898328306113,270.89379273366933,-0.013929122127592564,-0.0020408197306096554,-0.7483789324760437,0.6631220579147339,0.04597837886147778,0.17733171593463276,0.3114002404629403,0.09854361414909364,0.023399274796247482,-0.10163258016109468,0.09402447022497656,0.5309907697141171,-10.403294752836226
18.4,1.100000023841858,308.0,22.439252853393555,23.250986099243164,-79.78275868377453,40.45898315644414,270.9530922026634,0.004842923954129219,-0.005243157502263784,-0.7478318810462952,0.6638498306274414,0.03595554101300867,0.21259011293210314,0.25718994703344594,-0.1582758128643036,0.058136183768510825,-0.07129862904548645,0.06455734471790492,0.18058142479509115,-9.846009492874147
18.6,1.100000023841858,308.0,22.330324172973643,24.809534072875977,-79.78275813357884,40.458983398682435,270.96123485279077,0.008431236259639263,-0.010944968089461328,-0.7481626272201538,0.6633715629577637,0.0416621606111113,0.20739525243051246,0.17074765288481508,-0.0698571428656578,0.06015156581997873,0.009069517254829408,0.2778449601307512,0.06936882661655545,-9.431454766988756
18.71,1.100000023841858,310.0,22.324064254760746,25.898927688598643,-79.78275744767052,40.45898348800395,270.9803797454834,0.012512787245213984,-0.016735481098294258,-0.7496576309204102,0.6614959239959717,0.011803732446186172,0.20217742142934392,0.11560354804678374,0.01268586702644825,-0.12038301676511765,0.0035623300354927783,0.26088215097784995,0.0968498082831502,-9.49867669701576
18.9,1.100000023841858,313.0,22.326568603515625,25.04808807373047,-79.78275722287178,40.45898345302784,270.9921474905014,0.011867397464811802,-0.014203671365976334,-0.7506123781204224,0.6604835987091064,0.02277214663829964,0.1863789779450193,0.10005879925974492,0.10137496888637544,0.0361221581697464,0.08088289201259613,0.2644800524041057,0.003155431654304266,-9.658304514884948
19.0,1.2000000476837158,314.0,22.23641967773437,26.566877365112305,-79.78275659927688,40.45898339980455,271.0329280347824,0.00574999675154686,-0.015453641302883625,-0.7521195411682129,0.6588205099105835,0.01720888594051741,0.18794604525271366,0.11441002365840752,-0.1273072212934494,-0.11184537410736084,0.04064719378948212,0.16355939431115984,0.1769414051435888,-9.731381261944767
19.2,1.2000000476837158,320.0,22.27898979187012,25.517242431640625,-79.7827563886113,40.45898335708207,271.0450353474617,0.0037184986285865307,-0.015432757325470448,-0.7529424428939819,0.6578949689865112,0.03632818506304195,0.1816537930995821,0.1134501184365645,0.15713422000408173,0.08509255945682526,0.12201949208974835,0.20475385084748268,0.0023516587726771835,-9.799204285740851
19.31,1.100000023841858,323.0,22.238924026489254,26.73386383056641,-79.782756031992,40.458983265315844,271.0744119734764,-0.0005026739090681076,-0.013252036646008492,-0.7538561820983887,0.6569057703018188,0.049190000839083266,0.17549931694352802,0.1203255274399848,0.19214686751365664,-0.01914726011455059,0.10912477225065233,0.15913204707205295,0.2866048018075526,-9.759301716685297
19.5,1.100000023841858,324.0,22.262714385986328,26.30446815490723,-79.78275583617217,40.458983219276135,271.0880695433617,-0.0008302083588205277,-0.01222427934408188,-0.7541017532348633,0.6566433906555176,0.01022639232558582,0.18189209241737248,0.1423866640619273,-0.16196906566619873,-0.08422734588384627,-0.15092049539089206,0.13663128515705467,0.3824321696162224,-9.881134886741641
19.6,1.100000023841858,326.0,22.218891143798828,26.84518814086914,-79.78275523759706,40.458983138238565,271.12919281435006,0.0001521726226201281,-0.016249382868409157,-0.7533861994743347,0.6573775410652161,0.006515113910575203,0.2004354927027696,0.1915515285236309,-0.12609124183654785,0.006802198477089405,-0.16911885142326355,0.2772910278104246,-0.17793212447315454,-9.986996387243273
19.8,1.0,325.0,22.478065490722656,15.831981658935547,-79.78275496725053,40.45898322154129,271.154718861103,0.0009207834955304859,-0.018128525465726845,-0.7530201077461243,0.6577472090721129,0.012756391624544209,0.1842670218724173,0.19163060921149386,0.12297871708869935,-0.0020840107463300232,0.06865120679140091,0.27638750508427623,-0.06964158095419408,-9.879022872447967
19.9,1.100000023841858,326.0,22.375398635864254,23.82351493835449,-79.78275457694609,40.45898320833947,271.18215845537185,0.00703337648883462,-0.02018817886710167,-0.7519887089729309,0.6588292717933655,-0.016331293858743566,0.15352480851767095,0.01469162125122232,0.08783763647079468,0.057459913194179535,0.01967837102711201,0.2068753668665886,0.1549929310195148,-9.356325647234916
20.11,1.0,330.0,22.047361373901367,31.6560115814209,-79.78275449855998,40.45898309542026,271.21051321935647,0.009837421588599682,-0.01987265609204769,-0.7517616748809814,0.6590620875358582,-0.012505931636198037,0.1449313532025625,-0.004352837219097401,-0.0519065223634243,-0.033914871513843536,-0.08755960315465927,0.25334998704493045,0.1607538271509111,-9.131537042856216
20.2,1.0,332.0,21.99602699279785,31.86275863647461,-79.7827540179913,40.458983076405225,271.2398761363029,0.008464599028229712,-0.015129315666854382,-0.7521524429321289,0.658761203289032,-0.0026592631129256448,0.12018476841022865,0.12964756123519072,-0.08429567515850067,-0.10929717123508452,-0.08232517540454865,0.2783723972551525,-0.20679792780429126,-9.797753006815912
20.4,1.0,336.0,21.77190971374512,37.0234603881836,-79.78275389976773,40.458983059086925,271.25932310533517,0.007860362529754639,-0.01371994614601135,-0.7526379227638245,0.6582448482513428,-0.002937800520867785,0.10360338104782542,0.2551374179067917,-0.0700993612408638,-0.08675093948841095,-0.05741845443844795,0.1741262448951602,0.04272234312258661,-10.880134019851685
20.5,1.0,338.0,21.74812126159668,37.898155212402344,-79.78275379833507,40.458983043397176,271.293046936512,0.008018026128411293,-0.013181550428271294,-0.7528560161590576,0.6580045223236084,0.012807707534918965,0.09692928476396752,0.4195731174271541,0.053882915526628494,-0.059693854302167886,-0.011984983459115028,0.2442447759211064,0.002962793307378889,-11.348153346776964
20.7,1.0,338.0,21.550296783447266,40.10079574584961,-79.782753657696,40.4589830584149,271.4065932483673,0.009335114620625971,-0.010981908068060877,-0.7519994974136353,0.6590061783790588,0.0215805355630445,0.07614001756886238,0.8187827521037774,0.03651634231209755,0.04194938763976097,-0.058827415108680725,0.20641508135944608,0.04425474302843213,-12.06184110045433
20.81,1.0,335.0,21.61164665222168,39.93380737304688,-79.78275348553905,40.45898307464893,271.6204001159668,0.004832046572118998,-0.012068791314959526,-0.7505608201026917,0.6606736183166504,0.034813594737557164,0.07977073273602597,1.3064620249975685,-0.0022424731869250536,-0.0292370580136776,-0.010526379570364952,0.2394455274939537,0.2447230781614781,-12.239560203552244
21.01,1.100000023841858,332.0,21.51774406433105,40.72898483276367,-79.78275343132947,40.45898304991785,271.76402251434325,0.001414477708749473,-0.011741750873625278,-0.7499197125434875,0.6614231467247009,0.042752469860767535,0.08300035370573874,1.5671158565156451,-0.01301792077720165,0.01574808731675148,0.017968853935599327,0.1967945295386017,0.16468211453408005,-12.376302019357679
21.1,1.2000000476837158,330.0,21.5452880859375,41.61163330078125,-79.78275338499324,40.45898308063122,271.9292054624557,-0.001093134400434792,-0.010914034210145472,-0.7491912245750427,0.662263035774231,0.046316684285053485,0.08319591089103806,1.8132613194600715,0.020402811467647552,0.015963669866323468,0.015050620771944525,0.15493897218257188,0.2289635711722076,-12.418927052021024
21.3,1.2999999523162842,332.0,21.415075302124023,43.39282989501953,-79.7827532449845,40.45898313335316,272.33451442432397,0.0004211999475955963,-0.010438890196383,-0.7472559213638306,0.6644542813301086,0.03832799999064115,0.09731201060583644,2.3026338700074773,0.04126084595918656,0.02349593862891197,-0.018623746931552887,0.2291155805066228,0.1450182023830712,-12.307744585275653
21.4,1.399999976158142,333.0,21.50397109985352,41.23789978027344,-79.78275316309391,40.45898312625521,272.57757918548583,0.00363600510172546,-0.007738654036074877,-0.7467445135116577,0.665056049823761,0.04294667975943611,0.11671916883749835,2.5574307637313285,0.11216449737548828,-0.0008891926845535637,0.04730438068509102,0.2675056575983763,0.14888894950971007,-12.364530404806136
21.6,1.600000023841858,335.0,21.03194808959961,35.98972702026367,-79.78275298016979,40.45898317299835,273.12643449020385,0.009486881084740162,-0.0026932640466839075,-0.7478375434875488,0.6638085246086121,0.002733488961195175,0.12975016068373413,2.9804406267270607,-0.02576456032693386,0.04903231933712959,0.04439239203929901,0.2534412401542068,-0.007962151269894094,-11.720741436481473
21.7,1.7000000476837158,331.0,21.26608085632324,30.96420669555664,-79.7827527539403,40.458983144644094,273.74560396385186,0.0055609140545129785,-0.012251673266291618,-0.7506925463676453,0.660514771938324,0.012035369993280013,0.15583011582265327,3.131158468883091,-0.10137248039245604,0.031232347711920738,0.02598529122769833,0.23884470781311395,-0.07997571235522627,-11.082321381568912
21.9,1.7000000476837158,323.0,21.02568817138672,37.20634841918945,-79.78275266299158,40.45898310887115,274.059944316864,0.005254894029349089,-0.016166133806109432,-0.7514143586158752,0.6596117615699768,0.05444998551003879,0.16121508897946665,3.151704389216409,0.011024553328752521,0.05821603909134865,0.01794537901878357,0.2073395444266498,0.1868362827412784,-10.166539821624756
22.0,1.600000023841858,316.0,21.178438186645508,33.51672744750977,-79.78275258093515,40.4589830690923,274.3782467098236,0.008187585510313511,-0.01406679954379797,-0.7521650195121765,0.6587737798690796,0.07254133344214844,0.16978262988272844,3.21421999445874,0.0459473617374897,-0.005877948831766844,-0.027698859572410583,0.19842833295464515,0.1831435833312571,-10.400337231159213
22.21,1.7999999523162842,309.0,21.24354362487793,34.614070892333984,-79.78275237839027,40.45898305899246,275.02403227996825,0.01046726293861866,-0.00751367211341858,-0.7527787685394287,0.6581475138664246,0.009022992760136584,0.14613626984083386,3.283441111266976,-0.01703223399817944,-0.027233006432652473,-0.06830313801765442,0.15214550144970418,0.0878106158785522,-10.083889428377153
22.3,2.0,300.0,21.28360939025879,32.35576629638672,-79.7827521876076,40.458983059402016,275.7095638961792,0.010674457997083664,-0.009380766190588474,-0.7516167759895325,0.6594470739364624,0.008853834899145919,0.1063926325383666,3.306408083384192,0.04745905473828317,0.01681393943727016,0.014842108823359013,0.0984989240951836,0.07222259676083922,-9.916912829875946
22.5,2.200000047683716,267.0,21.76690101623535,33.222511291503906,-79.78275215307079,40.45898304062477,276.04083840560907,0.011196467094123363,-0.010852270759642124,-0.751051127910614,0.6600599884986877,0.00723805303362245,0.09621977309430353,3.3047147596747712,0.04719354584813118,0.060678575187921524,-0.022179625928401947,0.1518915312923491,0.058254841100424525,-9.802430779337882
22.6,2.200000047683716,234.0,21.962221145629886,29.85095977783203,-79.78275215700815,40.458983067462675,276.68639056396484,0.01447291858494282,-0.007209934759885074,-0.7505121827125549,0.6606587767601013,-0.008648079076334442,0.06765365889185297,3.2783127047039597,0.06935639679431915,-0.045124445110559464,-0.01162679586559534,0.049619828341528775,-0.09471930216997862,-9.831604292392733
22.8,2.4000000953674316,188.0,21.98600959777832,28.47530174255371,-79.78275218945646,40.45898301553192,276.9961702079773,0.01409165095537901,-0.003299298463389277,-0.7509279251098633,0.6602256298065186,-0.02506664443937854,0.04548273476732431,3.250697459346726,-6.093505362514406e-05,-0.10781718790531156,-0.014378193765878676,0.09099593228660524,-0.1485842273477465,-9.831804267168048
22.9,2.4000000953674316,171.0,21.898366928100586,30.94035148620605,-79.78275226096359,40.458983006177114,277.32177321624755,0.011515555903315544,0.0003020624862983824,-0.7514457106590271,0.6596944332122803,-0.028053744050109512,0.008512405876011778,3.25350499627246,0.0954400822520256,-0.11646069586277008,0.08653931319713593,0.017725491640158,-0.250474070571363,-9.808510129451752
23.1,2.5999999046325684,161.0,22.008546829223643,27.98229217529297,-79.7827524820583,40.45898294790069,277.9277145118713,0.00579517288133502,0.007035342045128346,-0.7524449825286865,0.658592164516449,-0.03318907320154813,-0.06700316959222613,3.1248265666237525,-0.011483296751976013,8.093801443465054e-05,-0.026271851733326912,-0.08578113868832589,-0.15902321577072145,-9.283357073664666
23.2,2.700000047683716,157.0,21.9309196472168,30.66204071044922,-79.78275258887734,40.45898293722436,278.23607222747796,0.0033838655799627304,0.004258511122316122,-0.7521742582321167,0.6589418053627014,-0.027500119118552862,-0.099475560425279,3.0390586464912825,-0.03556637465953827,0.002479332499206066,0.07527247071266174,-0.0761795446369797,-0.2631763060390949,-9.0515956646204
23.4,2.9000000953674316,147.0,21.84703254699707,32.673839569091804,-79.78275213445492,40.45898262859423,278.78653876495355,0.0012437180848792195,-0.004568053409457207,-0.7523016929626465,0.6588018536567688,0.015430430294265256,-0.04879680152760692,2.8795463924662688,-0.020481355488300323,0.004959528800100088,0.04135338962078095,-0.0008449761946394574,-0.0991241193562746,-9.384087642431261
23.5,3.0999999046325684,147.0,21.97348976135254,28.70590400695801,-79.78275264235538,40.45898220054919,279.5327898712158,0.0023088939487934113,-0.0049458821304142475,-0.7546479105949402,0.6561073660850525,0.06293845609136314,-0.07635058328321792,2.9141860965765294,0.05597980320453644,-0.006382638588547707,0.03983848914504051,-0.04072679805569352,-0.062015084987506276,-9.579609178304672
23.71,3.299999952316284,135.0,21.8132266998291,32.73745346069336,-79.78275277734312,40.45898217816218,279.82220618438714,0.001944045885466039,-0.0009328172891400752,-0.7557042241096497,0.6549096703529358,0.05037812586195222,-0.08373779819168277,2.876203628383652,0.11220733076334,-0.03608652204275131,0.01809162460267544,0.01131914969533682,-0.07031236622482538,-9.495029203891754
23.8,3.0999999046325684,137.0,21.88960266113281,30.980112075805664,-79.78275261906147,40.45898186476608,280.21006171417235,0.0005493896314874291,0.0033148173242807393,-0.7557238936424255,0.6548818349838257,0.05513095455558673,-0.08747633707383218,2.906622230784357,0.08413456380367279,-0.051595695316791534,0.009657653979957105,-0.05818020687438547,0.0011621980648487806,-9.7472213691473
24.0,3.0,135.0,21.87332534790039,31.186857223510746,-79.78275283228704,40.45898178337478,280.7930475921631,-0.003665369236841798,0.007869844324886799,-0.7542236447334291,0.6565601825714111,0.02266159726705351,-0.108874504515072,2.933948594618188,-0.1329994946718216,-0.024896452203392986,-0.1419583261013031,-0.03620320473331958,0.02409474487882108,-10.017763266563415
24.1,2.9000000953674316,127.0,21.89961814880371,30.4711971282959,-79.78275292869945,40.45898150536408,281.4577385635376,-0.006196531932801008,0.001615450019016862,-0.7528697848320007,0.6581383943557739,0.08535888426813673,-0.07368779562169349,2.9656633267913404,0.006554061081260443,0.04971753433346749,0.010520447976887226,0.02316532309865579,-0.061144717801362276,-9.925093084573746
24.3,2.9000000953674316,123.0,21.922155380249023,29.008071899414066,-79.7827530352662,40.45898143403989,281.80350939941405,-0.006321268621832132,-0.002639134880155325,-0.7520970106124878,0.6590169072151184,0.09475721908675,-0.050126881884054016,2.967954239776687,0.018061228096485138,0.07155297696590424,0.002488592639565468,0.12324774856679142,-0.010601924741640687,-9.698628083467485
24.4,2.9000000953674316,125.0,21.96973419189453,29.175058364868164,-79.78275305836125,40.45898137871138,282.09920184326165,-0.005582960788160562,-0.005513872485607863,-0.7516602277755737,0.6595039367675781,0.0970628950930473,-0.017368364812848033,2.9444479067359817,-0.002326906658709049,0.1295536458492279,0.024777209386229515,0.08791907259263099,0.1053987207915634,-9.591361497044565
24.6,2.799999952316284,130.0,22.002286911010746,28.06976127624512,-79.78275323630022,40.45898125202272,282.7338883132934,-0.00045960507122799754,-0.0045435093343257895,-0.7517709732055664,0.6594085693359375,0.0938210132674236,0.013531728709101607,2.90069876312186,0.13691365718841553,0.08461208641529082,0.06705163419246674,0.0995027631148696,0.044673284897580746,-9.534389151334764
24.7,2.700000047683716,132.0,21.749372482299805,33.127090454101555,-79.78275324562047,40.4589812125858,283.02272574615483,0.0030943790916353464,-0.004949712660163641,-0.7518531084060669,0.6593047976493835,0.06640971862537945,0.019611812469507155,2.8713984680526154,0.1064162626862526,0.12788444757461548,0.09245539456605913,0.14880361670628192,-0.1180009688716382,-9.498868485689165
24.9,2.5,134.0,21.82699966430664,31.67191505432129,-79.78275291670745,40.45898100951389,283.6176106185913,0.0012420827988535164,-0.008466360159218311,-0.7508941888809204,0.6603671312332153,0.058728406902584476,0.0941441259690903,2.853540008120859,0.06441376358270645,-0.027061523869633675,-0.007356366142630576,0.2347126084193588,0.03781634646467865,-9.728219672441485
25.1,2.4000000953674316,139.0,22.002286911010746,27.529041290283203,-79.78275284300781,40.458980981598174,284.20709006500243,0.002815412124618888,-0.007209568284451962,-0.7495757937431335,0.6618733406066895,0.03607796371799823,0.08910383736471705,2.8572511935344505,-0.0270969606935978,0.007085599936544895,-0.027250545099377632,0.19891388939693566,0.0891744058392942,-9.700322021842004
25.2,2.299999952316284,143.0,21.80696678161621,31.62420463562012,-79.78275278950589,40.45898095985475,284.4924599380493,0.003289612475782633,-0.006519685033708811,-0.7494149804115295,0.6620603203773499,0.033539758998494554,0.09084686024785096,2.8394078500111197,0.01431265939027071,0.030545823276042938,-0.007104446645826101,0.13114480616524815,-0.0005049070715904239,-9.626293932795523
25.3,2.299999952316284,144.0,21.89335823059082,30.359872817993164,-79.78275282971437,40.45898090748868,284.79988162231444,0.005006784573197365,-0.005186137743294239,-0.7488909959793091,0.6626540422439575,0.04524452792961532,0.07493720671289397,2.832287562622514,0.11063269525766373,-0.04490739107131958,-0.010493364185094832,0.24342104941606524,-0.045078780166804784,-9.60622394979
25.5,2.5,150.0,21.82073974609375,31.544687271118164,-79.78275273303706,40.45898082628525,285.36404769134515,0.004825546406209469,-0.0035787196829915047,-0.7472180128097534,0.664551854133606,0.033948878204062824,0.08965085766860126,2.8199049254138258,-0.0887916162610054,0.033347371965646744,-0.005526144988834858,0.16726607222110035,-0.0742713423538953,-9.771001410484317
25.6,2.5,181.0,21.80821990966797,31.85480690002441,-79.78275274366365,40.4589808146363,285.96143881988525,-0.005068529862910509,-0.017550762742757797,-0.7486178874969482,0.6627500653266907,0.06742054847810727,0.09449350090745673,2.8341873162976343,-0.11231443285942078,0.015058683231472969,0.12130644917488098,0.21906602578237647,-0.1064292285963893,-9.787654280662537
25.8,2.700000047683716,245.0,21.848285675048828,30.924448013305664,-79.78275272484541,40.45898086815535,286.26535193634027,-0.010055367834866049,-0.02164364792406559,-0.7506628632545471,0.6602543592453003,0.08975935259873903,0.11426017753293866,2.859709513604745,-0.044714950025081635,-0.039243120700120926,0.08686047792434692,0.359090048186481,0.16780723202973605,-9.917671798467637
25.9,2.700000047683716,254.0,21.78693389892578,32.54661178588867,-79.78275264908747,40.458980862737214,286.5523020477295,-0.008198674768209456,-0.017711633816361427,-0.7521736025810242,0.658676028251648,0.11507954756672435,0.1251033774557603,2.8681599713558934,0.13042835891246796,-0.002558307955041528,0.035287678241729736,0.23099885903298856,0.17471434688195586,-9.84634863138199
26.11,2.799999952316284,283.0,21.753129959106445,31.75938415527344,-79.78275248736668,40.45898085104961,287.14379374694823,0.005151271354407072,-0.005269913468509913,-0.7526600360870361,0.6583681702613831,0.02198203305447,0.12858353150199542,2.9237319173263043,0.10589367896318436,0.07397721707820892,0.006059594452381134,0.29596687015146017,-0.04758625810034573,-10.287093036174772
26.2,2.799999952316284,292.0,21.832008361816406,30.908544540405273,-79.78275236522471,40.4589808581736,287.43972079467767,0.006248570512980223,-0.007138696964830159,-0.7528647780418396,0.6581069231033325,-0.017031773580812003,0.15580169824824602,2.9866790768963902,-0.02868901938199997,0.05894096195697784,0.04189478605985642,0.27202659683302044,-0.0544631547247991,-10.313058182001113
26.4,3.0,304.0,21.789438247680664,31.60034942626953,-79.78275212572356,40.45898089619881,288.0386778564453,0.004356031306087971,-0.015752451494336128,-0.7508966326713562,0.6602175831794739,0.012095712715584349,0.1883760837731253,2.9778123908042686,-0.0430523157119751,0.10765616595745088,0.008943470194935799,0.27508395971730354,0.2685304369591177,-9.863292692899703
26.5,3.0999999046325684,308.0,21.92716407775879,28.268556594848643,-79.78275173319852,40.4589808512246,288.6238867492676,0.003651338629424572,-0.022351248189806938,-0.7473307847976685,0.6640661358833313,0.08722165524010161,0.23801643398569536,2.9435634441180625,0.045411020517349236,0.05695608630776405,-0.06957411766052246,0.2901372509635985,0.2704914651811123,-9.891037731170657
26.7,3.4000000953674316,315.0,21.785682678222656,31.53673553466797,-79.78275157446852,40.458980808888036,288.9179693908692,0.00546802394092083,-0.02140757441520691,-0.746928334236145,0.6645374298095703,0.10851931810241036,0.2529661660111383,2.9255884239920804,0.07899986207485199,0.0259539932012558,0.0041460623033344746,0.33984799437224866,0.5161037952080371,-9.64702699005604
26.8,3.4000000953674316,316.0,21.843276977539066,30.91649627685547,-79.78275133275237,40.458980823841344,289.21065013122563,0.005946997087448835,-0.020061343908309937,-0.7470144629478455,0.6644784808158875,0.1051516457770982,0.26260051471218715,2.9140575188493187,0.05677955597639084,0.029677739366889,0.01850851252675056,0.4365948916599155,0.32360128641128544,-9.768644397854805
27.0,3.5,315.0,21.670494079589844,34.311904907226555,-79.78275100948365,40.45898070198467,289.796377822876,0.0071303676813840875,-0.023509621620178226,-0.7477459907531738,0.6635302901268005,0.12109593639614855,0.25615125463151106,2.93235099698951,0.017092730849981308,0.09778521955013277,0.12200380116701125,0.36521592020988464,0.11698039219714702,-9.918666994571684
27.1,3.5,317.0,21.574085235595703,35.36949157714844,-79.78275064870067,40.45898064039209,290.3995424957276,0.0018263711826875808,-0.03724276646971703,-0.7490964531898499,0.6614107489585876,0.12325807134217373,0.2842542184703702,2.9662319212728807,-0.12514552474021912,-0.08810081332921982,0.01124334242194891,0.2752013242989779,0.04696819826960564,-9.92441480755806
27.3,3.5,327.0,21.801958084106445,30.20878982543945,-79.78275052844906,40.45898064836848,290.7038351745605,-0.00637377193197608,-0.03591203317046165,-0.7499168515205383,0.6605259776115417,0.1477787486426303,0.2918348465855664,2.9597633933753698,-0.0916799008846283,-0.1910053789615631,-0.015385030768811703,0.4942668201774359,0.31250228438526395,-9.862462388277056
27.4,3.4000000953674316,332.0,21.763145446777344,31.727577209472656,-79.78275030643168,40.458980642015284,291.29548709106444,-0.0044349790550768375,-0.03043620102107525,-0.7506515383720398,0.6599820256233215,0.13723319058305142,0.17543237811263698,2.9269125363024324,0.1386835128068924,0.11955595016479492,0.007539688143879175,0.19092666590586305,0.21225626707077028,-9.684292464852334
27.6,3.4000000953674316,340.0,21.537776947021484,37.34948348999024,-79.7827500650177,40.45898056417095,291.6101061553955,0.005164819769561291,-0.027951531112194058,-0.7516679763793945,0.6589289307594299,0.12080421591188807,0.18240554461883104,2.9272059323158266,0.15042267739772794,0.12041877955198288,0.0605611652135849,0.15356723366305233,0.1112262112274766,-9.648318639993668
27.7,3.4000000953674316,343.0,21.6279239654541,33.95407485961914,-79.78275000007191,40.45898057728528,291.90464656066894,0.013100162148475649,-0.0273423120379448,-0.7525011897087097,0.6578927636146545,0.06382763180191192,0.1847475522252877,2.963664067927753,0.10247623175382614,0.0917183980345726,-0.02064324356615544,0.2692550348863006,0.19992204073816536,-10.079446713924408
27.9,3.4000000953674316,347.0,21.81447982788086,29.723730087280273,-79.7827498851863,40.45898055014626,292.52224986267083,0.011796542443335056,-0.020362097769975662,-0.7528173327445984,0.6578088402748108,0.02918897717783881,0.19087855261217207,3.0496171967602,-0.056858453899621964,-0.15349972248077393,-0.03293178603053093,0.4389490537717939,0.2764716136269271,-10.130188851356507
28.0,3.4000000953674316,347.0,21.821990966796875,30.08951187133789,-79.78274987699392,40.45898054120585,292.82831828308105,0.0071516474708914765,-0.0163077712059021,-0.7523011565208435,0.6585788130760193,0.04182772004064525,0.13562875199128535,3.0567269944393667,-0.02495864778757096,-0.0998440533876419,-0.047188885509967804,0.2650952708534897,0.3266657024994493,-9.926872977018355
28.2,3.4000000953674316,350.0,21.75563240051269,30.69384765625,-79.78274994934081,40.45898053428153,293.44008700561517,0.005837309639900923,-0.01961600407958031,-0.7515356540679932,0.6593748927116394,0.08980232335787475,0.07624917541012126,3.0630887674452203,0.04271500557661057,0.10368629544973372,0.1312839537858963,0.23686067445203665,0.059066224498674276,-9.974086904525755
28.3,3.4000000953674316,351.0,21.94344139099121,26.25675773620605,-79.78274996534327,40.458980508124256,293.7521578521728,0.002875978359952569,-0.025510594248771667,-0.7513734102249146,0.6593777537345886,0.0983237299462318,0.08741110043845231,3.07447507989735,-0.09974655508995056,-0.002627567620947957,0.08332033455371858,0.3070708057656885,0.11845793791115285,-10.022345144748687
28.51,3.5,353.0,21.915895462036133,27.21096992492676,-79.78275005902066,40.45898042369915,294.36436717224115,-0.0034885008353739977,-0.032311778515577316,-0.7491341829299927,0.661620557308197,0.19762580413301226,0.07902219823048151,3.0115920438972474,0.0700116902589798,0.07328001409769057,-0.0470757968723774,0.28922588931396603,0.6556822049617768,-9.44438588440418
28.61,3.5999999046325684,355.0,21.84703254699707,29.381805419921875,-79.78275012316112,40.45898031458536,294.67584483337396,0.00015225302195176482,-0.03090953454375267,-0.7479725480079651,0.6630095839500427,0.2431722063762949,0.07555320368504526,2.962910157400421,0.163700670003891,0.03314603865146637,0.09362924098968506,0.32520894180983306,0.3683814565837383,-9.272109954357148
28.81,3.9000000953674316,359.0,21.9497013092041,26.76567077636719,-79.78275023132167,40.45898017317099,295.28218524169915,-0.004441278986632824,-0.03428775817155838,-0.7464146018028259,0.6645824909210205,0.2390972409737225,0.0672616306485272,2.9221691963018483,-0.07829787582159042,-0.033139005303382874,-0.008539543487131596,0.20775292430073025,0.6557116603106261,-9.382862066030503
28.9,4.099999904632568,359.0,21.78818702697754,30.328065872192386,-79.78275050500756,40.458979950495774,295.85966937255864,-0.014787329360842703,-0.039629112929105766,-0.746288537979126,0.6642773747444153,0.3259701352652813,0.000880615160813808,2.8197148471908813,-0.1260499805212021,-0.11789528280496595,0.033435843884944916,0.2646226513758302,0.6450833225995303,-9.378282526731489
29.1,4.300000190734863,0.0,21.96597671508789,26.58278083801269,-79.78275057025975,40.4589798671034,296.16723315429687,-0.023903798311948776,-0.03879354149103165,-0.7477800250053406,0.6623811721801758,0.3640386446605083,-0.01560641724456216,2.7973970495821265,-0.16431283950805664,-0.18079537153244016,-0.1806422472000122,0.2413576218299568,0.8920712466537953,-9.116649447083473
29.2,4.5,359.0,21.962221145629886,26.876995086669922,-79.78275074699216,40.458979741846825,296.44431941223144,-0.030894283205270767,-0.034694887697696686,-0.7494660019874573,0.6604109406471252,0.3780881059477411,-0.06431661081778978,2.7045336469071946,-0.11772535741329193,-0.12465722858905792,0.0951894223690033,0.0748586631892249,0.7785135678201914,-8.92589222252369
29.4,4.599999904632568,1.0,21.804462432861328,30.08156013488769,-79.78275096047633,40.45897941277011,297.00453440856927,-0.03399180993437767,-0.025117108598351482,-0.7517491579055786,0.6580934524536133,0.3538159383250232,-0.11270983947431487,2.5930943829198507,-0.08349131792783737,-0.02714204415678978,-0.05036976933479309,0.05903234719298781,0.8042907987535001,-9.167882750630381
29.5,4.699999809265137,2.0,21.74812126159668,31.98998641967773,-79.78275110410691,40.458979315823264,297.26409213256835,-0.0303787961602211,-0.0242274571210146,-0.7520781755447388,0.6579276323318481,0.3348002997159486,-0.12057308970963886,2.558008054374922,0.08199013769626617,0.18022510409355166,0.1242312490940094,0.03221034901449457,0.3948171936348081,-9.3820259141922
29.7,4.800000190734863,4.0,21.70429992675781,32.34781646728516,-79.78275140305081,40.45897901404445,297.8121992797852,-0.023907272145152092,-0.030133949592709538,-0.7510653138160706,0.659106433391571,0.2763920887873105,-0.06051531841114902,2.558102768258498,-0.08746583759784697,0.06717125326395035,-0.00023508137383032598,0.2302463589236141,0.7300886088609696,-9.597927335500717
29.81,4.800000190734863,6.0,21.725584030151367,31.49697685241699,-79.7827516981881,40.458978776082574,298.3607241363525,-0.022426145151257515,-0.03311384469270706,-0.7489768266677856,0.6613881587982178,0.2625616480412377,-0.04070875194065525,2.594304233052563,0.02258964441716671,0.049724414944648736,0.038258105516433716,0.16099747331812975,0.7071651115268469,-9.67705361187458
30.0,4.900000095367432,12.0,21.644201278686523,34.17672348022461,-79.78275180470848,40.45897873387808,298.62119929504394,-0.02169135771691799,-0.0329996719956398,-0.747977614402771,0.6625481247901917,0.2479114586432223,-0.032849871421617584,2.590606271174676,-0.03522434085607529,0.021571405231952667,-0.024686358869075768,0.17387830467894674,0.6852365179359913,-9.777789443135262
30.11,5.0,13.0,21.710559844970703,32.47504425048828,-79.78275199168169,40.45897849981422,298.92902438354486,-0.021011160686612133,-0.0316033810377121,-0.7475450038909912,0.6631261110305786,0.25840149107561233,-0.0394721641200176,2.6602621704264138,0.014174341224133968,-0.034974340349435806,0.033522121608257294,0.15096993701532485,0.7186007304489613,-9.864196672439576
30.3,4.900000095367432,15.0,21.610395431518555,34.14491653442383,-79.7827522292124,40.45897847655928,299.4578882904052,-0.020110063254833214,-0.0252825990319252,-0.7486649155616759,0.662161111831665,0.2293978761342937,-0.059959482342534724,2.725376309172146,-0.04764341190457344,-0.006441030651330948,0.025177491828799248,0.022737281788140537,0.6164020720124245,-10.133198997974397
30.51,4.800000190734863,15.0,21.67800521850586,31.52878379821777,-79.78275246385914,40.458978424826576,300.0124880523682,-0.029919134452939037,-0.02242084965109825,-0.7508054971694946,0.6594644784927368,0.21666636394999164,-0.0813407293352829,2.791684972244581,-0.06714902818202972,-0.11446429044008255,0.042413659393787384,0.08399568225257101,0.5293669613823295,-10.06073913216591
30.6,4.699999809265137,17.0,21.659225463867188,32.47504425048828,-79.78275283179725,40.458978365625306,300.2499624938965,-0.03378394991159439,-0.022681502625346184,-0.7507625818252563,0.6593176126480103,0.23648671038148866,-0.10950843198559328,2.7599379501079584,-0.02943371422588825,-0.04383623227477074,0.053370621055364616,0.0212534000677988,0.5306003218889237,-9.89382568359375
30.7,4.699999809265137,15.0,21.546541213989254,34.50274658203125,-79.78275304746481,40.458978415806726,300.7809874267578,-0.03269420564174652,-0.024903234094381332,-0.7503105401992798,0.6598069071769714,0.2112980119944342,-0.10185006518859864,2.7391385344459867,0.050906084477901466,0.029518937692046162,-0.10754872113466264,-0.010269126808270813,0.3904664997383953,-9.7703623098135
30.91,4.599999904632568,17.0,21.620410919189453,33.071426391601555,-79.78275311839431,40.458978450269406,301.0570894927978,-0.031829431653022766,-0.0253240205347538,-0.7498236894607544,0.6603862643241882,0.1783002000505106,-0.07288697413471491,2.766815938992129,-0.010339824482798576,-0.019948864355683327,-0.022911997511982918,0.16986303996294738,0.6783402387052775,-10.026824111938476
31.01,4.599999904632568,18.0,21.471418380737305,37.381290435791016,-79.78275316348463,40.45897850610515,301.33501116943364,-0.0327700637280941,-0.023778585717082024,-0.7490444183349609,0.6612815260887146,0.15380379354707835,-0.0482394435388204,2.782655764694026,-0.02705429121851921,-0.09905920922756196,0.004092614632099867,0.08228083094581963,0.5675059736520052,-9.956359316110614
31.2,4.699999809265137,20.0,21.456392288208008,35.09117889404297,-79.78275328330406,40.45897877728172,301.8657232971192,-0.031623147428035736,-0.017000874504446983,-0.7479170560836792,0.66282057762146,0.11871896862546932,-0.05798283047468675,2.842206790395987,0.02643570490181446,-0.00037906243233010173,-0.05768182873725891,0.02388435018248856,0.7325315755605698,-10.376211619377136
31.3,4.699999809265137,20.0,21.57158088684082,33.993831634521484,-79.78275329655534,40.45897913903799,302.4058348388672,-0.030542863532900814,-0.016311241313815117,-0.7484077215194702,0.6623345613479614,0.06464363418099453,-0.049919498063338376,2.900720419786252,-0.05478423088788986,0.023818299174308773,-0.05067708715796471,0.007247827083338053,0.6585518722236157,-10.459696995019911
31.51,4.800000190734863,21.0,21.561565399169922,33.874557495117195,-79.78275325985767,40.45897924869391,302.69755999755864,-0.030187685042619705,-0.015066344290971756,-0.7488930821418762,0.6618314981460571,0.07133521042225399,-0.017245967730978886,2.9361594168694767,0.03562821075320244,-0.08372876793146132,0.14323468506336212,0.03075452707707882,0.3948168281838298,-10.20641198515892
31.6,4.800000190734863,21.0,21.576589584350586,33.63600540161133,-79.78275324878483,40.45897950802507,302.9567686767578,-0.030380107462406162,-0.013228221796453,-0.7493813037872314,0.6613091230392456,0.051922030378502335,-0.01217207279825012,2.9228746298493897,0.09231164306402206,-0.038285855203866966,-0.10356740653514862,0.15067290759645402,0.7353951032459736,-10.205025025606156
31.8,4.800000190734863,21.0,21.669240951538086,31.75938415527344,-79.78275298944014,40.4589799615795,303.5191008300781,-0.025210317224264145,-0.013090759515762327,-0.7502195239067078,0.6605784893035889,0.03591966271031146,0.002743584770958353,2.94689010483137,0.11012091487646104,0.11682218313217164,-0.02559964917600155,-0.04698821584694088,0.6137526255100966,-10.016870981454849
31.9,4.800000190734863,21.0,21.590362548828125,33.381546020507805,-79.78275288806861,40.45898008484572,303.8139921875,-0.019441444426774986,-0.01491863466799259,-0.7506349086761475,0.6602627038955688,0.031499784898922564,0.032200524153384036,2.9577458932948986,0.13351838290691376,0.18643485009670252,0.12392615526914595,-0.11580907613039015,0.4942224909737706,-9.873621214628221
32.11,4.800000190734863,21.0,21.616655349731445,32.48299789428711,-79.78275265716809,40.458980475577825,304.37981097412114,-0.014375109225511553,-0.018005246296525,-0.7511056661605835,0.6597799062728882,0.02269959214040409,0.09856240443517482,2.9590412272601863,0.09364085644483566,0.0365317352116108,-0.03751465305685997,0.22276934154331685,0.6668091639876366,-10.113020256757736
32.2,4.900000095367432,21.0,21.67800521850586,30.598426818847656,-79.78275260827185,40.4589808457093,304.9591643066406,-0.016206467524170876,-0.01967038214206696,-0.7498853206634521,0.6610767245292664,0.02252088550624172,0.09370318873783147,2.9806529794862424,-0.0902668759226799,-0.008754989132285118,-0.023379161953926086,0.03891040619462729,0.4926574471592903,-10.12019128203392
32.41,5.0,23.0,21.6917781829834,31.576494216918945,-79.78275250904079,40.45898093662018,305.25610415649413,-0.018609942868351936,-0.023465842008590698,-0.7490545511245728,0.6618310809135437,0.03905001169633551,0.09036237497228444,2.9541926002364542,-0.18895001709461207,-0.0037121099885553117,-0.10161857306957243,-0.08818887591362,0.7954881079494953,-9.55873344898224
32.5,5.0,24.0,21.664234161376953,30.93239974975586,-79.78275242205125,40.45898101484293,305.54946963500976,-0.01931404136121273,-0.0265707578510046,-0.7482574582099915,0.662594735622406,0.07856802771278057,0.09134854011075584,2.9199386560454648,-0.05873736366629601,0.029765926301479336,-0.00919602531939745,0.04996220109052956,0.8407923348248005,-9.600766743421557
32.71,5.099999904632568,24.0,21.64795684814453,31.63215637207031,-79.7827522538443,40.458981283704425,306.1350485534668,-0.0175754576921463,-0.023685324937105186,-0.7474600672721863,0.6636517643928528,0.1086570992632773,0.09558706411673007,2.906100593790518,0.013961582444608213,0.029717734083533287,0.003396713640540839,0.014369422830641269,0.6977143299579621,-9.616657721400262
32.8,5.099999904632568,23.0,21.7744140625,28.42759132385254,-79.78275204942949,40.45898141401841,306.7288634033203,-0.01997697539627552,-0.02165221981704235,-0.7475178241729736,0.6635881662368774,0.12515996611675442,0.07296561980942838,2.9050470192470894,0.04523969814181328,0.027853352949023247,0.06949213147163391,-0.009633504773955793,0.6170341560244561,-9.65658718764782
33.0,5.199999809265137,21.0,21.842023849487305,26.98832130432129,-79.78275199104502,40.45898144510161,307.01758258056634,-0.02001173235476017,-0.023405542597174644,-0.7478790283203125,0.6631203889846802,0.12720267297242982,0.061289504897309416,2.8626783591529943,-0.11773493140935898,0.012368090450763702,-0.13793928921222687,-0.022266973787918688,0.7169424600899219,-9.455197970867156
33.1,5.199999809265137,21.0,21.71556663513184,30.8608341217041,-79.78275183466562,40.458981588914256,307.31884448242187,-0.020872358232736588,-0.02718635275959969,-0.7483118772506714,0.6624610424041748,0.14593551906715832,0.07685651315953282,2.8187910750059104,-0.06369239836931229,0.05794027447700501,-0.045419685542583466,-0.04739612309262157,0.7669084527343512,-9.106768822073935
33.3,5.199999809265137,21.0,21.58785820007324,32.252395629882805,-79.78275173115429,40.45898165226153,307.89551608276366,-0.022459661588072773,-0.030732227489352226,-0.7490584254264832,0.6614095568656921,0.18633718245335826,0.09128180067401062,2.7781812305428666,-0.05669666081666945,-0.04726548492908478,0.08759796619415282,0.13246248534880578,0.9393323173373941,-9.562610152959826
33.4,5.199999809265137,21.0,21.785682678222656,27.990243911743164,-79.78275168111118,40.45898165467325,308.17499606323236,-0.022028163075447086,-0.029252083972096443,-0.7493752837181091,0.6611322164535522,0.1988278724999903,0.0817305712480871,2.7970373477590376,0.02264934964478016,0.04807217419147492,-0.10193778574466704,0.18720723375678064,0.8874647370725871,-9.92057435631752
33.61,5.199999809265137,21.0,21.646705627441406,31.62420463562012,-79.78275154141728,40.45898151807853,308.77494494628905,-0.023062238469719887,-0.02582870237529277,-0.7488669157028198,0.6618152856826782,0.2052084932311853,0.07928919388974187,2.8288812240652828,-0.011639936827123163,-0.0643228217959404,-0.032116342335939414,0.0535195557307452,0.7127817276120186,-9.704612708687783
33.71,5.199999809265137,21.0,21.53151512145996,35.38539505004883,-79.7827514958217,40.45898148985254,309.3595511169433,-0.022828448563814163,-0.0237656719982624,-0.7480472326278687,0.6628268957138062,0.20333368223334392,0.04273614695778933,2.8877542445014983,-0.0441887192428112,-0.0473383404314518,0.09629474580287932,0.06467486004810781,0.7863658668100835,-9.766583254337313
33.9,5.099999904632568,21.0,21.709306716918945,30.21674156188965,-79.78275145969533,40.458981472289466,309.65108172607415,-0.02311873994767666,-0.024408454075455662,-0.7476316690444946,0.663262128829956,0.20433169176168803,0.05133594314594462,2.9246653743998867,-0.036751650273799896,-0.02399412915110588,-0.1146339476108551,0.1887192140892148,0.7536482101678849,-10.077722954750062
34.0,5.099999904632568,21.0,21.580345153808594,32.97600555419922,-79.78275142090634,40.4589814528461,309.94510333251947,-0.0228335615247488,-0.02348874695599079,-0.7473579645156859,0.6636136174201965,0.21454410473852675,0.050375567574741736,2.936561216379624,0.06903346627950667,0.01525580883026123,0.008936993777751923,-0.05979690718464554,0.5735829117894173,-9.883724033832552
34.21,5.0,19.0,21.550296783447266,33.30202865600586,-79.7827514124568,40.45898146564213,310.53859774780267,-0.0219841618090868,-0.02456226386129856,-0.7473101019859314,0.6636573076248169,0.2151314692990772,0.04129413742433145,2.9483901610536103,0.1255122274160385,0.06721536070108414,0.08661610633134842,0.05536191745195538,0.5545361184328794,-9.837746207714082
34.3,4.900000095367432,20.0,21.629175186157227,31.830951690673828,-79.78275134708655,40.45898143752834,311.1323973388672,-0.01893350854516029,-0.02373400144279003,-0.7471925616264343,0.6639137864112854,0.22339842790198366,0.05897770952863099,2.9943581229698144,0.053654417395591736,0.04954344779253006,0.18129348754882807,0.13391802177764475,0.6194886709749698,-9.991006407737732
34.5,4.900000095367432,20.0,21.55280113220215,33.246368408203125,-79.78275131215482,40.45898140811986,311.43445269775384,-0.017042646184563637,-0.02268546260893345,-0.7470315098762512,0.6641828417778015,0.2182799229825664,0.06485771899642165,3.039439799175437,0.0790625512599945,-0.0019251798512414093,-0.06629392504692078,0.07796660905703902,0.5628497992828488,-10.200285272598268
34.6,4.900000095367432,20.0,21.580345153808594,32.53070831298828,-79.78275133978805,40.45898138825298,311.7269751281738,-0.01675673946738243,-0.021925292909145355,-0.7470319271087646,0.6642151474952698,0.2168794760970315,0.065596992603915,3.073138335902556,0.07053854316473007,-0.007821327075362206,0.0274764783680439,0.11871230092830955,0.5580758766084909,-10.325421534776687
34.8,4.900000095367432,19.0,21.597875595092773,31.99793815612793,-79.78275130682395,40.458981366698495,312.33308856201165,-0.02037940546870232,-0.02241907455027104,-0.7460631728172302,0.6651855707168579,0.23212812291619364,0.06400835781491865,3.129719984201122,0.046466097235679626,0.04590815305709839,-0.1013338789343834,0.08128137733787298,0.8856442795693875,-10.260712738037107
34.9,4.900000095367432,17.0,21.789438247680664,28.1015682220459,-79.78275126629853,40.45898131299105,312.64859072875976,-0.020166095346212387,-0.022888857871294015,-0.7456790208816528,0.665606677532196,0.2567637855650454,0.06157131162336092,3.159358454168692,0.06542260944843292,0.09784360229969023,0.007976573891937733,0.17479454509913922,0.8532843263447285,-10.178528952598572
35.1,4.900000095367432,16.0,21.629175186157227,32.196731567382805,-79.78275126381088,40.45898122496368,313.26088778686517,-0.021629758179187768,-0.030074257403612137,-0.7458147406578064,0.6651226878166199,0.25434477206924233,0.0744266924504347,3.1019975253414738,-0.28212282061576843,0.02453258261084557,-0.06921843439340591,0.08350842646323145,0.8897589652240276,-9.510785111188891
35.2,4.900000095367432,15.0,21.649208068847656,31.13914680480957,-79.78275123059731,40.45898115852408,313.57051150512694,-0.023767942562699318,-0.03380696475505829,-0.7463903427124023,0.6642240881919861,0.2836350536921565,0.08827033752438895,3.0698039022746766,-0.14563678205013275,-0.034905429929494865,0.07733860611915587,0.15616834927350284,0.7242582039535046,-9.577084350585938
35.4,4.800000190734863,14.0,21.67424964904785,30.272403717041016,-79.7827511668595,40.45898104379891,314.19040744018554,-0.02219466306269169,-0.032775286585092545,-0.7473408579826355,0.6632607579231262,0.3118184410312693,0.09313893907570917,3.0397536042385607,0.10939185321331024,0.07473757117986679,0.10589786618947984,0.2288758446648717,0.5590578799322248,-9.49397670507431
35.5,4.800000190734863,14.0,21.65546989440918,31.194808959960927,-79.78275113793536,40.45898099101685,314.49409548950194,-0.019225211814045903,-0.03173278272151947,-0.7474327087402344,0.663300633430481,0.285940920003099,0.08857435599831713,3.006380597430352,0.036739740520715714,0.0431535579264164,-0.1485150158405304,0.2371631034091115,0.6019617151468992,-9.491304527521132
35.7,4.800000190734863,12.0,21.69303131103516,28.69795227050781,-79.78275112151198,40.45898095672647,315.1083151550293,-0.016430038958787918,-0.030659127980470657,-0.7471123933792114,0.6637870669364929,0.2402854218673765,0.08488315845032554,2.995721900086552,0.062463633716106415,0.02994295209646225,0.0019380231387913227,0.20081083578988912,0.6930869896709919,-9.672421447634695
35.8,4.800000190734863,12.0,21.58284950256348,32.79311752319336,-79.78275115670723,40.4589808776218,315.426842376709,-0.017698660492897034,-0.030962554737925533,-0.7467657327651978,0.6641303300857544,0.2456016955380898,0.09466283913812457,3.0178351924331035,0.02600874938070774,0.0903482437133789,-0.04236314445734024,0.2467083906009793,0.6364230845868588,-9.633375495672228
36.0,4.699999809265137,12.0,21.61164665222168,31.84685516357422,-79.7827511209695,40.458980810746866,316.0315977783203,-0.02138059213757515,-0.03269878402352333,-0.7457484006881714,0.665081262588501,0.2482470308206139,0.08036943918614857,3.0237159185170976,-0.021335504949092858,-0.03758692741394043,-0.1569332331418991,0.1930126235447824,0.6141602495312691,-9.849517822265623
36.1,4.699999809265137,12.0,21.58660697937012,30.900592803955078,-79.78275104978349,40.45898085920044,316.66122119140624,-0.022968389093875885,-0.03186873719096184,-0.7458022832870483,0.6650081872940063,0.2443894641175868,0.0724989634543165,3.0680255937809253,-0.07045019418001175,0.009887401945888996,-0.15356171131134033,0.09353501259349288,0.7128613228350879,-9.863673931360244
36.3,4.699999809265137,11.0,21.411319732666016,34.08925628662109,-79.78275110659527,40.458980824367906,316.97969119262694,-0.022367881610989567,-0.03096848540008068,-0.7459990978240967,0.6648504137992859,0.2498653677760725,0.06489945361139249,3.0848015299998703,-0.061936434358358376,-0.09082619845867156,-0.03471152484416962,0.10888019867241384,0.7021158946305514,-9.927117390632633
36.4,4.599999904632568,11.0,21.55906105041504,31.80709648132324,-79.78275109836986,40.45898081239207,317.2914854736328,-0.020832696929574013,-0.03127962350845337,-0.7462285757064819,0.6646281480789185,0.23812073436875936,0.060855783059361374,3.1339353671433394,0.0011040830286219716,0.012445744127035141,-0.02303291670978069,0.18660990413278344,0.7080962806195021,-10.226370871067047
36.6,4.5,10.0,21.652965545654297,30.67794418334961,-79.78275111769057,40.458980837875686,317.92736499023437,-0.018658852204680443,-0.02910766936838627,-0.7460012435913086,0.6650465130805969,0.22095005160015616,0.06960171397277351,3.1908748752166938,-0.03827107325196266,-0.016305450350046158,-0.2218610793352127,0.2457359620928765,0.8426163006573916,-10.122952337265016
36.71,4.5,9.0,21.560312271118164,32.300106048583984,-79.78275111346649,40.458980837724866,318.2476965637207,-0.01954992115497589,-0.028580974787473682,-0.7459101676940918,0.6651458740234375,0.19923234431055506,0.06279462559427132,3.1957584588864023,-0.08055809885263443,-0.06271049380302429,-0.08308940380811691,0.17646016102284193,0.7867028126120568,-9.852097613811491
36.9,4.5,9.0,21.542783737182614,32.14902114868164,-79.78275118254291,40.45898088457349,318.8891417236328,-0.023029567673802376,-0.03044628538191318,-0.7459689378738403,0.6648857593536377,0.20622264467410656,0.05070902870512471,3.2303211024022223,-0.0416494645178318,0.019899893552064896,-0.2002064734697342,0.15617505529895426,0.7694972343742847,-10.071731897592548
37.0,4.5,9.0,21.649208068847656,30.868785858154297,-79.7827512516917,40.4589809558671,319.5388762207031,-0.022777652367949486,-0.02785342931747436,-0.7468242645263672,0.6640474200248718,0.2085929555782596,0.04208247106109612,3.2660772312788366,0.02831960469484329,0.013860118575394157,0.0750999003648758,0.1652005432918668,0.5460692770779133,-10.110411229133607
37.21,4.5,10.0,21.490198135375977,33.755279541015625,-79.78275124626316,40.45898099750639,319.8666426391601,-0.021862205117940903,-0.026790507137775414,-0.7471882700920105,0.6637122631072998,0.17773741494340467,0.03705309510977744,3.2775308795098583,0.011437538079917431,-0.0433993823826313,-0.07629747688770294,0.02473779698833824,0.5515890486538411,-9.933785555362702
37.3,4.5,10.0,21.65546989440918,30.924448013305664,-79.78275128817013,40.45898109179247,320.19454638671874,-0.02194678597152233,-0.02760198712348938,-0.7473461031913757,0.6634985208511353,0.15288787883608645,0.03424352322599358,3.2758194644623084,-0.0670408234000206,0.05562301725149155,-0.10539070516824722,0.1809577844850719,0.7186954553425312,-9.926427419185641
37.5,4.400000095367432,9.0,21.516490936279297,33.26227188110352,-79.78275125379425,40.458981239762394,320.8494307250976,-0.021573636680841446,-0.027540726587176326,-0.7468127012252808,0.6641136407852173,0.13229113690118915,0.05292116522467677,3.26992152349435,0.017989138141274452,0.011803727596998216,-0.15611684322357178,0.20527534939348704,0.6030145794153213,-9.767057463526728
37.61,4.400000095367432,9.0,21.422588348388672,34.45503616333008,-79.78275135010686,40.45898139908497,321.1834112854004,-0.019267946481704712,-0.026756757870316502,-0.7463982701301575,0.6646822094917297,0.11469143776384808,0.034583693084212615,3.27138268966896,0.07260510325431824,0.05100838840007782,0.03047622740268708,0.17917548006400466,0.5322801538556814,-9.831349353790284
37.8,4.300000190734863,7.0,21.58159828186035,31.60830116271973,-79.78275138417213,40.45898169216545,321.8516318054198,-0.012331303209066393,-0.02580152451992035,-0.7460970878601074,0.6652228236198425,0.07553525522238486,0.061119366742762235,3.362316887158585,0.07128378748893738,-0.01551995798945427,0.0054784961976110935,0.30712788920849565,0.6386412989348174,-10.261598006486896
37.9,4.300000190734863,9.0,21.501466751098643,32.761306762695305,-79.78275135948964,40.45898191038014,322.530358001709,-0.007117494475096464,-0.022339031100273132,-0.7462037801742554,0.6653046607971191,0.037496016652513724,0.08119350165301073,3.4070139656651293,-0.028622597455978394,-0.011070488020777702,-0.018263699486851692,0.2241591881588101,0.5932172406837345,-10.106920441389084
38.1,4.199999809265137,9.0,21.537776947021484,32.72949981689453,-79.7827514138243,40.458982135545966,322.8663260192871,-0.007621375843882561,-0.020903564989566803,-0.7466077208518982,0.6648924350738525,0.016181891612181178,0.07166302232163595,3.3743858382668614,-0.020166879519820213,-0.04296662658452989,0.01096837781369686,0.26692660052329303,0.3927771000936627,-9.824981735944748
38.2,4.199999809265137,8.0,21.49896240234375,33.11913681030273,-79.78275141127902,40.45898224122712,323.20393817138665,-0.009428318589925766,-0.022222340106964108,-0.7473425865173341,0.6640002727508545,0.013623761895196077,0.0601377692403476,3.3793473716865936,-0.07242783159017563,-0.01389211229979992,0.017443744465708733,0.29162037894129755,0.4390514896810055,-9.856791758537293
38.4,4.099999904632568,6.0,21.550296783447266,32.42733383178711,-79.78275146609295,40.458982547152466,323.89255587768554,-0.013486993499100208,-0.02359637059271336,-0.7481376528739929,0.6629866361618042,0.04370176554012835,0.0638937780761625,3.385073904419176,0.02410845831036568,-0.031137149780988693,-0.02392205037176609,0.21681488430127505,0.4848412912711501,-9.732642506361008
38.51,4.0,6.0,21.54403686523437,32.29215240478516,-79.78275148468845,40.45898285336608,324.5818945617676,-0.009723106399178505,-0.021366577595472336,-0.7474578022956848,0.6638944745063782,0.0252221666009438,0.05375414815024201,3.377799472348582,0.00020513197523541749,0.006876996252685785,-0.027093784883618355,0.26880147367715834,0.6011297294497491,-9.703445604443553
38.71,4.0,5.0,21.401302337646484,34.669734954833984,-79.78275146829458,40.45898297062425,324.9197508544922,-0.007331113331019878,-0.021992731839418408,-0.7469701170921326,0.6644533276557922,0.005307784546263877,0.06446730053707295,3.383926716497612,-0.0313098281621933,0.01700899563729763,-0.02426975779235363,0.2275642593763769,0.5372043134272099,-9.827416516542437
38.8,3.9000000953674316,4.0,21.536523818969727,32.554561614990234,-79.7827515652846,40.45898317207243,325.2786108703613,-0.007868598215281963,-0.023641182109713558,-0.7468205690383911,0.6645586490631104,0.0011016504902384287,0.07868818560699241,3.426969685244477,-0.08908059448003769,-0.011910119093954565,-0.1013820618391037,0.3168218053132296,0.3220173853263259,-9.978294560909273
39.0,3.9000000953674316,4.0,21.576589584350586,31.870710372924805,-79.78275152950118,40.45898341447175,325.96564547729486,-0.010479352436959743,-0.021812504157423973,-0.7467566132545471,0.6646570563316345,0.027313641061192467,0.08396496746785957,3.4373551832935094,0.02087816409766674,-0.0337233766913414,-0.029948176816105843,0.3436307043582201,0.5060523949563503,-9.80569352567196
39.11,3.9000000953674316,2.0,21.48644256591797,33.278175354003906,-79.78275156178715,40.45898359323609,326.32312075805663,-0.007997636683285236,-0.018358979374170303,-0.7470712065696716,0.6644423604011536,0.0188453799193088,0.07512071145119492,3.432276972080428,0.04003127664327622,-0.019254481419920918,0.03849992901086807,0.23887480270117525,0.5112722409144044,-9.747116703987123
39.3,3.9000000953674316,2.0,21.473920822143555,33.127090454101555,-79.7827515339958,40.45898386416414,327.0312010498047,-0.0021719718351960182,-0.01858322322368621,-0.7477073073387146,0.6637648940086365,-0.014494359330375572,0.08369209990780754,3.447390656372001,0.011391723528504372,-0.029157303273677826,-0.0008579834247939289,0.24101965276524426,0.21108320597559216,-9.71950849056244
39.4,3.9000000953674316,2.0,21.617908477783203,29.93842887878418,-79.78275150338933,40.45898396821807,327.37548510742187,-0.0022905699443072076,-0.020130956545472145,-0.7480589747428894,0.6633229851722717,-0.01957678671434438,0.10637432176917096,3.4350579888690542,-0.020481426268816,-0.0680503323674202,-0.003960929811000824,0.3230598342418671,0.26261248826980593,-9.652048578858377
39.6,3.799999952316284,2.0,21.656721115112305,30.0736083984375,-79.78275146025119,40.458984300548416,328.0814825744629,-0.006227398756891489,-0.01859349198639393,-0.7487477660179138,0.6625649929046631,-0.017669426828905217,0.09788302209937824,3.3680364714651803,-0.0059090876020491115,-0.013222284615039824,0.00887403916567564,0.3442524095624685,0.501424031406641,-9.26323446571827
39.71,3.799999952316284,2.0,21.644201278686523,29.69192314147949,-79.78275142072013,40.458984408444266,328.4151083679198,-0.0076893377117812625,-0.016396144405007362,-0.7493564486503601,0.6619191765785217,-0.015002401193364176,0.0863805307951179,3.3052850052427685,-0.016238298267126083,-0.024907134473323825,0.023891115561127663,0.21238110512495045,0.40616572558879854,-9.178000772595404
39.9,3.9000000953674316,3.0,21.435108184814453,34.081302642822266,-79.78275134866277,40.45898460038653,329.09835498046874,-0.005717814434319736,-0.018611421808600426,-0.7500071525573729,0.6611430644989014,-0.010170050961354355,0.06364018758751692,3.238018135527588,0.05229876562952995,0.1269764006137848,0.10201013833284378,0.1082001583557576,0.2158166001364589,-9.323112877607349
40.0,3.9000000953674316,3.0,21.52901268005371,32.47504425048828,-79.78275130299902,40.458984711948254,329.42102496337884,-0.002822621027007699,-0.020450908690691,-0.7506966590881348,0.6603244543075562,-0.01909476328538293,0.08808274798750852,3.22481639546533,0.05948348343372345,0.09745246171951294,-0.01386367343366146,0.34117100000381473,0.4175697695463896,-9.612758213281632
40.2,3.9000000953674316,5.0,21.64795684814453,30.45529365539551,-79.78275132666819,40.45898499805907,330.0985838623047,-0.00031496403971686965,-0.018387217074632645,-0.7511394023895264,0.6598875522613525,-0.03916662302089567,0.10947455536907012,3.2562137906906266,-0.041532140225172036,-0.02458390407264233,-0.061258789151906974,0.2035593925975263,0.3555029641091824,-9.741823804378509
40.3,3.9000000953674316,5.0,21.5352725982666,32.673839569091804,-79.7827511979115,40.45898520783629,330.79282061767583,-0.001535877352580428,-0.013522175140678884,-0.7509399056434631,0.6602303385734558,-0.0337406448495081,0.08622334444132501,3.2646942425546173,-0.0880783423781395,-0.0319768562912941,-0.0321764200925827,0.15988688606768847,0.3052537835016847,-9.56595066726208
40.5,3.9000000953674316,7.0,21.564069747924805,30.924448013305664,-79.78275117010891,40.45898529248577,331.1187178344726,-0.001733704935759306,-0.014800535514950752,-0.7505462169647217,0.6606500148773193,-0.032696497003708136,0.0701317803395855,3.2510696357212363,-0.1012444719672203,0.04480377212166786,-0.11125568300485612,0.18880027111619715,0.4298306133225561,-9.626000987291336
40.6,3.9000000953674316,6.0,21.54403686523437,32.60227203369141,-79.7827511541142,40.4589854838906,331.4743429870605,-0.0024569015949964523,-0.016632994636893272,-0.7500337958335876,0.6611858010292053,-0.01342393043479962,0.0832812084266487,3.2587707957254435,-0.05517789348959923,-0.005617494694888592,-0.09306911379098892,0.2773047870397568,0.42304678335785867,-9.524224351644516
40.8,3.9000000953674316,6.0,21.622915267944336,30.002042770385746,-79.7827510963699,40.45898570568312,332.1371428222656,-0.006617648992687464,-0.01582396775484085,-0.7493247389793396,0.6619806289672852,0.010947181846916941,0.0807320810160923,3.231070825742734,-0.05250721424818039,-0.04796084016561508,-0.02123380824923516,0.2180427447706461,0.38025864992290737,-9.611201099753384
40.9,3.9000000953674316,4.0,21.58785820007324,30.80517196655273,-79.78275105564563,40.45898576930293,332.45936267089843,-0.007937353104352951,-0.015891844406723976,-0.7490845918655396,0.6622362732887268,0.021145601239310426,0.07426905409642362,3.208752515462128,-0.08318411558866501,-0.02227702364325524,-0.07105310261249542,0.19018361270427706,0.3377639736235142,-9.5719803160429
41.1,3.799999952316284,4.0,21.49270248413086,33.27022171020508,-79.78275102470958,40.4589859529296,333.11435382080083,-0.005687112919986248,-0.01885433867573738,-0.7476165890693665,0.6638386249542236,0.03572894938354298,0.08947494817382799,3.1977533376045066,-0.027971629053354263,0.0691925510764122,0.017730357125401497,0.16518555980175734,0.3219987473264337,-9.740621032118797
41.2,3.799999952316284,4.0,21.456392288208008,33.127090454101555,-79.78275091114719,40.45898611171514,333.7656943054198,0.0002715993032325059,-0.020743053406476968,-0.7455641627311707,0.6661109924316406,0.04694001459072045,0.13373458753664488,3.272578715942556,0.07637428492307663,0.03850317373871803,0.055918239057064056,0.18693765884265304,0.2665915916115046,-10.07902220606804
41.4,3.700000047683716,4.0,21.49270248413086,32.47504425048828,-79.78275085522999,40.45898615852405,334.09508959960937,0.002843625610694289,-0.01959635503590107,-0.7452086210250854,0.666537344455719,0.03871135363132127,0.1418608433354469,3.3095545560830124,0.10620923340320587,-0.007252525072544812,0.041849836707115166,0.3189043642580509,0.3593712627142668,-10.179676176309586
41.5,3.5999999046325684,4.0,21.524003982543945,31.22661590576172,-79.78275080998297,40.45898619486583,334.4278837890625,0.00538310781121254,-0.017001541331410408,-0.7449589967727661,0.6668719649314879,0.038467183769273314,0.1439485500319344,3.3363026063713166,0.04277163743972778,-0.06875621527433395,-0.0594077929854393,0.2285745486058295,0.34163048151880504,-10.065069580078122
41.7,3.5999999046325684,4.0,21.562816619873047,30.48710060119629,-79.78275080673639,40.45898642365432,335.0700194091797,0.004180741496384144,-0.014266437850892544,-0.7449878454208374,0.6669124960899353,0.039215421333067456,0.11951467407820948,3.312335427535192,0.024510353803634644,-0.10019485652446747,0.0931154116988182,0.2765450875461102,0.1874410127475858,-9.801730867624283
41.81,3.5999999046325684,4.0,21.68927383422852,28.037954330444336,-79.7827508945348,40.45898650814888,335.38965289306634,0.001394488150253892,-0.013982541859149931,-0.7454143762588501,0.6664533019065857,0.047822195803145534,0.09448090363502976,3.2806532005149687,-0.023490723222494125,-0.033445388078689575,0.10427641868591307,0.1815287650935352,0.13485477313399316,-9.690794568657877
42.0,3.5999999046325684,3.0,21.619159698486328,29.81915283203125,-79.78275090171522,40.458986486798295,336.0381590576172,-0.004672275390475988,-0.018469441682100296,-0.7471425533294678,0.6643908023834229,0.10665952224938716,0.06413529520802716,3.1896504105676167,-0.03734210878610611,-0.017354641109704968,-0.07904309034347534,0.2226003570109606,0.3396866477653384,-9.314350824952124
42.11,3.5,2.0,21.53026390075684,31.902517318725586,-79.78275095849115,40.45898648919779,336.66604296875,-0.005011903587728739,-0.019216671586036682,-0.7490869164466858,0.6621739864349365,0.14183848093103885,0.05899965844379058,3.0906689162006415,0.06720992922782898,0.05311346426606178,-0.020519670099020004,0.19426820347085602,0.6029822735488415,-9.213912616968155
42.3,3.5,3.0,21.546541213989254,31.60034942626953,-79.78275095816086,40.45898648657568,336.98751513671874,-0.005637766793370247,-0.017770241945981983,-0.7495700120925903,0.6616625785827637,0.14715930243643713,0.06842168549897992,3.089490231180458,0.10887335985898973,0.026325071230530742,-0.002900505671277643,0.21890595825389028,0.3149203638732433,-9.461995359063149
42.4,3.5,3.0,21.665485382080078,28.42759132385254,-79.78275096156626,40.458986449720065,337.2953535766601,-0.005392005667090416,-0.015743045136332512,-0.7500129938125609,0.6612138152122498,0.14544778015910612,0.06568718105002565,3.0641874316730298,0.08707097172737123,-0.025430452078580856,-0.011653429828584194,0.23609013933688405,0.235578142516315,-9.548124260902405
42.6,3.4000000953674316,4.0,21.511484146118164,31.60034942626953,-79.78275085312323,40.458986343575695,337.9246336669922,-0.0038535690400749454,-0.013718433678150177,-0.7502288222312927,0.6610247492790222,0.14895579496041506,0.0722444127320228,3.058837869723164,-0.02476378157734871,-0.027662642300128937,-0.06338020414113997,0.21999618988484146,0.43962901186198,-9.6228048992157
42.7,3.4000000953674316,5.0,21.666736602783203,28.181087493896484,-79.78275089930487,40.45898623630021,338.54288165283197,-0.004207218531519175,-0.018911823630332947,-0.7495564222335815,0.6616568565368652,0.16972245027835542,0.0904092249923296,3.0454486593116084,-0.003221978899091482,0.039275575429201126,0.025297999382019043,0.2492124972492457,0.40190215520560746,-9.715993729233745
42.9,3.4000000953674316,5.0,21.602882385253906,28.92855262756348,-79.78275088075435,40.45898615374024,338.8455244750976,-0.005189238116145134,-0.021985143423080444,-0.749146580696106,0.6620190143585205,0.19094286626870785,0.09207143639259917,2.992999668057436,0.03132769837975502,0.1003701239824295,0.14129164814949036,0.22487369963899256,0.20645082246512167,-9.369522228240967
43.0,3.4000000953674316,4.0,21.596622467041016,30.21674156188965,-79.78275086427406,40.458986069383286,339.1433684082031,-0.004932314623147249,-0.0244612917304039,-0.7489174008369446,0.6621934175491333,0.19060693780150406,0.10227583122581092,2.9513951160806986,-0.10512728244066236,-0.04873242601752281,-0.03351089730858803,0.31415262445807457,0.3816186391934753,-9.381343544125556
43.2,3.299999952316284,3.0,21.56907844543457,31.377700805664066,-79.78275082605569,40.45898599158621,339.74129168701165,-0.005609124898910522,-0.023984394967556,-0.7484925985336304,0.6626855134963989,0.2170539872435524,0.11588744382406167,2.9145581366876194,0.124278225004673,0.06922298669815062,0.10112331807613373,0.2988039026409388,0.3426476046815515,-9.494290700554847
43.3,3.299999952316284,1.0,21.451385498046875,33.86660385131836,-79.78275078133852,40.45898590965518,340.04056231689447,-0.004300265107303858,-0.02098905295133591,-0.7481240034103394,0.6632129549980164,0.21668710106434155,0.1120363578867306,2.9193518016877484,0.13192160427570346,-0.019522398710250854,0.11611378192901613,0.2636562528088689,0.15988290265202526,-9.60894758284092
43.5,3.2000000476837163,358.0,21.53026390075684,31.886613845825195,-79.78275073745056,40.45898573777302,340.6290861816406,-0.002103250240907073,-0.019963270053267482,-0.7475723028182983,0.663877010345459,0.17597565988537275,0.10496030595512787,2.962156879681222,-0.04452216252684593,0.0046114325523376465,-0.14311689138412476,0.2041743552312255,0.2792554547265172,-9.988804346323013
43.6,3.2000000476837163,356.0,21.46265411376953,32.70564651489258,-79.78275066576,40.458985655069604,340.9193770141601,-0.002761665033176541,-0.02174004726111889,-0.7472627758979797,0.6641672253608704,0.1933734806613592,0.11592583651151067,2.975210609168392,-0.10932726413011552,0.05509132519364357,-0.027689436450600624,0.22280177531763912,0.451799698881805,-9.963352586030961
43.8,3.2000000476837163,352.0,21.336196899414066,35.250213623046875,-79.78275066812819,40.4589854905193,341.50479571533197,-0.006563202012330294,-0.02733263000845909,-0.7457563281059265,0.6656255722045898,0.22360814917073205,0.11694292542239138,2.9813916338402144,-0.025521665811538696,0.0031021551694720984,-0.04569864273071289,0.29736870355904105,0.3627601992711425,-9.909312618970873
43.9,3.2000000476837163,350.0,21.510231018066406,32.07745742797852,-79.78275065131481,40.458985398139134,341.8044249267578,-0.007566249929368495,-0.029281910508871082,-0.7456349730491638,0.6656680107116699,0.2314996111557877,0.12217008239523434,2.9990835288059463,-0.08047336339950563,0.02323081716895104,-0.04549254849553108,0.3410919529572129,0.3107998310029507,-9.959397529363633
44.1,3.0999999046325684,349.0,21.49270248413086,31.958179473876953,-79.78275062194233,40.458985261217926,342.3882109375,-0.003607394639402628,-0.029551023617386818,-0.7471461892127991,0.663992702960968,0.2365248650721556,0.11261185292966693,3.0250301581934713,0.05020257830619812,0.03922592848539352,0.06989330053329468,0.2610267416574061,0.5306398271396756,-10.174617165327072
44.2,3.2000000476837163,348.0,21.513986587524414,31.822999954223643,-79.78275063432714,40.45898518814789,342.6951719970703,-0.002291200216859579,-0.028886552900075912,-0.7486280798912048,0.6623566746711731,0.21400856262334755,0.11973283541341652,3.091013317834532,0.011359354481101036,-0.038181420415639884,-0.04185866564512253,0.3861397428810597,0.6018858840689063,-10.315177212953568
44.4,3.2000000476837163,349.0,21.53902816772461,30.35192108154297,-79.7827507093205,40.458985178659965,343.2914015502929,-0.0012553215492516756,-0.021220214664936062,-0.7513520121574402,0.6595591902732849,0.1868217680076937,0.09876010524133218,3.1105103665387794,-0.11001012474298476,-0.11439619958400725,-0.045618388801813126,0.3136385080218315,0.4511129799485207,-9.989296681880953
44.51,3.2000000476837163,348.0,21.66798973083496,28.713855743408203,-79.78275089378427,40.458985127693246,343.87328021240234,-0.005909166298806667,-0.022820910438895226,-0.7511285543441772,0.6597350239753723,0.19650053598292694,0.04459396676798238,3.0370251292220525,0.06833133101463318,0.08692055940628053,0.10854855924844742,0.23455391133204104,0.5428701192140579,-9.815705713033676
44.7,3.299999952316284,350.0,21.540281295776367,30.32011413574219,-79.78275094744363,40.4589850529909,344.1766859741211,-0.006999113596975803,-0.025988684967160225,-0.750196635723114,0.6606669425964355,0.20391871638289666,0.046396984460857,3.0240255360147628,-0.09347264468669893,-0.04056505858898163,-0.12129615247249605,0.2876861895248294,0.3581684173643589,-9.72653976738453
44.8,3.299999952316284,350.0,21.640443801879886,28.10951995849609,-79.78275107502323,40.45898502834597,344.4642378540039,-0.0076050516217947015,-0.02759603224694729,-0.7495623230934143,0.6613146066665649,0.21067878702155216,0.04603400950462885,3.0063281005385667,-0.05167870968580246,-0.0261836126446724,-0.024269739165902138,0.26362093197181824,0.4611212204396725,-9.76949516773224
45.0,3.299999952316284,351.0,21.46014976501465,32.80902099609375,-79.78275121243749,40.45898490763181,345.06478564453124,-0.007152409292757511,-0.027877986431121826,-0.7495027184486389,0.6613752841949463,0.2030754855175773,0.04502405793338627,2.9777278082651115,-0.04440901800990105,0.052417319267988205,-0.011146893724799156,0.2435734607465565,0.4251517079025508,-9.598494515419008
45.1,3.299999952316284,353.0,21.55655670166016,29.65216445922852,-79.78275131000237,40.458984891535465,345.3565260620117,-0.009017251431941986,-0.027299264445900917,-0.7497490048408508,0.6610975861549377,0.20388082783517147,0.03888602437767084,2.9852257801087383,0.01938324235379696,-0.027189988642930984,0.09376249462366104,0.1798760130442679,0.29244037784636023,-9.835248277187347
45.3,3.2000000476837163,353.0,21.511484146118164,31.52878379821777,-79.7827515445936,40.458984879644696,345.9490248413086,-0.010008374229073523,-0.02391150966286659,-0.7499027252197266,0.6610400676727295,0.19707778827689407,0.007443814674275309,2.97437483945857,0.13344484567642212,0.01079843286424875,0.0689159706234932,0.3191123789548874,0.1431035407539457,-9.676372995972633
45.4,3.2000000476837163,354.0,21.684267044067386,28.419639587402344,-79.78275169723237,40.458984850589424,346.54078356933593,-0.01096863392740488,-0.02343759685754776,-0.7497339844703674,0.6612332463264465,0.1368068531354065,0.003386100524299641,2.9318716809416037,-0.07200534641742706,-0.040359534323215485,-0.03957724571228026,0.2675300331786275,0.2660156225971877,-9.644999175667763
45.6,3.2000000476837163,353.0,21.48644256591797,32.53070831298828,-79.78275184542362,40.4589848445564,346.8375059814453,-0.008757916279137135,-0.02177378721535206,-0.7494161128997803,0.6616833209991455,0.16424016155363844,0.0008468664022676793,2.9329216205837114,0.11391180008649825,0.014680287800729275,-0.10852620005607604,0.32559010718017817,0.4358253249898553,-9.653096399903298
45.7,3.2000000476837163,352.0,21.48268699645996,31.75143241882324,-79.78275191127383,40.458984834485015,347.13099353027343,-0.005879167001694441,-0.018423432484269142,-0.7490109801292419,0.6622753739356995,0.14259574834933592,0.01464509763309864,2.9342459743288622,0.16373351216316226,0.02321312017738819,-0.006947333458811046,0.2582657046988607,0.30333790674805644,-9.751198645234108
45.9,3.0999999046325684,351.0,21.468914031982425,32.578418731689446,-79.78275206604539,40.45898489706123,347.72668139648437,-0.0030762804672122,-0.016823835670948032,-0.7482877373695374,0.6631538271903992,0.09479794214342024,0.014331070776154862,2.9659671334126436,0.02633395045995713,0.067974753677845,0.11589553952217102,0.3062265226431191,0.08340764421969653,-9.869744510650637
46.0,3.0999999046325684,352.0,21.513986587524414,30.638185501098643,-79.78275211489951,40.45898489507599,348.0239607543945,-0.0015434586675837634,-0.01896096579730511,-0.7473414540290833,0.6641678214073181,0.09625789885222104,0.026561549032522138,2.979452904096024,0.03130863606929779,-0.014577144756913185,0.023033952340483662,0.3547114703804255,0.1055146692506969,-9.957479642629623
46.21,3.0999999046325684,352.0,21.53902816772461,30.08951187133789,-79.78275228364544,40.45898498199976,348.6264921875,-0.002919082529842853,-0.022660283371806145,-0.7459041476249695,0.6656613945960999,0.10565516899992587,0.04926951935800288,3.0170445121416467,0.02360992506146431,-0.05599762126803398,0.11804315447807312,0.30302339963614944,0.19760223101824528,-9.903155500888824
46.3,3.0999999046325684,350.0,21.456392288208008,33.484920501708984,-79.78275240196669,40.458985062474255,349.22608630371093,-0.008182266727089882,-0.0155864879488945,-0.7466900944709778,0.6649391651153564,0.11753408226069695,0.032151483284223015,3.03230898194632,0.08312207460403442,-0.042407769709825516,0.06539413332939148,0.3400421950221062,0.3251817522570491,-9.86993746876717
46.5,3.0999999046325684,348.0,21.57158088684082,29.509033203125,-79.78275243322949,40.4589850617005,349.5309416503906,-0.008563103154301643,-0.017014656215906143,-0.7473060488700867,0.6642069816589355,0.10282547568281056,0.011484272951063407,3.0587314685946434,-0.02865333668887615,0.04483484476804733,0.02829556353390217,0.2181860015541315,0.16298221930861473,-10.048581601381304
46.6,3.2000000476837163,346.0,21.527759552001953,31.544687271118164,-79.78275247400508,40.45898513703705,349.8305174560547,-0.006271587219089271,-0.020663114264607436,-0.7478607892990112,0.6635043025016785,0.1002089645302667,0.02471965723594828,3.0467473127221067,-0.07251851260662079,0.1190035417675972,-0.08151843398809433,0.26294755199924114,0.4180692679435015,-9.852625032663346
