time,wind_speed,wind_angle,battery_voltage,battery_current,position_x,position_y,position_z,orientation_x,orientation_y,orientation_z,orientation_w,velocity_x,velocity_y,velocity_z,angular_x,angular_y,angular_z,linear_acceleration_x,linear_acceleration_y,linear_acceleration_z
0.0,0.20000000298023224,122.0,24.31357192993164,0.015903547406196594,-79.78275952444461,40.458988456239254,272.1535171341896,-0.00033411168260499835,-0.0010799248702824118,-0.7029347419738771,0.7112534642219543,0.005013994629853768,0.003284469234303197,0.0010921025792422275,0.003017514944076538,0.0003689196892082691,0.004497102461755276,0.011341757406480607,0.009466460557887331,-9.809695360064508
0.19,0.20000000298023224,122.0,24.30856513977051,-0.015903547406196594,-79.78275951291502,40.45898838770324,272.15014845848077,-0.00032310179085470736,-0.0010769128566607833,-0.7029424905776978,0.7112458944320679,0.007152598718084768,0.0024952384672823767,0.0010419225618792383,0.005782675463706255,0.0008583707385696473,0.004523449577391148,0.01052904353826307,0.0162319323210977,-9.80807743549347
0.29,0.20000000298023224,121.0,24.309816360473643,-0.02385532110929489,-79.78275952163477,40.458988302880414,272.14631254196166,-0.00033786971471272414,-0.0010592045728117228,-0.7029314637184143,0.7112568020820618,0.011321925629626766,-0.002054528816015385,0.0010563647561249263,-0.003692835569381714,-0.004716209601610899,-0.005235499236732721,0.010188749291701243,0.010844844575040044,-9.809689512848854
0.49,0.20000000298023224,121.0,24.306060791015625,-0.007951773703098297,-79.78275952380373,40.45898829241253,272.1464328241348,-0.00034122695797123015,-0.0010639820247888565,-0.7029253840446472,0.7112627029418945,0.012102965387791292,-0.0019638685460121232,0.001219623431398512,0.0076546091586351395,0.003672449849545956,0.002802983857691288,0.010326311892131344,0.012104832753539086,-9.808541119694713
0.6,0.20000000298023224,122.0,24.31106948852539,0.0,-79.78275956395424,40.458988241535714,272.1395546865463,-0.00033250791602768004,-0.001071093720383942,-0.7029216885566711,0.7112663984298706,0.006509551990826736,-0.009582970345766686,-0.003341650159429285,-0.0004890155396424234,0.0004203351854812353,-0.0018489728681743145,0.00912314106244594,0.015884389582788573,-9.808492003083227
0.8,0.20000000298023224,122.0,24.30731201171875,0.03180709481239319,-79.78275954467465,40.45898818571835,272.1348199915886,-0.00033726022229529917,-0.001067585195414722,-0.7029256224632263,0.7112625241279602,0.004976805011099096,-0.00558467281508003,-0.002126827981255826,0.0041352142579853535,0.0025184559635818005,0.00277339993044734,0.010329905874095859,0.009614176985342057,-9.808973813652992
0.9,0.20000000298023224,123.0,24.31106948852539,0.007951773703098297,-79.78275955106066,40.458988181655045,272.1346276473999,-0.00033726022229529917,-0.001067585195414722,-0.7029256224632263,0.7112625241279602,0.003872781343671585,-0.005435321265285785,-0.001739103051581824,-0.007313225883990526,-2.093368129862938e-05,-0.007591336034238338,0.010413523341994734,0.020983112524263558,-9.807804955244064
1.09,0.20000000298023224,123.0,24.309816360473643,0.015903547406196594,-79.78275957539425,40.45898813872585,272.12768805742263,-0.00033560843439772725,-0.0010750904912129042,-0.7029282450675964,0.7112599015235901,7.013995600714054e-05,-0.009845026054977678,-0.004196282517832695,0.0030693355947732925,0.0011970449704676867,0.004610142670571804,0.011026695265900343,0.009227255762089043,-9.810364866256712
1.2,0.20000000298023224,122.0,24.31357192993164,0.03180709481239319,-79.78275958463684,40.45898807163936,272.119996137619,-0.0003288027655798942,-0.001068467739969492,-0.7029304504394531,0.7112577557563782,0.004031786087910013,-0.009667668013714294,-0.006222506251083705,0.0039935605600476265,0.001970730721950531,0.0030716191977262497,0.00993479169672355,0.02607983347959817,-9.807710230350494
1.4,0.20000000298023224,122.0,24.306060791015625,0.007951773703098297,-79.78275959589448,40.45898806841331,272.1193933558464,-0.0003288027655798942,-0.001068467739969492,-0.7029304504394531,0.7112577557563782,0.003313767165139577,-0.009501690953342707,-0.005862764272321593,-0.004408466629683971,-0.0019178309012204406,0.003235775278881192,0.011220287211472169,0.011519067368935794,-9.810008186101914
1.49,0.20000000298023224,125.0,24.302305221557607,0.039758868515491486,-79.78275960445824,40.45898799160696,272.1105535697937,-0.00032480875961482525,-0.001064216368831694,-0.7029331922531128,0.7112550735473633,0.007211342442512318,-0.00981524420597408,-0.007696073338604246,0.006871181540191174,0.002860989887267351,0.004133852664381266,0.00851261351897847,0.028763301183935257,-9.807569312453273
1.69,0.20000000298023224,124.0,24.31232070922852,0.015903547406196594,-79.78275961589367,40.45898798556127,272.10979915380483,-0.00032480875961482525,-0.001064216368831694,-0.7029331922531128,0.7112550735473633,0.006172583945863729,-0.009682627953459508,-0.007438989624679019,-0.0035742109175771475,-0.000922040198929608,0.0015113259432837367,0.009196444818517191,0.01614005908719264,-9.808448733687401
1.79,0.20000000298023224,124.0,24.31106948852539,0.015903547406196594,-79.78275962330636,40.45898790363831,272.0998234820366,-0.00031967711402103305,-0.0010588516015559435,-0.7029346227645874,0.7112536430358887,0.009043272704760432,-0.009527024688140612,-0.00871061534724542,0.0019309063209220765,0.002559785731136799,0.0044509368017315865,0.009754457627423108,0.025874804060440508,-9.807039554715157
1.99,0.20000000298023224,124.0,24.31232070922852,0.015903547406196594,-79.78275963433738,40.458987895825906,272.098970181942,-0.00031967711402103305,-0.0010588516015559435,-0.7029346227645874,0.7112536430358887,0.007888656021512902,-0.009380974838232749,-0.008427912228000838,-0.007771603763103484,-0.00195339135825634,-0.0070848651230335236,0.010734007861465215,0.02301086981082336,-9.807706722021104
2.1,0.20000000298023224,124.0,24.31232070922852,0.007951773703098297,-79.78275964733076,40.458987817667975,272.0886075568199,-0.0003174533194396645,-0.0010568146826699376,-0.7029373645782471,0.711250901222229,0.009412030638022435,-0.009402900322632671,-0.008972872254353458,-0.0014735824661329384,0.002152063651010394,0.0014112201752141118,0.009430668631684966,0.018914240860613062,-9.807940025925637
2.29,0.20000000298023224,124.0,24.302305221557607,0.015903547406196594,-79.78275964802786,40.45898775781331,272.07849694013595,-0.00031753897201269865,-0.0010571186430752275,-0.7029394507408142,0.7112488746643066,0.006387730574539518,-0.009421559457392478,-0.009517208569299229,-0.0047833751887083045,-0.0018667976837605238,-0.005581721663475037,0.009986748547526077,0.02843892004340888,-9.808850437402723
2.4,0.20000000298023224,124.0,24.309816360473643,0.007951773703098297,-79.78275965904483,40.45898775161015,272.0775471997261,-0.00031753897201269865,-0.0010571186430752275,-0.7029394507408142,0.7112488746643066,0.00729482639058,-0.009443808746360857,-0.009501229718455115,0.003266478888690472,0.0005883079720661044,0.007986837066709995,0.010411372891394422,0.012137185443425551,-9.809183728694915
2.6,0.20000000298023224,123.0,24.31232070922852,0.015903547406196594,-79.7827596700667,40.4589876666394,272.0656848025322,-0.00031322144786827266,-0.0010531393345445397,-0.702941358089447,0.7112469673156738,0.00911926569643192,-0.00952271834002818,-0.00989364782737738,0.003568509127944708,-0.0005104013253003359,-0.0020484752021729946,0.009181365397525952,0.026860656039789318,-9.807875121831897
2.69,0.20000000298023224,125.0,24.31106948852539,0.02385532110929489,-79.78275965523781,40.458987600444225,272.0527282428741,-0.00031842675525695086,-0.0010506062535569072,-0.7029437422752379,0.7112446427345276,0.0059552146756106745,-0.005508904305670989,-0.010301602533942937,-0.0022013578563928604,-0.001644939766265452,-0.00502240564674139,0.010526190736563877,0.009223247792688198,-9.810184772014619
2.89,0.20000000298023224,125.0,24.31232070922852,0.007951773703098297,-79.78275966160237,40.458987594542116,272.0517053079605,-0.00031842675525695086,-0.0010506062535569072,-0.7029437422752379,0.7112446427345276,0.006759274078493678,-0.005453774374498471,-0.010180537162615884,0.0028097850736230607,-0.002006548224017024,0.0019517375621944664,0.009165571063058452,0.0191492521064356,-9.808074511885644
3.01,0.20000000298023224,125.0,24.30856513977051,0.03180709481239319,-79.78275964944244,40.458987528735506,272.03711242198943,-0.00031790125649422407,-0.0010473650181666017,-0.7029452323913574,0.7112431526184082,0.00488650651007027,-0.003762245772068843,-0.012709330594914504,-0.0018969959346577523,-0.0009387388126924633,-0.005630568135529757,0.010593695242423564,0.010360543228453024,-9.809533392190934
3.2,0.20000000298023224,124.0,24.31106948852539,0.015903547406196594,-79.78275965380321,40.45898752390257,272.03584433317184,-0.00031790125649422407,-0.0010473650181666017,-0.7029452323913574,0.7112431526184082,0.00579508758460205,-0.0038095355082361326,-0.012610388843908152,0.0080547695979476,0.001510048983618617,0.005360675510019064,0.01035525560961105,0.012956218187464402,-9.810081861019137
3.3,0.20000000298023224,121.0,24.30856513977051,0.015903547406196594,-79.78275963732256,40.458987442633926,272.02186215639114,-0.0003165302914567292,-0.001042833086103201,-0.7029498219490051,0.7112386226654053,0.00749933948628042,-0.0018886310801225288,-0.011862741514132445,-0.002856081118807197,0.002314657438546419,-0.0026165666058659554,0.010289005057420584,0.01346960828988813,-9.80980938076973
3.49,0.20000000298023224,121.0,24.31232070922852,0.007951773703098297,-79.78275963940506,40.45898743572143,272.020688123703,-0.00032910169102251535,-0.0010379402665421367,-0.7029545903205872,0.711233913898468,0.008146722301998333,-0.0018338166325760187,-0.0116931437977709,0.004410105291754007,0.0007753610843792558,0.0020849595312029123,0.010616710659815,0.010227079389151187,-9.810342646837237
3.59,0.20000000298023224,121.0,24.30480766296387,0.015903547406196594,-79.78275966825859,40.45898738352283,272.0050161552429,-0.00032795220613479614,-0.0010472519788891077,-0.7029477953910828,0.7112406492233276,0.0044881884844011335,-0.008979668612614672,-0.015692389666459642,-0.004653896205127239,0.0002621223975438625,-0.003127127652987838,0.010650450921384618,0.01910773687530309,-9.808832895755767
3.79,0.20000000298023224,120.0,24.31232070922852,0.02385532110929489,-79.7827596277086,40.45898731878129,271.989783949852,-0.000350097194314003,-0.0010609949240460992,-0.7029549479484558,0.7112335562705994,0.0037528230983522423,-0.00010676214279940906,-0.013811845014463458,0.002944916719570756,0.0013266198802739382,0.002610707655549049,0.00961550517124124,0.009720850983867423,-9.809531053304672
3.9,0.20000000298023224,119.0,24.31732940673828,0.0,-79.78275962773212,40.4589873156687,271.98841173172,-0.0003592263383325189,-0.001060830312781036,-0.7029637694358826,0.7112248539924622,0.002825664078296295,-2.791390512292308e-05,-0.013546397068763831,-0.007081584073603153,-0.00243783975020051,-0.0064063286408782005,0.009928001160733405,0.02648965934291482,-9.808252851963044
4.1,0.20000000298023224,118.0,24.31106948852539,0.007951773703098297,-79.78275963059116,40.45898725877646,271.9714235138893,-0.0003782237763516605,-0.0010558750946074724,-0.7029715180397034,0.7112171649932861,0.0026142638162609693,-0.0022680808400993885,-0.01550186931170089,-0.001664681127294898,-0.0014878190122544765,0.0001747175119817257,0.009449002850451508,0.012669204409467056,-9.810311071872713
4.21,0.20000000298023224,117.0,24.3148250579834,0.015903547406196594,-79.78275959843238,40.458987191372415,271.955462641716,-0.0003644204407464713,-0.001043721567839384,-0.7029832005500793,0.7112056612968445,0.006590724323062752,0.003094149616203657,-0.013833335735254906,0.004275585059076548,0.0006521001923829317,0.0036500075366348033,0.009949004313675687,0.028818774358369405,-9.807845301032069
4.4,0.20000000298023224,116.0,24.30105209350586,-0.07156596332788467,-79.78275959453191,40.45898718602097,271.95409233093255,-0.00036763754906132817,-0.00103490159381181,-0.7029691934585571,0.7112194895744324,0.005436877523194511,0.0033592038783426784,-0.01363390992873548,-0.005315707065165043,-0.0008905901340767742,-0.001354557229205966,0.009740202755201608,0.0195173800131306,-9.808090299367905
4.5,0.20000000298023224,114.0,24.309816360473643,0.015903547406196594,-79.78275957944194,40.458987112796066,271.9396130812168,-0.0003673678438644856,-0.0010377319995313883,-0.7029740214347839,0.7112147212028503,0.008143858193927963,0.0024287184380292265,-0.008290157056817855,0.0031463520135730505,0.0009609928238205613,0.008162290789186954,0.011043525425484405,0.02267958621494472,-9.808050538301467
4.7,0.20000000298023224,115.0,24.30856513977051,0.05566241592168808,-79.78275957632749,40.45898710575233,271.9387986135484,-0.0003745579160749912,-0.00103996810503304,-0.7029786705970764,0.7112101912498474,0.007281655382336511,0.0026671325307983484,-0.008042704014841088,-0.004462524317204952,-0.0036652658600360155,-0.007126567885279656,0.009953107642941177,0.028162597990594805,-9.807303848862649
4.79,0.20000000298023224,113.0,24.31232070922852,0.007951773703098297,-79.78275961616,40.45898706921006,271.9214474630356,-0.0003760516701731831,-0.0010388016235083342,-0.7029860019683838,0.71120285987854,0.0005090000152125686,-0.006156200417960011,-0.009481599260744385,-0.0014645132469013331,0.0005751861608587205,-0.00051216030260548,0.009955481932265685,0.013831453865859659,-9.809030531644822
4.99,0.20000000298023224,111.0,24.309816360473643,0.08746951073408127,-79.78275962325928,40.458987068385575,271.9205078852177,-0.0003651068254839629,-0.0010365413036197424,-0.7029966115951538,0.7111924290657043,0.00065521006417555,-0.005917140429553085,-0.009229168478786827,-0.0007805540226399899,-0.003969190176576376,-0.0007002849597483872,0.010310894428985194,0.025791826131753626,-9.808469198942182
5.1,0.20000000298023224,107.0,24.30856513977051,0.10337305814027786,-79.78275961632163,40.45898700701496,271.903631157875,-0.0003763507702387869,-0.0010285490425303578,-0.7029950022697449,0.7111940383911133,0.003070321353055128,-0.003764201060565596,-0.009731896666441857,-0.007808050140738487,-0.0021355925127863893,-0.008853555656969547,0.01026394882472232,0.00925586600555107,-9.810267802476883
5.3,0.20000000298023224,105.0,24.306060791015625,0.09542128443717957,-79.78275960547299,40.458986952298496,271.88724593043327,-0.0003777119272854178,-0.0010383708868175745,-0.7030001878738403,0.7111887931823729,0.006674506145923735,-0.0021541552032070047,-0.010671878576171428,0.003222062485292554,0.00025166946579702204,0.0010227260645478964,0.011356941894628108,0.017092007494065913,-9.808900723457336
5.39,0.20000000298023224,103.0,24.306060791015625,0.09542128443717957,-79.78275960780707,40.45898694672349,271.8861945343017,-0.000374171941075474,-0.0010407938389107585,-0.7029973864555359,0.711191713809967,0.005958148834523947,-0.0019503232741160856,-0.010466645776028792,-0.0006477441056631504,0.0008937978418543936,0.0017352155409753325,0.010108497398905457,0.012234205825952813,-9.809304181337355
5.59,0.20000000298023224,103.0,24.30105209350586,0.05566241592168808,-79.78275961998388,40.45898690260756,271.8704559278488,-0.0003915960842277855,-0.0010521220974624157,-0.7029866576194763,0.7112021446228027,0.0043232693993606654,-0.00496491583401011,-0.006911957510268858,0.0014391972217708824,0.002696701558306813,0.0042789061553776256,0.010253197713755071,0.010483164594043049,-9.809813473820688
5.7,0.20000000298023224,102.0,24.302305221557607,0.05566241592168808,-79.78275963726247,40.45898684517117,271.85233847022056,-0.00038065764238126576,-0.0010621928377076983,-0.7029735445976257,0.7112151980400085,0.0068865902881273,-0.006855567051596133,-0.009140985239052208,0.004485254175961018,0.0029977327212691307,0.0018530405359342688,0.010331348263425752,0.021807533386163414,-9.80865806400776
5.89,0.20000000298023224,101.0,24.302305221557607,0.06361418962478638,-79.78275964508977,40.45898683930093,271.8514355790615,-0.0003961609909310937,-0.0010661153355613349,-0.7029631733894348,0.7112253308296204,0.006387375400775541,-0.006663314708237799,-0.0090600682102817,0.0003629374841693789,-0.0018838087562471628,0.005658049136400223,0.00986989217111841,0.009303605323657394,-9.809767865538596
5.99,0.20000000298023224,101.0,24.29729652404785,0.10337305814027786,-79.78275965274595,40.45898683357375,271.85054639697074,-0.0004009443218819797,-0.0010918440530076623,-0.7029752135276794,0.7112134695053101,0.00569715819465636,-0.006446857260866258,-0.008757736902522194,-0.005940396338701247,-0.005869651213288307,-0.006313912570476532,0.00942995086312294,0.02797735545784235,-9.807657605409624
6.19,0.20000000298023224,101.0,24.306060791015625,0.08746951073408127,-79.78275964839294,40.45898678325626,271.83494359970086,-0.0004071226576343179,-0.0010872542625293136,-0.7029685974121094,0.7112200260162354,0.006835697878777615,-0.004088493973615887,-0.006418748027919839,-0.005440021399408579,0.001213000388815999,-0.0007221037521958351,0.008598102210089565,0.018682358788792045,-9.809310613274574
6.3,0.20000000298023224,103.0,24.30480766296387,0.08746951073408127,-79.78275964984581,40.45898675475693,271.81739989638334,-0.00040467650978825986,-0.0010832058032974599,-0.7029637694358826,0.7112247347831726,0.004638402471649794,-0.002287685109971895,-0.008297075956188392,0.0020950757898390293,-0.000908873334992677,0.004658062011003493,0.008949426223989577,0.02330837203189731,-9.808410142064096
6.5,0.20000000298023224,103.0,24.29353904724121,0.06361418962478638,-79.78275965242166,40.45898675083557,271.81658292531966,-0.0004127041902393103,-0.001093742437660694,-0.7029731869697571,0.7112153768539429,0.0037063944293183673,-0.0021563314653357288,-0.007960708785322923,-0.005021166987717153,-0.003998102154582739,-0.007129460107535124,0.00936188618943561,0.02822196550201625,-9.809253895282746
6.6,0.20000000298023224,106.0,24.303556442260746,0.08746951073408127,-79.78275962642013,40.45898670705096,271.8008513224125,-0.00044553936459124094,-0.0010884817456826568,-0.7029778957366943,0.7112107872962952,0.006143044214351628,0.003121429406088382,-0.005690445608187577,-0.0037273704074323173,1.9938866898883134e-05,-0.002712588757276535,0.010819529100554065,0.013572524995543064,-9.809417032599447
6.79,0.20000000298023224,108.0,24.30105209350586,0.07951773703098297,-79.78275965235207,40.458986672760155,271.7834660482406,-0.00043531961273401976,-0.0010903356596827507,-0.7029778957366943,0.7112107872962952,0.007954908617655881,-0.0026550740574381336,-0.008610756529795817,-0.0011987118050456047,-0.00027837231755256653,-0.0002784694661386311,0.009273634917335584,0.02617728098295629,-9.807016165852547
6.9,0.20000000298023224,110.0,24.29980087280273,0.11132483184337616,-79.78275965520409,40.45898666563173,271.7826130759716,-0.00043531961273401976,-0.0010903356596827507,-0.7029778957366943,0.7112107872962952,0.008089359032210438,-0.0024248690034417,-0.00851479455124369,0.003730110358446837,0.0008084107539616525,0.006732865236699581,0.010672810811083764,0.008660038727684878,-9.808949255347251
7.09,0.20000000298023224,112.0,24.30856513977051,0.13518016040325165,-79.78275966326784,40.45898664601647,271.7655609619617,-0.0004366070497781039,-0.0010918222833424807,-0.7029801607131958,0.7112085819244385,0.00594367059443163,-0.0014454746057813179,-0.009577628155929429,0.005638290196657182,0.0028067287057638173,0.003487678710371256,0.010458707929356024,0.014871368607273328,-9.808735831975936
7.19,0.10000000149011612,112.0,24.302305221557607,0.13518016040325165,-79.78275966942407,40.45898661837637,271.748396910429,-0.0004324398760218173,-0.0010881590424105523,-0.7029822468757629,0.7112064361572266,0.006843279601497211,-0.0005844762422990517,-0.010299038613815922,-0.0007522677187807857,0.001308887149207294,-0.0010661184787750244,0.009295047489576972,0.014009210363728928,-9.808714197278023
7.4,0.10000000149011612,112.0,24.302305221557607,0.09542128443717957,-79.78275966993634,40.45898661229358,271.747368581295,-0.0004324398760218173,-0.0010881590424105523,-0.7029822468757629,0.7112064361572266,0.006936252428337377,-0.00042584348885839124,-0.010325505460294584,0.004799593240022659,0.001641305861994624,0.003549962537363172,0.010253484364366159,0.008675714290584438,-9.809747400283817
7.49,0.10000000149011612,115.0,24.29479217529297,0.11132483184337616,-79.7827597249133,40.45898659961363,271.73000390052795,-0.00042625534115359187,-0.001099043758586049,-0.7029832005500793,0.7112054824829102,0.0040006940782654045,-0.008819453922309402,-0.010994397220594409,0.006995078641921282,0.0010856149019673467,0.005268737208098172,0.009354502937640063,0.027582807729486385,-9.80724596142769
7.69,0.10000000149011612,117.0,24.30480766296387,0.11132483184337616,-79.7827597350754,40.45898659654896,271.72891444683074,-0.00042602454777807003,-0.001103178015910089,-0.7029783725738525,0.7112102508544922,0.002718165714977203,-0.008558950059960234,-0.010811693458598476,-0.00451727956533432,0.0003655276959761977,-0.0002235632127849385,0.009470569026307205,0.01708916839677841,-9.80946614921093
7.8,0.10000000149011612,120.0,24.30731201171875,0.07156596332788467,-79.78275974314478,40.45898657525749,271.7113109004497,-0.00042349795694462966,-0.001100788707844913,-0.7029895186424255,0.7111992835998535,0.005206156087844143,-0.005122343240663912,-0.011332505615441678,0.0032683978788554677,-0.0009662416414357725,0.003049003193154931,0.009840427685994656,0.023227764966432,-9.808787872195245
7.99,0.10000000149011612,121.0,24.30480766296387,0.015903547406196594,-79.78275974904943,40.458986570653494,271.71018154144286,-0.00042064260924234986,-0.0010981690138578417,-0.7029879689216614,0.7112008333206177,0.004507466452650351,-0.005020399922406039,-0.011190953122505485,-0.0013828029623255136,-0.0022404524497687817,-0.005937097128480673,0.009490912654437123,0.029012899633962662,-9.807067621350287
8.09,0.10000000149011612,124.0,24.30856513977051,0.02385532110929489,-79.78275977683515,40.45898656701339,271.69555468082433,-0.00041922382661141455,-0.0011059318203479054,-0.7029991745948792,0.7111896872520447,0.002061028973305112,-0.006297753057159411,-0.00792505412305071,-0.00629348773509264,-0.00023310762480832642,-0.006340404972434044,0.010359080282505602,0.009174863796215505,-9.809258573055267
8.29,0.10000000149011612,124.0,24.30856513977051,0.007951773703098297,-79.78275979954897,40.45898655482029,271.6815587055683,-0.00039829392335377634,-0.0010933729354292154,-0.7030045390129089,0.7111844420433044,0.0052182659022123965,-0.007483146155874506,-0.00639959533450054,0.006875122431665659,0.002440935932099819,0.0047137201763689535,0.011481413355795668,0.015050146083813163,-9.808521823883057
8.39,0.10000000149011612,127.0,24.30856513977051,0.0,-79.78275980813626,40.45898655062987,271.680926553607,-0.0003987253294326365,-0.0010889696422964334,-0.7029888033866882,0.7111999988555908,0.004107845840403909,-0.0072346970904621066,-0.006226236333168344,-0.00410486850887537,-0.0009519841987639666,0.0003221618826501072,0.00925334553583525,0.014949988533044238,-9.809395397901538
8.59,0.10000000149011612,128.0,24.30856513977051,0.007951773703098297,-79.78275978874457,40.45898653409953,271.667658470273,-0.0004008804098702967,-0.0010713015217334034,-0.7030125260353088,0.7111765742301941,0.005738841598753629,0.00048556365892756973,-0.002925006549300964,-0.0018161484040319922,0.00044166127918288117,0.002311669522896409,0.010160671236226337,0.009484819901408629,-9.810274819135666
8.69,0.10000000149011612,131.0,24.30856513977051,0.015903547406196594,-79.78275978805907,40.45898652915457,271.6673722338676,-0.0003845932078547776,-0.0010727804619818926,-0.7030196785926819,0.7111694812774658,0.00494346350007315,0.000613961563536282,-0.0027486430075983753,-0.002069186884909868,-0.0006156607996672393,-0.006495271343737841,0.010272008160827682,0.028954653600230813,-9.808270978331569
8.89,0.10000000149011612,134.0,24.306060791015625,0.0,-79.78275983085287,40.458986540323906,271.65327436447143,-0.0004042809887323529,-0.0010717593831941485,-0.7030178308486938,0.7111713886260986,0.0012009650071559284,-0.004626739688254779,-0.002330221923215433,-0.003107752883806825,-0.0011785118840634825,-0.0039024534635245796,0.008747833186062053,0.02307769252220169,-9.80735647380352
8.99,0.10000000149011612,140.0,24.289783477783203,-0.06361418962478638,-79.78275984023566,40.45898654467214,271.63984159350395,-0.0004123534308746457,-0.001082473900169134,-0.7030025720596313,0.7111863493919373,0.00035288655251827127,-0.003090497000165984,-0.0021985827934792763,-0.004305153153836727,-0.0007014201255515218,0.0005215330747887492,0.009335096919676293,0.016800931500038134,-9.80863701403141
9.2,0.10000000149011612,142.0,24.289783477783203,-0.10337305814027786,-79.78275984380937,40.4589865441296,271.63962370872497,-0.00041677738772705203,-0.0010708024492487314,-0.7030016183853149,0.7111873030662537,0.000463311931062064,-0.002958655066092629,-0.0020898916884192053,0.0004345524648670107,-0.0007534039323218168,-0.0014849789440631864,0.008948752423748374,0.02585054953582585,-9.808030073046686
9.3,0.10000000149011612,148.0,24.303556442260746,-0.09542128443717957,-79.78275987313758,40.45898653665604,271.62654568970197,-0.0004254861851222813,-0.001073348568752408,-0.7030009031295776,0.7111881375312805,0.0034356346887127486,-0.0056185696380569175,-0.0017060750225992435,-0.006265615578740835,-0.0017646529013291,-0.003265030216425657,0.010130554649513216,0.029291416676715018,-9.807219064235687
9.5,0.10000000149011612,150.0,24.306060791015625,0.007951773703098297,-79.7827598795812,40.45898653321415,271.62637395381927,-0.00043829556670971215,-0.0010558380745351317,-0.7029916048049927,0.7111972570419312,0.0042254176199197965,-0.005414608190448225,-0.001790721181523314,0.008676083758473395,0.003289858577772975,0.0070892954245209685,0.011146401017904279,0.010300182147184388,-9.809304181337355
9.59,0.10000000149011612,156.0,24.298547744750977,0.015903547406196594,-79.78275988194656,40.45898654510773,271.61345580935483,-0.0004504126554820689,-0.0010519205825403333,-0.7029958963394165,0.7111929655075073,0.001649383648107767,-0.0026012276146413545,-0.0015184737628832585,0.002383892424404621,-0.000242040230659768,0.001934632891789079,0.009222920599859208,0.02144572321325541,-9.808487325310708
9.79,0.10000000149011612,159.0,24.31106948852539,0.007951773703098297,-79.78275988370058,40.45898654069953,271.60073631227016,-0.0004494366294238717,-0.0010474114678800106,-0.7029905319213867,0.7111983299255371,0.004430422067030433,-0.0010782668027588824,-0.0015332044914553073,-0.0019046850502491,-0.0003683299582917243,-0.00019828970835078508,0.011379957312019542,0.013187040451448412,-9.809769034981727
9.89,0.10000000149011612,166.0,24.30731201171875,0.007951773703098297,-79.78275988543948,40.458986532628934,271.60043565154075,-0.0004651741473935545,-0.0010265775490552187,-0.7029706835746765,0.7112178802490234,0.00450775002205145,-0.00046435908490010666,-0.001474016712569512,0.0007076022448018192,0.0008685478242114186,0.00636707153171301,0.010572654402349144,0.026513888742774726,-9.80746230840683
10.09,0.10000000149011612,167.0,24.30856513977051,0.015903547406196594,-79.78275991011564,40.45898653687436,271.5884976011514,-0.00047206354793161154,-0.0010404762579128146,-0.7029767036437988,0.7112120389938354,0.005230644811667407,-0.0033339268623005145,-0.0013026269449571445,-0.003045674413442612,-0.0009069458465091883,-0.007744114380329846,0.00845949807437137,0.02907060662750155,-9.807848809361456
10.19,0.10000000149011612,172.0,24.30105209350586,0.03180709481239319,-79.78275992113365,40.45898654876984,271.5785426270961,-0.00048055284423753625,-0.0010470941197127104,-0.7029658555984497,0.7112227082252502,0.002495319456605625,-0.0016084918144697669,0.0023354765068295557,-0.006932062096893786,-0.002188154263421893,-0.004179263487458229,0.011031045274576172,0.010579234804026784,-9.810076013803485
10.39,0.10000000149011612,173.0,24.30731201171875,0.007951773703098297,-79.78275992287607,40.45898654614517,271.5787695121765,-0.000480006099678576,-0.0010459825862199068,-0.7029678821563721,0.7112207412719727,0.0031874842640605768,-0.0014145248577431707,0.0022155409221078447,8.008131408132614e-05,0.004223461262881756,0.0046561434864997855,0.009619716993765908,0.016781416417798033,-9.808460428118707
10.5,0.20000000298023224,175.0,24.31106948852539,0.015903547406196594,-79.78275992433912,40.45898654378513,271.5790037286281,-0.0004997280775569379,-0.001046803081408143,-0.7029513120651245,0.7112370729446411,0.002305950247097027,-0.0010816927797121466,0.0023747502710554447,-0.0026150685735046864,-0.0008217250579036772,-0.001234980532899499,0.008746469597099349,0.013488181193824856,-9.809167941212657
10.7,0.20000000298023224,174.0,24.30731201171875,0.02385532110929489,-79.78275995687737,40.45898651647287,271.56766947329044,-0.00047542504034936433,-0.0010611596517264843,-0.7029387950897217,0.7112493515014648,0.010364401862480888,-0.0047656940766467116,0.0006591850582685196,0.002482560696080327,0.0023788705002516512,0.0052229189313948154,0.011318153841421008,0.008405331387184559,-9.809292486906052
10.8,0.20000000298023224,173.0,24.30480766296387,0.0,-79.78275995562723,40.45898653989893,271.55731091618543,-0.0004840417532250285,-0.0010359697043895721,-0.7029295563697815,0.7112586498260498,0.005309573423788142,-0.002080794718294245,-9.472082430204812e-05,0.005260461941361427,-0.0021957000717520714,0.004680099431425333,0.01029310952872038,0.02616293703205884,-9.808660987615584
11.0,0.20000000298023224,174.0,24.309816360473643,0.02385532110929489,-79.78275995780112,40.45898653571345,271.55731096833944,-0.0004818341985810548,-0.0010439502075314524,-0.7029296159744263,0.7112585306167603,0.004113211193649404,-0.0017470453333336732,3.062101897402312e-05,-0.004213485401123762,-5.806051194667816e-05,-0.0012208825210109349,0.008746064745937475,0.015264020558679476,-9.8095205283165
11.1,0.20000000298023224,173.0,24.30856513977051,0.02385532110929489,-79.78275997749428,40.458986554236546,271.54814571112394,-0.00047070271102711575,-0.001053481944836676,-0.7029331922531128,0.7112549543380737,0.00252891940423767,-0.0038569389763418414,-0.00028820399766012997,0.0022628256119787693,0.001069937483407557,0.006042703054845333,0.009055070678587072,0.02446690645068884,-9.808566262722016
11.29,0.20000000298023224,174.0,24.30856513977051,0.03180709481239319,-79.78275995982708,40.45898657376339,271.5399013456702,-0.00048825939302332683,-0.0010390670504420996,-0.7029342651367188,0.7112539410591125,0.00048243253684493513,0.0018942349489557216,-0.0004421515080758171,-0.0016379884909838438,-0.004955577664077282,-0.006039468105882406,0.009609246823238209,0.02728638815693557,-9.80801954805851
11.4,0.20000000298023224,173.0,24.29980087280273,0.007951773703098297,-79.78275995736122,40.45898657300856,271.5398598012328,-0.0004991633468307555,-0.0010313332313671708,-0.7029239535331726,0.7112640738487244,0.0012427751082136047,0.002256940617363287,-0.0003588070734490428,0.005189509131014347,0.0030934263486415148,0.001884779776446521,0.010651419366477058,0.013959133301395924,-9.809936850070956
11.6,0.20000000298023224,172.0,24.29353904724121,-0.039758868515491486,-79.78276000307872,40.45898657341007,271.5322272402048,-0.0004906471585854888,-0.0010454398579895496,-0.7029123902320862,0.7112755179405212,0.004551087702037187,-0.00821840434291076,-0.0003723722291122921,0.0035776293370872736,-0.0012598736211657526,-0.004120928701013328,0.00985487099387683,0.025652680671773846,-9.807954059243203
11.7,0.20000000298023224,168.0,24.298547744750977,-0.06361418962478638,-79.78275999867755,40.45898659073118,271.5256550085544,-0.0004948751884512603,-0.0010446392698213458,-0.7029150128364563,0.7112728953361511,0.001545501728692185,-0.004175333107744457,-0.0005279420913978587,-0.003864612895995378,0.0025298404507339,-0.009986642748117449,0.01061654734890908,0.008691364157712088,-9.809877793192863
11.89,0.20000000298023224,167.0,24.306060791015625,0.0,-79.78276000337492,40.45898658896119,271.52560098439454,-0.0004948751884512603,-0.0010446392698213458,-0.7029150128364563,0.7112728953361511,0.002269189673425163,-0.003826336947600867,-0.0005463345733785639,0.007998308166861534,0.002073172479867935,0.0024908515624701977,0.010613032167311758,0.014615219448460266,-9.809106545448305
11.99,0.20000000298023224,167.0,24.31106948852539,0.007951773703098297,-79.7827600077037,40.458986587538746,271.525548107624,-0.0004948751884512603,-0.0010446392698213458,-0.7029150128364563,0.7112728953361511,0.0010602050395643423,-0.003468822588212865,-0.0005115039880409346,-0.0018822752172127368,-0.0017049830639734864,-0.0005070852348580956,0.009761436599073931,0.013356635972158984,-9.809174957871438
12.19,0.20000000298023224,166.0,24.30856513977051,0.015903547406196594,-79.78276001911033,40.45898659058585,271.5199080404639,-0.0004886780516244472,-0.001043393393047154,-0.7029187083244324,0.7112692594528198,0.003891390421836415,-0.00481566969307465,-0.0006508980212072077,0.003268894273787737,0.0013314206153154373,0.004644041880965233,0.010903718727640808,0.00979580041137524,-9.80913051903248
12.3,0.20000000298023224,164.0,24.303556442260746,0.0,-79.78276000342409,40.458986597556326,271.5149927955866,-0.0004880345368292184,-0.0010403611231595278,-0.7029226422309875,0.7112653851509094,0.005022037695126542,-0.002505396875057405,-0.0004806583856386557,-0.004586133174598217,-0.0003664310206659138,-0.005502203945070504,0.010587329543195663,0.023847727426327767,-9.808504866957666
12.5,0.20000000298023224,163.0,24.303556442260746,0.007951773703098297,-79.7827600085814,40.45898658805285,271.5149015930295,-0.0004880345368292184,-0.0010403611231595278,-0.7029226422309875,0.7112653851509094,0.004926580345138607,-0.0020179685184641928,-0.0004893646938407895,0.00030652681016363204,0.0014744362561032176,0.0032749711535871033,0.008862471160828136,0.010406065857969224,-9.80960765182972
12.6,0.20000000298023224,161.0,24.309816360473643,0.015903547406196594,-79.78275998733031,40.458986606649454,271.51045570492744,-0.0004891661228612065,-0.001040205010212958,-0.7029250860214233,0.7112630009651184,0.00262232172692702,-0.0003417926953885849,-0.00044134555488498166,0.007141484878957272,0.001804715488106013,0.005776515230536461,0.00880374261760153,0.028515564249828464,-9.80745880007744
12.79,0.20000000298023224,159.0,24.30856513977051,0.007951773703098297,-79.78275998574286,40.458986624720566,271.50470384553074,-0.00048698406317271287,-0.0010453780414536595,-0.7029268741607666,0.7112612128257751,0.0001966228804884966,-0.0037170335402871226,-0.004466546453780117,-0.0034445577766746287,-0.0005901001859456301,-0.0034860463347285986,0.010072967569576577,0.018463807683438062,-9.808929374814033
12.89,0.20000000298023224,157.0,24.306060791015625,0.0,-79.78275998994657,40.458986624174145,271.5042581033706,-0.00048698406317271287,-0.0010453780414536595,-0.7029268741607666,0.7112612128257751,0.0005393429710901298,-0.003446085133170136,-0.004376119114369469,0.0014954385114833713,-0.002283659065142274,0.0014579873532056804,0.008634262442355977,0.023581736215855933,-9.808675605654717
13.1,0.10000000149011612,154.0,24.29604339599609,0.02385532110929489,-79.78275998371163,40.45898664018904,271.49920779064297,-0.00047843967331573367,-0.0010474597802385688,-0.7029302716255188,0.7112578749656677,-0.0009328734879572329,-0.004553839302017162,-0.0060266207978177215,-0.007390350569039583,-0.003351594088599086,-0.00878318026661873,0.010054661901667714,0.008243515975191256,-9.810468946695329
13.2,0.10000000149011612,150.0,24.30731201171875,0.039758868515491486,-79.78275996425387,40.45898664387033,271.4961165559292,-0.0004946839180774988,-0.0010541580850258472,-0.7029132843017578,0.7112745642662048,0.0024596336140181928,-0.002130169114964474,-0.0038373600812678563,-0.002272972604259849,-0.00026895402697846293,0.0003621273790486157,0.010446770244743676,0.01452636803733185,-9.809258573055267
13.4,0.10000000149011612,149.0,24.30105209350586,-0.007951773703098297,-79.78275996653494,40.45898664148172,271.49573249712586,-0.0004824348434340209,-0.001059622736647725,-0.7029216289520264,0.7112663984298706,0.00228493584878078,-0.0018342785314466848,-0.0037636356949007524,-0.003547830041497947,-0.002856954000890255,-0.0005787581321783364,0.009819178995676341,0.027531176358461383,-9.8081610506773
13.51,0.10000000149011612,144.0,24.309816360473643,0.007951773703098297,-79.782759960261,40.45898664086993,271.4917527732253,-0.0004922301741316915,-0.0010631533805280924,-0.7029097080230713,0.7112782001495361,0.004150016113318207,-0.004571372236736288,-0.00655196575674484,-0.004574647638946772,-0.0016046391101554036,-0.0077126570977270595,0.010965361171402038,0.00968642550171353,-9.8100958943367
13.69,0.10000000149011612,144.0,24.303556442260746,-0.007951773703098297,-79.78275996546469,40.45898663673749,271.4910969656706,-0.0004901220672763884,-0.0010356634156778457,-0.7029159665107727,0.7112720012664795,0.004758750797503349,-0.004336719962700224,-0.00656655594240254,0.00165208347607404,0.002095592673867941,0.002871780423447489,0.009809106253087521,0.01843340673018247,-9.808528255820272
13.8,0.10000000149011612,146.0,24.30105209350586,-0.02385532110929489,-79.78275998563183,40.458986654235865,271.48755786910647,-0.0004974225303158164,-0.001043348922394216,-0.7029112577438354,0.711276650428772,0.0011904415754078591,-0.01029139969413743,-0.00805704580875667,-0.0029344456270337105,-0.004117376636713743,-0.0053401351906359204,0.009534506388008596,0.011357359879184514,-9.80997544169426
13.99,0.10000000149011612,144.0,24.30731201171875,0.0,-79.78275999750154,40.45898665294132,271.4867497195304,-0.000504117168020457,-0.0010445101652294397,-0.7029064893722534,0.711281418800354,0.0017268549285588929,-0.009912935055556895,-0.008129229765807006,0.006406020373106003,0.00219721719622612,0.003586431266739965,0.01126430463977158,0.011042879034066573,-9.809503571391106
14.1,0.10000000149011612,138.0,24.30105209350586,0.1908425688743592,-79.78275996133195,40.45898665480686,271.4864385907352,-0.0005039616371504962,-0.001039154827594757,-0.7029116153717041,0.7112763524055481,0.0027201219821543807,-0.006229210703650118,-0.0055416112372489,-0.00475635239854455,-0.002821954432874918,-0.004382174462080003,0.009710255189565942,0.021062757996842263,-9.808583804368975
14.29,0.10000000149011612,136.0,24.29479217529297,0.3101191818714142,-79.78275992651301,40.45898665551553,271.4860979911685,-0.0004974470357410611,-0.0010266802273690696,-0.702883243560791,0.7113044261932373,0.004761533448897085,-0.003108568344665248,-0.003248754025968754,-0.004193990491330625,-0.0007328896317631006,-0.00952113140374422,0.002503843980375677,0.02935944537632168,-9.808883181810383
14.4,0.10000000149011612,131.0,24.289783477783203,0.3180709481239319,-79.78275992981932,40.458986650753715,271.4857667718828,-0.0004965930711477995,-0.0010252498323097825,-0.7030106782913208,0.7111783623695374,0.004332211748455796,-0.002475277868684405,-0.003035022248267443,-0.005224697291851044,-0.00046231475425884133,-0.005728963296860457,0.008747646463452838,0.036505174592603,-9.809649751782418
14.59,0.10000000149011612,128.0,24.29353904724121,0.3021674156188965,-79.78275991237561,40.45898664847192,271.4843507629633,-0.0005132994847372174,-0.0010418181773275137,-0.7029994130134583,0.7111895680427551,0.006108331323142402,-0.004874394552324264,-0.005805340585420388,-0.001793525298126042,-0.0043263123370707035,-0.0010825045173987746,0.00930830593686551,0.014593261554837228,-9.808721798658373
14.69,0.10000000149011612,127.0,24.29479217529297,0.3180709481239319,-79.78275991790078,40.4589866430582,271.4837675538659,-0.0005059688119217753,-0.0010303003946319222,-0.7029080986976624,0.7112798094749451,0.006194748390246492,-0.0042784722028679145,-0.005875032180489059,-0.0010561475064605474,-0.00027423715800978243,0.00304341409355402,0.01154520168201998,0.03140699411742389,-9.808147017359737
14.9,0.20000000298023224,128.0,24.28727912902832,0.3339745104312897,-79.78275990205644,40.458986666048936,271.4826040264964,-0.0005070047918707132,-0.0010263192234560847,-0.7029199600219727,0.7112680673599243,0.0019073447451306727,-0.005789164727381928,-0.007364137214289392,-0.005183617118746042,-0.002262150403112173,-0.00491883885115385,0.011645732678007337,0.026552256527356804,-9.810278327465056
15.0,0.20000000298023224,130.0,24.288532257080078,0.3816851377487183,-79.78275990849164,40.458986663986934,271.481860987544,-0.0005060566472820939,-0.0010321264853700995,-0.7029976844787598,0.7111912369728088,0.002581556296090411,-0.005882634024843831,-0.00744219915254493,0.005198391620069742,0.003955756314098835,0.0054112644866108894,0.005615194823476486,0.012832887618569658,-9.809849726557733
15.19,0.10000000149011612,131.0,24.28352355957031,0.4532511234283447,-79.78275989228085,40.458986691168505,271.4811848734319,-0.0005041076219640672,-0.0010356013663113117,-0.703001856803894,0.7111871838569641,0.00033766811357331737,-0.0058928664531475656,-0.008120127847076636,0.0019017125014215708,0.001641185488551855,0.00397062674164772,0.004472619477601257,0.01705798172391951,-9.805314041376112
15.3,0.20000000298023224,128.0,23.16043472290039,28.578676223754893,-79.78275985650163,40.4589867002623,271.4808126088977,-0.0005260495818220079,-0.0010497657349333167,-0.703080415725708,0.7111093997955322,0.002179371993593189,-0.0013738719142756964,-0.007711074000490613,-0.008234233595430851,-0.004690124653279781,-0.0017278031446039677,0.008682380915852264,0.014942700070096182,-9.810693479776383
15.49,0.20000000298023224,125.0,24.279767990112305,0.4930099844932556,-79.78275985888597,40.45898669788925,271.47999421477317,-0.0004614841600414365,-0.0009402059367857873,-0.7030306458473206,0.7111588120460509,7.032571707221957e-05,-0.0005406915147276939,-0.0076827718278743625,-0.02055052667856216,-0.02262379415333271,-0.014795548282563688,0.0008468732563778759,0.10083400966599584,-9.784050056934355
15.6,0.20000000298023224,122.0,24.288532257080078,0.2544567584991455,-79.78275981520778,40.45898670823104,271.48221094504,-0.00048304154188372195,-0.000968777050729841,-0.703025758266449,0.7111635208129883,0.0035580309934452547,-0.00033326869558648344,-0.0055284202547613475,-0.008480379357933998,-0.0003730188764166087,0.013718271628022194,0.017390966950915753,0.02510636343620717,-9.81236812233925
15.79,0.20000000298023224,123.0,24.230937957763672,1.6460171937942505,-79.78275979947834,40.458986747614425,271.4837462265789,-0.0005173993413336575,-0.0009957808069884775,-0.7031257748603821,0.7110646367073059,0.002100960793153827,-0.005654989528973357,-0.005665531141303013,0.005361295770853758,0.029464786872267727,-0.002401617821305991,-0.009609133761841806,0.015663327143993228,-9.80753247499466
15.9,0.20000000298023224,124.0,24.27350616455078,0.4532511234283447,-79.78275980365639,40.45898674669198,271.48308352351194,-0.0005004400736652317,-0.0009138520690612496,-0.7031010389328003,0.7110891938209534,0.0039463482626982795,-0.0032156857459509037,-0.007739300829682449,0.03329851850867272,0.04679643362760544,0.02295195683836937,-0.00114871749188751,-0.03558296818519011,-9.801147900223732
16.09,0.10000000149011612,125.0,24.279767990112305,0.2703603208065033,-79.7827597966766,40.4589867781116,271.48327269375324,-0.0004926436813548207,-0.0009491210221312939,-0.7030564546585083,0.7111333012580872,-0.0011916214222589961,-0.004625722282128129,-0.00781484022803145,-0.016161413863301274,0.007952481508255005,0.015669286251068115,0.0009664488164708015,-0.0035236486396752298,-9.80167590379715
16.19,0.10000000149011612,126.0,24.21716499328613,1.8845703601837158,-79.7827597697067,40.45898679803591,271.4860714931786,-0.0005001924582757057,-0.0010156476637348533,-0.7030562162399292,0.7111334204673767,0.0024437176177128338,-0.0022171099224303804,-0.003646189777103571,-0.004656707867980003,0.008802186697721481,0.0062711737118661395,0.004198358511202969,-0.008272789169568568,-9.816070579290393
16.39,0.10000000149011612,127.0,24.06817054748535,4.64383602142334,-79.78275977145441,40.45898679448828,271.485647175163,-0.0005199598963372409,-0.0009724912815727293,-0.7030626535415649,0.7111270427703857,0.0026016984894861647,-0.0015159083083529062,-0.004109051684906306,-0.011139796115458013,-0.017595291137695312,0.0012246189871802926,-0.02079143348615616,0.03958436175249517,-9.796510473489764
16.49,0.10000000149011612,118.0,24.02935791015625,5.836602210998535,-79.78275976768639,40.45898682036736,271.4873017926514,-0.00042817179928533733,-0.0009644560050219297,-0.7031903266906738,0.7110009193420409,0.0005350463176308481,-0.003416390080554097,-0.006356400516745411,-0.0486806258559227,-0.021196631714701653,-0.004541255533695221,-0.010043642412638292,0.03427345911506564,-9.809431065917016
16.69,0.10000000149011612,122.0,23.93044471740723,8.174423217773438,-79.78275977267153,40.45898681484925,271.4867264699936,-0.00044532772153615946,-0.0007927978876978159,-0.7032074332237244,0.7109842300415039,0.010506196769079832,-0.00765644619151437,-0.006263803953898464,0.04362015798687935,0.11908847838640213,-0.0033884025178849697,0.027460973225533963,0.05230291003827006,-9.849171667099
16.8,0.10000000149011612,110.0,23.86659049987793,9.494418144226074,-79.78275974614965,40.458986868714646,271.48883289813995,4.546942363958807e-06,-0.0004749432555399835,-0.703404426574707,0.7107897400856018,-0.0025505134254259674,-0.0010260208863582768,-0.007278996023263088,-0.03958839178085327,-0.07852001488208771,-0.02313410118222237,0.016667538466863342,0.07635544076096266,-9.830430171489716
16.99,0.10000000149011612,112.0,23.73136901855469,12.43657398223877,-79.78275974683373,40.458986864264155,271.4881923791766,0.000326906651025638,0.00022384218755178154,-0.7035917639732361,0.7106043696403503,0.00571707969317526,0.006839515654054811,-0.0053506355403275035,-0.009500838816165924,-0.06294115632772446,0.02103789523243904,0.011476997109130024,0.1862975897267461,-9.796273076534273
17.1,0.20000000298023224,120.0,23.65374183654785,13.979218482971193,-79.78275974112691,40.4589868817812,271.493920892179,0.0026783908251672983,0.0021042530424892907,-0.7037877440452576,0.710402250289917,0.006961566278733045,-0.004728275511993498,0.003351493457043115,0.03404451161623001,-0.03599987551569939,0.028682872653007507,0.08275251852348448,0.09245399032719434,-9.856861925125123
17.29,0.20000000298023224,134.0,23.494731903076172,17.61318016052246,-79.78275969969427,40.45898691189097,271.49882945761084,0.00388336880132556,0.002326632151380181,-0.7037894725799559,0.7103941440582275,0.002372404689153243,-0.00669916467774199,0.014871678637822634,0.032462671399116516,0.05768503621220589,-0.03929213061928749,-0.036030752984806895,-0.12996326660737395,-9.928523061275484
17.39,0.30000001192092896,200.0,23.420860290527344,19.100160598754886,-79.78275971680878,40.458986903277314,271.50017284199595,0.006210401188582182,0.001348571735434234,-0.7036151885986328,0.7105528116226196,0.018263752096779842,-0.019733245672337488,0.009197253531972966,0.07793213427066803,0.02135918103158474,-0.0285421684384346,-0.09307093553245067,0.061105459230020635,-9.800746781229973
17.6,0.30000001192092896,227.0,23.22554016113281,22.83749389648437,-79.78275968389667,40.458986921956594,271.5068783943355,0.006624879315495491,-0.0008048315066844225,-0.7025048732757568,0.711647629737854,0.008902899623158591,0.0038739546508190547,0.029414738332102782,-0.05468487739562988,-0.01615280471742153,0.009241362102329731,0.10323539718054237,-0.10468132224865258,-9.973544282913206
17.69,0.4000000059604645,243.0,23.147912979125977,24.92881202697754,-79.78275964563825,40.45898687085957,271.5166394037008,0.004776456393301487,-0.007529767230153085,-0.7020388841629028,0.7120828628540039,0.01319808141687845,-0.012119343354652815,0.11140100428737032,-0.066766656935215,0.0007197225349955263,-0.05284803360700607,0.04600503394380212,-0.01608808853197843,-10.194241590499876
17.89,0.4000000059604645,241.0,23.413349151611328,18.28907966613769,-79.78275966003636,40.45898685958206,271.534571505785,0.00034933339338749647,-0.012848193757236004,-0.701676607131958,0.7123796343803406,0.005621226654957954,-0.0027887378757470264,0.2529055945377696,-0.24311453104019165,-0.04201145842671394,0.08520428836345673,0.2629927217401564,-0.16909414937719702,-11.081512126922608
18.0,0.6000000238418579,250.0,23.402080535888672,19.17967796325684,-79.78275966746908,40.458986856709146,271.56669063091283,-0.00825042650103569,-0.013213389553129671,-0.7014748454093933,0.7125240564346313,-0.007179041667770163,0.004618450195153809,0.3597543704349217,-0.1852547973394394,-0.21142330765724185,-0.15712125599384308,0.06804948463104665,0.2758170543797314,-10.740887256860736
18.2,0.699999988079071,240.0,23.402080535888672,18.60715103149414,-79.7827597008935,40.458986780183395,271.62690072476863,-0.007417515851557255,-0.002042031846940517,-0.7011401057243347,0.7129820585250854,-0.007951781610229722,0.013210232164837604,0.3030328883774473,0.08815383166074753,-0.002395572606474161,0.02858241274952888,0.11606523899361493,0.08221588117070497,-9.649140758514404
18.3,0.8999999761581421,240.0,23.280630111694336,20.984731674194336,-79.78275957215048,40.45898708959546,271.66234267473214,-0.0052703036926686755,0.0016513541340827946,-0.7008069753646851,0.7133296132087708,-0.029515315446632724,0.04530395340619904,0.12973228359619388,-0.0699152871966362,0.02330862544476986,-0.06286796182394028,0.1229569866321981,0.08884385542944075,-9.319398141503337
18.49,0.8999999761581421,240.0,23.24056434631348,22.026412963867188,-79.78275951002999,40.45898711376789,271.6731354367733,-0.002711004577577114,-0.0018426366150379177,-0.7005775570869446,0.7135688066482544,-0.02823844766379678,0.05858800089062152,0.08835815861278246,-0.013146401382982727,0.08951660990715027,-0.049189288169145584,0.09744732063263656,0.18729315128177407,-9.372168093323708
18.6,1.0,242.0,23.23931312561035,21.724246978759766,-79.78275936107698,40.458987252157705,271.713796145916,0.005205896217375994,-0.004559059627354145,-0.7006112933158875,0.7135096192359924,-0.02203401200285061,0.07925136389955023,0.05642808002331184,-0.006976771168410778,-0.014675036072731018,0.014806886203587057,0.1550679581053555,0.13131477741524578,-9.410081439614297
18.79,1.0,240.0,23.155426025390625,23.131710052490234,-79.78275919815594,40.45898732168467,271.7502332401276,0.004916985519230366,-0.0036147418431937695,-0.7010027766227722,0.7131325006484985,-0.02006364579319376,0.08855485114352424,0.06841107460338361,-0.015143923461437225,-0.01851161010563374,0.03435854986310005,0.20074423234909766,0.037541070515289904,-9.576256969571114
18.89,1.0,240.0,23.135393142700195,22.64665222167969,-79.78275909377322,40.458987333960174,271.75671208620065,0.004708899185061455,-0.0019553701858967547,-0.7013260126113892,0.7128224372863771,-0.002369078276154129,0.08695173010814625,0.06142965811632449,0.017454231157898903,0.03608109802007675,0.02151755429804325,0.08463350384496153,0.0008843091409653426,-9.730540432333944
19.1,1.0,232.0,23.09031867980957,24.35628318786621,-79.78275876712017,40.458987505304215,271.7925970029831,0.004422351252287625,-0.005072332452982664,-0.7015817761421204,0.7125571966171265,-0.02135785722035889,0.0904110924243992,0.12628461965544605,-0.05541257560253143,0.06026089936494827,-0.05781595408916474,0.024163061371073127,-0.12320741191506385,-9.902727484703064
19.2,1.0,239.0,23.15667724609375,22.972675323486328,-79.78275846077868,40.45898761925153,271.8351672959328,0.0023452835157513627,-0.008804085664451122,-0.7024900317192078,0.7116352915763855,-0.0155791067758423,0.10151124647844706,0.1648356009905819,0.025544477626681328,0.08618763834238052,0.008966963738203049,0.17749436901882293,-0.07521564027294518,-10.088323956727981
19.39,1.0,241.0,23.1003360748291,23.71219062805176,-79.78275834192686,40.45898763487606,271.8525564146042,0.003368501085788012,-0.00839933380484581,-0.7028343081474304,0.7112960219383241,-0.03226018797149996,0.105235228117458,0.18087397748713352,-0.12052539736032485,-0.09097041934728622,-0.11641209572553635,0.034233862501569096,0.30497958563268185,-9.953687138557434
19.5,0.8999999761581421,244.0,23.14540863037109,22.78183174133301,-79.78275797193469,40.45898763414444,271.8967394900322,0.006484582088887692,-0.009188879281282423,-0.7033409476280212,0.7107637524604797,0.016289866862129104,0.10782512951567078,0.18763321128536647,0.09216144680976868,0.08520150929689407,0.08622686564922333,0.13600817296653986,-0.0912665944173932,-9.893955491781234
19.69,0.8000000119209291,246.0,23.08656311035156,24.11773109436035,-79.78275784985317,40.45898763110593,271.9163257551193,0.006451392080634832,-0.01079138182103634,-0.7032818198204039,0.710800051689148,-0.00110119762217014,0.10992607145875112,0.19657562844212007,-0.07234915345907211,-0.014036928303539751,-0.08546333760023117,0.1595221294462681,0.1930790077149868,-9.880375918149946
19.8,0.8000000119209291,252.0,23.49222755432129,16.39655876159668,-79.78275759494196,40.458987586640895,271.9515995454788,0.00664436025545001,-0.009947494603693484,-0.7032265663146973,0.7108652591705322,0.018066334922914262,0.08335672514449233,0.062026801495829134,-0.00322397006675601,-0.047793347388505936,-0.017258264124393463,0.16355151884257793,0.12059003373607992,-9.82377720952034
20.0,0.699999988079071,248.0,22.926300048828125,26.76567077636719,-79.78275750247185,40.45898757599576,271.9524634552002,0.0038700248114764686,-0.009452356956899166,-0.7034751176834106,0.7106465697288513,0.015384386643998146,0.07734308560542237,-0.02731661235093211,-0.008114198222756386,-0.06758075952529907,0.06293760985136032,0.14105755431577566,-0.0383188369916752,-9.026011757254599
20.1,0.699999988079071,240.0,22.78481864929199,30.0736083984375,-79.78275707503192,40.458987714113434,271.9994637441635,0.0011161755537614226,-0.009316382929682732,-0.7037099599838257,0.7104254364967346,0.0005117875462415622,0.09030847675286303,0.05754228012993276,-0.016131648793816566,-0.07561434060335159,-0.03647483512759209,0.15453699437901378,0.10593579668551684,-9.864575572013855
20.3,0.699999988079071,231.0,22.73724174499512,31.306133270263672,-79.78275679799192,40.458987777793105,272.04206825017934,0.0022431944962590933,-0.00917618628591299,-0.7034368515014648,0.7106950879096985,-0.0042898629534870005,0.09704112702578256,0.2922425369640335,0.022252347320318226,-0.016327690333127975,-0.07932592928409576,0.22458133885636927,0.04204073136672378,-11.041708960533144
20.39,0.699999988079071,239.0,22.602020263671875,34.51865005493164,-79.7827566928763,40.45898778815543,272.0784854960441,0.004510373808443546,-0.0073279975913465014,-0.7032694816589355,0.7108713388442993,-0.010313014494167421,0.09669083624412396,0.4382769784860311,0.020865103229880333,-0.03517429903149605,-0.060223691165447235,0.17326891517266632,-0.01477077023126185,-11.2207144510746
20.49,0.8000000119209291,267.0,22.62580871582031,33.03166961669922,-79.78275659000795,40.45898780209552,272.1317398619652,0.006415752694010735,-0.0071996059268713,-0.7032452225685121,0.7108819484710693,-0.011275385859482784,0.0988437368732782,0.6339126088002868,0.035416778177022934,0.01163676381111145,-0.017527101561427116,0.19358331179246308,-0.04999306342564523,-12.018592754602432
20.7,0.8000000119209291,17.0,22.39918708801269,38.57405471801758,-79.78275630815429,40.45898800300739,272.30601013422006,0.002532299375161529,-0.01024274993687868,-0.7033737301826477,0.7107419967651367,-0.02772852994404456,0.0995994321771362,1.106095946716126,-0.06892241537570952,0.03998285159468652,-0.04704169929027557,0.1830183980986476,0.10843438502401112,-12.30641609787941
20.9,0.8000000119209291,52.0,22.45052146911621,36.506595611572266,-79.78275602916493,40.4589881481152,272.58343941688537,0.003405182622373104,-0.006328473798930645,-0.703104555606842,0.7110502123832703,-0.013935627424954591,0.10599077576031696,1.631679603454855,0.14587008953094482,-0.00073329295264557,0.04661601036787033,0.15161915154196326,-0.023203327716328204,-12.53259341597557
21.0,0.8999999761581421,89.0,22.39918708801269,37.99357604980469,-79.78275593446016,40.45898818465834,272.75974673748016,0.005423792637884617,-0.0034548400435596704,-0.7027989625930786,0.7113595604896545,-0.03722316304000044,0.10550450800173032,1.89270187652042,-0.0041888318955898285,0.02922631986439228,-0.06551937013864517,0.10278199128806592,0.0925193238258362,-12.408061755895615
21.09,0.8999999761581421,90.0,22.488082885742188,36.03744125366211,-79.7827557245458,40.45898832190842,272.9595622491836,0.006225963123142718,-0.0028915228322148323,-0.7024965286254883,0.7116541266441345,-0.04327544460831451,0.1132890612847018,2.131935181277354,0.026900950819253918,-0.0040669869631528854,0.0027047521434724327,0.14131483180448415,0.03914874418638647,-12.413217830657961
21.29,0.8999999761581421,84.0,22.38541412353516,37.69935989379883,-79.78275538968352,40.45898846921232,273.4341949892044,0.0054172505624592296,-0.001994341379031539,-0.7019396424293518,0.7122130393981934,-0.03540140959997575,0.1323602611129046,2.6299221990410304,0.013796574436128141,0.03972707688808441,-0.056412208825349815,0.10020435590296983,-0.02172668192535639,-12.304242103099826
21.49,0.8999999761581421,88.0,22.7497615814209,26.76567077636719,-79.78275514662867,40.45898849925506,274.00748211860656,0.007044153753668071,-0.00264753052033484,-0.7017020583152771,0.7124308943748474,-0.016021455605672117,0.1391103174682637,3.0713263050782524,0.02535788156092167,0.02685649320483208,-0.03701494634151459,0.14890616225078704,0.14154446292668582,-11.824878008365635
21.6,1.2000000476837158,80.0,22.09368705749512,29.48517799377441,-79.7827547726141,40.45898860133612,274.30397874832147,0.008764734491705894,-0.0020176253747195005,-0.7016968727111816,0.7124188542366028,-0.01968865115041983,0.16649051574150442,3.169148586677239,-0.0054798792116343975,0.007357467897236347,-0.04956064000725746,0.15341242862865329,0.12819579949602486,-11.151126737594604
21.8,1.2000000476837158,80.0,22.81236457824707,27.27458381652832,-79.78275422139137,40.45898873179924,274.90409452438354,0.010305479168891908,-0.004522210452705622,-0.7014318704605103,0.7126476764678955,-0.026518136599966127,0.17912872386361822,3.2029363385404523,-0.09950540214776993,0.00960005447268486,-0.12135976552963255,0.13375217098742725,0.09861133681610228,-10.332893106937409
21.89,1.2999999523162842,82.0,22.889991760253906,26.11362648010254,-79.78275407937987,40.45898871329682,275.22864253044133,0.010592985898256302,-0.00827754009515047,-0.7012470960617065,0.7127915620803833,0.010176580469988657,0.18628035832354428,3.2757264955960848,0.006696753669530153,0.040019422769546516,-0.00032241566805168986,0.16932019907981158,-0.07480221471749246,-10.445225136280062
21.99,1.2000000476837158,86.0,22.78857421875,27.505186080932607,-79.78275394743422,40.45898868378018,275.5573538017273,0.01073790155351162,-0.009533556178212166,-0.7013477683067322,0.7126746177673341,0.032640103227570355,0.1986826402065973,3.282239962401755,0.017606787383556366,-0.008507437072694302,0.0714377611875534,0.19930360632017247,-0.029583384599536657,-9.986127490997317
22.2,1.100000023841858,88.0,22.84992599487305,25.898927688598643,-79.78275307355905,40.458988770780884,276.49842388153075,0.0086814658716321,-0.005347290076315403,-0.7014031410217285,0.7126919031143188,0.03697236681534445,0.16585635104906848,3.2250996869586515,0.06941354274749756,0.03805728629231453,0.0034794718958437447,0.10196349986828863,-0.10141155011951923,-9.789008495807648
22.39,1.100000023841858,97.0,22.730979919433594,28.37988090515137,-79.78275295193289,40.4589887331676,276.8202784729004,0.0113106956705451,-0.005279721692204475,-0.7013161182403564,0.7127411961555481,0.02340096709843013,0.16733338579757515,3.20736329750508,-0.07708356529474257,0.020717356353998184,-0.052535459399223335,0.1393357503041625,0.1116415279917419,-9.64551373064518
22.5,1.0,94.0,22.80109596252441,27.401813507080078,-79.78275283517522,40.45898868818092,277.140472240448,0.013402799144387243,-0.00615938100963831,-0.7013154625892639,0.7126984596252441,0.023785400875281186,0.16813739833741154,3.195506838414293,-0.04793056473135948,0.012864375486969948,-0.06521984934806824,0.23447601545602084,-0.0049851350672543045,-9.7240956312418
22.69,0.8999999761581421,93.0,22.769794464111328,28.37988090515137,-79.78275239707146,40.45898866176746,277.75171787261957,0.012979756109416485,-0.012894922867417336,-0.7016845345497131,0.7122527956962585,0.03808493385456069,0.18306898621408216,3.1725227106336416,-0.0931088998913765,0.023166079074144363,-0.0641804039478302,0.2264477335475385,0.10373846786096692,-9.898282431364061
22.79,1.0,86.0,22.79358291625977,27.51313781738281,-79.78275209947745,40.45898866825493,278.0501430702209,0.01207797508686781,-0.015025381930172443,-0.7018819451332092,0.7120323777198792,0.05745208590334281,0.18654630940853195,3.154512862345938,-0.08723840862512589,-0.05050082877278328,-0.07444838434457779,0.18875934060662986,0.1151776956114918,-9.870676556825636
22.89,0.8999999761581421,87.0,22.73974418640137,27.58470344543457,-79.78275202338223,40.45898861167598,278.3659403991699,0.011245056986808777,-0.014654245227575304,-0.7020013928413391,0.7119360566139221,0.06803712476458933,0.17610084295840364,3.152612354630292,-0.09756692498922348,-0.0037399120628833775,-0.04524335265159607,0.19257326010614634,0.12242297139018775,-9.822418316602707
23.1,1.0,98.0,22.799842834472656,27.67217254638672,-79.78275179128076,40.458988404150894,279.29136878967284,0.008029008284211159,-0.012517623603343964,-0.7018682956695557,0.7121515274047852,0.07876523803510574,0.11388990739055875,3.1046259800351925,-0.0222880020737648,-0.04059150069952011,-0.07462779432535173,0.15349564181640746,0.1303016193956137,-9.785725284218787
23.19,0.8000000119209291,98.0,22.799842834472656,26.360130310058594,-79.78275187801242,40.45898825549673,279.54965145111083,0.006666357163339853,-0.012207315303385258,-0.7021615505218506,0.7118818163871765,0.08392365160975876,0.08029893880917606,3.0273062897153533,-0.09992413967847824,-0.05045423284173012,-0.06633340567350388,0.12843130524270238,0.22704901004210115,-9.558038799762727
23.39,0.699999988079071,116.0,22.69467163085937,28.57072448730469,-79.7827518909032,40.45898819219249,279.85052616119384,0.005033909808844328,-0.013026807457208632,-0.7024741768836975,0.7115722298622131,0.10642757516570524,0.06138234951402139,2.9879485786326536,0.11357493698596954,0.0597115233540535,0.14022475481033325,0.24324925091117625,-0.0952640982158482,-9.490050299763679
23.59,0.699999988079071,131.0,22.84366607666016,26.7418155670166,-79.78275166421834,40.45898774106962,280.4979270172119,0.003146735019981861,-0.012605824507772924,-0.7033688426017761,0.7107064127922058,0.13194342281332785,0.05678219103927276,2.98619273790631,0.013687480241060257,-0.001617124187760055,0.004257097374647857,0.1814767431467772,-0.06751584397628904,-9.85189880847931
23.7,0.8999999761581421,104.0,22.799842834472656,26.58278083801269,-79.7827516814393,40.458987665172074,280.7961905670166,0.003695907769724728,-0.011644317768514156,-0.7037696242332458,0.7103232741355896,0.10985360564932692,0.052119697093394216,2.9696114793551565,-0.09801359474658966,-0.11704770475625992,-0.04121118038892746,0.15805944845080375,0.11666287925094368,-9.66803720533848
23.79,0.8999999761581421,130.0,22.79358291625977,26.46350288391113,-79.78275150841445,40.45898708543107,281.5092347335816,0.0024764316622167826,-0.012096074409782888,-0.7035405039787292,0.7105479240417479,0.15172525700663972,0.05991891325189716,2.96951527282794,0.07022218406200409,0.00017713167471811178,0.012068006210029123,0.2613407005928457,-0.010396395111456512,-9.651732244491578
24.0,0.8999999761581421,151.0,22.813615798950195,25.350255966186523,-79.7827515158043,40.458986990807894,281.8057730865478,0.0014308964600786569,-0.012864400632679462,-0.7028143405914307,0.7112556099891663,0.14679064223803515,0.05607015407613763,2.9610676262665616,-0.014375681057572363,0.009257976897060871,0.021932829171419144,0.1803262669220567,-0.052989542176947,-9.72210640847683
24.19,0.8999999761581421,197.0,22.816120147705078,25.191219329833984,-79.78275107774414,40.45898673662568,282.4857552719116,0.0004982404643669722,-0.013933747075498104,-0.7015066146850586,0.7125266194343567,0.1391374060855531,0.07749345385636199,2.9182207899927284,-0.11667521297931673,-0.04444286599755287,-0.15813304483890533,0.1531752143986523,0.32993469804525377,-9.38620959699154
24.29,1.0,77.0,22.67338562011719,28.89674568176269,-79.7827512182511,40.45898654135424,282.8644574356078,0.0010629418538883328,-0.013969043269753456,-0.7010310292243958,0.7129932641983032,0.16347152613828667,0.047261273016129146,2.9197272063807533,0.10091616213321686,0.015863155946135514,0.04618503525853157,0.2245106971822679,0.04407593700103462,-9.473624301552773
24.49,1.0,2.0,22.71720886230469,28.125423431396484,-79.78275123742985,40.45898637853139,283.4437459182738,7.054937304928899e-05,-0.013481038622558115,-0.7010013461112976,0.7130325436592102,0.12952885611128526,0.04896458356109338,2.880898149576109,-0.05445026606321335,-0.04419410601258278,-0.04636527597904205,0.208893789164722,-0.01049127532169223,-9.682072861790658
24.59,1.0,359.0,22.66963005065918,29.18301010131836,-79.7827512048417,40.45898622736448,284.1169217300415,-0.0018066399497911328,-0.015136378817260262,-0.7016116976737976,0.7123964428901672,0.12687387257687047,0.02474625680987305,2.9350594059650836,-0.018346279859542847,-0.02678411640226841,-0.05654384195804596,0.17059702998027207,0.2586869965866208,-9.747655817270278
24.69,1.0,359.0,22.714704513549805,27.560848236083984,-79.78275141544401,40.45898616599733,284.48929721832275,-0.0017465956043452024,-0.01482393126934767,-0.7017771601676941,0.7122402191162109,0.11293417973237885,0.00612900345518555,2.999188577186461,-0.0076081124134361735,-0.020032310858368874,0.0016667068703100085,0.14975798279978336,0.2253185448423028,-9.884065511226657
24.9,1.2000000476837158,4.0,22.710947036743164,27.02012825012207,-79.78275147149333,40.45898613103947,284.78883010864257,-0.002140403725206852,-0.014131261967122557,-0.7018901705741882,0.712141752243042,0.114163073469434,0.0053304172520165505,2.9830160010033184,0.13546907901763916,0.08206082135438919,0.1345934420824051,0.20933741010725496,-0.03240213540382683,-9.703222825527194
25.09,1.2999999523162842,1.0,22.747257232666016,27.179162979125977,-79.78275155564741,40.458985981727636,285.43915588378906,-0.002870905213057995,-0.0126160541549325,-0.7023419737815857,0.7117221355438232,0.08039861401134021,-0.010899162109393509,2.98753681450186,-0.08972753584384917,-0.022870764136314392,-0.05871281772851944,0.20580002736300232,0.2194193437881768,-9.638413456678393
25.2,1.2999999523162842,11.0,22.66963005065918,28.63433837890625,-79.78275161751246,40.458985966879,285.73755008697515,-0.002892560325562954,-0.012901389971375464,-0.7023700475692749,0.711689293384552,0.07581644438800672,-0.008005296972108418,2.979880594556917,0.03582274913787842,-0.009579172357916832,0.010377980768680573,0.1487315863184631,0.11902188358828425,-9.67324648976326
25.29,1.2000000476837158,18.0,22.727224349975586,27.79940223693848,-79.78275179899106,40.45898587724428,286.38134510040277,-0.0003127902746200561,-0.011987498961389065,-0.7020435333251953,0.7120331525802612,0.05510605311672569,-0.01055987584366759,3.0095091340441646,-0.025699671357870102,-0.06334519386291504,-0.002850352320820093,0.13144436633214354,-0.03668444428592922,-9.816458834409712
25.49,1.2000000476837158,22.0,22.64333724975586,28.745662689208984,-79.78275186675197,40.45898588753306,286.6827014160156,-0.0003281045355834067,-0.011544119566679,-0.7017282843589783,0.7123511433601379,0.02099261777784616,-0.007996726590533399,3.0173447640293825,-0.09940285980701448,0.0069841151125729075,-0.0484662763774395,0.17349721239879728,0.14762923998758198,-9.84691815018654
25.59,1.2000000476837158,31.0,22.70719146728516,27.38591003417969,-79.7827520847118,40.4589858909877,287.3279555511474,-0.0015270080184563994,-0.010497581213712692,-0.7004929184913635,0.7135805487632751,0.0029205646760301525,-0.02082176154736903,3.0649094960150336,-0.03676031529903412,-0.0018841300625354047,-0.09278012067079544,0.1459040464181453,0.2529677984118462,-9.915719997882844
25.79,1.100000023841858,31.0,22.66211700439453,28.32421875,-79.78275215514171,40.45898588675984,287.66458160400384,-0.001883750548586249,-0.00916011817753315,-0.6997404098510742,0.7143359780311584,0.009057723911620718,-0.026780157953631787,3.072036604193769,0.08588872104883194,0.007480262313038111,0.029644327238202095,0.17744983881711962,0.0050414967443794005,-9.8543183863163
26.0,1.2000000476837158,33.0,22.66462135314941,27.91867828369141,-79.78275228166302,40.45898599151399,288.28129989624017,-0.0011632954701781273,-0.006293884012848139,-0.6982241272926331,0.7158506512641907,-0.012777053126889195,-0.023085796908717343,3.093550417117987,0.15085607767105105,0.033907450735569,0.06414272636175156,0.19513000996783372,-0.06295186375267804,-9.916821613311768
26.1,1.399999976158142,30.0,22.677143096923828,27.823257446289066,-79.78275243075444,40.45898605969328,288.61440116882324,-1.9514312953106128e-05,-0.005733868107199669,-0.697856605052948,0.7162145376205444,-0.04335830160370392,-0.02711781842286113,3.102231538426949,0.04594037309288978,0.07254991680383682,0.031032348051667213,0.12581167040392754,0.1266661678813398,-9.868329484462741
26.19,1.399999976158142,28.0,22.640832901000977,27.99819564819336,-79.78275248313132,40.4589861281079,288.9251120758057,0.00093260157154873,-0.005410250741988421,-0.6978204250335693,0.7162517309188843,-0.04329697302317787,-0.014531547966761543,3.1147879099732405,0.10129743069410324,-0.009313858114182949,0.07202346622943878,0.1971345268562436,-0.05560932319611312,-9.951961040496826
26.4,1.399999976158142,31.0,22.79358291625977,25.350255966186523,-79.78275255860814,40.45898623298579,289.5680983734132,0.001482269144617021,-0.005625213496387005,-0.6989462971687317,0.7151505351066589,-0.04799267405379902,0.008102320551128202,3.1440261450536418,0.06921243667602539,-0.012574895285069942,0.007370432838797568,0.23739591395482426,0.06826784159056842,-9.944968940019608
26.49,1.2000000476837158,27.0,22.693418502807607,26.7418155670166,-79.78275258153101,40.45898629623994,289.8817332458496,0.0019596784841269255,-0.004870976321399212,-0.6999479532241821,0.7141746282577515,-0.051639123030786487,0.019032243173220432,3.1248153798215563,0.022071776911616325,0.03298986330628395,0.06098295375704765,0.15071210221387446,0.2083550413325429,-9.66079308986664
26.7,1.2999999523162842,22.0,22.727224349975586,26.39988899230957,-79.78275261007569,40.45898633973054,290.51529724121093,0.002449095249176025,-0.003198897233232856,-0.7016133666038513,0.7125465273857117,-0.04156988004309746,0.01981380920978897,3.0920202960920498,-0.006432218942791224,0.06143784895539284,0.005361285526305437,0.12990449295379222,0.04528418188914657,-9.771805402636527
26.89,1.399999976158142,22.0,22.7497615814209,26.41579246520996,-79.78275254959641,40.45898652907673,291.15064460754394,0.004374245647341013,-0.004106276668608189,-0.7028838396072388,0.7112793922424316,-0.0527053718597905,0.03993214819342567,3.0980280125769992,0.0031258712988346806,0.04577169194817543,-0.0013343202881515026,0.21640079179778696,0.21414822505787007,-9.825560610294342
27.0,1.399999976158142,5.0,22.65585708618164,27.401813507080078,-79.78275253498815,40.458986572455686,291.46022636413574,0.004074311349540949,-0.0057559632696211355,-0.7032520174980164,0.7109057307243347,-0.038536252653685904,0.0560295436234073,3.0890102100625576,0.029052712023258213,0.0287618525326252,0.07050003856420517,0.1576859392784536,-0.00992199406027794,-9.714061224460602
27.2,1.5,359.0,22.71345138549805,26.55892562866211,-79.78275251422828,40.45898686908354,292.1191390228272,0.0024489967618137602,-0.0061996253207325935,-0.7037212252616882,0.7104449272155762,-0.053903442610827496,0.07508417425546711,3.088910785451165,-0.056150928139686584,-0.0636671781539917,-0.07329969853162767,0.18276601765304806,0.2200754196569324,-9.662958898544312
27.3,1.7000000476837158,356.0,22.730979919433594,26.272661209106445,-79.78275247282515,40.45898691987446,292.4493296813965,0.004691699519753456,-0.00401886273175478,-0.7038097381591797,0.710361659526825,-0.04763244199954158,0.066774154004882,3.0920952086177147,0.056605201214551926,-0.04583155736327171,-0.0775025337934494,0.19188551791012287,0.1885538292489946,-9.712199470996858
27.5,1.7000000476837158,358.0,22.665874481201172,27.043983459472656,-79.78275240587097,40.458987026854466,293.06651336669916,0.007902349345386028,-0.007199478801339866,-0.7029305100440979,0.7111782431602478,-0.06388967586455932,0.07996091351845587,3.074270109866877,-0.03784774616360664,2.847009000106482e-06,-0.039522647857666016,0.19087086154147986,-0.08148188201710582,-9.7022317224741
27.6,1.399999976158142,354.0,22.78857421875,24.642547607421875,-79.78275226015964,40.45898706289806,293.39404518127435,0.007261459715664388,-0.009672312997281551,-0.7024157643318176,0.7116641402244568,-0.05468428141177924,0.10150291949193402,3.0797609531276207,-0.16232845187187195,-0.0747760608792305,-0.1060865968465805,0.20397523926571007,0.3256826759129763,-9.668465806245806
27.8,1.399999976158142,355.0,22.62080001831055,28.713855743408203,-79.78275210251887,40.45898708292517,294.0241759490967,0.004083204548805952,-0.008216883987188341,-0.7007142901420593,0.7133829593658447,0.0036722284097611656,0.0966121448842415,3.038022981604293,0.03528500720858574,0.058646101504564285,0.03191084787249565,0.1555418018437922,-0.02354468177072704,-9.507224741578103
27.9,1.5,356.0,22.71345138549805,26.15338516235352,-79.78275206417541,40.45898709983311,294.3271773529052,0.0047490689903497705,-0.00785946473479271,-0.7001072764396667,0.7139787077903748,-0.015301957058383938,0.08676162796966977,3.0252324500748187,-0.15289488434791565,-0.09013129025697708,-0.08984412252902985,0.1093540698196739,0.2488566576316953,-9.631134842634204
28.0,1.5,354.0,22.624555587768555,28.47530174255371,-79.7827520260301,40.458987114092366,294.6296466064453,0.005188671872019768,-0.007989768870174885,-0.700164258480072,0.7139182090759277,0.005652858402152194,0.08137220448249388,3.02095973641526,0.09568145871162416,0.09565040469169617,0.017191726714372642,0.1983047374337912,0.13131605649366976,-9.733913691043854
28.2,1.600000023841858,353.0,22.560701370239247,28.817228317260746,-79.78275189800213,40.45898709156796,295.5765326690674,0.006096441298723221,-0.011474953033030031,-0.7013636231422424,0.7126852869987488,-0.003402954234386621,0.09722959584593333,3.0592438783169,-0.10034964978694916,-0.027289710938930508,-0.09611024707555772,0.19487561954185367,0.04302613338455558,-9.795349801182748
28.3,1.600000023841858,352.0,22.652101516723643,27.55289649963379,-79.7827518659087,40.45898710303064,295.8828833770752,0.005386930424720049,-0.012737461365759373,-0.7012701630592346,0.7127615213394165,0.01749297670485921,0.09889827932562144,3.0646857665146183,0.05124496296048165,0.07039270550012589,0.060129642486572266,0.1944692380540073,0.009823568975552916,-9.870264912843703
28.5,1.600000023841858,351.0,22.73724174499512,25.42182159423828,-79.78275183694943,40.45898711721086,296.18970710754394,0.004074973985552789,-0.013583144173026085,-0.7010175585746765,0.7130030393600464,0.020971693210930863,0.1015535913226734,3.0697165284793693,-0.0037019248120486736,-0.04743044823408127,0.07544587552547455,0.17482284927740693,-0.1255436395201832,-9.872111463546752
28.69,1.7999999523162842,356.0,22.697175979614247,25.80350685119629,-79.78275170891723,40.45898712908928,296.80868942260736,0.004931412171572447,-0.010050144046545029,-0.7007026672363281,0.7133656144142151,0.021927202862724447,0.09734965978767544,3.074085825477124,-0.0730895847082138,-0.12162069231271745,-0.1038796529173851,0.14718948368914425,0.2571932157129049,-9.80414342880249
28.8,1.7999999523162842,358.0,22.63832855224609,27.831209182739247,-79.78275167306846,40.45898712584452,297.118978805542,0.006342915818095207,-0.008838475681841373,-0.7007779479026794,0.7132965326309204,0.026178118797434168,0.08567806848899574,3.0771241979299986,0.04055516049265862,0.08840576559305191,0.0034004265908151865,0.1553143634274602,0.1958058201894164,-9.822563327550887
28.99,1.7999999523162842,358.0,22.67964744567871,26.63049125671387,-79.78275162866609,40.45898711475702,297.7338278961182,0.006899403408169746,-0.011686591431498528,-0.7002565264701843,0.7137623429298401,0.019091109048075854,0.0858213883281068,3.076996760010879,-0.08450249582529068,0.06284678727388382,-0.014820910990238191,0.16241196960210802,0.09239635870791972,-9.843781703710556
29.1,2.0,359.0,22.67338562011719,26.39988899230957,-79.78275153133593,40.45898710303896,298.3463862609863,0.005709837190806866,-0.012111871503293514,-0.700042188167572,0.7139759659767151,0.043237152564980334,0.0877184357913443,3.0456295297957907,-0.013991335406899452,0.023208053782582283,-0.01859333924949169,0.22057413233444093,0.0985544360987842,-9.704882850050927
29.19,2.0,0.0,22.69091415405273,26.54302215576172,-79.78275152527846,40.458987094656244,298.65428192138666,0.006305831018835306,-0.012212400324642658,-0.7000386118888855,0.713972806930542,0.05844057677280105,0.07951007265149138,3.0334126890049617,0.0887984037399292,-0.003993832506239414,0.10283780097961426,0.19924716241657736,-0.01725882216123864,-9.672190482616426
29.39,2.0999999046325684,2.0,22.648345947265625,27.15530776977539,-79.78275152502968,40.45898707472643,298.95747406005864,0.0060532172210514545,-0.011925121769309044,-0.6999996304512024,0.7140180468559265,0.05636518332889168,0.07751718087077081,3.0293004068650577,0.04776498675346375,0.035868465900421136,0.07745666801929474,0.1858397710137069,-0.07269709831103682,-9.745270153284071
29.59,2.0999999046325684,3.0,22.604522705078125,27.43362045288086,-79.78275153304355,40.45898697707428,299.5660556030273,0.006132354494184257,-0.010659915395081043,-0.7005331516265869,0.7135139703750609,0.05882457113443475,0.060873688826103674,3.038284384247427,-0.0635930746793747,-0.028981603682041168,-0.02855001389980316,0.15430359911173586,0.2464341379143297,-9.833889384269717
29.71,2.200000047683716,10.0,22.67964744567871,26.73386383056641,-79.78275155219559,40.45898693945257,299.8708861541748,0.005707090720534325,-0.009856193326413631,-0.7006650567054749,0.7133994698524475,0.05409744545015552,0.05244311859322443,3.0559128175016363,-0.0735238716006279,-0.01836536079645157,-0.06717165559530258,0.2444125910103321,0.2262495494820177,-9.940410450696943
29.9,2.299999952316284,14.0,22.55819702148437,28.47530174255371,-79.78275160312346,40.458986870077894,300.47982246398925,0.0038401097990572453,-0.012443950399756432,-0.7003541588783264,0.7136768102645874,0.0824599835724096,0.0329095341197769,3.04158873029584,0.0865180715918541,0.08979076892137527,0.11107448488473892,0.19164570897817607,-0.09554975297302007,-9.819941436052325
29.99,2.299999952316284,20.0,22.62956428527832,27.89482307434082,-79.78275164429328,40.458986834452965,300.7850993347168,0.0033956824336200953,-0.013287218287587166,-0.6998800039291382,0.7141288518905641,0.08245277989224263,0.03244402718312392,3.062741239035857,0.035999491810798645,-0.0460275337100029,0.07251779735088347,0.12638118920847774,-0.023477091612294318,-9.9521095597744
30.19,2.299999952316284,24.0,22.66462135314941,25.779651641845703,-79.78275171485525,40.458986672513106,301.3939116668701,0.0022264760918915267,-0.009631303139030932,-0.6994839906692505,0.7145799398422241,0.09796181421188184,0.014682621088472122,3.0923833539375263,0.09303932636976242,-0.06526400148868561,0.0366414375603199,0.1554077178798616,-0.05621087377890945,-10.020986251831054
30.3,2.299999952316284,28.0,22.60076713562012,27.12350082397461,-79.78275179376278,40.45898663173627,301.69937164306634,0.0027473436202853922,-0.00694963987916708,-0.6995288133621216,0.7145653367042542,0.09094018835097074,0.0018164846798694207,3.101744008941361,0.033917728811502464,-0.0006411570939235388,0.04884905368089676,0.11857272606343032,8.359691128134726e-05,-9.988375160694124
30.49,2.299999952316284,27.0,22.62580871582031,26.209047317504893,-79.7827519049591,40.458986533205426,302.3195002746582,-0.001001998083665967,-0.0059277843683958045,-0.7000508308410645,0.7140676975250244,0.05761767138338589,-0.008269414625780727,3.0999123876646744,-0.1400182992219925,-0.07716519385576248,-0.07742109149694443,0.13138921977952125,0.23962194895371802,-9.796608706712725
30.59,2.299999952316284,30.0,22.66086578369141,26.94061088562012,-79.78275193932654,40.45898650786041,302.6208823394776,-0.002606064546853304,-0.006352582480758429,-0.7002538442611694,0.7138609886169434,0.08622225639164081,-0.016595855333020413,3.090004649464866,0.028635835275053974,0.023609595373272896,-0.07057181745767592,0.1741444260813296,0.21173688814044,-9.864344022274018
30.69,2.299999952316284,32.0,22.678394317626953,25.437725067138672,-79.78275197668759,40.45898645984325,302.92940742492675,-0.001752784359268844,-0.00728124612942338,-0.700171709060669,0.7139353156089783,0.0931305238238944,-0.01313635929480364,3.0786575468760287,0.01949246227741241,0.10573780536651613,0.04987626150250435,0.08840301191434265,0.1276327765826136,-9.733318444490429
30.9,2.299999952316284,36.0,22.6420841217041,26.28856468200684,-79.78275211466756,40.45898631576731,303.5384677124024,0.0017691303510218859,-0.011508110910654068,-0.6999398469924927,0.7141069173812866,0.08047808274783934,0.0062979312837870005,3.065569240818228,-0.07993848621845245,0.0722622498869896,-0.07618900388479233,0.17733135960996152,0.3009021028876305,-9.800250937342645
31.1,2.4000000953674316,36.0,22.66462135314941,25.75579643249512,-79.78275222260042,40.458986240693775,304.1538241577148,0.002286003204062581,-0.010239222086966038,-0.6999329924583435,0.7141315340995789,0.0869120596299425,0.0273556588332785,3.062336015725365,0.09854193776845932,0.0583174042403698,0.09804075956344603,0.16708890158683062,0.03752088848501444,-9.72522355914116
31.2,2.200000047683716,36.0,22.63707733154297,27.91867828369141,-79.78275226306751,40.45898620588408,304.460079498291,0.0011792918667197227,-0.009277915582060814,-0.699881911277771,0.7141973972320557,0.07641046929517517,0.018851444803954447,3.061735993029876,-0.009072569198906422,-0.04880282282829285,0.014271280728280544,0.1226051669754088,-0.1175721030123532,-9.783172974586488
31.29,2.0999999046325684,33.0,22.61203575134277,27.00422477722168,-79.78275228499814,40.45898616481429,304.76883346557617,0.0012444292660802605,-0.008661787025630474,-0.6999247074127197,0.7141631245613098,0.06256916479271485,0.011954469283310759,3.0470820726740504,-0.05873990803956985,0.004147471394389868,-0.05450877547264098,0.17118739776313305,0.23147434730082755,-9.696651724576947
31.5,1.8999999761581416,26.0,22.519384384155273,29.278430938720703,-79.78275235458192,40.45898610190206,305.3785021972656,0.002782084513455629,-0.009931636042892931,-0.6998295187950134,0.7142354846000671,0.07250869099903456,0.017547180707967673,3.0499437052073946,0.0945667400956154,0.08173816651105881,0.1096261665225029,0.22075018834322693,-0.09233472540043294,-9.84236901640892
31.59,1.8999999761581416,27.0,22.645841598510746,26.25675773620605,-79.78275238527272,40.458986084426755,305.6907427978516,0.002651775255799293,-0.010756740346550941,-0.6999293565750122,0.7141262292861938,0.06739370140347825,0.027503743700741348,3.0731851027147186,0.023580813780426986,-0.02340447157621384,0.0946604311466217,0.1483975823968649,-0.06228018312714994,-9.925149217844009
31.8,1.7999999523162842,27.0,22.61704444885254,27.25072860717773,-79.78275247039795,40.45898601808726,306.30639678955083,0.0016994737088680267,-0.010343554429709913,-0.7001742124557495,0.7138950824737549,0.06771661011411972,0.025295929787347918,3.067601325408107,-0.05056792125105858,-0.08222846686840057,-0.0762515738606453,0.1376745746098459,-0.019571453053504228,-9.728405029177669
31.99,1.8999999761581416,28.0,22.561954498291016,28.01409912109375,-79.78275255468834,40.45898596233553,306.91418869018554,0.0014128033071756365,-0.008114422671496868,-0.701288640499115,0.7128298878669739,0.072650136180722,0.008055994300683829,3.0183613083977963,0.07334135472774506,0.010280783288180828,0.07005304098129272,0.11369709838181735,-0.024134896520990882,-9.616157784461976
32.1,1.8999999761581416,32.0,22.63457298278809,26.46350288391113,-79.7827526364433,40.45898596814738,307.2283557128906,0.0009776744991540909,-0.007112637162208556,-0.7016509175300598,0.7124847173690796,0.06757193599928521,-0.0016047994297804233,3.029003960346724,0.06504056602716446,0.07350153475999832,0.07394225150346756,0.1767746133171022,-0.03497061624191702,-9.741910927891732
32.2,2.0,33.0,22.59450721740723,27.043983459472656,-79.7827527240267,40.45898586208916,307.84178955078124,-0.00031652810866944486,-0.005747855640947819,-0.7017309665679932,0.712418794631958,0.06558427535159084,0.0003656247545432145,3.0333541141917486,0.06538426876068115,0.10991545021533966,0.07488813996315002,0.16517404809594155,0.11816778810694815,-9.817813049554823
32.4,2.0,35.0,22.65585708618164,25.54109764099121,-79.78275277714141,40.458985799500866,308.4530909729004,-0.0014345475938171148,-0.006481599528342485,-0.7008040547370911,0.7133229374885559,0.05399288141331434,0.002399812866956577,3.0765290615325083,-0.1506129503250122,-0.034346260130405426,-0.08243749290704727,0.13049716307781636,-0.13035779834724964,-10.017295489311216
32.6,2.0999999046325684,37.0,22.55945014953613,27.86301612854004,-79.7827528063354,40.45898578029019,308.76164657592767,-0.00166677322704345,-0.008415673859417439,-0.7000472545623779,0.714044988155365,0.06603768154007507,0.0018403539323541762,3.0785261740982848,0.006692006252706051,0.044525451958179474,-0.05448726564645767,0.1565995814278722,0.18126909390091892,-9.900043612718582
32.7,2.200000047683716,40.0,22.529399871826172,28.825180053710927,-79.78275282758158,40.4589857546509,309.070244140625,-0.001734190620481968,-0.011138765141367912,-0.6993081569671631,0.7147315144538879,0.0779356856502556,0.014839284169240788,3.093393399195252,0.016939220950007442,0.05861824378371239,0.01708059571683407,0.11269610987976195,0.03872550170402974,-9.931348435878752
32.89,2.299999952316284,42.0,22.6132869720459,26.41579246520996,-79.78275290034165,40.45898567260877,309.6884425354004,-0.004012562334537506,-0.010924655944108965,-0.6984317898750305,0.7155820727348328,0.09084231881760653,0.020279252708662248,3.1323878370248366,0.019701285287737846,-0.07829450815916061,0.012667093425989151,0.10728760899044572,-0.02066228767856956,-10.0589592397213
33.0,2.5999999046325684,49.0,22.52439308166504,28.35602569580078,-79.78275292647879,40.45898565510635,310.0027507019043,-0.005164180416613817,-0.009347612969577312,-0.6980260014533997,0.7159928679466248,0.07315761191501767,0.009286146994795186,3.1492327920116634,-0.10418446362018584,-0.023129794746637344,-0.08388101309537888,0.05752638766542077,0.2267458136379719,-9.967700575590133
33.09,2.700000047683716,50.0,22.72597312927246,23.9825496673584,-79.78275295656525,40.45898570938896,310.6227801513672,-0.006197101436555386,-0.006133795715868473,-0.6977980136871338,0.7162415981292725,0.06049306333943031,-0.00566442776559432,3.158774459260852,0.033170361071825034,0.01660978049039841,-0.004329465795308352,-0.02225493217818439,0.2785923439264298,-9.917933753728867
33.29,2.9000000953674316,50.0,22.644588470458984,25.76374816894531,-79.78275301673392,40.45898570842331,310.93365509033197,-0.005299517884850502,-0.00609561474993825,-0.6979596018791199,0.7160916924476624,0.06472190767778037,-0.0123561816582075,3.1327402863044687,0.07921312004327774,0.015372361056506634,0.11960940808057785,0.01989445918472484,-0.07393721966072918,-9.75322061240673
33.4,2.799999952316284,49.0,22.603271484375,26.527118682861328,-79.7827530273563,40.45898571219652,311.2464297485352,-0.00436624838039279,-0.006839116103947164,-0.6981818079948425,0.7158744931221008,0.045088065341224205,-0.00684552951942155,3.1208411448788023,0.02248352020978928,0.07425732910633087,0.01643114909529686,0.05119455660693348,0.07487144026905299,-9.713970592617988
33.59,2.799999952316284,52.0,22.55319023132324,27.735788345336914,-79.78275307988497,40.458985774718535,311.87662536621093,-0.0021872222423553467,-0.007732387166470289,-0.6987095475196838,0.7153603434562683,0.04269701664802466,0.009084259383980334,3.1308697237568923,0.13643373548984528,0.09280924499034884,0.06739936769008636,0.13105771919712425,0.0795336993969977,-9.87558587908745
33.79,2.799999952316284,52.0,22.604522705078125,26.702056884765625,-79.78275309438921,40.45898581411063,312.50723297119134,-0.0012784319696947932,-0.00719843665137887,-0.69862300157547,0.7154527306556702,0.02808200839130688,0.02250830778925397,3.141156894161403,0.025115422904491425,0.008708867244422436,-0.005175942555069922,0.1286295989435166,0.014886006060987712,-9.89536467075348
33.9,2.799999952316284,54.0,22.69216728210449,24.22110366821289,-79.78275309970459,40.45898582880413,312.82156021118163,-0.0013103514211252332,-0.007902167737483978,-0.6987376213073729,0.7153332233428955,0.007043224340897436,0.02355446374967408,3.145889445347843,-0.14612436294555664,-0.02031373605132103,-0.14292731881141665,0.0427600393909961,0.32373591855168343,-9.82271535515785
33.99,2.799999952316284,55.0,22.63707733154297,26.511213302612305,-79.78275310765244,40.45898584506313,313.13571578979486,-0.0011610508663579822,-0.008446327410638329,-0.6988053917884827,0.7152610421180725,0.026070222989012515,0.020610064857688053,3.1330036767140848,0.07354576885700226,-0.0015315625350922346,0.013243930414319037,0.10914513235911727,0.150604111449793,-9.703015249371527
34.2,2.700000047683716,56.0,22.667125701904297,24.984474182128906,-79.78275315556981,40.45898588719865,314.07985717773437,-0.0013509922428056598,-0.006406593602150679,-0.6996517181396484,0.7144540548324585,0.03335577038129792,0.016140601821097892,3.0904381090169104,0.11257163435220716,0.014699093066155909,0.11178430169820787,0.027716645014006645,0.31797885965555905,-9.654255902767181
34.4,2.700000047683716,57.0,22.632068634033203,25.46953201293945,-79.78275316694409,40.45898590234921,314.388546295166,-0.00094938010443002,-0.006599246524274349,-0.6999070048332214,0.7142029404640198,0.01626147536642452,0.011859949809431572,3.0806564144911914,-0.0004692421643994749,0.05770060047507286,0.015099099837243557,0.0365684318728745,0.033329659122973684,-9.692712455391883
34.5,2.700000047683716,58.0,22.62580871582031,25.98639678955078,-79.78275317985316,40.458985918334456,314.6956370544433,-0.00015665200771763918,-0.007346264086663724,-0.7000957727432251,0.7140112519264221,-0.0011754446934168928,0.018600559003828832,3.0612878829134984,-0.12743395566940308,-0.0873807817697525,-0.1236690878868103,0.04944440730381757,0.3711656814068556,-9.585571584105491
34.59,2.5999999046325684,60.0,22.677143096923828,24.332427978515625,-79.78275325409038,40.458985917898325,315.0163233947754,-0.0007323977188207209,-0.007793813478201628,-0.7000845074653625,0.7140170931816101,0.032974245056419604,0.023048497614581567,3.0648296034472784,0.0986005961894989,0.018104111775755882,0.09647778421640396,0.16434259230270984,-0.2444811313413084,-9.660121829509736
34.8,2.5,61.0,22.59951591491699,26.5748291015625,-79.78275332661717,40.45898604912939,315.95016891479486,0.0009410761413164436,-0.0059939315542578715,-0.6998310685157776,0.7142826318740845,0.011662796624342657,0.020887164114420625,3.0518582878664984,0.024486273527145386,-0.05180250480771065,-0.05780769512057304,0.08563030793331564,0.02994002364110202,-9.615797011256216
34.99,2.5,62.0,22.65585708618164,24.68230628967285,-79.78275333927745,40.45898606899628,316.25599319458007,0.001854266389273107,-0.004530752077698708,-0.6998399496078491,0.7142829298973083,-0.004831738595723502,0.019590854311128933,3.0669058061502765,0.018467910587787628,0.039811812341213226,-0.012809734791517258,0.10241401869803668,0.32699932269752024,-9.876074706315997
35.1,2.5,61.0,22.68214988708496,24.714113235473643,-79.78275342811448,40.45898600993213,316.5813906860352,0.0015038489364087582,-0.004112768452614546,-0.6995677947998047,0.7145528197288513,0.012341896490702657,0.022197878156077117,3.097589327632998,0.07052085548639297,-0.04029823839664458,0.04531826823949814,0.12051646845415236,-0.1560776808857918,-9.8977854180336
35.29,2.5,61.0,22.8323974609375,20.23726463317871,-79.78275346514666,40.45898604117743,317.20467025756835,0.001115433406084776,-0.0050500635989010325,-0.6991757154464722,0.7149312496185303,0.008002040826892357,0.017597618968768908,3.076254649947997,-0.04851742088794708,0.07627458870410919,-0.0084617855027318,0.053418846577405935,0.12432031977921724,-9.616779928207398
35.4,2.5,61.0,22.85243034362793,20.348588943481445,-79.78275347320269,40.45898604264952,317.51052886962884,0.00035719972220249485,-0.0069549730978906155,-0.6989862322807312,0.7151012420654297,0.008956342580536906,0.022280298967448084,3.0329736259500457,-0.1146160215139389,-0.09812942147254944,-0.07414975762367249,0.07465091801248491,0.10854544557631016,-9.39080375432968
35.5,2.4000000953674316,61.0,22.88498306274414,19.76015853881836,-79.78275348025944,40.45898604006874,317.809501953125,0.00024735555052757263,-0.007349632680416106,-0.6990549564361572,0.7150301337242126,0.04366289036682435,0.02255216004545881,2.9420855571204894,0.10899754613637924,0.06172986328601837,0.08265639841556549,0.0753365314565599,-0.0348552113911137,-9.028279892206193
35.7,2.4000000953674316,59.0,22.814868927001953,21.008586883544922,-79.78275350818853,40.45898601278721,318.3947375488281,0.0010161468526348472,-0.006728776264935732,-0.6995719075202942,0.7145298719406128,0.0436117682599125,0.019557001503960086,2.7191925655783318,0.059491094201803214,0.0775112509727478,0.030669016763567924,0.07946559760719538,-0.000559064622502774,-8.549250258207321
35.79,2.4000000953674316,59.0,22.910024642944336,19.203533172607425,-79.7827535108891,40.45898603971742,318.6774562072754,0.001739663421176374,-0.006837831344455482,-0.6999090909957886,0.7141971588134766,0.04372183404031491,0.018569555533318925,2.627100380781928,0.04460717737674713,0.0565372109413147,0.05915683507919312,0.1023274981789291,0.028573442548513413,-8.61508464396
36.0,2.299999952316284,58.0,22.89249610900879,19.55341148376465,-79.78275353413241,40.45898600658081,319.18016845703124,0.0024796358775347467,-0.008416629396378994,-0.7004175782203674,0.7136794328689575,0.034616001867431134,0.017759831183546942,2.3922080191948685,-0.033861104398965836,-0.006957319565117359,-0.02809649892151356,0.05465191015508026,0.16018920538946987,-8.588441221117971
36.19,2.299999952316284,58.0,22.83865737915039,21.15171813964844,-79.78275357616589,40.45898599914094,319.6577723693848,0.001693211030215025,-0.008694567717611791,-0.7003375887870789,0.7137569189071655,0.04320739699025685,0.015651389897907056,2.190000864421705,-0.04114968702197075,-0.02368398010730744,-0.00672647962346673,0.07519422941375524,0.1309564344584942,-8.614177740812304
36.29,2.0999999046325684,58.0,22.84867286682129,20.674612045288086,-79.78275356244589,40.45898602448044,319.88929397583007,0.00030781852547079325,-0.009401286020874977,-0.6999982595443726,0.7140826582908629,0.05285935449279552,0.006362304439842925,2.110453103159166,0.008071733638644218,0.033489156514406204,0.018575919792056084,0.0809357338026166,0.04731777953915298,-8.693532058596611
36.39,2.0999999046325684,54.0,22.81236457824707,21.398223876953125,-79.78275359033773,40.45898600064872,320.09492523193364,-0.0017684121849015355,-0.010979481041431429,-0.6998375058174133,0.7142155766487122,0.05351692771322699,0.002351685065978869,2.0025467377205532,-0.04035622999072075,0.012489349581301212,0.009186935611069202,0.1004136679507792,0.01903569049900397,-8.745075849294663
36.6,1.8999999761581416,52.0,22.910024642944336,19.74425506591797,-79.7827536565681,40.45898601659128,320.69407684326166,-0.0036023145075887437,-0.014575243927538397,-0.6995521783828735,0.7144237756729126,0.04308418452863287,-0.00744435780176938,1.773221885495452,0.005365246906876564,-0.010237840935587885,-0.017716161906719208,0.11738144723698495,0.2479780769348145,-8.91225242257118
36.69,1.7999999523162842,50.0,22.84867286682129,20.698467254638672,-79.78275366526923,40.4589860621396,320.91479522705083,-0.0028584746178239584,-0.014542528428137302,-0.6995452642440796,0.7144346237182617,0.035234761725345766,-0.0005985244239666582,1.7273025115388678,-0.01145301014184952,-0.05382096022367477,-0.03539661318063736,0.11271842066198587,0.06074081224389375,-8.80518405675888
36.9,1.600000023841858,44.0,22.72597312927246,23.27484130859375,-79.78275370210116,40.45898607537174,321.08290893554687,-0.0022143081296235323,-0.01412408798933029,-0.6994965672492981,0.7144929766654968,0.016937871739726468,-0.003503786009565479,1.6401587147815422,-0.013055474497377872,-0.03304338827729225,0.014483000151813032,0.1129447901342064,0.12116052098572255,-8.921906760334968
37.1,1.5,39.0,22.829893112182607,20.68256378173828,-79.78275370155863,40.458986140391055,321.46169692993163,-0.001147539704106748,-0.011603664606809616,-0.6991766691207886,0.7148538827896118,-0.012795230974562323,-0.0006890272834669428,1.6040793138854288,-0.05948767066001893,-0.036156658083200455,-0.07652801275253296,0.1133705587964505,0.2889973179996014,-9.397818658947946
37.2,1.2999999523162842,30.0,22.841161727905273,20.94497299194336,-79.78275368526597,40.458986229484175,321.84285385131835,-0.0005118970875628293,-0.010378047823905943,-0.6983576416969299,0.7156736254692078,-0.021619081213759647,0.001975327033312116,1.5912246691023018,-0.07595676183700563,-0.03590497002005577,-0.05436491221189499,0.11674226433970035,0.24879537150263786,-9.436741234660149
37.29,1.2000000476837158,26.0,22.861194610595703,20.33268547058105,-79.78275370771942,40.458986265594476,321.9987223815918,-0.0008838885114528239,-0.010381871834397316,-0.6980060338973999,0.7160161137580872,-0.026596415068708988,0.004021743409714871,1.5264650155559318,-0.04833794757723808,-0.017498355358839042,-0.07485807687044144,0.1395123910345137,0.2317955056205392,-9.174486595988274
37.49,1.0,16.0,23.09657859802246,16.63511085510254,-79.78275372539997,40.45898630528046,322.14691192626947,-0.0006553665734827517,-0.010052453726530077,-0.6975919604301453,0.7164245247840881,-0.020729728142630327,0.006652614116746707,1.4115262528808312,0.028607420623302463,-0.02135845832526684,0.0014009729493409395,0.15671257887035608,0.07976049827411771,-8.580068593025208
37.69,0.8999999761581421,12.0,22.913780212402344,18.479923248291016,-79.78275369893326,40.45898641458292,322.44643432617187,0.003677289932966232,-0.003210566006600857,-0.6696788668632507,0.7426347732543945,-0.05151345482071557,0.00389178313771997,0.927839879021566,0.07459899038076401,-0.007944613695144653,-0.6606824994087219,0.0967292916867882,-0.2323259028978646,-7.448111962080003
37.8,0.8000000119209291,3.0,22.89875602722168,19.116064071655273,-79.7827537572102,40.45898649482526,322.5093310546875,0.004697802010923624,-0.004722032696008682,-0.6432688236236572,0.7656115293502808,-0.07002431172931083,-0.004888449567475632,0.7401559758217465,-0.008085363544523716,0.023994291201233864,-0.7249537706375122,0.07019896221812814,-0.013504563675960526,-7.769625207781793
38.0,0.699999988079071,0.0,22.859941482543945,20.078229904174805,-79.78275380605027,40.458986604404025,322.62803298950195,0.005366493482142687,-0.008448582142591476,-0.5892624258995056,0.8078797459602356,-0.05503682661561388,-0.00311281145309214,0.4785868604685536,-0.016270898282527924,0.022165900096297264,-0.5883491635322571,0.14848041186109187,0.04524882450699806,-8.657741251587868
38.09,0.699999988079071,347.0,22.74475288391113,23.091951370239247,-79.78275390605287,40.45898675565521,322.61311370849614,0.0053621744737029076,-0.008751317858695984,-0.5684577226638794,0.8226485848426819,-0.04450727362392564,-0.002992478720692939,0.3976891398456305,0.06945479661226273,0.05517983064055443,-0.4139741659164429,0.1010409645549953,0.01465132257901132,-8.985238537788392
38.2,0.6000000238418579,339.0,22.62705993652344,25.00832939147949,-79.78275401109403,40.45898690773557,322.60464508056634,0.003335430286824703,-0.00625084713101387,-0.5409339666366577,0.8410351872444153,-0.033502521376926324,0.012868908336182441,0.3291432025846487,0.13910911977291107,-0.13723783195018768,-0.10063992440700532,0.2398547229543329,-0.031743346061557536,-9.657291777133944
38.4,0.6000000238418579,341.0,22.75602149963379,22.86930084228516,-79.78275400146809,40.45898695585205,322.6384967041016,-0.009551718831062315,0.0024520482402294874,-0.5342509746551514,0.8452683687210083,-0.04188817023070299,0.06283695742484426,0.3477536807686314,0.01461620442569256,-0.5000684857368469,-0.08504529297351837,0.47691425755620004,0.2310439191386104,-9.883976633548738
38.5,0.699999988079071,347.0,22.62580871582031,24.91290855407715,-79.78275391958033,40.458987020778366,322.6736033630371,-0.033173687756061554,0.020600542426109314,-0.5308962464332581,0.8465366959571838,-0.04373581281660728,0.12908405540738585,0.3544067310944949,-0.05934978649020195,-0.7480548620223999,-0.12398208677768707,0.2748618568852544,0.2780992409214377,-9.848211554288863
38.7,0.8000000119209291,351.0,22.59575843811035,25.97049331665039,-79.78275321318337,40.45898730694178,322.73847991943364,-0.0764058530330658,0.05256056040525437,-0.528757631778717,0.8436912298202515,-0.016405633779411254,0.3212151975202168,0.4697540148387951,-0.02226251177489757,-0.3356608748435974,0.06830674409866333,-0.11654965340159835,0.16285074831917884,-10.111350291967392
38.9,0.8999999761581421,344.0,22.66963005065918,23.64857482910156,-79.78275243325756,40.45898780424285,322.76588088989257,-0.10143973678350447,0.06512681394815445,-0.5289334058761597,0.8400582671165466,-0.01427089873730908,0.6311633394591745,0.6979059338000752,-0.028941251337528232,-0.18702951073646545,0.09015849977731703,-0.2043745492771268,0.0837135997787118,-10.64382113814354
39.0,1.2000000476837158,1.0,22.76478576660156,22.60689353942871,-79.78275148771502,40.45898815786693,322.8237002563476,-0.10833070427179337,0.06956680119037628,-0.5290529131889343,0.8387657999992371,-0.003456107771255032,0.8438071515036747,0.8334080192544233,0.058318708091974265,-0.1825430393218994,0.05332764610648155,-0.10438196307979523,-0.03610457408241928,-10.680653918981553
39.09,1.399999976158142,9.0,22.7785587310791,21.907136917114254,-79.78274949771306,40.458989351907675,322.79282028198236,-0.11498526483774185,0.07691522687673569,-0.5307283401489258,0.836175799369812,-0.02959748443761705,1.2587235583257732,0.9538134038724932,0.03801159560680389,0.0244592484086752,0.029617117717862133,-0.17611594274640086,0.05994478235486895,-10.162476006746294
39.29,1.7999999523162842,19.0,22.813615798950195,20.97677993774414,-79.7827461836319,40.45899109886822,322.7548411560058,-0.11443349719047545,0.07994526624679565,-0.5343986749649048,0.8336257338523865,-0.05290661314514356,1.7265611945168515,0.9876040141517608,0.06077776476740838,-0.043140560388565063,-0.053385499864816666,-0.2609616731107235,-0.2474170731380582,-9.95818247795105
39.5,2.0,24.0,22.77480316162109,21.18352508544922,-79.78274401178874,40.45899191400715,322.80061370849614,-0.1131599098443985,0.08457326889038086,-0.5367868542671204,0.8318065404891968,-0.0525148544833199,1.9656714242903504,1.0272796247002558,0.13946948945522308,-0.054219961166381836,0.08844262361526489,-0.282940625846386,-0.10061442844569683,-9.849714288711546
39.7,2.5999999046325684,35.0,22.81236457824707,20.316781997680664,-79.78273912982523,40.45899436276694,322.7759326171875,-0.12155141681432725,0.08903985470533371,-0.5385007858276367,0.8290441632270813,-0.10269975324303886,2.422875710576125,1.0437148874809672,-0.12394851446151732,-0.20248690247535706,-0.09584615379571916,-0.4115812340006232,0.04947334645316005,-9.438499492406846
39.81,3.2000000476837163,44.0,22.821128845214844,21.54135513305664,-79.7827332984542,40.45899724912893,322.7417109680176,-0.13745707273483276,0.09894312918186188,-0.5388150811195374,0.8252237439155579,-0.1107103628874617,2.8760807705662272,1.05868821034795,0.09513754397630693,-0.12154585123062135,0.03564312309026718,-0.4147626674920321,0.02985140177886933,-9.259518560171127
39.99,3.5,47.0,22.85243034362793,20.11798858642578,-79.78272991661217,40.45899849606438,322.7477648925781,-0.14534850418567655,0.10754532366991043,-0.5384195446968079,0.8230505585670471,-0.12893290275289945,3.108956329626495,1.1116361340628798,-0.06494266539812088,-0.33286067843437195,-0.02771789021790028,-0.7881238321959972,0.1103447617404163,-9.150643989443779
40.1,4.099999904632568,45.0,22.814868927001953,20.642805099487305,-79.78272632511087,40.459000502753355,322.6890185546875,-0.15270864963531494,0.11332650482654573,-0.5358787178993225,0.822600245475769,-0.1444038823463201,3.3464690446061347,1.1754314234107972,0.0942784920334816,-0.06507518142461778,0.005844945553690195,-0.7424911379814149,-0.2185071598738432,-9.12171547472477
40.29,4.5,42.0,22.734737396240234,22.479665756225586,-79.78271826762385,40.459004122195786,322.6199534606933,-0.15849795937538147,0.1174210011959076,-0.5320698618888855,0.823403000831604,-0.1458855647185527,3.8499917135694592,1.3211316360275314,-0.004535718355327846,0.060627240687608726,0.026278097182512283,-0.9341912991553546,-0.03750038211699575,-9.328361923098564
40.4,5.099999904632568,43.0,22.753517150878906,22.36833953857422,-79.78271380809754,40.4590057615386,322.592891998291,-0.15899808704853058,0.1165330857038498,-0.5309517979621887,0.8241540789604187,-0.1140390346213575,4.11174798426313,1.4020189648541512,-0.08159134536981583,-0.0030974738765507928,-0.12711362540721893,-1.23423861220479,-0.24171307772398,-9.480886543393137
40.49,5.400000095367432,43.0,22.68214988708496,23.89508056640625,-79.78270904440117,40.459007487347314,322.5618556213379,-0.15858565270900726,0.11591584980487825,-0.5305552482604979,0.8245759010314941,-0.07568529452339612,4.375900292557514,1.4764136938143515,0.07297074049711227,0.013310232199728487,-0.034923095256090164,-1.1825115843862295,-0.061029673833400015,-9.697780237197877
40.7,6.0,43.0,22.79358291625977,20.841598510742188,-79.78269876351347,40.45901183974188,322.48398239135736,-0.1554819941520691,0.12131359428167345,-0.5316320061683655,0.823696494102478,-0.06886168491129939,4.8807637623820135,1.6829048278453471,0.13025939464569092,0.008763824589550495,0.19488805532455444,-1.2440009772777558,-0.17970637070015075,-10.056788753271103
40.89,6.300000190734862,42.0,22.619548797607425,24.87314796447754,-79.78268753497083,40.459016775290436,322.4032061767578,-0.15550009906291962,0.1203831359744072,-0.5314835906028748,0.823925256729126,-0.12050184982584755,5.367700553530974,1.8617911052011888,-0.12388629466295242,0.005582474172115326,-0.14103005826473236,-1.096425586491823,0.0769125753454864,-10.061191706657409
40.99,6.9000000953674325,42.0,22.693418502807607,23.33050537109375,-79.78268133781766,40.459018993394324,322.36941177368163,-0.15414083003997806,0.1205201894044876,-0.5321294665336609,0.8237437009811401,-0.0868818017952911,5.596658308625674,1.9811887432204345,0.045076992362737656,0.04027750343084335,0.057381920516490936,-1.5434680272638799,0.24296569749712946,-10.161766154766084
41.19,7.300000190734862,42.0,22.63707733154297,24.41989707946777,-79.78266860547829,40.45902462133357,322.2981112670898,-0.14981913566589355,0.11767736822366714,-0.5302295684814453,0.8261736035346985,-0.08682124201064552,6.037892989787171,2.2037287500132274,-0.0439111553132534,0.04043562710285187,-0.023879989981651303,-1.6660493485629562,0.049157030358910565,-10.480328310728074
41.3,7.800000190734862,44.0,22.747257232666016,22.7977352142334,-79.78266217418853,40.45902819071375,322.24439651489257,-0.15026435256004333,0.11094798147678377,-0.5269582867622375,0.8291116952896118,-0.14438404176431102,6.252418777196634,2.3132265568052097,-0.17228174209594727,0.1349741369485855,-0.1591101586818695,-1.6236033868789674,0.04498238790314645,-10.660188664197925
41.49,8.0,44.0,22.62580871582031,25.127605438232425,-79.78264748814573,40.45903347374481,322.21429092407226,-0.14704321324825287,0.10168015211820602,-0.5251354575157166,0.8320290446281433,0.030139511262462008,6.666342806339253,2.4243639746732946,0.05920999869704247,0.05028058215975762,-0.09572327136993407,-1.6423716334998608,0.0703506928961724,-10.154121505022047
41.6,8.399999618530272,45.0,22.604522705078125,25.42977333068848,-79.78264009477553,40.45903705868482,322.15200073242187,-0.14349782466888428,0.1003367006778717,-0.5225996971130371,0.8344042897224426,-0.006807753400309369,6.87536435490329,2.4505743738478607,0.043829817324876785,0.07032732665538788,0.15905199944972992,-1.6742803278565408,0.21359177112579347,-10.152920486927034
41.79,8.600000381469728,44.0,22.69216728210449,23.12375831604004,-79.78262441228063,40.459043866052816,322.06346160888666,-0.13569051027297974,0.09652330726385117,-0.5194854140281677,0.8380968570709229,0.019109453717631827,7.259472901187299,2.5431123453964166,0.04129761084914208,0.029765468090772632,-0.061586894094944,-1.5552615688741207,0.0593656933028251,-10.554530646800997
41.9,9.0,45.0,22.714704513549805,22.20135307312012,-79.78261613981894,40.459046889180755,322.06127960205083,-0.13357602059841156,0.09533917903900146,-0.5191878080368042,0.838756263256073,0.10349411198725704,7.44643711736195,2.5741211780062327,0.016060346737504002,-0.0767008438706398,0.021928071975708008,-1.5316358940303327,-0.0469942001067102,-10.187580442428589
41.99,9.100000381469727,45.0,22.61704444885254,24.642547607421875,-79.78260766477018,40.45904996534144,322.0610011291504,-0.13641731441020966,0.09737593680620192,-0.5190772414207458,0.8381330966949463,0.13032320020438493,7.619573925749536,2.5949330420085484,0.034648410975933075,-0.2250625193119049,0.1814680993556977,-1.6313401302695276,-0.2423074289225042,-9.880630856752397
42.21,9.399999618530273,45.0,22.491838455200195,27.97434043884277,-79.78258211224528,40.45906255083009,321.8271449279785,-0.1502174288034439,0.09817173331975937,-0.5138259530067444,0.8389159440994263,0.042316192486897684,8.073201900968957,3.0021621098602926,0.12298072874546052,0.13645505905151367,-0.22011616826057434,-1.8212901467084883,0.05414543621242047,-10.013356804847717
42.39,9.5,45.0,22.446765899658203,29.175058364868164,-79.7825729177528,40.45906603583239,321.8231280517578,-0.14245954155921936,0.10153338313102722,-0.5155093073844911,0.8388364315032959,0.09268735727748804,8.245010634949258,3.092920946818621,0.19017542898654932,0.01409036386758089,0.20721186697483066,-1.6855233541131016,-0.0391523895598948,-10.29632812857628
42.5,9.800000190734863,44.0,22.46805000305176,28.149280548095703,-79.78256351044159,40.459069584499716,321.82469207763666,-0.13875263929367065,0.10306646674871443,-0.517031192779541,0.8383340239524841,0.062443063149328126,8.427069495100076,3.1389681821797533,0.02283391356468201,-0.020577374845743183,-0.1142689436674118,-1.79564498975873,0.037451128461398184,-10.44780609726906
42.69,9.899999618530273,46.0,22.50310707092285,27.22687339782715,-79.78254433323586,40.45907825515039,321.71167022705083,-0.13359732925891876,0.10187629610300064,-0.5173805952072144,0.8391008973121643,0.02188248760758832,8.761406729789622,3.2698512309260312,0.0906289890408516,0.12241283804178238,-0.26797279715538025,-1.7987045453488828,0.2605021550506353,-10.601176224946977
42.8,10.199999809265137,46.0,22.50686264038086,26.79747772216797,-79.7825243332915,40.45908702107102,321.6273616027832,-0.13581611216068268,0.10481616109609604,-0.5169376134872437,0.8386555910110474,0.007488460866985819,9.047272063537374,3.3944598425870933,-0.08998581767082214,-0.058614414185285575,-0.04709794372320175,-2.0540254095196726,0.19011841624975206,-10.433918960094454
42.99,10.399999618530273,46.0,22.41421127319336,28.32421875,-79.78251402671779,40.45909088341735,321.6484149169922,-0.14094772934913635,0.10519513487815857,-0.5163225531578064,0.8381400108337402,0.05143487810359668,9.157773882840504,3.5156533891693145,-0.04387915506958962,0.002840121742337942,0.05513985455036163,-2.0327453452348707,0.22858768656849865,-10.03526749134064
43.1,10.699999809265137,45.0,22.431739807128906,28.554821014404297,-79.78250350368248,40.459096036636296,321.53472930908197,-0.1467033177614212,0.1038132905960083,-0.5141333937644958,0.8386703133583069,0.03001627641924168,9.293823311578262,3.6224100390227534,-0.06963689625263214,-0.05839176848530769,0.15884611010551453,-2.2501341520249847,0.03868446612730622,-10.069687711000444
43.29,10.899999618530273,46.0,22.64709281921387,22.71026611328125,-79.78248185160469,40.45910563096693,321.43947631835937,-0.142130509018898,0.08764878660440445,-0.5123836994171143,0.8423654437065125,0.0912643048968618,9.515661944534461,3.8594947760181375,-0.15922224521636966,0.2979913353919983,0.04189760610461235,-2.5018148320913323,0.025464331805706026,-10.316730233430864
43.39,11.199999809265137,46.0,22.624555587768555,24.077970504760746,-79.78247095323577,40.45910974997452,321.4681056213379,-0.12564334273338318,0.07171854376792908,-0.5134065747261047,0.8458628654479979,0.19038359898154167,9.675952428092163,3.708538563715864,-0.0636385902762413,0.4543049037456513,-0.029925264418125163,-2.2922899456322194,0.3403082433342934,-10.228148424625397
43.49,11.399999618530273,46.0,22.7597770690918,21.58906555175781,-79.78245996559272,40.45911388937931,321.5013011169433,-0.1093740016222,0.057753808796405785,-0.5135918259620667,0.8490731716156006,0.2416583075407913,9.882565787699724,3.3076553842908893,-0.07009494304656982,0.30815932154655457,-0.1464557647705078,-2.172105398029089,-0.09595623495988548,-9.918648283481598
43.69,11.699999809265135,56.0,22.73598861694336,21.191476821899414,-79.78243732187507,40.45912354949631,321.4137232971192,-0.0964154452085495,0.0401003360748291,-0.5120021104812622,0.8526135683059692,0.25034861623151883,10.133062397775634,2.5128117940557257,-0.13635222613811493,-0.0013863934436812995,-0.048847246915102005,-2.2556904686987402,-0.047633702773600815,-9.34959784090519
43.89,11.800000190734865,59.0,22.799842834472656,19.839675903320312,-79.78241430666912,40.459132816956355,321.4261935424805,-0.0846303254365921,0.03963732346892357,-0.5136938691139221,0.8528688549995422,0.2260407736869317,10.203999412615143,2.1794901110972904,0.14162270724773407,0.0134291248396039,0.1137748584151268,-2.257762868106365,-0.09106475584208966,-9.360278365015985
44.0,12.0,59.0,22.82488441467285,19.060401916503906,-79.78240336874525,40.45913707769661,321.44366485595697,-0.07566625624895096,0.03868952393531799,-0.5148609876632689,0.8530510067939758,0.17125416293878062,10.17496009731075,2.0906198625633343,0.060272291302680976,0.20476090908050532,0.11613406240940095,-2.244720945954323,0.2293250752799213,-9.518772407770156
44.19,12.0,58.0,22.856185913085927,18.535585403442386,-79.7823803462085,40.45914619606381,321.5136302185058,-0.05374719947576523,0.03906038403511048,-0.5170639157295227,0.8533642888069153,0.1409391210133065,10.171081777274537,1.6613445431306773,0.12810088694095612,0.1550765335559845,0.16964295506477356,-2.250457649230957,0.056814909428358075,-9.141627582907676
44.3,12.100000381469727,61.0,22.753517150878906,21.08015251159668,-79.78236851385684,40.459150779140046,321.57904846191406,-0.041357148438692086,0.036659594625234604,-0.5176179409027101,0.8538250923156738,0.1299007604491983,10.143712923897686,1.4706387675819346,0.13553686439990995,0.3471637368202209,0.1019488200545311,-1.999039655327797,0.11994879517704247,-9.243822294473649
44.5,12.199999809265135,63.0,22.652101516723643,22.535327911376953,-79.78234717293422,40.459159000579795,321.59899169921874,-0.02869410440325737,0.012746100313961506,-0.5167363882064819,0.8555686473846436,0.15890777263151115,9.965484804357676,0.9635914102326656,-0.11127976328134537,0.3097790777683258,0.062221549451351166,-2.0580529716610907,0.09502326602116228,-9.590427111983301
44.6,12.199999809265135,63.0,22.7497615814209,19.394376754760746,-79.78233612601497,40.45916344682729,321.6443026733398,-0.022744163870811462,0.002375618787482381,-0.5157011151313782,0.8564634323120117,0.204076326980248,9.864637255939467,0.7606311854080288,0.04775020107626915,0.19711971282958984,0.023502469062805176,-1.9079754111170768,0.3496927320957184,-9.96500968694687
44.69,12.100000381469727,63.0,22.87747001647949,18.583295822143555,-79.78231471479741,40.45917163824236,321.72281677246093,-0.004768439102917911,3.704360096890014e-06,-0.5157179832458496,0.856745183467865,0.2373234111372885,9.639982736298066,0.4419987860620164,0.019494248554110527,0.09609284996986388,-0.2513468861579895,-1.7192965793609618,0.10242454368621112,-9.923692091703415
44.9,12.0,72.0,23.006431579589844,15.187888145446776,-79.78230464377697,40.45917549376957,321.7467311096192,-0.004966506734490396,-0.006415960844606161,-0.5159529447555542,0.8565785884857178,0.2030294279033054,9.457870042419863,0.3183137001554055,-0.18855880200862885,0.053552549332380295,0.1516438126564026,-1.9553839047253128,0.007010373026132584,-9.774900333881376
45.1,11.899999618530273,75.0,22.773550033569336,20.746177673339844,-79.78228422532364,40.459183098363454,321.8125575256348,-0.00957016833126545,-0.017266707494854927,-0.5138759613037109,0.8576372861862183,0.2341329898162673,9.18037365589712,0.14592661218882666,0.014424802735447884,0.057897798717021935,0.12766793370246887,-1.5692821687459946,0.01923304544761777,-9.461328776478767
45.2,11.699999809265135,74.0,22.93882179260254,17.144023895263672,-79.78227463417969,40.45918676347093,321.8296054077148,-0.009899931959807871,-0.019145974889397614,-0.5127238631248474,0.8582831025123596,0.24330689171043085,9.022023384374338,0.14424773088599913,-0.04483973979949951,0.11374836415052415,-0.08927977830171585,-1.5535601752996446,0.0697029493097216,-9.592890543937683
45.4,11.600000381469727,74.0,22.777305603027344,20.022565841674805,-79.78225520219415,40.459194088155016,321.918575592041,-0.009019097313284874,-0.018781805410981185,-0.5108609199523926,0.8594108819961548,0.27683714709844576,8.736920696282697,0.055000032122409434,0.0659559816122055,0.030942222103476524,-0.10399819910526276,-1.402785334289074,0.2646586117520929,-9.322921673655511
45.5,11.399999618530273,75.0,22.910024642944336,17.263301849365234,-79.78224608840817,40.45919760291575,321.927421875,-0.01013472769409418,-0.016628408804535866,-0.510797381401062,0.8594805598258972,0.2418040589496097,8.57869320551054,0.020281393952051405,-0.02228431589901448,-0.08145912736654283,0.07977423071861267,-1.538232868909836,0.17870437720790505,-9.305316876769066
45.7,11.300000190734865,75.0,22.91127586364746,18.122093200683594,-79.78222791871823,40.459204499971335,321.98089630126947,-0.01894749142229557,-0.017379092052578926,-0.5102060437202454,0.8596678972244263,0.22719459479067106,8.314096675775081,0.06971546887941893,-0.08997730165719986,-0.04285692796111107,-0.03107262589037418,-1.5001642790436744,-0.11984266821295025,-9.443864897489547
45.8,11.0,74.0,22.93882179260254,17.048603057861328,-79.78221898599907,40.459207884258646,322.0148623657226,-0.02781307511031628,-0.01802585832774639,-0.5096724033355713,0.859730064868927,0.2285808856523492,8.195438015158976,0.12345348780248805,-0.04404749721288681,-0.3140620291233063,0.13946767151355746,-1.4804046370089057,0.036350312456488613,-9.358051160573961
45.99,10.899999618530273,74.0,22.90501594543457,17.42233657836914,-79.78220201631522,40.45921458070879,322.0071528625488,-0.04661876708269119,-0.00983373261988163,-0.5097098350524902,0.8590261340141296,0.14528425650869853,8.010570277736976,0.2925405472468008,-0.10017408430576323,-0.25415581464767456,-0.007807629648596048,-1.4010133355855945,0.17751276947557926,-9.282136175036431
46.09,10.699999809265137,70.0,22.821128845214844,20.913166046142575,-79.78219349951904,40.45921776090382,322.03850204467767,-0.056467916816473014,-0.0035971759352833033,-0.5090422034263611,0.8588798046112059,0.1535467467645347,7.923153689225278,0.4440629938830517,0.12602950632572174,-0.3574965298175812,0.1316218078136444,-1.413650338053703,0.04060461865738035,-9.230445034503935
