time,wind_speed,wind_angle,battery_voltage,battery_current,position_x,position_y,position_z,orientation_x,orientation_y,orientation_z,orientation_w,velocity_x,velocity_y,velocity_z,angular_x,angular_y,angular_z,linear_acceleration_x,linear_acceleration_y,linear_acceleration_z
0.0,0.8000000119209291,70.0,23.480958938598643,0.007951773703098297,-79.7827631201845,40.45897888834524,269.48758201408384,0.013747039251029491,0.011898194439709188,-0.7334415912628174,0.6795092821121216,0.006912318666384127,-0.001325265984688028,0.006474508008262803,0.006058922968804836,0.0026102273259311914,0.003296556416898966,0.013806953803868965,-0.3607707937806845,-9.801593458056448
0.1,0.8000000119209291,72.0,23.48471450805664,-0.007951773703098297,-79.78276312225348,40.45897888252184,269.48821632671354,0.013747039251029491,0.011898194439709188,-0.7334415912628174,0.6795092821121216,0.005870539369224868,-0.00113873663606476,0.006726610838991969,-0.00379907013848424,-0.0012748608132824302,-0.0016773351235315206,0.0117778694734443,-0.3562404441833496,-9.802488082051276
0.2,0.8000000119209291,72.0,23.48346328735352,-0.007951773703098297,-79.78276307551054,40.45897895039301,269.49989490318296,0.013741509988904,0.011895048432052135,-0.7334455847740173,0.6795052289962769,0.002593129981880155,-9.914726646664948e-05,0.008749149330939973,-0.004049269948154688,-0.002280425280332565,0.0011393050663173199,0.013035352028673515,-0.35543586730957033,-9.80286171913147
0.4,0.8000000119209291,71.0,23.47595024108887,-0.015903547406196594,-79.78276302670581,40.458979020928695,269.5107187490463,0.0137375732883811,0.011893135495483877,-0.733445942401886,0.679504930973053,0.00047178508099319724,0.0003836670826359916,0.009955948750232646,0.00030376389622688293,0.0004899826599285007,-0.00415416993200779,0.012090356326662005,-0.3471872001886368,-9.802503869533538
0.5,0.699999988079071,70.0,23.47970771789551,-0.05566241592168808,-79.7827630256498,40.458979019186344,269.51273660469053,0.013739638030529022,0.011894239112734795,-0.7334505915641785,0.6794998645782471,-9.829927325361329e-05,0.0006807186723276541,0.010229779031241285,-0.000289668794721365,-0.003079868853092193,-0.005812899675220251,0.01315594057319686,-0.3655008623376489,-9.803055846691132
0.7,0.699999988079071,70.0,23.48471450805664,-0.007951773703098297,-79.78276300699439,40.458979066393795,269.52335636425016,0.013745229691267014,0.011893115937709808,-0.7334504723548889,0.6794999241828918,0.00488651703524585,-0.003377295362666886,0.010743351717344569,0.006074877455830574,0.00452460302039981,0.003752995282411575,0.013206134123029187,-0.3628219604864717,-9.801712741255761
0.8,0.8000000119209291,66.0,23.48221015930176,0.0,-79.78276296509866,40.45897910770218,269.5350141983032,0.013745176605880259,0.011895935982465744,-0.7334543466567993,0.6794956922531128,0.008082630453002733,-0.0016812924212319708,0.011163493811373059,0.004796548280864954,0.00013260048581287262,0.003398118773475289,0.012455182612175122,-0.35306076485663657,-9.80086138665676
1.0,0.8000000119209291,64.0,23.48471450805664,-0.007951773703098297,-79.7827629677444,40.458979100460624,269.53611211585996,0.01374464575201273,0.011895363219082355,-0.7334557771682739,0.6794941425323486,0.007431435586855181,-0.0014431884767784212,0.0113510075846324,-0.005553459282964468,-0.0004308634379412978,-0.0015774613711982965,0.011698464970104395,-0.3619667321071029,-9.80208287000656
1.1,0.8000000119209291,65.0,23.480958938598643,0.0,-79.78276294568923,40.458979145519656,269.54580263900755,0.013756095431745052,0.011894354596734049,-0.7334496378898621,0.6795004606246948,0.008638656504688825,-0.0041253197407173335,0.007529373724035737,0.003162837354466319,-0.001818390563130379,0.0014114213408902287,0.01301108722575009,-0.3477851876243949,-9.801631464958193
1.3,0.8999999761581421,64.0,23.47845458984375,-0.007951773703098297,-79.78276295129925,40.45897913795177,269.54653029251097,0.013747053220868107,0.0119021600112319,-0.7334561944007874,0.6794935464859009,0.008045275865035678,-0.003977086828609741,0.007706044008551039,-0.0055757882073521605,-0.0006032941164448857,-0.0022105264943093053,0.013769230126636105,-0.3458618556708097,-9.80215186715126
1.4,1.0,60.0,23.480958938598643,-0.007951773703098297,-79.78276290249771,40.45897918876362,269.55849461364744,0.013733521103858948,0.011898533441126348,-0.7334675192832947,0.6794816255569458,0.007555970968493544,-0.0013491823422704275,0.009514727835561045,-0.002410059329122305,-1.3929208762419876e-05,-0.0056576854549348354,0.013889840369811285,-0.3647209899500013,-9.803631212711334
1.6,1.0,60.0,23.487218856811523,0.0,-79.7827629047306,40.45897918126765,269.5594205121994,0.013726197183132172,0.011890235356986523,-0.7334778904914856,0.6794707179069519,0.008517211619384086,-0.0012084813239333233,0.009611414188622323,0.007618469651788473,0.0034387193154543643,0.003914116881787777,0.013392222903203221,-0.3583862626925111,-9.802334885001184
1.7,1.0,58.0,23.48847198486328,0.015903547406196594,-79.78276288693004,40.45897928038492,269.57168035316465,0.013702359050512314,0.011883429251611231,-0.7334991693496704,0.6794483065605164,-0.0005920056906179763,-0.0047746858141050645,0.010427336584748459,0.003188733942806721,4.487438491196372e-05,0.003910750150680542,0.011540052249329164,-0.3598732827231288,-9.802632508277894
1.91,1.0,55.0,23.48221015930176,0.0,-79.7827628241056,40.45897933480601,269.58123736190794,0.013680620118975641,0.011898154392838478,-0.7334955930709839,0.6794524192810059,0.0017065395275737956,0.0001372207087322495,0.008094705645928502,0.0032501486130058765,0.0011795979226008058,0.004500214941799641,0.012378734835656359,-0.3648124988749624,-9.802950012087825
2.0,1.0,53.0,23.48221015930176,-0.015903547406196594,-79.78276282344345,40.458979331829354,269.5828831653595,0.013678129762411121,0.011901467107236384,-0.7335155606269836,0.6794307827949524,0.0016938804237431359,0.0007702295771085635,0.008387771474229646,0.004662282764911653,0.002500675152987241,0.005749716889113189,0.012498770635575055,-0.3454607001319528,-9.801419211030007
2.2,1.100000023841858,54.0,23.48471450805664,-0.007951773703098297,-79.78276282141029,40.45897940140611,269.5922664861679,0.013683404773473741,0.011892285197973251,-0.733514666557312,0.6794317960739136,5.099607862762138e-05,-0.007740371269764307,0.005486920360975951,-0.004407769069075584,0.000478818838018924,-0.0033710661809891467,0.011867830941919238,-0.3525270237028599,-9.803509590625763
2.3,1.100000023841858,53.0,23.4859676361084,0.007951773703098297,-79.78276277599217,40.4589794666965,269.6042793254852,0.013680625706911087,0.011895139701664448,-0.7335191965103149,0.679426908493042,-0.0009209416046513316,-0.004157503755132588,0.007720546120323875,-0.0022555552423000336,-0.002237370237708092,-0.0009521772735752164,0.013491345770889894,-0.3569588477164507,-9.802304479479787
2.5,1.100000023841858,52.0,23.480958938598643,-0.007951773703098297,-79.78276278080408,40.45897946750755,269.60505668926237,0.013680636882781979,0.01189399603754282,-0.7335216403007507,0.6794242858886719,-0.0009822373988687344,-0.003951173954672599,0.007830506743215336,0.0015694588655605912,-8.879624510882422e-05,-0.001418895903043449,0.013467427004361527,-0.3478483375534415,-9.80139055967331
2.61,1.100000023841858,51.0,23.48221015930176,0.0,-79.78276275584645,40.45897953723594,269.6153707962036,0.013681041076779366,0.011890907771885395,-0.7335212826728821,0.6794248223304749,-0.0017845570088542042,-0.0061050721593304035,0.004979578828575968,-0.0026962156407535076,-0.002969326451420784,-0.003497433150187135,0.013551569808041678,-0.3656540959328413,-9.803603146076204
2.8,1.100000023841858,48.0,23.48346328735352,0.06361418962478638,-79.78276276275196,40.45897953855828,269.6158818464279,0.013683367520570757,0.011891890317201614,-0.7335245609283447,0.6794211864471436,-0.0007640023728688848,-0.005739315704538775,0.00513454486207204,0.0028916457667946807,0.0021712312009185553,0.004385817795991898,0.013715223324252294,-0.3611978232488036,-9.802893878817557
2.9,1.0,52.0,23.48346328735352,-0.015903547406196594,-79.7827627194032,40.45897957748205,269.6266707639694,0.013682921417057514,0.011903010308742523,-0.7335329055786133,0.6794120073318481,0.0038887698150746283,-0.003023028164565647,0.004617612961997695,0.001513591967523098,-0.00026760913897305727,0.0028666586149483928,0.012238014510367068,-0.3545764727890492,-9.801467158198355
3.1,1.0,51.0,23.487218856811523,0.007951773703098297,-79.78276272308405,40.45897957440072,269.6271281700134,0.013666095212101936,0.01190004963427782,-0.7335285544395447,0.6794170141220093,0.003311431223901561,-0.002770075930654972,0.004790178100294374,0.0009652383741922675,0.0010025425581261516,0.0026536050718277693,0.011328192322980614,-0.36455624464899306,-9.80332189500332
3.2,1.0,53.0,23.48346328735352,0.02385532110929489,-79.78276269667636,40.45897964188354,269.6400047998428,0.013658433221280577,0.01189135294407606,-0.7335223555564879,0.6794240474700928,0.0014078577308376805,-0.004728061400550689,0.007411200789328692,0.0036690463311970243,0.0035235006362199783,0.0013484203955158591,0.013044186806073412,-0.3460773986577988,-9.801247302889823
3.4,1.0,52.0,23.47845458984375,-0.03180709481239319,-79.78276264456285,40.458979681975045,269.6500879983902,0.013674477115273477,0.011886210180819036,-0.7335090041160583,0.6794382929801941,0.00709923274824773,-0.0017319851037098568,0.00524199542657892,-0.003178023733198643,8.069270552368836e-05,-0.005951897241175175,0.012728325241478159,-0.34949429221451284,-9.80034741640091
3.5,0.8999999761581421,51.0,23.48346328735352,-0.015903547406196594,-79.78276264962159,40.45897966863609,269.6510967473984,0.013660303317010404,0.011883166618645193,-0.7334980368614197,0.6794503927230835,0.006788139176793791,-0.0012588948860317243,0.00554532513224085,0.0015623194631189108,0.001088774879463017,-0.0006406792090274394,0.013974784881575034,-0.3588256444036961,-9.801944875717163
3.7,0.8999999761581421,51.0,23.48471450805664,0.0,-79.78276262264119,40.45897976403168,269.6612039070129,0.013655143789947031,0.011874736286699772,-0.7334994077682495,0.679449200630188,-0.0014072161758420705,-0.004934817750112629,0.0036288306442850897,-0.00116215948946774,-0.0020318194292485714,-0.001967456890270114,0.01300529711181298,-0.3490204119309783,-9.801681751012802
3.8,0.8999999761581421,52.0,23.48471450805664,0.007951773703098297,-79.78276259322743,40.45897981831562,269.67213074970243,0.01363209169358015,0.011872951872646809,-0.7334845662117004,0.679465651512146,0.0009921436425120026,-0.00546620538841871,0.003310762156482521,-0.0024622296914458275,0.0012260641669854526,-0.0055365483276546,0.012560843626270073,-0.3651819332689047,-9.802990357875824
4.0,0.8000000119209291,51.0,23.48346328735352,0.0,-79.78276259964119,40.45897981731992,269.67245940971367,0.01362998690456152,0.011867880821228027,-0.7334826588630676,0.6794678568840027,0.0016495827411429776,-0.0051022130549272324,0.003366017696663106,0.0017697238363325594,0.004701371770352125,0.006358977407217026,0.014212916165124625,-0.3655869260430336,-9.802730156779287
4.1,0.8000000119209291,54.0,23.487218856811523,0.015903547406196594,-79.78276257372137,40.45897986991733,269.68345098304746,0.013632425107061865,0.011868719942867756,-0.7334826588630676,0.6794677972793579,0.004228084692404925,-0.0059821032463484684,0.002809557731532306,0.005201547872275114,0.002945374930277467,0.007475577760487796,0.01255567363696173,-0.3471210535615683,-9.800928629636763
4.3,0.8000000119209291,55.0,23.4859676361084,0.007951773703098297,-79.78276258096453,40.45897986705501,269.68372742938993,0.013632887974381449,0.011867846362292768,-0.7334855198860168,0.6794647574424744,0.002989303060153989,-0.005690350830093622,0.0029780761786239816,-0.006192510947585106,-0.002057838020846248,-0.001170108444057405,0.012510909318225459,-0.3529376078769565,-9.801156671047213
4.4,0.699999988079071,56.0,23.474699020385746,0.007951773703098297,-79.78276250524597,40.458979917779374,269.6970135431289,0.01362917385995388,0.011875953525304794,-0.7334902286529541,0.6794595718383789,0.004295360663350993,0.0017239837136413141,0.00646951347616713,-0.001976928673684597,-0.003027858911082149,-0.001748305163346231,0.01382488945266232,-0.3566915568709373,-9.801306359767914
4.6,0.699999988079071,56.0,23.4859676361084,0.007951773703098297,-79.78276250350216,40.458979913535146,269.69764904785154,0.01362917385995388,0.011875953525304794,-0.7334902286529541,0.6794595718383789,0.004200147061562957,0.001967672965897021,0.006568457560993204,0.0022496837191283703,0.0011361405486240985,-0.0015347746666520836,0.012840669440338388,-0.34863493423908953,-9.801546680331233
4.7,0.699999988079071,56.0,23.4859676361084,0.015903547406196594,-79.78276251928816,40.45897998326904,269.70867733764646,0.013634860515594479,0.0118660070002079,-0.7334977984428406,0.6794514656066895,0.0014675642926547596,-0.0074631334122559154,0.004189710927712592,-0.0036206843797117467,-0.00445169024169445,-0.005873444955796003,0.01420763768255711,-0.3660928198322654,-9.802362951636317
4.9,0.699999988079071,56.0,23.48847198486328,0.02385532110929489,-79.78276245445305,40.45898003638215,269.7198150615692,0.013606279157102108,0.011871644295752048,-0.7334906458854675,0.6794596314430237,0.0036310145087898923,-0.0019906146530204987,0.0035587243476759914,0.005968179553747177,0.0007394538260996343,0.005984038580209017,0.013655155745800585,-0.3644212105125189,-9.801709817647934
5.0,0.699999988079071,59.0,23.477203369140625,-0.007951773703098297,-79.78276245898351,40.45898003132848,269.7205368738174,0.01359617616981268,0.011884518899023531,-0.7334922552108765,0.67945796251297,0.0030104124844830857,-0.001339454325570792,0.003798565707257797,0.006201393902301788,0.00011995284876320512,0.006484675221145153,0.01284333951654844,-0.3475884288176894,-9.800971899032591
5.2,0.699999988079071,60.0,23.4859676361084,0.007951773703098297,-79.78276242641505,40.45898008340456,269.73162917900083,0.013585951179265976,0.011893170885741707,-0.7334870100021362,0.6794636845588684,0.004348030285775482,-0.003709175894343444,0.003069033890876577,-0.004449693486094475,-0.00027773075271397834,-0.004853435792028904,0.012147462610155344,-0.35300291396677497,-9.8010929363966
5.3,0.699999988079071,63.0,23.4859676361084,0.0,-79.78276237523772,40.45898013253016,269.74310271549217,0.013591391034424305,0.011902622878551485,-0.7334821820259094,0.6794685125350952,0.005033236686079457,-0.0009408061671590672,0.002749635970373865,-0.0037804541643708944,-0.0009154583094641566,0.0007342926692217588,0.01336550272651948,-0.35931596998125315,-9.802024397850037
5.5,0.699999988079071,64.0,23.480958938598643,-0.007951773703098297,-79.7827623767911,40.458980127689856,269.74336163806913,0.013610946014523506,0.011892779730260372,-0.7334877252578735,0.6794624328613281,0.005604727750128905,-0.0006890389031723385,0.002861905771795467,0.005453111138194799,0.0014774699229747055,0.005448924843221903,0.013875369653105736,-0.3553447603806853,-9.802656481862071
5.6,0.699999988079071,66.0,23.48346328735352,0.015903547406196594,-79.78276234596362,40.458980198117374,269.75486438083647,0.013621407561004162,0.01189187075942755,-0.7334691882133484,0.6794822216033936,0.002124394882351412,-0.003486923023365097,0.0024896621596818824,0.002201626542955637,0.0018892225343734024,-0.002807227661833167,0.010992682058131323,-0.3599467749148608,-9.801933766007423
5.8,0.699999988079071,67.0,23.474699020385746,0.007951773703098297,-79.78276235003067,40.45898019663388,269.7551117401123,0.013608923181891441,0.011888341046869757,-0.7334678769111633,0.679483950138092,0.001510369277754863,-0.002981820440574857,0.0025735210939344558,-0.00040462362812832003,7.384610216831788e-05,0.0003987023956142367,0.013296397088561208,-0.3626389060914517,-9.801454879045489
5.9,0.699999988079071,71.0,23.48221015930176,-0.015903547406196594,-79.78276230224961,40.458980245591604,269.7680408220291,0.013610399328172209,0.011891646310687063,-0.7334704399108887,0.6794810891151428,0.0029295867979784373,-0.000953561977765701,0.005501309616348903,-0.00019764369062613696,0.0006579144392162561,0.00368639244697988,0.012605540564982221,-0.349042996801436,-9.80176828980446
6.1,0.699999988079071,71.0,23.48471450805664,0.08746951073408127,-79.7827623034488,40.45898024299069,269.76858525085447,0.013610399328172209,0.011891646310687063,-0.7334704399108887,0.6794810891151428,0.0024316368584525725,-0.0006445438255280831,0.005651841968167332,0.00039453033241443336,-0.0009368081227876246,-0.0022620889358222485,0.013424309499096126,-0.3459313279017806,-9.801849566102028
6.2,0.699999988079071,76.0,23.48221015930176,0.08746951073408127,-79.78276227839667,40.458980326311405,269.7798679332733,0.013608096167445185,0.01188319269567728,-0.7334732413291931,0.6794782280921936,-0.003416370611588033,-0.003413894761548335,0.0042535589274974575,0.0003450664517004043,-0.0031329242046922445,-0.008903915993869305,0.01339724671212025,-0.3656005573645234,-9.802738927602768
6.4,0.699999988079071,77.0,23.47845458984375,0.07951773703098297,-79.7827622493703,40.458980371296505,269.7905518274307,0.013613015413284302,0.011885079555213451,-0.7334733009338379,0.6794780492782593,0.002335902585085911,-0.005242888567156007,0.0031450909208791326,0.0011359893251210453,-0.0005596202099695802,0.003793227020651103,0.01324493359657936,-0.3666483053192496,-9.802326114177703
6.51,0.699999988079071,81.0,23.47219467163086,0.15903547406196594,-79.78276226127024,40.458980368889094,269.79119031238554,0.013614118099212643,0.011884754523634907,-0.7334765791893005,0.6794744729995728,0.0018292070268341985,-0.0045822956364923355,0.0032756315961355825,0.002811390906572343,0.004527757875621319,0.0074484990909695625,0.013938676040852443,-0.3453588489443064,-9.80067193686962
6.7,0.699999988079071,83.0,23.47219467163086,0.11132483184337616,-79.78276220742819,40.45898041546639,269.80196981239317,0.013612744398415087,0.01188887283205986,-0.7334770560264587,0.6794739365577698,0.0032526466181808304,-0.0016465405519933845,0.0028333027484705106,-0.005764016415923836,-0.004775615409016609,-0.007092820014804602,0.01256608213763684,-0.34862360525876285,-9.800828642249108
6.8,0.699999988079071,85.0,23.47219467163086,0.07156596332788467,-79.78276218130793,40.45898045937057,269.8127435903549,0.013617285527288914,0.011889114975929259,-0.7334803938865662,0.6794702410697937,0.004456396964436014,-0.003416058570560745,0.002655806011048372,-0.005159488413482904,0.0017671972746029496,-0.003012414090335369,0.01395660255337134,-0.3623857581987977,-9.80200042426586
7.0,0.699999988079071,85.0,23.47845458984375,0.09542128443717957,-79.7827621857133,40.458980455157736,269.81299416828153,0.013617808930575848,0.011888647451996805,-0.7334833145141602,0.6794671416282654,0.005160588063924617,-0.003178138957277492,0.0027251200325477537,0.003769855247810483,-0.00021177540475036954,0.00205350574105978,0.013230369233060629,-0.3573104846477509,-9.801984052062037
7.1,0.699999988079071,87.0,23.47595024108887,0.07951773703098297,-79.78276214291036,40.45898051559694,269.8236181001663,0.013612916693091393,0.011887288652360441,-0.7334834933280945,0.679466962814331,0.0016220573279667686,-0.0011186130160204773,0.0023424453679583308,0.0008403687970712781,0.0005104261799715459,-0.0035983743146061897,0.01132489184383303,-0.3596226929873228,-9.801954231262208
7.3,0.699999988079071,87.0,23.48221015930176,0.09542128443717957,-79.78276214419915,40.458980514324395,269.823852227211,0.013614373281598093,0.011887428350746632,-0.7334863543510437,0.6794638633728027,0.0013502400167730972,-0.0007633882301012299,0.0024383241076533467,0.0031476875301450487,-0.0018954761326313017,0.004252392798662186,0.012299028835259379,-0.3653792767971754,-9.801975865960124
7.4,0.699999988079071,88.0,23.474699020385746,0.05566241592168808,-79.78276213083157,40.45898057489122,269.8343832950592,0.013617470860481262,0.01188331563025713,-0.7334882020950317,0.6794618368148804,0.0002679900174713182,-0.0038198772469920494,0.001963402541577759,0.0010796439601108432,0.004778349306434393,0.0032570455223321915,0.01276851799688302,-0.3451743692904711,-9.800268478989599
7.6,0.699999988079071,88.0,23.480958938598643,0.07951773703098297,-79.78276213512838,40.45898057543658,269.8345877389908,0.013617470860481262,0.01188331563025713,-0.7334882020950317,0.6794618368148804,-0.0009534891828213023,-0.003507125407413136,0.0021032898168207204,-0.003708441043272615,-0.0056286356411874286,-0.0025013494305312642,0.01225034733884968,-0.355576090849936,-9.801340273618699
7.7,0.699999988079071,91.0,23.47595024108887,0.07156596332788467,-79.78276209402674,40.45898061454513,269.8452007036209,0.013618052937090395,0.011886665597558022,-0.7334917783737183,0.67945796251297,0.0026522656742992163,-0.0006799937364999357,0.002164012766551682,0.00257091224193573,0.003608821658417583,0.004378481768071652,0.013042640491621571,-0.3509070891514421,-9.801104630827904
7.9,0.699999988079071,92.0,23.474699020385746,0.08746951073408127,-79.78276205834554,40.45898065882787,269.8564755182266,0.013617679476737976,0.011888041161000729,-0.7334924340248108,0.6794572472572327,0.003274629613698217,0.00018286912958858203,0.005029704650878707,-0.005748712923377752,-0.00030418965616263455,-0.005917076487094164,0.013813955616205931,-0.3475727509707213,-9.801178890466687
8.0,0.699999988079071,92.0,23.47219467163086,0.08746951073408127,-79.78276205767268,40.458980652035066,269.85746042537687,0.0136196780949831,0.011888476088643074,-0.7334948182106018,0.6794545650482178,0.002972228165269781,0.0010638908088094706,0.005172797741266868,-0.005166538525372744,-0.004185342695564032,0.004065231420099735,0.014678429905325176,-0.3596057726070285,-9.801450201272964
8.2,0.699999988079071,92.0,23.48346328735352,0.08746951073408127,-79.78276204303144,40.458980679887716,269.86702315616606,0.013626093976199629,0.011889801360666752,-0.733494758605957,0.6794545650482178,0.00865219584748723,-0.0019129691273340086,0.004013769743866327,0.000852888566441834,3.507445944705978e-05,-0.0027286137919873,0.013764204033650458,-0.3478460352122784,-9.800529264807704
8.31,0.699999988079071,93.0,23.47219467163086,0.09542128443717957,-79.78276201012108,40.45898073581914,269.8766698102951,0.013621442951261995,0.011886388994753359,-0.7334977388381958,0.6794515252113342,0.003581564906112808,-0.00028936684283226497,0.002877982548453373,-0.0057764644734561435,-0.0017083106795325875,-0.0035001663491129875,0.012420287753921002,-0.36385589439421895,-9.800993533730509
8.5,0.699999988079071,93.0,23.473445892333984,0.08746951073408127,-79.78276201073245,40.458980732145356,269.8769482831955,0.013622717000544071,0.011885997839272022,-0.733501136302948,0.6794478297233582,0.004025954364454091,-1.528095279527313e-05,0.003035036891509722,0.0027198835741728553,-0.0005827106069773438,0.0021755399648100138,0.013326228166697549,-0.3534851996228099,-9.801637312173844
8.6,0.6000000238418579,92.0,23.47845458984375,0.07156596332788467,-79.78276197631862,40.458980791170724,269.8861811618805,0.013619048520922659,0.011883625760674477,-0.7335011959075928,0.6794478297233582,0.0003772505855498976,0.0008066022312895457,0.002524953852694816,-0.004281288478523493,-0.0039558811113238335,-0.006113192066550255,0.012878724307520316,-0.3641661988198757,-9.801376526355744
8.8,0.6000000238418579,92.0,23.48221015930176,0.07156596332788467,-79.78276197524136,40.458980790331616,269.88643352794645,0.013621049001812937,0.011884401552379131,-0.7335032224655151,0.6794455647468567,0.000987795039595358,0.0011867302307723565,0.002599746754891293,0.004407596308737993,0.0009270553709939123,0.003642014227807522,0.013401338621042673,-0.35970740452408795,-9.801920902132988
8.9,0.699999988079071,90.0,23.48346328735352,0.0,-79.78276194629544,40.45898083392608,269.8950428228378,0.0136224078014493,0.011884685605764387,-0.7335073351860046,0.6794411540031433,0.0018811691102320204,0.0019342610995176969,0.0025090306906142518,-0.0018796429503709078,-0.0015186409000307322,-0.002455515321344137,0.011551071738358587,-0.3604971075430513,-9.801075394749642
9.1,0.699999988079071,88.0,23.48471450805664,0.007951773703098297,-79.782761943864,40.45898083200753,269.895283744812,0.0136224078014493,0.011884685605764387,-0.7335073351860046,0.6794411540031433,0.0021793957248622967,0.00246882245908169,0.0025090790288384533,0.0009397506364621224,0.00039919873233884573,0.005154238548129797,0.013761444878764451,-0.36420102629810575,-9.801498733162882
9.2,0.699999988079071,87.0,23.48221015930176,0.007951773703098297,-79.7827619159177,40.45898088965769,269.90334670352934,0.01362328603863716,0.011883075349032879,-0.7335095405578613,0.6794387698173523,4.290208945722805e-05,0.0025577828297897783,0.002091402372354017,0.0004059731727465986,-0.0020623209420591593,-0.0009029963403008877,0.013861629838356749,-0.3526762007921934,-9.800128145813943
9.4,0.699999988079071,87.0,23.48471450805664,0.0,-79.78276189155919,40.45898093415017,269.91276674079893,0.013625435531139374,0.011884641833603382,-0.7335101962089539,0.6794379353523254,0.003076506332174924,0.0024920953330780666,0.005864157903650334,-0.00015210325364023447,0.001617494388483465,-0.0015702189411967993,0.01268225100939162,-0.3633528876677156,-9.801242625117304
9.5,0.6000000238418579,86.0,23.48346328735352,-0.015903547406196594,-79.78276188559303,40.45898092870425,269.91397671508787,0.013625831343233584,0.011883404105901718,-0.7335135340690613,0.6794343590736389,0.002811494974379291,0.0031229954401705037,0.00629864945520156,0.005971923936158419,0.00043786794412881136,0.002803533570840955,0.013196377723943442,-0.3462331904098392,-9.801464819312095
9.7,0.6000000238418579,85.0,23.48471450805664,0.007951773703098297,-79.78276186222499,40.458980974883524,269.92296092319486,0.013626709580421448,0.0118837533518672,-0.7335139513015747,0.6794338822364807,0.003603721622186828,0.0029618517409248416,0.008287934895241078,-0.004334063734859228,0.00021623172506224364,-0.0012711957097053528,0.012053774683736264,-0.360389080233872,-9.800568441152572
9.8,0.6000000238418579,84.0,23.48346328735352,0.015903547406196594,-79.78276183747293,40.45898103062708,269.9303043346405,0.013627282343804836,0.0118817538022995,-0.7335172891616821,0.679430365562439,0.002071864794353284,0.002717060523479979,0.0060868246606724215,0.0037680000532418494,-2.873295125027653e-05,0.006285395938903093,0.012730263273697343,-0.3475558671355248,-9.80012346804142
10.01,0.6000000238418579,83.0,23.48221015930176,0.039758868515491486,-79.78276183431875,40.45898102892672,269.9309158782959,0.013628075830638409,0.011881313286721706,-0.7335191369056702,0.6794283390045166,0.000790411796612508,0.003014505753691646,0.0062116753510913355,-0.0078005893155932435,-0.0014049835735931993,-0.003981708083301783,0.012012772226007657,-0.3529766380414367,-9.800508214831352
10.1,0.6000000238418579,81.0,23.4859676361084,0.007951773703098297,-79.78276181048375,40.45898107014237,269.93748156833647,0.013629992492496969,0.011882258579134941,-0.7335190176963806,0.6794283986091614,0.00383798021547877,0.002762973043425205,0.004460374147939292,0.0003630638238973916,0.00011907034058822319,0.004068722017109394,0.011313826673431322,-0.35190688993781805,-9.80071169793606
10.3,0.6000000238418579,82.0,23.480958938598643,0.007951773703098297,-79.78276180751755,40.4589810665004,269.9379252653122,0.013631366193294523,0.011882659047842026,-0.7335225343704224,0.6794245839118958,0.0029676207828671364,0.002994446281824604,0.0046749034161094076,-0.00838907528668642,-0.0010495703900232911,-0.005684070754796266,0.012370113618671895,-0.3465976181253791,-9.800474885702133
10.4,0.6000000238418579,82.0,23.48221015930176,0.0,-79.78276181679071,40.45898114664652,269.9440832595825,0.013631375506520271,0.0118720019236207,-0.7335239052772522,0.6794233322143555,-0.003611874878429218,-0.0021847091913996834,0.0030894653731535267,-0.004264830145984888,0.0014910816680639982,0.0009465196635574099,0.01329235200304538,-0.3592880495265127,-9.800846183896065
10.6,0.6000000238418579,82.0,23.4859676361084,0.007951773703098297,-79.78276181893085,40.45898114977132,269.94440643596647,0.013631375506520271,0.0118720019236207,-0.7335239052772522,0.6794233322143555,-0.0037204245165956633,-0.002000331431718924,0.003189142139731223,-0.0013648211024701595,-0.0003967167285736649,0.0012809943873435259,0.012234069923870269,-0.3480798507481814,-9.80090231716633
10.7,0.5,80.0,23.48346328735352,0.007951773703098297,-79.78276179267495,40.458981161914636,269.950459526062,0.013637557625770569,0.011879527010023594,-0.7335276603698729,0.6794189214706421,0.0044397375121612,0.00027858632863194543,0.0028935188457358397,-0.003507933579385281,-0.00201928080059588,-0.0032741904724389315,0.012142700327094644,-0.3642627509683371,-9.80163029551506
10.9,0.5,80.0,23.48221015930176,-0.007951773703098297,-79.7827617907639,40.45898120931801,269.9559314708709,0.013639666140079498,0.011877447366714478,-0.7335275411605835,0.6794190406799316,0.0061206173535357285,-0.0021226804166514165,0.002444381384081773,0.0021692891605198388,0.0026088419836014514,0.0011109012411907317,0.013344952961197124,-0.3548986178264022,-9.801301681995392
11.0,0.5,80.0,23.48471450805664,-0.007951773703098297,-79.78276179610178,40.458981199422816,269.9564019899368,0.01364198699593544,0.011878591030836105,-0.7335304021835327,0.6794159412384033,0.004692127158650233,-0.0015192930485176696,0.002721688630778211,-0.002694942057132721,-0.0013153876643627882,-0.006113281473517418,0.012219590070890265,-0.3652855386212469,-9.80141394853592
11.2,0.5,79.0,23.480958938598643,0.007951773703098297,-79.78276177735944,40.45898124467188,269.9598362903595,0.013641100376844406,0.011879577301442623,-0.7335301041603088,0.6794162392616272,0.006614374157761309,-0.0002664354207219796,-0.0011971860603450187,0.003066951176151633,-0.0006264030234888196,0.0038446348626166578,0.014008428070228549,-0.36182935908436775,-9.801658946871758
11.3,0.5,79.0,23.477203369140625,0.015903547406196594,-79.78276174081424,40.458981283630465,269.96496228981016,0.013637681491672993,0.011882571503520012,-0.7335343956947327,0.6794115900993347,0.00638091009177226,0.004841522407057829,-2.1846220864023905e-05,0.002754818880930543,0.001913372194394469,-0.0005066843586973847,0.011129110618494451,-0.3591620054841041,-9.802427855730057
11.5,0.5,78.0,23.480958938598643,0.0,-79.78276173553397,40.45898127766221,269.96494405078886,0.013640331104397774,0.011883844621479513,-0.7335375547409058,0.679408073425293,0.006187158101950661,0.005221478075652895,7.531829097285914e-05,-0.001288093742914498,0.001727977185510099,0.0034132252912968397,0.013633611268596723,-0.3648492266982794,-9.801518028974533
11.6,0.5,77.0,23.48471450805664,0.015903547406196594,-79.78276173929144,40.45898134971393,269.9676758508682,0.013632625341415405,0.01188343670219183,-0.7335463166236877,0.6793988943099976,-4.3038596996554985e-06,1.347851184638353e-05,-0.003327191903495109,0.0051728677935898295,0.0010652275523170829,0.002705248771235347,0.013683821948943659,-0.3459730989485979,-9.799719425439836
11.8,0.5,77.0,23.4859676361084,0.015903547406196594,-79.78276173903107,40.458981350462594,269.9673551778793,0.0136518320068717,0.011884144507348536,-0.7335429787635803,0.6794020533561707,-0.0013076898152957724,0.0004251173048713439,-0.003124184389051708,-0.003520261263474822,-0.0008419843506999314,-0.005792435258626938,0.012503350193146615,-0.3511308913305402,-9.800828057527543
11.9,0.5,77.0,23.48346328735352,0.0,-79.78276170236538,40.45898137266281,269.96984653282163,0.013649728149175644,0.011887261644005777,-0.7335383296012878,0.6794070601463318,0.004319361151453669,0.004638966437297438,-0.004575486724669418,-0.0033650556579232216,0.001605126541107893,-0.0013595167547464366,0.014458014999981969,-0.3564414422214031,-9.802086378335952
12.1,0.5,75.0,23.48221015930176,0.05566241592168808,-79.78276169714131,40.45898136851915,269.96937386798857,0.013663015328347685,0.011900320649147034,-0.7335415482521057,0.6794031262397766,0.004227978566346534,0.004920449311577031,-0.004532955255062421,-0.0006697824574075638,0.000964394654147327,-0.0017563619185239074,0.012960805739276113,-0.3492524002119899,-9.800350340008738
12.2,0.5,74.0,23.48471450805664,0.0,-79.78276170548652,40.45898141967138,269.9714897136688,0.013677123002707958,0.01188633032143116,-0.7335389852523804,0.6794058084487915,0.0016774036272644527,0.00030935286006579835,-0.005978763217276205,-0.002592518227174878,-0.000431857886724174,-0.004676473792642355,0.013407239512307573,-0.3659715997427702,-9.802389848828318
12.4,0.5,73.0,23.48346328735352,0.007951773703098297,-79.78276167173853,40.458981452154866,269.9739172916412,0.013679257594048977,0.01188213098794222,-0.7335371375083923,0.6794078350067139,0.004782278404006309,0.004770728036953749,-0.007039650525061309,0.006584390997886658,0.002452967688441277,0.0039239409379661075,0.013570641780970621,-0.3640044502168894,-9.80179401755333
12.5,0.5,72.0,23.47970771789551,-0.015903547406196594,-79.78276166059966,40.45898144484261,269.9725163440704,0.013678244315087795,0.011893105693161488,-0.7335411906242371,0.6794033050537109,0.004084178529998997,0.0052850001640973344,-0.006728713359989812,0.0030523482710123053,0.0014907218283042312,0.0013622906990349293,0.01245571936829947,-0.3522406197711825,-9.800907579660416
12.7,0.5,73.0,23.47845458984375,-0.007951773703098297,-79.78276170941827,40.458981493399975,269.97490243721006,0.013683189637959005,0.011883055791258812,-0.7335407733917236,0.6794037818908691,0.0020356453697715038,-0.005036504259893315,-0.007690355178727953,-0.002917759120464325,-0.002215445740148425,-0.002625399269163609,0.011181403227383271,-0.36245914075523616,-9.80175367176533
12.8,0.5,73.0,23.47595024108887,0.015903547406196594,-79.78276170034152,40.458981519114545,269.9777917127609,0.013684519566595554,0.011885893531143664,-0.7335451245307922,0.6793990135192871,0.0036852795981088494,-0.002888804520953311,-0.00521196330009429,0.005537297111004591,0.0009742974652908742,0.004094365984201431,0.012764338151318952,-0.3486707484349609,-9.80011118888855
13.0,0.5,73.0,23.480958938598643,-0.007951773703098297,-79.78276170395458,40.45898151655275,269.9772681455612,0.01368487998843193,0.011885348707437515,-0.7335478067398071,0.6793961524963379,0.0026125640521775678,-0.002696524516950413,-0.005001090494088472,-0.0031651936005800962,-0.0017887457506731153,-0.002771668834611773,0.013815557890338823,-0.34649397622793915,-9.800981254577637
13.1,0.5,73.0,23.487218856811523,0.0,-79.78276170962697,40.45898152480515,269.9804360132217,0.013690811581909657,0.011887926608324051,-0.7335481047630309,0.6793956756591797,0.007987012170108313,-0.004094177274743153,-0.002345418525066388,-0.004368017427623272,-0.003442482789978385,-0.005879897624254228,0.013690099711529912,-0.3633308875188232,-9.802366459965707
13.3,0.5,72.0,23.48346328735352,0.007951773703098297,-79.78276171516409,40.458981517471216,269.9801741104126,0.013692604377865791,0.011888479813933372,-0.7335508465766907,0.6793926954269409,0.008653103480603004,-0.003881068362770717,-0.0022386026916116505,0.0054867216385900966,-0.0011087381280958652,0.0006148231914266943,0.014641383454436437,-0.3562112081050873,-9.802064743638038
13.4,0.5,72.0,23.48221015930176,-0.02385532110929489,-79.78276169772668,40.45898155264098,269.98112134742735,0.013688044622540474,0.011885968036949636,-0.7335540652275085,0.6793892979621887,0.004146371870521392,-0.0016960833759150627,-0.0047310753030101104,-0.0005092380451969801,-0.0011653404217213392,-0.0029686461202800274,0.012252257962245494,-0.36301024083048106,-9.802279336452484
13.6,0.5,72.0,23.48471450805664,-0.007951773703098297,-79.7827616998763,40.45898154923525,269.9806406955719,0.013688044622540474,0.011885968036949636,-0.7335540652275085,0.6793892979621887,0.004300631632474503,-0.0014005447350193946,-0.004582414489495324,0.0020762833300977945,-0.0015339908422902224,0.004173235036432743,0.013457312006503344,-0.3662509139254689,-9.80246176958084
13.7,0.5,73.0,23.47970771789551,-0.03180709481239319,-79.78276171269401,40.458981558629176,269.98419360923765,0.013694032095372677,0.011886073276400566,-0.7335565090179443,0.6793865561485289,0.00634769686140616,-0.004170353361335092,-0.0017782942712942875,0.006145326886326075,0.0032472247257828712,0.006375663448125124,0.012990733890328557,-0.3483990356326103,-9.801801034212113
13.9,0.5,73.0,23.47970771789551,-0.02385532110929489,-79.78276169035091,40.45898158698779,269.9870064716339,0.013690587133169174,0.011885450221598148,-0.7335567474365234,0.6793863773345947,0.0031459360959482274,-0.002505401491840156,-0.0009826356142573123,-0.0006541331531479955,0.0015462115406990053,-0.003474506782367825,0.011929946187883615,-0.3587291653454304,-9.801075394749642
14.0,0.5,73.0,23.47845458984375,-0.015903547406196594,-79.78276169644772,40.45898158147236,269.9868206243515,0.013690610416233541,0.011884617619216442,-0.7335596084594727,0.6793832778930664,0.0033400070761670712,-0.0020876274226418684,-0.0006915514929884406,0.004462266806513071,-0.0002075992670143023,0.0058454480022192,0.012644623263040559,-0.3501027315482497,-9.801342612504962
14.2,0.5,73.0,23.480958938598643,0.015903547406196594,-79.78276165624767,40.45898156861085,269.9915320138931,0.013690751045942308,0.011893585324287416,-0.7335606217384338,0.6793820261955261,0.007925524330517226,0.003360548345397844,0.0039600991368566865,-0.007261774968355894,0.0010078976629301906,-0.008816150017082691,0.012665942759485916,-0.34575605761259803,-9.800288944244388
14.3,0.5,74.0,23.480958938598643,0.0,-79.78276168887095,40.458981579705856,269.99413029956816,0.013698131777346134,0.011882288381457329,-0.7335640788078308,0.6793783903121948,0.004083849901051029,-0.007151120700860362,0.0024921269952202056,-0.004794816486537457,0.00012355096987448633,-0.0031849006190896034,0.01364056168938987,-0.36177201982587576,-9.801541417837145
14.5,0.5,74.0,23.47845458984375,-0.015903547406196594,-79.78276169764482,40.4589815761556,269.99436633396147,0.013698258437216282,0.011881658807396887,-0.7335661053657532,0.6793761849403381,0.004484780765698144,-0.00699592411220144,0.002593846948504117,0.001711987773887813,0.0025078239850699893,-6.224159733392297e-06,0.012496127968188376,-0.3518747302517295,-9.80034624695778
14.6,0.5,74.0,23.47970771789551,-0.04771064221858978,-79.78276167677672,40.45898154933562,269.9970313768386,0.013700197450816631,0.011889621615409851,-0.733566403388977,0.6793757081031799,0.009471668594446142,-0.002978057040031908,0.0022426811478646,-0.0026885201223194603,-5.42918496648781e-05,-0.0029059599619358787,0.012737285642651842,-0.3645850056409836,-9.801767705082892
14.8,0.5,75.0,23.48346328735352,0.0,-79.78276168110726,40.45898154062488,269.99722759532926,0.013701745308935642,0.011890328489243984,-0.7335699200630188,0.6793718934059143,0.010199708167827238,-0.0028430200761137892,0.0023389735028833385,0.003947165794670582,0.000972796871792525,0.004680410027503967,0.012104876150842755,-0.3635028687492013,-9.801553112268447
14.9,0.4000000059604645,75.0,23.473445892333984,-0.007951773703098297,-79.78276166414314,40.45898154928329,269.99987916755674,0.01369690615683794,0.011886637657880785,-0.7335719466209412,0.6793698668479919,0.004189984217451636,-0.0017640643185006606,0.001971976515001324,0.002850018674507737,0.00042570463847368966,0.004021522589027882,0.011803959247190505,-0.3541529516503215,-9.800521078705788
15.1,0.4000000059604645,75.0,23.48221015930176,0.0,-79.78276166644386,40.45898154593177,270.0000679950714,0.01369690615683794,0.011886637657880785,-0.7335719466209412,0.6793698668479919,0.003699249368858328,-0.0015213558847840384,0.0020868916819311357,-0.004463350865989924,0.00048059632536023855,0.005425979383289814,0.012057191650383171,-0.3646809730678797,-9.801936104893683
15.2,0.4000000059604645,75.0,23.474699020385746,0.3339745104312897,-79.78276164529642,40.4589815265624,270.00232033538816,0.013703055679798126,0.011903682723641396,-0.7335678339004517,0.6793738007545471,0.0047577115387741386,5.58227726509329e-05,0.0018833611247662078,0.0034412150271236897,0.0018836583476513624,-0.007145327050238849,0.012581779399188236,-0.3468415566533804,-9.799221242666246
15.4,0.4000000059604645,75.0,23.469690322875977,0.2942156493663788,-79.78276162487138,40.458981507098436,270.0061359863281,0.013702689670026302,0.01188727840781212,-0.733525812625885,0.6794195771217346,0.0051729671922225925,0.0007376669845550543,0.005267257095998818,-0.002485069679096341,-0.0018353943014517426,-0.014285755343735218,0.015284748481353748,-0.3669843374937773,-9.799535238146783
15.5,0.4000000059604645,75.0,23.469690322875977,0.2862638533115387,-79.78276162424034,40.45898149510368,270.0072142343521,0.01369520463049412,0.011878140270709991,-0.7335065007209778,0.6794407367706299,0.006689648654145989,0.0008290461675215534,0.005756117724189718,0.00018902194278780368,-0.0009198845364153383,0.008791476488113403,0.01568383693811484,-0.3514895814657211,-9.804643950462342
15.7,0.4000000059604645,75.0,23.46843910217285,0.3101191818714142,-79.78276160343512,40.45898148821063,270.01075355815885,0.013685939833521843,0.011864118278026579,-0.733555018901825,0.6793887615203857,0.003282481800822359,0.001264665200972458,0.008148123777344807,-0.00043010516674257815,0.0005042127449996768,-0.0019150439184159038,0.01979088352527469,-0.34207552772015337,-9.805863094925881
15.8,0.4000000059604645,75.0,23.47219467163086,0.3101191818714142,-79.78276162591106,40.45898148174317,270.0144129257202,0.013678744435310364,0.0118490532040596,-0.7335417866706848,0.6794033646583557,-0.002693693570332338,-0.006572078489820611,0.00841116341172028,-0.006177867297083139,-0.0010550932493060827,-0.011995719745755196,0.017926659841323273,-0.3713000577315688,-9.804836908578872
16.0,0.4000000059604645,74.0,23.46843910217285,0.3339745104312897,-79.78276163297836,40.458981483393465,270.0153092603683,0.013652260415256023,0.011850080452859402,-0.7335341572761536,0.6794122457504272,-0.002281940484311596,-0.00568654918429,0.008779826780146377,0.004579138942062855,0.0048997197300195685,-0.0041172215715050715,0.008317700239713306,-0.3638779310882092,-9.795018264055251
16.1,0.4000000059604645,74.0,23.46718597412109,0.3657816052436829,-79.78276168404534,40.45898147566058,270.01476006317137,0.013689331710338593,0.011840471066534521,-0.7335587739944458,0.6793850064277649,-0.003290753071426945,-0.014664780102012987,0.0026676960149263802,0.008396136574447155,0.001945471274666488,0.006716756150126457,0.009225597528275105,-0.3502172273397446,-9.80193668961525
16.3,0.4000000059604645,73.0,23.46343040466309,0.4532511234283447,-79.78276170098839,40.45898148047164,270.0150025348663,0.013685110956430435,0.011842530220746994,-0.7335938811302185,0.6793471574783325,-0.005047059661385992,-0.01440227147783141,0.002066934342373611,-0.003575688460841775,0.00028860842576250434,0.007184241432696581,0.016913218597183,-0.3626919695734978,-9.805816901922228
16.4,0.4000000059604645,72.0,22.767290115356445,11.275615692138672,-79.7827617344342,40.45898145498687,270.0156553249359,0.013684521429240705,0.012251010164618492,-0.7337568998336792,0.6791638731956482,-0.0037516209105934186,-0.017886042169813925,0.001247781557185589,-0.014507564716041088,0.0062620947137475005,-0.0014097826788201928,0.01904830655199476,-0.32941294368356466,-9.819921555519104
16.6,0.5,72.0,23.46343040466309,0.3021674156188965,-79.78276175563575,40.458981459735725,270.01579289245603,0.013584054075181484,0.012112477794289587,-0.7336995005607605,0.6792303323745728,-0.005623142515488119,-0.018576962022139428,0.0023747008856917677,-0.0059600751847028715,0.04238876700401306,0.003463893197476864,0.008178527941927314,-0.2686709711328149,-9.807827759385107
16.7,0.5,71.0,23.46593475341797,0.2385532110929489,-79.78276174614722,40.45898140500586,270.013376996994,0.013675766065716743,0.012054996564984322,-0.7337764501571655,0.679146409034729,0.0035108565228919035,-0.0063701570885387965,0.0012037708878151405,-0.014101476408541203,-0.04154659062623978,0.008147557266056538,0.05800734856165945,-0.4230850826203824,-9.797824927568435
16.9,0.5,71.0,23.413349151611328,0.787225604057312,-79.78276174537667,40.45898135630874,270.0129718046188,0.013790702447295187,0.012179065495729443,-0.7338361740112305,0.6790773272514343,0.006850460448289354,-0.009797936446194836,-0.002884297605013273,-0.005124640185385943,-0.04618266224861145,0.05632641911506653,0.02242911296663806,-0.455389048755169,-9.769844246506693
17.0,0.5,72.0,23.457170486450195,0.2942156493663788,-79.7827617704295,40.45898134980082,270.0125693540573,0.0136268837377429,0.012175178155303001,-0.7338061332702637,0.6791131496429443,0.005998052763175604,-0.010176504373341349,-0.00025919237552106096,0.015436721034348013,0.01132282428443432,0.005871810019016266,0.04304410443641245,-0.34912007041275506,-9.806751871705057
17.2,0.5,73.0,23.45216178894043,0.4930099844932556,-79.7827617496155,40.458981288584646,270.01223532962797,0.013703870587050915,0.011994743719696999,-0.7337434887886047,0.6791825294494629,0.0041683144034288105,-0.007603801370226245,-4.48661618795567e-05,-0.054175976663827896,0.026581387966871255,0.002463924698531628,0.031184343108907345,-0.2942077170498669,-9.805849061608317
17.3,0.5,71.0,23.38830757141113,2.7910726070404053,-79.78276173784873,40.458981247029364,270.01202099132536,0.013735517859458923,0.011776910163462162,-0.7337289452552795,0.6792013645172119,0.002902204970272761,-0.004547102798013045,0.0015237526690317464,-0.014059373177587986,0.01417660806328058,-0.016093242913484573,0.008664626850513741,-0.38120432741940025,-9.77820050239563
17.5,0.5,69.0,23.27186584472656,4.85853385925293,-79.78276174025136,40.45898124164953,270.012089179039,0.013672227039933205,0.01207271497696638,-0.7337938547134399,0.6791273355484009,0.008041725813426652,-0.0015911118857850856,0.0027327611160130787,0.006533562205731869,-0.005744799040257932,0.0076127597130835065,-0.005381472363369539,-0.3245370967313647,-9.797441350221632
17.6,0.5,67.0,23.23305320739746,6.250094413757324,-79.78276175072405,40.45898118223045,270.01122932243345,0.013651951216161251,0.012025554664433,-0.7339534759521484,0.6789560914039612,0.002882717715570869,-0.003551966480077547,0.0018493221849677985,-0.02076260186731816,-0.010047794319689274,-0.025436550378799442,-0.027758400072343647,-0.3188374136388302,-9.797120922803881
17.8,0.5,66.0,23.135393142700195,8.444784164428711,-79.78276175520955,40.45898117495214,270.0112997751236,0.013689500279724598,0.012260138988494871,-0.7340006828308105,0.6789001226425171,0.008581497015830938,-0.001645169528325783,0.0006329071426497018,0.009974410757422449,-0.034973450005054474,0.01736349798738956,0.026487626521848145,-0.28860248476266864,-9.79613917529583
17.9,0.6000000238418579,63.0,23.07404327392578,9.796585083007812,-79.78276177372001,40.45898112555729,270.0106653432846,0.01368863508105278,0.009903600439429285,-0.7341957688331604,0.6787276268005371,0.0011320965453217435,-0.015487983123422587,0.003344389113451423,0.005850752349942923,0.06444744020700455,0.053861454129219055,-0.026501015732064846,-0.27528879499062897,-9.799924662709236
18.1,0.6000000238418579,62.0,22.95885467529297,12.516092300415039,-79.78276178368745,40.45898112191699,270.010767624855,0.013625930063426495,0.009809543378651142,-0.7344423532485962,0.678463339805603,0.008665579094369779,-0.003157294947303268,0.00034435092746822467,0.03048802725970745,-0.02632108703255653,-0.03555057942867279,0.026541114840656518,-0.30252454077824953,-9.731349686980247
18.2,0.6000000238418579,60.0,22.887487411499023,14.14620590209961,-79.78276176205549,40.458981045523075,270.01042716312406,0.014243001118302344,0.011131283827126026,-0.7344005107879639,0.6784756183624268,0.011946722212309678,-0.006733938977165157,0.01299116851407876,0.005934556946158409,0.02584032714366913,0.058803491294384,-0.03316425601020456,-0.26597253592684866,-9.833409912586214
18.4,0.6000000238418579,59.0,22.740997314453125,17.30306053161621,-79.78276174331559,40.45898098493868,270.0088614683151,0.015102872624993324,0.011100753210484982,-0.7343367934226991,0.6785265207290649,0.008328595989103262,-0.008397678757182751,0.003362457087567975,0.0015015410026535392,0.02413753420114517,-0.046560518443584435,0.025043245484121145,-0.3511847222596407,-9.830811409950256
18.5,0.699999988079071,52.0,22.66211700439453,18.941125869750977,-79.78276177575053,40.45898097620867,270.0119073848724,0.017594831064343452,0.005023722071200609,-0.7330418229103088,0.6799374222755432,-0.008969468766392001,-0.03158875190136168,0.018271320691761118,-0.08886022120714188,0.1674952358007431,-0.07456551492214203,-0.08800241368822752,-0.4738967653736472,-9.777490065693856
18.7,0.699999988079071,51.0,22.50060272216797,22.54327964782715,-79.78276176174734,40.458980916389436,270.00936393547056,0.018954984843730927,0.0016250277403742075,-0.7326822876930237,0.6803048849105835,0.007057658798139947,-0.025387550614168614,0.036187916420665225,0.0037909653037786475,0.07941760867834091,0.011422406882047651,0.1734748285263777,-0.3154992382228375,-9.987008081674576
18.8,0.699999988079071,46.0,22.41546440124512,24.66640281677246,-79.7827618613385,40.458980816529284,270.01695303726194,0.011536872014403343,-0.010968136601150036,-0.7312195897102356,0.68195641040802,0.007252199397399359,-0.05756470923739813,0.1072912680344432,-0.25038158893585205,-0.0354660339653492,-0.01819141767919064,-0.02670195210026577,-0.20538238998502487,-9.945168914794925
19.0,0.8000000119209291,45.0,22.24768829345703,21.62882423400879,-79.78276194669142,40.45898080552217,270.0330278139114,0.0038220421411097045,-0.016307072713971138,-0.7299979925155641,0.6832441091537476,0.0246555002276238,-0.0715801356738165,0.2256627610142994,-0.06261464208364488,0.02697093039751053,-0.031168170273303982,0.2341822659596801,0.11631355379708112,-10.904021065235135
19.1,0.8999999761581421,43.0,22.72221565246582,17.81992530822754,-79.78276204505808,40.4589807924183,270.06226293849943,-0.0018673459999263289,-0.014698860235512257,-0.7287610173225403,0.6846078038215637,0.016034846595648952,-0.07253770517956641,0.3511541933125147,-0.046717770397663116,-0.2276230752468109,-0.0951259434223175,0.11009214375168086,0.25376479217782616,-10.9194097673893
19.31,0.8999999761581421,43.0,22.55569267272949,20.07027816772461,-79.78276237831601,40.45898064617382,270.1087632637024,-0.006699823308736086,0.001698269508779049,-0.7281534671783447,0.6853792667388916,0.023177203318813046,-0.0689818713651656,0.2565431948362608,0.08679959177970886,-0.049170579761266715,0.04471775144338608,0.10900038636289536,0.03970571888610721,-9.420571929216383
19.4,0.8999999761581421,44.0,22.488082885742188,22.73412132263184,-79.78276283452699,40.45898076244353,270.10905329990385,-0.003736823331564665,0.00363136432133615,-0.7287986874580383,0.6847082376480103,0.014399513374878969,-0.030991784477526808,0.07249187180816156,0.007988816127181053,-0.0373472161591053,-0.009995754808187485,0.16554026652127504,-0.021801841487176718,-9.158529544472692
19.6,0.8999999761581421,45.0,22.47430992126465,21.62882423400879,-79.78276286930449,40.458980741048336,270.11399214076994,4.641941632144153e-05,0.004309847019612789,-0.7295244932174683,0.6839411854743958,0.023618207540195536,-0.013399396631170714,0.013729634450154252,-0.00036777666537091136,-0.04459524527192117,0.030893445014953613,0.17871689390391113,-0.002007536998135038,-9.171652450561524
19.7,0.8999999761581421,44.0,22.439252853393555,22.59894180297852,-79.78276294901539,40.45898062896314,270.13017468261717,-0.0009453142993152145,-0.0032815660815685987,-0.7309362292289734,0.6824373006820679,0.030798003229414717,-0.003274483369349032,-0.014371692723900775,-0.08988989889621735,-0.035458534955978394,-0.008434178307652473,0.18263518620282407,-0.03785430311691016,-9.349648126959801
19.9,0.8999999761581421,47.0,22.31154441833496,24.68230628967285,-79.78276300918512,40.458980757312695,270.1509889822006,-0.004097989294677973,-0.005549799650907517,-0.7314186096191406,0.6818939447402954,0.01869132950187919,0.00550563154889186,0.009682635928550584,-0.10152781754732132,-0.07299040257930756,-0.03109100461006165,0.20153395364061,0.0425033055106178,-9.69538112461567
20.0,1.0,53.0,22.356616973876953,23.56110572814941,-79.78276298298141,40.458980719797,270.1607441167831,-0.002370274160057307,-0.004286778625100851,-0.73194819688797,0.6813426613807678,0.017849429362144568,0.02122128944508694,0.08889790338276016,0.11759032309055327,-0.042339395731687546,-0.014996602199971674,0.17273161087185146,0.02999199533835054,-10.098406895399094
20.2,1.0,57.0,22.35787010192871,23.338457107543945,-79.78276290587075,40.458980580971605,270.1847696762085,0.0006208894774317741,-0.0011861834209412336,-0.7319613099098206,0.6813449263572693,0.018729925870313087,0.029880566061718367,0.12792569444532076,0.047846414148807526,-0.0584508404135704,-0.015033980831503868,0.2313108262605965,0.0387716581625864,-10.03961665034294
20.3,1.0,64.0,22.36162567138672,23.04424095153809,-79.78276265243704,40.45898049080453,270.2148314576149,-0.0008005924755707383,-0.002433994086459279,-0.731607973575592,0.6817208528518677,0.007840070215302915,0.06832793700478176,0.15405445260573578,-0.10990122705698012,0.0507676862180233,-0.033109426498413086,0.15459939513355495,-0.08262199770659209,-10.015562374591829
20.5,1.0,70.0,22.375398635864254,21.795812606811523,-79.78276256847028,40.45898047527703,270.23111520814894,-0.001946143922396004,-0.004950752016156912,-0.7313683032989502,0.6819620728492737,0.014316797354638415,0.07970702820256281,0.17176601438430866,-0.02738846093416214,0.04348260909318924,0.01289940532296896,0.0726530614681542,0.035458155255764734,-9.96553125858307
20.6,1.0,77.0,22.28900718688965,27.03603172302246,-79.78276247346491,40.458980459843055,270.248469815731,-0.002338227583095432,-0.005925296805799007,-0.7309619784355164,0.6823886036872864,0.0058519511531052,0.08592162129317542,0.1740197910976082,-0.06995733827352524,-0.044847190380096436,-0.06766778230667114,0.08943158282898367,0.13454747454263272,-9.84670414209366
20.8,0.8999999761581421,81.0,22.402942657470703,22.304725646972656,-79.78276215294034,40.458980479337015,270.276360080719,-0.00199319701641798,-0.008382451720535755,-0.7300922274589539,0.6832943558692932,-0.007135972568891418,0.08383256907152956,0.22014577787296216,0.1160345897078514,0.0975850149989128,0.10429460555315018,0.19871038801968105,-0.1414260111283511,-10.18193904876709
20.9,1.0,84.0,22.3353328704834,24.28471755981445,-79.78276204135192,40.45898036242439,270.28797428417204,-0.0019948524422943588,-0.007439494132995605,-0.7298875451087952,0.6835238933563232,-0.018089009760517392,0.09008229358778938,0.2000188172416712,0.003554196795448661,-0.048856966197490685,-0.09855441749095917,0.1599358747713268,0.2351195380836725,-9.88659618616104
21.1,1.0,84.0,22.302780151367188,23.64857482910156,-79.78276183666655,40.45898039910246,270.3272434930801,0.0016191230388358235,-0.006855603773146868,-0.7300039529800415,0.68340665102005,-0.024304155069255425,0.08545268957733895,0.2026366974376271,0.13376040756702426,0.10843829810619354,0.06323660910129547,0.11399351567029956,-0.07499807816930115,-9.895509681701661
21.2,1.0,86.0,22.326568603515625,24.984474182128906,-79.78276150597603,40.45898048773571,270.36996226119993,0.002884789602831006,-0.009127353318035604,-0.7300348877906799,0.6833428740501404,-0.05412200531454615,0.09710633615648344,0.2380724162420331,-0.027162393555045128,0.031411003321409225,0.013271348550915718,0.1585052986443043,0.2962175695225597,-10.003672646284103
21.4,1.100000023841858,87.0,22.265216827392575,25.39796638488769,-79.78276133916856,40.45898057805466,270.3866271238327,0.004018003586679697,-0.008476701565086842,-0.7301357388496399,0.6832377910614014,-0.07642684251664257,0.08170662168481932,0.23538632705721355,-0.08331643044948578,-0.056040603667497635,-0.08656589686870575,0.06642379422672093,0.2380790514685213,-9.974945275783538
21.5,1.100000023841858,91.0,22.79608726501465,15.092467308044435,-79.78276124883264,40.458980633670734,270.41081403303144,0.00582685973495245,-0.007565487641841173,-0.7301907539367676,0.6831766366958618,-0.0612383583941587,0.0795115027048961,0.24833103619396635,0.013983065262436868,-0.014928724616765974,-0.011426791548728945,0.1719450507313013,-0.08739544529467821,-9.957832814455033
21.71,1.100000023841858,90.0,22.197607040405273,26.646394729614247,-79.7827610008605,40.458980556915506,270.4380416731834,0.0071484399959445,-0.0029198294505476947,-0.7305171489715576,0.6828507781028748,-0.04197130208748062,0.06883512592715775,0.08409961780936275,0.042556945234537125,-0.01651271991431713,0.02145915664732456,0.21258435068652035,-0.039895968097262084,-9.406688885092736
21.9,1.100000023841858,89.0,21.948448181152344,32.920345306396484,-79.78276061027606,40.45898040647068,270.4983470301628,0.0027344143018126488,-0.003215735778212548,-0.7305856347084045,0.6828081011772156,-0.04333680306674929,0.09892603962613923,0.2202928362385184,-0.2232254296541214,-0.09377574175596236,-0.12694494426250458,0.10374672705307604,0.16518325746059415,-10.297433252334596
22.0,1.2000000476837158,90.0,21.932172775268555,32.554561614990234,-79.78276049605594,40.458980422066226,270.5258530836105,0.00106385862454772,-0.004688043147325516,-0.7303233146667479,0.6830847859382629,-0.020910795150803192,0.09619492093152328,0.3424958293282617,0.0178949236869812,-0.008788936771452427,-0.0022648351732641463,0.13367113223299384,0.13295443718321626,-10.926070915460588
22.2,1.2000000476837158,91.0,21.83075523376465,34.55841064453125,-79.78276017645862,40.45898054621624,270.62381397294996,0.002103064209222793,-0.0058260848745703715,-0.7298769950866699,0.6835504770278931,-0.034606346092540145,0.08967490641608533,0.6570273782423784,-0.05105721578001976,0.07075643539428711,-0.06563572585582733,0.12590632220730186,0.13030306292697788,-11.465411070585251
22.3,1.2999999523162842,90.0,21.81072425842285,36.02948760986328,-79.78276007393816,40.45898057126642,270.6990685622692,0.0029789474792778488,-0.0062969322316348535,-0.7299606204032898,0.6834537386894226,-0.03164189133581689,0.09445240167172468,0.8530369681194657,-0.02760803140699864,0.03276362270116806,-0.013256203383207321,0.14388070880435408,-0.005932521047070623,-11.71683666586876
22.5,1.2999999523162842,90.0,21.759389877319336,35.93406677246094,-79.78275973524711,40.458980543997775,270.9132799665928,0.005292103625833988,-0.003987818956375122,-0.7302017211914062,0.6831995248794556,-0.02130755598572781,0.1039267950712443,1.3236529162475148,0.0659978836774826,0.043270617723464966,-0.007962854579091072,0.1043395616300404,-0.07796653596684337,-12.403255344629288
22.6,1.399999976158142,91.0,21.659225463867188,35.29792404174805,-79.78275936169777,40.4589805319194,271.2301485362947,0.006690807640552521,-0.0036229693796485662,-0.7303876280784607,0.6829906105995178,-0.035628653193752184,0.10960882432053562,1.841742474149731,-0.07206341624259949,0.054275065660476685,-0.030350027605891224,0.10952633427456022,-0.037361716311424965,-12.481940156221393
22.8,1.399999976158142,95.0,21.699291229248047,36.196475982666016,-79.78275925597076,40.458980541175976,271.42553274440763,0.005999112036079168,-0.0042127780616283425,-0.7302197813987732,0.6831730604171753,-0.02612093884466047,0.11122582985477104,2.0623864238682263,-0.030026404187083244,0.020385628566145897,0.02437572181224823,0.11530948637053373,-0.0165587208699435,-12.133436747789386
22.9,1.399999976158142,96.0,21.649208068847656,37.46080780029297,-79.78275899659096,40.45898048565103,271.625963912487,0.0036500045098364353,-0.00524065038189292,-0.7302095293998718,0.6831933856010437,-0.01924192505227091,0.11578080417046148,2.245985619530392,-0.05099397525191307,0.06961855292320251,-0.018568906933069236,0.0670523059554398,-0.12125698177143933,-12.021163190603255
23.1,1.399999976158142,92.0,21.848285675048828,31.95022773742676,-79.78275877691719,40.45898049456528,272.12159447479246,0.0021625629160553217,-0.004372948780655861,-0.7295219898223877,0.6839399933815002,0.009887600826146429,0.1231684311094229,2.7071938262423503,0.0792197585105896,0.032840564846992486,-0.032489921897649765,0.11019059624522927,0.07152346163056791,-12.083019715547564
23.2,1.399999976158142,89.0,21.843276977539066,31.4890251159668,-79.78275851319593,40.45898043972859,272.38079087543485,0.003781584789976477,-0.0017829420976340766,-0.7291646003723145,0.684325635433197,0.009676515379840994,0.12463979240355658,2.8487993886097502,0.10389170795679092,0.02541984617710113,0.023955842480063442,0.1149246025364846,0.12644714397378268,-11.646287670135498
23.4,1.2999999523162842,86.0,21.258569717407227,30.43939018249512,-79.78275813632483,40.45898037267707,272.9703103761673,0.006605292670428753,-0.002470259554684162,-0.7287314534187317,0.6847633123397827,-0.000873273108665674,0.1411229791174671,3.0002911557576004,-0.03172529861330986,0.021706290543079376,-0.0018481988226994872,0.1065984141267836,-0.09911618907004596,-10.497902702093123
23.5,1.2999999523162842,88.0,21.297382354736328,31.01987075805664,-79.78275787389168,40.45898031810797,273.57791642951963,0.0072166076861321935,-0.008355380035936829,-0.7295874357223511,0.6837984919548035,0.029063230395249943,0.1627663746561127,3.063782972907339,0.04620179161429405,0.06817837804555893,0.06842659413814545,0.0948195819184184,-0.07653707446530461,-10.262843463420866
23.7,1.2999999523162842,91.0,21.84703254699707,32.45914077758789,-79.78275760296962,40.45898026209643,273.89419560241697,0.009411394596099857,-0.008508999831974506,-0.7301379442214966,0.6831820607185364,0.04453021000886026,0.17640205975709494,3.1069347391580737,0.12455860525369646,-0.015046278014779091,0.04226438701152802,0.2166345525160432,0.07805857479572298,-10.290954537391665
23.8,1.2999999523162842,89.0,21.95345687866211,30.033849716186523,-79.78275748802147,40.45898022007671,274.2084727745056,0.012316383421421051,-0.006682614795863628,-0.7305718660354614,0.6826919913291931,0.033489314480823394,0.17543501094025427,3.172993517448468,0.07038947939872743,-0.01832883059978485,0.0206854809075594,0.19380704088136555,0.09149460841901598,-10.431487687826158
24.0,1.2000000476837158,89.0,22.032337188720703,27.48133087158203,-79.78275718372423,40.45898015096937,274.82514385986326,0.014193846844136715,-0.0057337647303938866,-0.7311257123947144,0.6820710897445679,0.015790965586971826,0.15697156665542072,3.223368458474608,-0.06997445970773697,0.009208562783896923,-0.05150490254163742,0.1469302419014275,0.013043667180463672,-10.047686977386476
24.1,1.100000023841858,95.0,22.017311096191406,29.310237884521484,-79.78275711743835,40.45898009012101,275.14766173171995,0.01283498015254736,-0.006127056665718556,-0.7311340570449829,0.6820855736732483,0.02545649078844804,0.14499948073226146,3.2194551512384235,-0.08782144635915756,-0.06638135015964508,-0.06757622957229614,0.17429480915889145,-0.08014564706012607,-9.833133924007416
24.3,1.0,91.0,22.00979995727539,29.12734794616699,-79.78275693162462,40.458980018911284,275.7398963432312,0.011143543757498264,-0.0060903215780854225,-0.7307894229888916,0.6824848651885986,0.05476756600119945,0.10967317751484906,3.1772278084335444,-0.003018417628481984,-0.050059463828802116,-0.029680844396352768,0.1465858591720462,-0.04646820651367307,-9.801076564192773
24.41,0.8999999761581421,88.0,22.09368705749512,26.876995086669922,-79.78275674052715,40.458979835218464,276.3597612838745,0.009764906018972395,-0.005512431263923645,-0.7306497693061829,0.6826604008674622,0.06091731395269905,0.08376686291487481,3.1193992290901624,-0.07448422163724899,-0.062056060880422585,-0.0535571426153183,0.09166448830626904,0.09866228068247436,-9.726454398036005
24.6,1.0,91.0,22.038597106933594,28.022050857543945,-79.78275673756588,40.4589797493116,276.67083124923704,0.008574366569519043,-0.006277860142290592,-0.7307676076889038,0.6825436949729919,0.06373613409698371,0.06965378047708715,3.107492131183953,-0.1038040816783905,0.030317092314362526,-0.06810586154460907,0.11273579785600304,0.20728913046419625,-9.673893776535987
24.7,0.8999999761581421,96.0,22.099946975708008,26.30446815490723,-79.78275668646727,40.458979613653796,276.9603405456543,0.007635139394551516,-0.007684126030653716,-0.7309118509292603,0.6823859810829163,0.08401671601657085,0.056232442973915935,3.0669203867203283,-0.04198165237903595,-0.04299172759056091,-0.07533347606658937,0.13764248801395298,0.042374337860383096,-9.698088970184326
24.9,1.0,100.0,22.03984832763672,27.48133087158203,-79.7827566478884,40.45897932783339,277.4964390258789,0.0068251448683440685,-0.007703160401433706,-0.7308737635612488,0.6824350953102112,0.12580512139920855,0.03585497011515108,2.934254165196581,0.104304201900959,-0.014756768010556696,0.05897760018706321,0.1298372682463378,-0.08559229189530015,-9.458553687930108
25.0,1.100000023841858,108.0,22.07740974426269,26.54302215576172,-79.78275674680108,40.45897913218607,278.075525806427,0.006385799497365952,-0.0077590285800397405,-0.7306732535362244,0.6826533675193787,0.10217426775989187,0.021296150641846284,2.85971986701638,-0.12459290772676468,-0.06142079457640647,-0.03529264032840729,0.13765107611194255,-0.15574521185830234,-9.438998259902
25.2,1.100000023841858,112.0,21.955961227416992,29.47722625732422,-79.78275670011699,40.458979226101505,278.47138886260984,0.003351957537233829,-0.008149934932589531,-0.7309107184410095,0.6824162006378174,0.08105815884373517,0.007613872451458156,2.862214127614468,-0.09228289127349854,-0.08943048119544983,-0.07739617675542831,0.16068592635914686,-0.029102834835648538,-9.574453103542329
25.3,1.2000000476837158,118.0,22.02482414245605,28.864938735961914,-79.78275676556383,40.45897915673545,278.7573147277832,0.001696153311058879,-0.008851859718561172,-0.7310523986816406,0.6822618842124939,0.07785904142839734,-0.007654880219677544,2.861363207182716,-0.0917251706123352,-0.0008793353335931897,-0.06338394433259964,0.07873774716630579,0.30555100478231906,-9.736957751512527
25.51,1.2000000476837158,115.0,22.043603897094727,27.06783866882324,-79.7827568102585,40.45897895566032,279.49271206665037,0.002206112258136273,-0.007519159931689502,-0.7305432558059692,0.68282151222229,0.0906325071250528,-0.01696785069066051,2.915579881469052,0.03195023164153099,0.040983956307172775,-0.0399889275431633,0.1068908845447004,0.18201079493388533,-9.699896344542504
25.6,1.2000000476837158,107.0,21.97974967956543,28.38783264160156,-79.78275688504246,40.458978903546,279.7828340988159,0.0027316065970808268,-0.006541235372424126,-0.7296261191368103,0.6838096380233765,0.08893864083357506,-0.017072167331143157,2.88612146458381,0.07953223586082457,-0.02603012323379517,0.069308802485466,0.10884510624222456,-0.11524118358269335,-9.568995897173883
25.8,1.2000000476837158,104.0,22.05111694335937,27.560848236083984,-79.78275686666692,40.45897865111661,280.4775238494873,0.002744456520304084,-0.0074863028712570685,-0.7283690571784973,0.6851387023925781,0.06280701248117071,-0.008579728059875426,2.8933157622939136,-0.16383635997772214,0.037581585347652435,-0.0557558499276638,0.10128272864967586,0.11286208857782185,-9.621108621954921
25.9,1.2000000476837158,110.0,21.950952529907227,29.151203155517567,-79.78275690516706,40.45897856908092,281.159199760437,-0.0011745349038392305,-0.014134581200778484,-0.7299710512161255,0.6833309531211853,0.09734618223169644,-5.5309462913554625e-05,2.926793558866306,0.03766338899731636,0.056843601167202,-0.02095092087984085,0.13562809481285512,0.11092602979391814,-9.64648787677288
26.1,1.2000000476837158,120.0,22.05988121032715,26.447599411010746,-79.7827569614363,40.45897853186837,281.4519939880371,0.0004446512029971928,-0.014807230792939663,-0.7310912013053894,0.6821189522743225,0.08939703983372682,0.009671146638946922,2.923782820584069,-0.01812809146940708,0.02820957824587822,-0.041108768433332436,0.15807956652715802,0.3519535580277443,-9.74470706641674
26.2,1.2000000476837158,142.0,21.994773864746094,28.530963897705078,-79.78275705995969,40.45897847566521,281.83025173950193,0.00310204247944057,-0.013919808901846407,-0.7321505546569824,0.6809936165809631,0.0970410861610567,0.006554519228195685,2.9395658697730696,0.14039552211761475,0.005238831974565983,0.11755375564098358,0.21439894270151846,-0.11841517101041972,-9.657063735723497
26.4,1.2000000476837158,168.0,22.06989860534668,25.27868843078613,-79.78275712295262,40.458978393301024,282.4976091842651,0.006755717098712921,-0.010046768002212048,-0.7333963513374329,0.6796935796737671,0.036623625092993856,0.010941963446399815,2.9731010336440784,-0.09230299293994904,-0.08544772118330002,-0.014145952649414541,0.2115558254532516,0.05171345131471753,-9.76893909752369
26.5,1.2000000476837158,237.0,22.01605987548828,27.44157218933105,-79.7827572818112,40.45897836702727,283.08939556884764,0.005081807728856802,-0.00838375836610794,-0.7340821623802185,0.6789898872375488,0.028453215594131005,0.0002791763298408654,2.9400147749759227,0.007036770693957807,0.02789112739264965,0.049906961619853966,0.24226690040901305,0.1002075718715787,-9.675241559743881
26.7,1.2000000476837158,254.0,21.869569778442386,30.16903114318848,-79.78275727464481,40.458978280764796,283.45607762145994,0.0029042293317615986,-0.008893229998648167,-0.7340505123138428,0.6790304780006409,0.026650321141407425,-0.004807630698491547,2.9770817750310825,-0.07965945452451706,-0.10030121356248856,-0.04405567795038223,0.3013859965279699,-0.057278739809989924,-9.770851721763613
26.81,1.2999999523162842,271.0,22.00979995727539,27.354103088378906,-79.78275734459682,40.45897827215153,283.75450424957273,0.0011140696005895734,-0.009139393456280231,-0.7339625954627991,0.6791275143623352,0.02568213035316935,-0.0030585532658759266,2.9960765815330315,-0.04084654152393341,-0.003918503411114216,-0.09814348816871643,0.21347681852057576,0.2607153774239123,-9.918521983623503
27.0,1.399999976158142,273.0,21.98350715637207,26.78952598571777,-79.78275746654622,40.45897825632064,284.4139032821655,0.0022914549335837364,-0.010600772686302662,-0.7328945398330688,0.6802558898925781,0.035705888529767436,-0.0082906912729715,3.037379232684037,0.07364941388368608,0.13418827950954434,0.08027109503746033,0.20449958832934495,-0.10965577701106667,-9.87653312802315
27.1,1.600000023841858,265.0,22.02983283996582,27.497234344482425,-79.7827575200629,40.45897826913329,284.7179089050293,0.00448969192802906,-0.011392350308597088,-0.7321708202362059,0.6810109615325928,0.011091532232597349,0.01761231788442376,3.0410526375074225,-0.057957399636507034,-0.0269906222820282,-0.06031951680779458,0.24698198547586805,-0.008980647157877684,-9.814462594985963
27.3,1.7999999523162842,263.0,22.022319793701172,26.48735809326172,-79.78275760280589,40.45897853173364,285.386024520874,0.006197746843099594,-0.012003465555608273,-0.7311580181121826,0.6820743680000305,-0.04039727617860736,0.052194731544488664,3.0477246770672117,-0.012081088498234749,-0.0015162646304816008,0.0004111207672394812,0.31054364986717703,0.1470604064036161,-9.732921418547633
27.4,2.0,261.0,22.02482414245605,25.723989486694336,-79.7827577087957,40.458978526436795,285.7583675842285,0.004257448948919772,-0.011094218119978905,-0.7308396100997925,0.6824458241462708,-0.015388319873191187,0.05149524377884152,3.0754391150961538,0.07133696973323822,-0.0709899365901947,0.08367705345153809,0.28440877033397555,-0.2990224423259497,-9.730424657464027
27.6,2.0999999046325684,262.0,21.954710006713867,28.92060089111328,-79.78275775296194,40.45897862969283,286.3711777191162,0.00517408037558198,-0.00730881793424487,-0.731136679649353,0.6821722388267517,-0.039831278704841266,0.03808862452599778,3.0527678410927277,0.09834709763526917,0.05055272579193115,-0.027812547981739044,0.23827239330857994,0.2405566446483136,-9.706530010700225
27.71,2.4000000953674316,260.0,22.033588409423828,27.00422477722168,-79.78275770281762,40.45897879426313,286.73319535064695,0.008331345394253729,-0.006183880381286143,-0.7312554121017456,0.6820248961448669,-0.05453400758443913,0.03883346253691365,3.0968114983553585,0.10514461994171144,0.05116355419158936,0.060040567070245736,0.2828861736506224,-0.08372724937275053,-9.890918447971345
27.9,2.5,262.0,21.975994110107425,26.59073257446289,-79.78275768270214,40.45897882752399,287.3771648864746,0.010845659300684929,-0.005889768246561289,-0.7317739129066467,0.6814357042312622,-0.07952109856731905,0.05687450665091672,3.0919054788570093,-0.05065744370222092,-0.0002998226846102625,-0.031351584941148765,0.2797038630768657,0.1341813840251416,-9.771994267702103
28.0,2.700000047683716,258.0,21.997278213500977,28.35602569580078,-79.78275768986079,40.45897886710075,287.68657688903807,0.010067767463624477,-0.006374889984726906,-0.7319130897521973,0.6812938451766968,-0.06581314532420572,0.06944486237396948,3.0915365519179367,-0.01625584438443184,-0.02040378749370575,-0.009093393571674824,0.2819961360655725,0.05130704241804779,-9.735027585625652
28.2,2.700000047683716,256.0,22.021068572998047,27.57675170898437,-79.78275766473206,40.45897905334039,288.3355312805176,0.00866694375872612,-0.006883674766868353,-0.7317426800727844,0.6814911961555481,-0.07203165300274593,0.0601389089848493,3.07812769585603,-0.06421788036823273,0.02587912231683731,-0.02380368486046791,0.2840994160808623,0.05578348342794925,-9.732006914019586
28.3,2.799999952316284,254.0,22.07615852355957,26.09772109985352,-79.78275759916156,40.458979214067696,288.97902684020994,0.008403396233916283,-0.007634858135133981,-0.7322031259536743,0.6809917092323303,-0.05788198237477255,0.07514264714888275,3.0431406309857114,0.07670241594314575,0.019661920145154,0.1387718766927719,0.2501971683651209,0.2161937090009451,-9.625744879245758
28.5,2.799999952316284,252.0,22.001035690307614,27.091693878173828,-79.7827575832062,40.458979269355936,289.2828407745361,0.008367842994630337,-0.007835139520466328,-0.7327030897140503,0.6804519295692444,-0.07114296979482601,0.07944006528529382,3.029474111509592,-0.02436273731291294,-0.01099009346216917,-0.004845309536904097,0.30846339326351885,-0.13038803027942775,-9.651626994609831
28.6,2.799999952316284,247.0,21.945945739746094,27.218921661376953,-79.7827575596558,40.4589793289971,289.58515362548826,0.008933749049901962,-0.007824153639376162,-0.7332226634025574,0.6798850297927856,-0.08511817862320482,0.0849325175414961,3.015032877281028,-0.029192989692091945,0.011679017916321754,-0.00997595489025116,0.22226187631487848,0.179059668648988,-9.64284681558609
28.8,2.799999952316284,244.0,21.870820999145508,28.08566474914551,-79.78275747968013,40.458979525060684,290.22390560913084,0.01209804601967335,-0.0047110915184021,-0.7332438230514526,0.6798419356346129,-0.09836350807700214,0.08723169130112747,3.02204566423948,-0.014870883896946909,-0.039890047162771225,-0.02437497116625309,0.3370469588041305,-0.1684784558415413,-9.777695887684825
28.9,2.700000047683716,242.0,22.002286911010746,27.98229217529297,-79.78275742045733,40.458979727916,290.5588112335205,0.01373602170497179,-0.004246292170137167,-0.7329103350639343,0.680173397064209,-0.13051188570404654,0.08581379354462422,3.039915343611464,0.026712611317634586,0.053345270454883575,-0.03950876742601395,0.24282728293910624,0.07895604930818081,-9.829139106273649
29.1,2.700000047683716,240.0,22.033588409423828,26.32832336425781,-79.78275735850444,40.45897988308051,291.1666450958252,0.014862270094454287,-0.005646321456879377,-0.7318730354309082,0.681255578994751,-0.125241457807121,0.10276453279393476,3.0409550089517166,0.012279030866920948,0.0009229308343492447,-0.035864368081092834,0.3381976177543402,-0.2304642407968641,-9.87748505473137
29.2,2.700000047683716,237.0,21.937179565429688,26.59868431091309,-79.7827573141077,40.45897995623872,291.4926147918701,0.014656689018011091,-0.005968382116407156,-0.731522798538208,0.6816334128379822,-0.12610662182762306,0.10377881269739186,3.043952660702637,-0.07435735315084457,-0.013884101063013077,-0.06393040716648102,0.2153548162803054,0.04041822952218354,-9.812845255136489
29.4,2.700000047683716,235.0,21.982254028320312,27.354103088378906,-79.78275712831791,40.458980224998214,292.11758427429197,0.015102207660675047,-0.006349534727632999,-0.7308842539787292,0.6823048591613771,-0.10470419323637063,0.11156527053998977,3.055375161076304,0.16826491057872772,0.036668602377176285,0.08159350603818892,0.3407081197947264,-0.3161142922192812,-9.84787007689476
29.5,2.5999999046325684,231.0,21.981002807617188,28.08566474914551,-79.78275709583659,40.45898029896425,292.42373661804197,0.015807881951332092,-0.0058316923677921295,-0.7310141921043396,0.6821542978286743,-0.12756074012981564,0.11162607086905628,3.060914765599748,-0.04282395914196968,0.007206830196082592,-0.03926686570048332,0.3005288495309651,-0.11777453544549644,-9.856223409175874
29.7,2.5999999046325684,230.0,21.88083839416504,30.21674156188965,-79.78275705428449,40.458980440026224,293.04827694702146,0.016430849209427834,-0.005549769848585129,-0.7318357825279236,0.6812604069709778,-0.10750589626415397,0.10896960153252028,3.079950288514332,0.09316152334213257,-0.01966480165719986,0.14737655222415924,0.2646704523637891,-0.29908022012561564,-9.951872162818908
29.8,2.5,228.0,21.994773864746094,26.169288635253906,-79.78275698822628,40.45898065454875,293.6791706542968,0.01614673063158989,-0.004035878460854292,-0.7324479818344116,0.6806195974349976,-0.1355489369661541,0.10435833787633007,3.1182107699995965,-0.0680709108710289,0.011409793980419636,-0.060795538127422326,0.34134034998714924,-0.3365682911127806,-10.0893600833416
30.0,2.5,228.0,21.994773864746094,27.25868034362793,-79.78275696918877,40.45898071652177,293.99102978515623,0.016971634700894356,-0.003661536378785968,-0.7326498627662659,0.6803842782974243,-0.1328366816033635,0.09991605695221988,3.113559148006649,-0.08380009233951569,-0.04575901851058006,-0.14492009580135345,0.2296163762547076,0.08709515422582627,-9.815924398899078
30.1,2.5,229.0,21.902122497558594,28.85698699951172,-79.78275695159817,40.458980773695004,294.30208401489256,0.01851145178079605,-0.003770225448533893,-0.7324122190475464,0.6805993914604187,-0.10789126168335413,0.09595697931233284,3.1043644226314355,0.14959517121315002,0.0919937714934349,0.08644144982099533,0.26243981268256905,-0.3508386767283082,-9.794222458004953
30.3,2.5,230.0,22.028579711914066,25.98639678955078,-79.78275685818431,40.45898092330489,294.9325848083496,0.023792603984475136,-0.003487289650365711,-0.731828510761261,0.6810645461082458,-0.1149561949720388,0.10562546981154998,3.0978357820496463,0.03081160970032215,0.030201645568013188,-0.08052746206521988,0.3022527731582523,0.13648839382454753,-9.766431811451913
30.4,2.5,228.0,21.982254028320312,26.717960357666016,-79.78275683216945,40.458981018317225,295.2519455413818,0.023064658045768738,-0.0028166170231997967,-0.7314140796661377,0.6815376877784729,-0.1003484939409743,0.11085825293543056,3.0656528299628163,0.015611965209245682,0.029940031468868256,0.031634759157896035,0.310201331935823,-0.2334388290345669,-9.640208551883696
30.61,2.5999999046325684,228.0,22.052370071411133,24.817485809326172,-79.78275686718692,40.45898103247383,295.86328701782224,0.018508877605199814,-0.007350845728069544,-0.7316833734512329,0.6813536882400513,-0.0710551343172223,0.08359758161027958,3.0471605031989157,-0.0562187060713768,-0.03502914682030678,-0.03834028542041778,0.2551076783426106,-0.05761967816390098,-9.70107514321804
30.7,2.5999999046325684,227.0,21.888351440429688,29.31818962097168,-79.78275683268244,40.458981133075206,296.49474530029295,0.017344025894999504,-0.005604330915957689,-0.7319256663322449,0.6811407208442688,-0.05243284489129868,0.09048288118510307,3.016314683180428,-0.02981210872530937,-0.037165015935897834,0.005259881727397442,0.4375860312581063,-0.23595621982589365,-9.65791567504406
30.9,2.5999999046325684,226.0,21.96597671508789,27.28253555297852,-79.78275679612953,40.458981133277504,296.82397465515135,0.015949726104736328,-0.0035556061193346977,-0.7320074439048767,0.681100606918335,-0.07286131878960593,0.08246219981467978,3.0249104158970823,-0.13380166888237,-0.09124000370502472,-0.15901584923267365,0.28956522881984714,0.06848479613196105,-9.677958760857585
31.0,2.5999999046325684,226.0,21.950952529907227,29.29433441162109,-79.78275681357606,40.45898113815432,297.1255951385498,0.014902857132256031,-0.0032495607156306505,-0.7324226498603821,0.680679440498352,-0.055303420211210735,0.06883164378477982,3.0083115506565408,0.01752458140254021,-0.009223464876413344,0.08558567613363266,0.2487501286715269,-0.28225860295817257,-9.659587978720666
31.2,2.5999999046325684,225.0,21.90337562561035,29.039878845214844,-79.78275680315821,40.45898118734304,297.75247006225584,0.01711491495370865,-0.004764328710734843,-0.7325071692466736,0.6805274486541748,-0.06764202062901152,0.07994209839821605,3.0294769416157568,-0.04616057127714157,-0.009974593296647072,-0.02912226505577564,0.3060550895892084,-0.1471750940568745,-9.88723353266716
31.31,2.700000047683716,223.0,21.954710006713867,26.63049125671387,-79.78275680237886,40.45898119517617,298.05618099975584,0.0185876339673996,-0.005302424542605877,-0.7323169708251953,0.6806895732879639,-0.07931604877325435,0.09299439342633674,3.043981204809878,-0.10121949017047882,0.0005587031482718885,-0.1511046439409256,0.30611266639083623,0.1425538019835949,-9.901201361417767
31.5,2.700000047683716,223.0,21.875829696655273,27.94253349304199,-79.78275683353976,40.458981189632894,298.6901836853027,0.0207004826515913,-0.005711364559829235,-0.7314959168434143,0.6815076470375061,-0.03890562775014539,0.0978000922581488,3.0602464310860182,0.15498849749565125,0.05822290480136871,0.03997435420751572,0.3341363975778222,-0.4331955762952566,-9.921278361082075
31.6,2.700000047683716,221.0,21.90462684631348,27.457475662231445,-79.78275684514105,40.45898118239847,298.9975109558105,0.02150334045290947,-0.005625131540000439,-0.731445848941803,0.6815372109413147,-0.0667121197827576,0.10130838545467168,3.079550537628141,-0.08688316494226456,0.03432169929146767,-0.025386109948158264,0.3337062983214855,-0.15864312848076226,-9.94698739886284
31.8,2.700000047683716,220.0,21.944692611694336,26.20109558105469,-79.78275686713631,40.45898118477447,299.6307774047852,0.019240010529756543,-0.007071672473102808,-0.7321453690528871,0.6808400154113771,-0.049429445735079805,0.09486761824387777,3.102639019996168,0.0246973354369402,-0.03138615190982818,-0.03412700071930885,0.3523266834765673,-0.08960728252306581,-9.963267216682434
31.9,2.700000047683716,222.0,21.929668426513672,28.37988090515137,-79.7827568955819,40.45898118427071,299.94812016296385,0.01857318729162216,-0.007869509048759937,-0.7324840426445007,0.6804853081703186,-0.030816505712934542,0.08522446616186055,3.091686318557538,0.06482209265232086,0.06182543933391571,0.1032358855009079,0.3553534581139684,-0.1842902954109013,-9.87983563542366
32.1,2.700000047683716,222.0,21.92716407775879,26.79747772216797,-79.78275696927379,40.45898115286506,300.5654373626709,0.018585573881864548,-0.006754539441317321,-0.7326017618179321,0.6803702712059021,-0.03852570471823244,0.08340913454817253,3.079159329110752,-0.07225695997476578,-0.09534452855587006,-0.016162864863872528,0.2817543719708919,-0.2868811010196805,-9.742675158977507
32.2,2.799999952316284,224.0,21.93342399597168,25.946638107299805,-79.78275699401743,40.45898116272261,301.19570736694334,0.01952674798667431,-0.005829368252307178,-0.73250412940979,0.6804575324058533,-0.03413575299469095,0.0746655484083098,3.0554123257584638,0.13063286244869232,0.09861258417367937,0.13189156353473666,0.33881201393902305,-0.028014284279197457,-9.742724275588989
32.4,2.700000047683716,224.0,21.89335823059082,28.91264915466309,-79.7827570236703,40.45898115292745,301.5213184814453,0.01946319080889225,-0.0053936494514346105,-0.732367217540741,0.6806103587150574,-0.04718089648494882,0.08029224935449238,3.0293249365625434,-0.0902457758784294,-0.03696949034929276,-0.0289640948176384,0.3505194187536836,-0.19405032159760602,-9.546185908913614
32.5,2.700000047683716,225.0,21.890853881835934,27.74374008178711,-79.78275705623385,40.458981134798755,301.8232574920654,0.018396493047475808,-0.0047745881602168075,-0.7324929237365723,0.6805092692375183,-0.05490629851914426,0.08145909108814486,3.0139493333889282,-0.12831845879554749,-0.07616062462329865,-0.15069395303726196,0.33440350569784644,0.0806103545241058,-9.620404032468796
32.7,2.700000047683716,225.0,21.83952140808105,29.29433441162109,-79.78275716888899,40.45898111413807,302.45520596313474,0.017278341576457024,-0.006045511458069086,-0.7323533296585083,0.6806787252426147,-0.015868073616026997,0.05980765292688817,3.0380531811377782,0.09135231375694276,0.07904910296201706,0.12060987949371338,0.3571807495504618,-0.32589313913136725,-9.837243347167972
32.8,2.700000047683716,227.0,21.9209041595459,27.696027755737305,-79.78275720921626,40.458981090040716,302.7597580413818,0.017225932329893112,-0.006986357271671295,-0.7321333289146423,0.6809077262878418,-0.025575241242661445,0.06902706788096409,3.0509740324439103,-0.05726878717541695,0.03794640302658081,-0.07579949498176575,0.3147573727369309,-0.101316779544577,-9.875514543056488
33.0,2.799999952316284,227.0,21.832008361816406,29.64421272277832,-79.78275724527586,40.458981062669075,303.39118389892576,0.01746015064418316,-0.0075615718960762015,-0.7320900559425354,0.680942177772522,-0.018378211743902848,0.0807610757980311,3.0627346704760803,0.015669271349906918,-0.006501739379018545,-0.12243346869945525,0.424184980429709,-0.010164434239268305,-9.861164306402207
33.1,2.799999952316284,227.0,21.977245330810547,25.21507453918457,-79.7827572767291,40.45898103955099,303.69829373168943,0.01796998828649521,-0.007337523624300956,-0.7321790456771851,0.6808356046676636,-0.026427550847458087,0.08107937164993359,3.0789560286406297,-0.0006764145800843835,0.012886075302958487,0.037201520055532455,0.3060923838615417,0.008045275378972292,-9.938211897611616
33.3,2.799999952316284,228.0,21.988513946533203,26.95651435852051,-79.7827573154197,40.458981083043135,304.3269901733398,0.02013459056615829,-0.007102194242179394,-0.73223876953125,0.6807132959365845,-0.027656505391695767,0.08395226153873525,3.0719118648781185,0.028838815167546283,0.006804637145251036,0.009709196165204048,0.2925906147435308,-0.4160934937745333,-9.780956295132636
33.4,2.700000047683716,228.0,21.97348976135254,26.455551147460927,-79.78275731113659,40.45898108645913,304.64721112060545,0.02023077197372913,-0.007474404294043779,-0.732147216796875,0.680804967880249,-0.046051925753571435,0.08658518900780998,3.053425183254078,-0.03228936344385147,-0.021583618596196168,-0.03176345303654672,0.4240980761870742,-0.14693099107593302,-9.707660862207414
33.6,2.700000047683716,228.0,21.81072425842285,29.47722625732422,-79.7827573816276,40.4589810562606,305.2559605102539,0.018771421164274216,-0.006842548958957195,-0.7322789430618286,0.6807116866111755,-0.03445871014063913,0.08385336855098356,3.0338377000033088,0.020940523594617844,0.010045237839221954,0.062076348811388016,0.3586021345853806,-0.117378149041906,-9.705882139205931
33.7,2.700000047683716,226.0,21.894611358642575,27.91867828369141,-79.78275748782048,40.4589811239504,305.5777569274902,0.01854865998029709,-0.005432390607893467,-0.7325379848480225,0.6804518103599548,-0.03724869630429524,0.0658858763113868,3.033362331023264,0.03329989314079285,-0.01736512780189514,-0.0127866854891181,0.3283923487365246,-0.2497841904871166,-9.731923883557322
33.9,2.700000047683716,227.0,21.89210700988769,27.71193122863769,-79.78275753215118,40.45898104282152,306.19473843383787,0.01678057573735714,-0.004470956511795521,-0.7334166169166565,0.6795576810836792,-0.025468338390521247,0.04839473860870068,3.025554603504576,0.013626193627715107,-0.011167763732373714,-0.018197689205408096,0.32192247770726684,0.0069973264262080176,-9.698127561807633
34.0,2.700000047683716,226.0,21.842023849487305,29.039878845214844,-79.78275763547273,40.45898098041546,306.7989750366212,0.01695704087615013,-0.005664358846843243,-0.7336168885231018,0.6793281435966492,-0.02063040023491693,0.05279286604029318,3.024599806719108,-0.11891548335552216,-0.016653947532176968,-0.056431382894515984,0.2868715079315007,-0.2636193788051605,-9.731976508498192
34.2,2.700000047683716,226.0,21.87708282470703,29.18301010131836,-79.78275775311162,40.45898100252121,307.11992077636717,0.01682734116911888,-0.006735142786055803,-0.7333034873008728,0.679659903049469,-0.02648030813094261,0.04769698851789601,3.0361128794579715,-0.0372806042432785,-0.023972738534212112,-0.08882936090230943,0.4020546944439412,-0.07897273214533926,-9.864265669584276
34.3,2.5999999046325684,225.0,21.942188262939453,24.94471549987793,-79.78275780973645,40.45898097956736,307.4236736755371,0.016554636880755424,-0.00719140935689211,-0.7329525351524353,0.6800402998924255,-0.02379833004311753,0.05123394875189513,3.0418822239861445,-0.007604176178574562,0.02409348078072071,-0.03232482075691223,0.27388555459678177,-0.022788042929023502,-9.838513362407683
34.5,2.5999999046325684,224.0,21.84077262878418,28.817228317260746,-79.78275796013072,40.458981004176735,308.04804425048826,0.01667765900492668,-0.005705143790692091,-0.7321898937225342,0.6808724403381348,-0.017604594354544076,0.04429827539158968,3.0387366264317484,0.10339803993701936,0.017890548333525658,0.06165970489382744,0.3013746492750943,-0.40499233558774,-9.78513471543789
34.61,2.5999999046325684,222.0,21.940937042236328,26.320371627807607,-79.78275802131554,40.45898099324209,308.3523960571289,0.016206897795200348,-0.005038748495280743,-0.7320528030395508,0.6810364127159119,-0.033779605031030974,0.04495432010725183,3.0511070033596086,-0.013499523513019085,0.005216435063630343,-0.04590326920151711,0.31971197437495,-0.28993331104516984,-9.888454431295395
34.8,2.5999999046325684,222.0,21.8670654296875,27.89482307434082,-79.78275812712477,40.458980904625356,308.9735317687988,0.013987218961119652,-0.0043784212321043015,-0.7319965958595276,0.6811506748199463,-0.027489155278382787,0.036211165736616494,3.066486078818208,-0.056153170764446265,-0.02338818274438381,-0.08416656404733658,0.2437860070355237,0.02760507968254388,-9.904467616081238
34.9,2.5999999046325684,219.0,21.845781326293945,27.354103088378906,-79.78275815489081,40.45898095674665,309.29071240234373,0.014258814975619316,-0.004965603351593018,-0.7321011424064636,0.6810286045074463,-0.01824020921069244,0.0331794532670529,3.0788073047672238,0.060958921909332275,0.02149200066924095,0.007769583258777856,0.308066878952086,-0.2307657561264932,-9.967748522758484
35.1,2.5999999046325684,218.0,21.832008361816406,28.13337707519531,-79.78275824983521,40.458980935150706,309.9091549377441,0.01483222935348749,-0.005052221473306418,-0.7325395345687866,0.6805441379547119,-0.027410074481212326,0.054318700304505994,3.0987277639550985,0.02011686749756336,0.013832667842507362,-0.02137887105345726,0.3212439814209938,-0.21806757716462016,-9.895665217638015
35.2,2.5999999046325684,217.0,21.885847091674805,27.640365600585927,-79.78275828835153,40.45898103359004,310.2258739929199,0.015028489753603937,-0.0042106122709810725,-0.7329277992248535,0.6801274418830872,-0.0352816374810672,0.04696838862681134,3.0983679724856423,-0.011713032610714436,-0.037593767046928406,-0.022699084132909768,0.28090550243854523,-0.3538714447617531,-9.89420224428177
35.4,2.5999999046325684,217.0,21.870820999145508,27.56879997253418,-79.78275844278507,40.458981040928336,310.8534679870605,0.015072244219481943,-0.004362056963145733,-0.7333084344863892,0.6797150373458862,-0.05670716466126964,0.044050535885756886,3.108386952697223,-0.0735451728105545,-0.0324973464012146,-0.12184951454401015,0.299625052716583,0.07576776361092925,-9.913833686113355
35.5,2.5999999046325684,218.0,21.925912857055664,26.72591209411621,-79.78275848793089,40.45898103889694,311.1642780761718,0.014485645107924938,-0.004262539558112621,-0.7333852052688599,0.6796456575393677,-0.03486905620637433,0.04902050563710224,3.1061912061920967,0.08364219963550568,-0.013412575237452984,0.05790473893284798,0.3564961136877537,-0.2852807180956006,-9.825920798778537
35.7,2.5999999046325684,218.0,21.83952140808105,27.52108955383301,-79.78275855576419,40.458981117589225,311.79350476074217,0.014888560399413109,-0.0038101577665656814,-0.7335336208343506,0.6794794797897339,-0.06622296561601819,0.05310213896755976,3.083899161208969,-0.11568260192871095,-0.05444161966443062,-0.11423710733652115,0.2584884470701217,-0.01277004147064872,-9.72769342303276
35.8,2.5999999046325684,217.0,21.925912857055664,27.44952392578125,-79.78275869266756,40.4589812243015,312.4236546020508,0.014658699743449688,-0.0029360363259911537,-0.7333796620368958,0.6796550154685974,-0.04921526658058402,0.039536283249576434,3.0775265036040924,0.1717025637626648,0.08364100754261017,0.09670722484588624,0.2422394733130932,-0.09833038724027576,-9.768377764821055
36.0,2.5999999046325684,217.0,21.898366928100586,27.76759529113769,-79.78275872925842,40.45898124058821,312.7320003967285,0.01610080897808075,-0.003420777153223753,-0.7334188222885132,0.6795777678489685,-0.0751084803231584,0.0436824107188308,3.0844638799315085,-0.05031027272343636,0.024406703189015392,-0.0031421093735843893,0.2840988861769438,-0.1960429978743196,-9.842763118743896
36.1,2.5999999046325684,215.0,21.862056732177734,27.393861770629893,-79.78275876151136,40.45898125544261,313.0399189453125,0.017709450796246532,-0.003782606916502118,-0.7335032224655151,0.6794447898864746,-0.08863061574912802,0.058511937129445274,3.0732859029668784,-0.11469145864248274,-0.0297709945589304,-0.1650497019290924,0.3122558973357081,0.11186719397082924,-9.720760379433633
36.3,2.5999999046325684,215.0,21.801958084106445,29.516984939575195,-79.78275879057605,40.45898129229889,313.6646633605957,0.01639377698302269,-0.0043444689363241204,-0.7331993579864502,0.6798022985458374,-0.05928730287583886,0.06433366805015106,3.0460104271415704,0.1105712279677391,0.0914824903011322,0.0893981009721756,0.2746481776982546,-0.3460446907952428,-9.65446406364441
36.4,2.700000047683716,215.0,22.008546829223643,23.64062309265137,-79.78275883371137,40.45898137238382,314.2927914123535,0.01678188145160675,-0.004509327933192253,-0.7325651049613953,0.6804751753807068,-0.07652976034263627,0.06591656440236288,3.0317953436341427,-0.07457941025495529,-0.09912331402301787,-0.07930009067058562,0.2345192848518491,-0.16331401225179434,-9.724999610781673
36.6,2.700000047683716,214.0,21.87708282470703,27.131452560424805,-79.78275885777477,40.458981388802364,314.59499554443363,0.016476701945066452,-0.0034802036825567484,-0.7325335741043091,0.680522620677948,-0.0620092409273044,0.0683607644367178,3.0117113528282333,0.10367763042449953,-0.0036012388300150633,0.0775265321135521,0.31988662339746954,-0.34032848931849,-9.623583748340607
36.7,2.700000047683716,213.0,21.818235397338867,29.008071899414066,-79.78275892755953,40.45898147091413,314.91774182128904,0.015694204717874527,-0.0020473445765674114,-0.7325855493545532,0.6804909110069275,-0.07399790902791704,0.05535624306605712,3.0178393186446173,0.1051001325249672,0.0281507670879364,0.1324583888053894,0.23183036964386705,-0.33666148111224176,-9.66558780670166
36.9,2.700000047683716,213.0,21.87457847595215,27.07579040527344,-79.78275891983589,40.458981525738004,315.5434551696777,0.016416659578680992,-0.0008727892418392003,-0.7323733568191528,0.6807048320770264,-0.08667654950578864,0.0591566444604889,3.0465472274257386,-0.08487843722105026,-0.08121902495622635,-0.10840177536010742,0.2373184931650757,-0.14107769066467882,-9.859454580545425
37.0,2.700000047683716,214.0,21.912139892578125,26.69410514831543,-79.78275892730514,40.458981539142115,315.848821685791,0.01602092757821083,-0.0022075790911912922,-0.7323294878005981,0.6807584762573242,-0.08553357827338676,0.0667323111253425,3.0528622736637794,-0.00412051472812891,0.032747156918048866,0.038451261818408966,0.3047641157358885,-0.09544305955991148,-9.836667981147766
37.2,2.700000047683716,213.0,21.875829696655273,27.12350082397461,-79.78275893405902,40.45898164400805,316.4693279724121,0.01582498475909233,-0.00512755336239934,-0.7319685220718384,0.681135356426239,-0.06460307117999811,0.08283655445960637,3.0444794269530147,-0.007663474883884191,-0.002975259674713016,0.021334322169423103,0.2201104115881026,-0.4120577455312014,-9.794273913502693
37.3,2.799999952316284,214.0,21.79820251464844,28.83313179016113,-79.7827589717377,40.45898171827247,317.0881443481445,0.017598001286387444,-0.006238874979317188,-0.7322012186050415,0.6808324456214905,-0.08627734144976737,0.09047177401330103,3.04275860261189,-0.052824702113866806,0.010603480972349644,-0.09144432097673416,0.3981537245213986,-0.2436057848855853,-9.800360864996913
37.5,2.799999952316284,215.0,21.890853881835934,25.60471153259277,-79.78275897576361,40.458981739406454,317.39287380981443,0.018553659319877625,-0.006199756637215614,-0.7323430180549622,0.6806549429893494,-0.07823902440802484,0.09706400505427648,3.0523650452524564,-0.013541282154619694,-0.03179830312728882,0.004797903820872307,0.2285309685766697,-0.11676364322192967,-9.875411632061006
37.6,2.799999952316284,216.0,21.791942596435547,30.145174026489247,-79.78275897987876,40.45898175915913,317.6985836486816,0.01897424831986428,-0.0055200811475515366,-0.7325221300125122,0.6804563999176025,-0.06658862300665097,0.10007643868109853,3.049387301864294,0.11451392620801926,0.009855065494775772,0.07128728181123734,0.4456702819839121,-0.28668299004435543,-9.788181114792824
37.8,2.799999952316284,216.0,21.78693389892578,28.85698699951172,-79.78275896325933,40.45898183936518,318.3154736022949,0.018144981935620308,-0.004860632121562958,-0.7326377630233765,0.6803596019744873,-0.08764451677310983,0.09332140760406414,3.046639808521276,-0.09345725923776628,-0.0576145201921463,-0.013588468544185163,0.2462319887056947,-0.2270135978423059,-9.812736496925355
37.9,2.799999952316284,218.0,21.746868133544922,29.827104568481445,-79.7827589693126,40.45898191359944,318.9367351989746,0.019539929926395416,-0.0048726690001785755,-0.7328968644142151,0.6800417304039001,-0.08873694744324237,0.09335776398470154,3.0729199988641867,-0.06519719213247299,-0.02688942290842533,-0.06295210868120192,0.3647664155066013,-0.0672128302976489,-9.879616949558258
38.1,2.799999952316284,218.0,21.86330986022949,27.25868034362793,-79.78275898046483,40.458981923505824,319.2455234985352,0.019394690170884132,-0.005091257859021425,-0.7329257726669312,0.680013120174408,-0.07481730893538495,0.0908360077498498,3.0944216645102096,0.045985884964466095,0.0017081237165257337,-0.05449928343296051,0.3338305516541004,-0.03906404178589583,-9.988271080255506
38.2,2.9000000953674316,219.0,21.819488525390625,29.49312973022461,-79.7827589608525,40.45898202137453,319.558725402832,0.020404662936925888,-0.005088597536087036,-0.7329400777816772,0.6799681782722473,-0.06968621674714125,0.08495173221840023,3.0833686887344034,0.08414148539304732,0.06509611755609512,0.11069388687610626,0.2945665350928903,-0.2340428098663688,-9.784927139282226
38.4,2.9000000953674316,219.0,21.89961814880371,27.57675170898437,-79.78275901636141,40.45898209177958,320.1816845397949,0.019952761009335518,-0.0037549014668911695,-0.7331267595291138,0.6797890067100525,-0.06547233895563068,0.07884147000935884,3.0992711257563537,0.11149602383375168,0.02750351093709469,0.11072015762329104,0.3440289728343487,-0.35466440029442314,-9.972676556110383
38.5,2.9000000953674316,220.0,21.82449531555176,27.34615135192871,-79.78275904624545,40.458982092915505,320.4919338684082,0.019627712666988373,-0.002133388305082917,-0.7332905530929565,0.6796286702156067,-0.06699335562376796,0.07673108229638834,3.1004639879153206,0.021337997168302536,-0.001142434193752706,-0.02997301146388054,0.2528759971261025,-0.2393745751865209,-9.833321034908296
38.7,2.9000000953674316,220.0,21.799455642700195,28.5468692779541,-79.78275912002029,40.45898211420997,321.1123486022949,0.020224353298544884,-0.0009189407574012877,-0.7330290675163269,0.6798959970474243,-0.0784767765085944,0.06141462652232791,3.0714520895171487,-0.00875915214419365,0.03843361511826515,-0.059601519256830215,0.2912081502377987,-0.05752841591835022,-9.696068172454837
38.8,2.9000000953674316,219.0,21.862056732177734,27.56879997253418,-79.78275914724313,40.45898209905221,321.41961483764646,0.01921883597970009,-0.0023006792180240154,-0.7328324913978577,0.6801337003707886,-0.07066827669232632,0.06905457471861212,3.0716662996215467,-0.061453178524971015,-0.00014145189197733998,-0.05555474013090134,0.26422913376241924,-0.06853934425860644,-9.726950241923332
39.0,2.9000000953674316,219.0,21.731843948364254,30.69384765625,-79.78275915719793,40.458982114811455,322.0407925109863,0.01650916412472725,-0.004303812049329281,-0.7325685620307922,0.6804794669151306,-0.02840624573871981,0.07952161386526567,3.053382740541007,0.07138743996620177,0.0493491105735302,0.025787198916077614,0.35903643652796746,-0.26797447638586164,-9.733314351439477
39.1,2.9000000953674316,220.0,21.78067398071289,28.87289047241211,-79.78275916713375,40.45898214075171,322.3547344665527,0.016694441437721252,-0.004301389679312706,-0.7324796319007874,0.6805707216262817,-0.04326773948760202,0.07927992515350138,3.050166595949072,-0.117111936211586,-0.02483594045042992,-0.07089093327522278,0.29356775756925346,-0.09860701535828413,-9.75657399058342
39.3,2.9000000953674316,219.0,21.82073974609375,26.81338119506836,-79.78275919345148,40.45898209788922,322.9664020996093,0.016953915357589718,-0.006347173359245062,-0.7325462698936462,0.6804765462875366,-0.031386896998979216,0.08323627762265855,3.0665724875854665,-0.009798994287848473,0.0267258994281292,0.031223250553011894,0.31516861472278834,-0.04488348316401244,-9.874092500209807
39.4,2.9000000953674316,221.0,21.908382415771484,26.29651641845703,-79.78275925405654,40.458982115230185,323.28216366577146,0.01716057024896145,-0.006509900558739901,-0.7326606512069702,0.6803467273712158,-0.023399382151384915,0.08151012319704083,3.07067974046527,0.004593595862388611,-0.02092515490949154,-0.02275701425969601,0.2837381129711867,0.025006787180900568,-9.78968852698803
39.6,2.9000000953674316,221.0,21.7844295501709,27.79145050048828,-79.782759305737,40.458982058794795,323.8913479309082,0.016749205067753792,-0.0057322289794683465,-0.7329152822494507,0.6800895929336548,-0.022799199211778587,0.07402356817883336,3.0297108704093687,-0.030435299500823017,0.03121803514659405,0.04724705591797829,0.2762380721792579,-0.2125800200924277,-9.693681923747064
39.7,2.9000000953674316,221.0,21.829504013061523,28.30831527709961,-79.78275923241054,40.458982036015186,324.51862530517576,0.015139374881982803,-0.006288632284849882,-0.7329962253570557,0.6800351142883301,-0.013562032082304134,0.08487618423670262,3.0490487548981204,-0.016453027725219727,-0.030378432944417007,-0.08854017406702043,0.27476113859564066,-0.18818315232172608,-9.802013288140296
39.9,2.799999952316284,221.0,21.811975479125977,27.33024787902832,-79.78275925151901,40.4589820387189,324.8363438110352,0.015619167126715185,-0.004965656902641058,-0.7328013777732849,0.6802452206611633,-0.01954645739524337,0.08046290967556496,3.0769060945215387,-0.056922625750303275,-0.0519464910030365,-0.06264427304267882,0.2442926865443588,0.07962857047095895,-9.945647217035292
40.0,2.9000000953674316,222.0,21.816984176635746,28.08566474914551,-79.78275926563252,40.45898200912851,325.1449299316406,0.015235282480716704,-0.004066797904670239,-0.7325619459152222,0.6805177927017212,-0.01345333371088966,0.07690735476552138,3.0880363264348087,0.05549944937229157,-0.006311368197202682,-0.055229205638170235,0.3139525765925646,-0.021568514741957187,-9.904238405227662
40.21,2.9000000953674316,222.0,21.73434829711914,29.326141357421875,-79.78275934324282,40.458982000958,325.7688541870117,0.014981680549681187,-0.006302377674728632,-0.7321687340736389,0.68092942237854,-0.0037369655675609406,0.06940452953539235,3.0929914927898388,-0.022104132920503616,-0.0017127757892012596,0.0053475485183298605,0.2475626505352557,-0.2959978055767715,-9.873796631097797
40.3,2.9000000953674316,222.0,21.88083839416504,25.60471153259277,-79.78275936284885,40.45898196721148,326.0790882568358,0.014433901757001875,-0.007511266507208346,-0.7319869995117188,0.6811242699623108,0.001385480227685686,0.07749995901893351,3.1097286121374683,0.02091882191598416,0.05277325958013535,0.09126082062721252,0.2961312500014901,-0.24107788737863306,-9.965847008228305
40.5,2.9000000953674316,222.0,21.706802368164066,29.83505630493164,-79.78275940242206,40.4589819337086,326.70049099731443,0.011366055347025394,-0.00791619997471571,-0.7320329546928406,0.6811284422874451,0.007873492786239729,0.0752684551909677,3.0645689243440817,-0.0374772734940052,-0.06313421577215195,-0.062100507318973534,0.3287582748010755,-0.15586904492229225,-9.62268678545952
40.6,2.799999952316284,221.0,21.837017059326172,26.89289855957031,-79.78275944947086,40.45898187698772,327.3228893737793,0.012343354523181915,-0.00560890045017004,-0.7322709560394287,0.6808784604072571,-0.0018541839692993824,0.06801244801209166,3.0680856661755604,-0.029206441715359688,-0.03832360357046127,-0.0637192651629448,0.2557273370213807,0.03106541622430086,-9.775409041643146
40.8,2.799999952316284,221.0,21.76439666748047,29.04783058166504,-79.78275946772342,40.45898185001755,327.6290035705566,0.013432410545647144,-0.005043779034167528,-0.732528030872345,0.6805857419967651,0.012247759624555356,0.06299922839998162,3.0563241575885574,0.13581368327140808,0.041145876049995415,0.07983685284852983,0.30598669543862345,-0.29426182206720114,-9.737186377644539
40.9,2.799999952316284,220.0,21.76439666748047,27.21096992492676,-79.78275953699098,40.458981852760274,327.9493198852539,0.01510767824947834,-0.005392123945057392,-0.7328162193298341,0.6802375316619873,-0.002842976001338154,0.06034989776671903,3.0672665727875863,0.05349743366241455,0.09202864021062852,0.0886385589838028,0.27762263802811504,-0.2289400178566575,-9.799004310965536
41.1,2.799999952316284,220.0,21.82574844360352,28.14132881164551,-79.78275958019799,40.458981795436905,328.56292538452146,0.015135074965655804,-0.005379970651119946,-0.7331511378288269,0.6798760294914246,-0.015231920496540862,0.07486033441604427,3.0482660751008415,-0.05010360851883888,-0.03360654413700104,-0.00303808250464499,0.2720938946306706,-0.1906461274623871,-9.621528452038763
41.2,2.799999952316284,218.0,21.789438247680664,26.08976936340332,-79.78275963204042,40.458981789342936,328.8745975952148,0.014514738693833353,-0.005449932999908924,-0.7331487536430359,0.6798916459083557,-0.02549288025563384,0.0632681717257629,3.0363442276400785,-0.14101344347000122,-0.04556474462151528,-0.12404758483171464,0.21768507789820435,0.17825549377128486,-9.64407940864563
41.4,2.799999952316284,217.0,21.730592727661133,29.59650230407715,-79.78275972448137,40.45898177550377,329.4915905456543,0.012862346135079859,-0.007621326018124819,-0.73247230052948,0.6806326508522034,0.010969227287133405,0.05527942268805161,2.9986884835211116,0.10609553009271623,0.06526485085487366,0.08328814059495926,0.2867703328281641,-0.31086879160255193,-9.514831384420397
41.5,2.799999952316284,214.0,21.845781326293945,26.773622512817386,-79.78275980589059,40.458981730223286,330.0875225524902,0.012787565588951107,-0.006480736657977104,-0.7323281764984131,0.6808009743690491,-0.008825704265075165,0.05184410609053081,2.9564607836115844,-0.10824169963598253,-0.1183881014585495,-0.06946130841970444,0.2404775793291629,-0.017428575282683597,-9.587276047468183
41.7,2.799999952316284,213.0,21.7844295501709,27.870967864990234,-79.78275986564044,40.45898174029538,330.40446667480467,0.011937106028199196,-0.005363751668483019,-0.7322617769241333,0.68089759349823,-0.005284504524874788,0.040176675313847575,2.9752881381334384,0.013601189479231834,-0.02556253969669342,-0.011362574063241482,0.27743570985272525,-0.02369128243066371,-9.712511127591133
41.8,2.799999952316284,212.0,21.775665283203125,29.92252540588379,-79.78275990954033,40.458981719781725,330.7023678283691,0.010676100850105286,-0.0044115460477769375,-0.7322355508804321,0.6809535026550293,-0.012436215293669206,0.03763971673105185,2.978836191416188,-0.03571215271949768,-0.033266108483076096,-0.07985088229179382,0.22060839336365465,0.14634519143030048,-9.764230919480324
42.0,2.799999952316284,211.0,21.705551147460934,30.11336708068848,-79.7827600065778,40.45898171858521,331.3174381713867,0.009157251566648485,-0.006217093672603369,-0.7323845028877258,0.6808013916015625,-0.011032174434964176,0.029962447449363213,3.006136913874998,0.0109298313036561,0.07582490146160126,0.04605267569422722,0.25932430654764177,-0.16501871315762398,-9.887076827287677
42.1,2.799999952316284,208.0,21.743112564086914,28.332170486450195,-79.78276008075704,40.458981762729046,331.9303112487793,0.007393031846731901,-0.008361237123608591,-0.7328875660896301,0.6802582144737244,-0.005632597400628377,0.04750258917699246,3.0541376747463658,0.07911141216754912,0.052689362317323685,0.07576361298561096,0.3023320212028921,-0.2382257069461048,-10.007258158922195
42.3,2.799999952316284,208.0,21.622915267944336,30.59047508239746,-79.78276010209527,40.45898177394114,332.2363720397949,0.008119232021272179,-0.006830328144133091,-0.7330855727195741,0.6800537705421448,-0.008503059400024559,0.051691863865484994,3.067137039292525,0.08095113188028336,-0.04500840976834297,0.05805245414376259,0.2666132263094187,-0.19759660307317967,-9.976860823631286
42.4,2.799999952316284,207.0,21.67174530029297,28.499156951904297,-79.78276020679418,40.4589818403679,332.5415859680176,0.008519554510712624,-0.005105083808302879,-0.7332568764686584,0.6798793077468872,-0.026375043345734008,0.041151489944940715,3.0884971577956115,0.06693461537361145,0.02158772759139537,0.04804377630352974,0.2277130710147321,-0.11631476892158388,-10.1192931497097
42.6,2.799999952316284,206.0,21.723079681396484,28.50710868835449,-79.78276024343529,40.45898189274577,333.1633854370117,0.009342973120510578,-0.002630734583362937,-0.7332878708839417,0.6798490881919861,-0.052253627606328346,0.03980384510001679,3.0907952519058552,0.06871242821216582,0.06720906496047974,0.07940233498811723,0.2205536122620106,-0.1002675423771143,-9.641773266792297
42.7,2.799999952316284,205.0,21.776918411254886,27.401813507080078,-79.78276035344541,40.45898197454053,333.4571209411621,0.009987846948206423,-0.002526522148400545,-0.7330296635627747,0.68011873960495,-0.057219756805999424,0.037922754318004785,3.0404452773450474,0.03224620595574379,-0.0053623043932020656,0.02482526935636997,0.1889275211468339,-0.2777736789174378,-9.633001273870468
42.9,2.799999952316284,206.0,21.731843948364254,28.39578437805176,-79.78276048314373,40.45898205475654,334.0623112182617,0.011341383680701256,-0.002705587772652507,-0.7327036261558533,0.6804479956626892,-0.08391138392508407,0.04463088292072828,2.994727233072749,-0.12680584192275998,-0.04561490193009377,-0.06044920161366463,0.2395476527698338,0.028592656133696437,-9.571618373394012
43.0,2.799999952316284,205.0,21.700542449951172,28.594579696655273,-79.78276049443967,40.45898208579479,334.36100964355467,0.010636206716299057,-0.003345908597111702,-0.7326915860176086,0.6804695725440979,-0.07315600182408276,0.047122789715550464,2.980235817167149,-0.02430308796465397,-0.02727877162396908,-0.08160652965307236,0.2691612601652741,0.006066285241395236,-9.655505452752116
43.2,2.799999952316284,205.0,21.789438247680664,27.87891960144043,-79.78276058365863,40.45898220926298,334.9650211791992,0.011332739144563677,-0.004254983738064766,-0.7328437566757202,0.6802893877029419,-0.06599726143333505,0.04703043034912177,2.982185516823645,0.014755782671272756,-0.020725362002849586,0.06893515586853027,0.15779822409152985,-0.0836133017577231,-9.749276665449145
43.3,2.799999952316284,205.0,21.660476684570312,31.679866790771484,-79.78276059528416,40.45898223984256,335.2631168823242,0.012001367285847664,-0.0042667887173593036,-0.7330179810523987,0.680090069770813,-0.0544272268560939,0.051115195203839295,2.976142952244964,0.1353609710931778,0.06915668398141861,0.1128947287797928,0.2745094890519977,-0.18424448613077404,-9.735387189388275
43.5,2.799999952316284,204.0,21.679258346557614,30.18493461608887,-79.78276065800722,40.45898234484496,335.86906628417967,0.010675339959561823,-0.0041638598777353755,-0.7336766123771667,0.679402232170105,-0.06703196606953019,0.0530112099925936,3.022216286751564,0.05832020565867424,0.03161288797855377,0.08977444469928741,0.2574613470956683,-0.2069988162070513,-9.996160143613816
43.6,2.799999952316284,203.0,21.700542449951172,28.92060089111328,-79.78276066624245,40.45898238063186,336.1724567871093,0.0100717693567276,-0.00462536932900548,-0.7338261008262634,0.6792470216751099,-0.06716734782651174,0.05349694687120034,3.04540951258841,0.016334788873791698,-0.021987924352288246,0.10658363997936247,0.17340957725420594,-0.19460964431986214,-10.040173305273058
43.8,2.799999952316284,202.0,21.72683525085449,28.14132881164551,-79.78276071777779,40.45898253293894,336.785532043457,0.009283930063247679,-0.004149410407990217,-0.7335424423217773,0.6795675754547119,-0.06681456880208146,0.048016989761205935,3.0685709618211625,0.07697092741727829,-0.03143325075507164,0.014003421179950236,0.18503068082034588,-0.1421980080474168,-9.859335297346117
43.9,2.9000000953674316,199.0,21.64545249938965,31.07553291320801,-79.7827607399846,40.45898266593017,337.3900700073242,0.009690709412097931,-0.0035097727086395025,-0.7324247360229492,0.6807700395584106,-0.07961217803293875,0.05218380088369892,3.0611634583639624,0.030170606449246407,-0.04983249679207802,0.056977968662977226,0.2465441386587918,-0.08124400997534395,-9.828858439922334
44.1,2.799999952316284,198.0,21.765649795532227,28.125423431396484,-79.78276074087776,40.45898271549055,337.69762615966795,0.00887242890894413,-0.0032643163576722145,-0.7321149110794067,0.6811156272888184,-0.08289317117361512,0.052703962057137295,3.0799203478120414,0.03989282250404358,0.03643293306231499,0.002405490959063173,0.22977618796750904,0.07855103826150299,-9.901068044900894
44.2,2.799999952316284,197.0,21.733097076416016,27.32229423522949,-79.7827607921791,40.458982778926796,337.9960117797852,0.0092209093272686,-0.0019541268702596426,-0.7318369150161743,0.6814146637916565,-0.07029373359222127,0.0467091410839099,3.0510121544830064,0.08496805280447006,-0.06137798354029656,0.03951142728328705,0.17980694280937315,-0.10799292937852442,-9.775636498332023
44.4,2.799999952316284,195.0,21.68927383422852,29.40566062927246,-79.78276083908844,40.458982911485094,338.6048908691406,0.013984003104269505,0.0003879026917275041,-0.7314563989639282,0.6817446947097778,-0.08961182502412507,0.0436287307858715,3.031539589992116,0.04125146195292473,0.034781523048877716,0.10659468173980713,0.17092432787641884,-0.19940865520387888,-9.750941952466963
44.5,2.9000000953674316,193.0,21.65797233581543,31.41745948791504,-79.78276084318917,40.45898294711258,338.90843395996086,0.014413398690521715,-0.0011947725433856249,-0.7315231561660767,0.6816632747650146,-0.08715560485111876,0.05021398775147563,3.034083363103143,0.09261868894100188,0.0551493875682354,0.0821562260389328,0.29748345516622066,-0.20949236132204527,-9.831245273351671
44.71,2.9000000953674316,194.0,21.776918411254886,27.38591003417969,-79.78276086879856,40.45898305756083,339.5220966796875,0.011536538600921627,-0.00038837638567201793,-0.7317965030670166,0.6814255118370056,-0.07536806116159724,0.06046722192282339,3.0640735734521933,0.027043595910072327,-0.05320223793387413,-0.02824826724827289,0.24491225386038426,-0.032017151070758705,-9.9262917637825
44.8,2.9000000953674316,195.0,21.75062561035156,28.32421875,-79.78276084972872,40.458983139462994,340.1324482421875,0.009045401588082314,0.0006986566004343331,-0.7325221300125122,0.6806828379631042,-0.05403670367794361,0.05505708730227708,3.026420652406654,0.06078972294926644,-0.0013548090355470774,0.12411149591207506,0.1952989214099944,0.0864989392273128,-9.67890016257763
45.0,2.799999952316284,196.0,21.636688232421875,31.26637458801269,-79.78276082527813,40.4589831503712,340.435434387207,0.009157797321677208,0.0005650676903314887,-0.7330460548400879,0.680117130279541,-0.04015599022898088,0.05894480434874101,3.031276631522088,0.11049554497003557,0.08823174983263016,0.1079639196395874,0.257644255310297,-0.30212532212957743,-9.824887011051178
45.1,2.9000000953674316,198.0,21.82073974609375,26.3521785736084,-79.78276078638514,40.45898315420247,340.7394352416992,0.01021187100559473,-0.0009971809340640905,-0.7335084080696106,0.6796029806137085,-0.04583347567437086,0.07415848813705628,3.0495491112186417,-0.028179522603750232,0.05481310561299324,-0.004423400852829218,0.16964373283088208,-0.12956772987730802,-9.94858485817909
45.3,2.9000000953674316,202.0,21.733097076416016,26.479406356811523,-79.7827607557207,40.458983173606036,341.3541279296875,0.014993114396929741,-0.005119995214045048,-0.7346004247665405,0.6783149838447571,-0.05549032972196133,0.10459073277547104,3.033930936953683,-0.10652583837509157,0.026958737522363663,-0.05938671156764031,0.23119545338675385,0.08835421507246792,-9.755926119089127
45.4,2.799999952316284,206.0,21.83451271057129,25.89097595214844,-79.78276072863173,40.45898320056921,341.6620884399414,0.015290397219359875,-0.007742746267467737,-0.735040009021759,0.677807092666626,-0.03817612310060157,0.11978735845715215,3.036432726899978,0.012436168268322943,0.02035052515566349,-0.03355896845459938,0.288214631639421,0.013410278465598823,-9.738557549715043
45.6,2.799999952316284,208.0,21.99602699279785,21.64472770690918,-79.78276065622195,40.45898318374835,342.2604008178712,0.015071357600390913,-0.010844613425433636,-0.7347571849822998,0.6780760288238525,-0.03331870236457274,0.13144483364327142,2.9257274089999665,-0.1339094191789627,-0.062076568603515625,-0.13508743047714233,0.24211004884913565,0.14566160623915494,-9.131467460989953
45.7,2.700000047683716,213.0,21.944692611694336,24.55507850646973,-79.78276055728644,40.458983182546454,342.83842663574217,0.014230345375835897,-0.008954983204603195,-0.7345617413520813,0.678333580493927,-0.020126457110339245,0.11348594872585392,2.715801479949077,-0.0407712496817112,0.0006859354907646775,0.005784098990261555,0.25627019617706537,-0.09821341551840304,-8.796416156888007
45.9,2.700000047683716,213.0,22.027328491210934,20.968828201293945,-79.78276054194069,40.45898318199714,343.12224011230467,0.013087236322462559,-0.0097504248842597,-0.7342250347137451,0.6787101030349731,-0.02115302872724984,0.10098514846711064,2.619587082514231,-0.05284962058067322,-0.018768051639199257,-0.043757908046245575,0.2169546875730157,0.0227789980173111,-8.516434514522553
46.0,2.5999999046325684,217.0,21.998531341552734,22.78183174133301,-79.78276052846103,40.458983175054975,343.3771305541992,0.012541135773062706,-0.010429362766444685,-0.7338829636573792,0.6790801286697388,-0.014365078283653122,0.0894622560119498,2.4748075020712683,-0.0303250290453434,-0.06736215204000473,-0.02202421054244041,0.17645111611112954,0.02814488503849134,-8.377413454055787
46.2,2.5999999046325684,217.0,21.978498458862305,22.583038330078125,-79.78276052390386,40.45898319529928,343.86152081298826,0.012707908637821673,-0.0104506378993392,-0.7330915927886963,0.6799309253692627,-0.015542932054097227,0.06896345236967591,2.2210060223562347,-0.009235653094947338,-0.02008812129497528,-0.08999179303646088,0.21980491284281012,0.023522795825265348,-8.426268694996834
46.3,2.5,218.0,21.940937042236328,23.720142364501953,-79.78276052145415,40.458983219491174,344.2969761352539,0.013439553789794443,-0.009590059518814087,-0.7329456806182861,0.6800868511199951,-0.01874105512803776,0.05233250711422922,2.0047044712870297,-0.004846669733524322,-0.011844550259411337,0.02930893190205097,0.1941843690164388,-0.021242918476928028,-8.501895997524263
46.5,2.4000000953674316,218.0,21.99978256225586,22.0661735534668,-79.78276053451955,40.45898322930209,344.49261669921873,0.01276035513728857,-0.008904390968382359,-0.7329695820808411,0.6800835132598877,-0.016765213894776882,0.04604097519738701,1.902261402716144,0.0607190728187561,0.04190317913889885,0.038352712988853455,0.2749097857810557,-0.19989775652065875,-8.742546928524972
