time,wind_speed,wind_angle,battery_voltage,battery_current,position_x,position_y,position_z,orientation_x,orientation_y,orientation_z,orientation_w,velocity_x,velocity_y,velocity_z,angular_x,angular_y,angular_z,linear_acceleration_x,linear_acceleration_y,linear_acceleration_z
0.0,0.699999988079071,198.0,25.44542694091797,-0.039758868515491486,-79.78274507704809,40.458992325405,276.2177355575562,0.027525166049599648,0.020461751148104668,-0.7480090260505676,0.6628017425537109,-0.006858203072125622,-0.0037516415166689103,0.0022056926115165605,-0.001432481687515974,0.0012837537797167895,0.006122753955423832,0.059302931665442885,-0.6843385317921639,-9.786956123113633
0.1,0.8000000119209291,195.0,25.44417381286621,-0.039758868515491486,-79.78274508036213,40.45899233228906,276.21801593780515,0.02751675806939602,0.020481206476688385,-0.7480090260505676,0.6628016233444214,-0.008222660383650967,-0.003622939066499283,0.0025174189530581784,-0.004150341264903545,-0.0013215544167906046,-0.003730568569153547,0.059229179089888936,-0.6656302922219038,-9.784313181638716
0.3,0.8000000119209291,193.0,25.44167137145996,-0.04771064221858978,-79.78274509618367,40.45899231227886,276.2186831521988,0.027521222829818733,0.020487269386649132,-0.7480255961418152,0.6627824902534485,0.0005196263055503763,-0.0008441432763986057,0.0062615555182049115,-0.007440844550728799,-0.004779011011123657,-0.005927379243075848,0.060082941097207375,-0.6689249789714814,-9.785382637381554
0.4,0.8999999761581421,191.0,25.44793128967285,-0.03180709481239319,-79.78274509738476,40.45899231116238,276.2193051862717,0.02752717398107052,0.02047737129032612,-0.748029887676239,0.6627777218818665,0.0009643581813977591,-0.0007048268062593303,0.006383409986687714,0.0067592286504805105,0.00274230120703578,0.005056808702647686,0.06002610890194774,-0.6791382374614477,-9.786685981750491
0.6,0.8999999761581421,187.0,25.44793128967285,0.0,-79.78274508851634,40.45899230342486,276.2199302005768,0.02753696031868457,0.020490443333983414,-0.7480278015136719,0.6627792119979858,0.002022192639438133,0.0040389068532838655,0.008344056093457853,0.004387456923723221,-0.00014637682761531323,-0.00048652177792973816,0.05894154632929712,-0.6712033465504647,-9.7849932128191
0.7,0.8999999761581421,183.0,25.44667816162109,-0.03180709481239319,-79.78274508401859,40.4589923010502,276.2207664537429,0.027540476992726333,0.0204931553453207,-0.7480239272117615,0.6627833247184753,0.0011993085390533866,0.004422034622968975,0.008562050937039269,0.00014482256665360183,-0.00029374068253673613,0.0023663328029215336,0.05963834257330746,-0.6834310439229012,-9.786701184511186
0.9,0.8999999761581421,183.0,25.449182510375977,-0.02385532110929489,-79.78274514112995,40.458992312686256,276.21947625160215,0.02755656093358993,0.02047858200967312,-0.7480235695838928,0.6627835631370544,0.0005157394546628454,-0.003137228893970992,0.006417344254093288,0.001443976885639131,0.0017939810641109946,0.004315550439059734,0.05948295281734318,-0.6851262979209424,-9.787542598843576
1.0,1.0,183.0,25.440418243408203,-0.02385532110929489,-79.78274515584185,40.45899230879469,276.21763566017154,0.02755874954164028,0.020482838153839108,-0.7480233311653137,0.6627835631370544,0.0023222477768066697,-0.0016228289706548384,0.004548996525995107,-0.005097595509141685,-0.0007021258934400978,-0.006579835899174213,0.05874269988387824,-0.6676097209006548,-9.784073445796967
1.2,1.0,185.0,25.44417381286621,-0.015903547406196594,-79.7827451600014,40.45899230427188,276.21853223323825,0.027561916038393967,0.0204844567924738,-0.7480241060256958,0.6627826094627379,0.0012409807918725786,-0.0011110985636241654,0.004869534792764329,-0.005070935003459454,-0.0009254752658307552,-0.0023233762476593256,0.05962304388172925,-0.6765545721352101,-9.785145825147627
1.31,1.0,184.0,25.449182510375977,-0.02385532110929489,-79.78274519732592,40.45899231394446,276.2165592002869,0.027564637362957,0.020480211824178696,-0.7480234503746033,0.6627833843231201,0.0008818898277841926,-0.004237909403711456,0.0032538092298948127,0.00042227713856846094,-0.00043716267100535333,0.0014704680070281027,0.05955575522035361,-0.6720647145062686,-9.784348264932632
1.5,1.0,183.0,25.44793128967285,-0.02385532110929489,-79.78274523811254,40.458992321544024,276.21498098850253,0.02756822295486927,0.020476682111620903,-0.748024582862854,0.6627820134162903,-0.0005694733045897645,-0.006594094185828722,0.002268353232445593,-0.00510336784645915,0.0009395481320098042,-0.0044025108218193046,0.059463341804221276,-0.6653626359254122,-9.78439796626568
1.6,0.8999999761581421,180.0,25.449182510375977,-0.02385532110929489,-79.78274524567003,40.45899232252845,276.2152111816406,0.02756822295486927,0.020476682111620903,-0.748024582862854,0.6627820134162903,-0.00019218383200645908,-0.0064018008809491505,0.002346935335645856,0.004626053385436535,-0.0009952584514394405,0.004931176081299782,0.05996251129545273,-0.6818778041750193,-9.785755105018618
1.8,1.0,179.0,25.449182510375977,-0.015903547406196594,-79.78274526147105,40.45899232042056,276.2126177835465,0.02757286466658116,0.020482730120420456,-0.748026430606842,0.6627795696258545,0.0013322342750697134,-0.004228514930205181,-0.00019890557937626943,0.002624018350616097,0.00031077058520168066,0.0019234359497204425,0.05992756504565476,-0.6740309138596058,-9.785425322055817
1.9,1.0,181.0,25.44417381286621,-0.039758868515491486,-79.78274526652444,40.45899232025364,276.2126037168503,0.027573237195611,0.020482143387198448,-0.748028039932251,0.6627777814865112,0.00040814115149492164,-0.004101958210231521,4.843836663819719e-05,-0.002218395937234164,0.00042880338151007885,0.0022961858194321394,0.05872524503152818,-0.6833904057741166,-9.787087100744248
2.1,1.0,182.0,25.44292259216309,-0.015903547406196594,-79.78274532036718,40.45899232843935,276.209362654686,0.02757885679602623,0.020476873964071274,-0.7480268478393555,0.6627789735794067,0.0004760602919305848,-0.009317843474181707,-0.00298281201088744,0.003287904663011432,-0.0016765224281698465,0.006721349433064461,0.05801267500966788,-0.6662334325164557,-9.783548365831377
2.2,1.0,181.0,25.449182510375977,-0.015903547406196594,-79.78274533116551,40.45899232955637,276.20907607555387,0.02758234739303589,0.020478880032897,-0.7480295896530151,0.6627756357192993,-0.0010333678328593608,-0.009129346521378676,-0.0026534061354199397,-0.005811079870909453,0.0003616759204305709,-0.005273491144180298,0.059446786874905226,-0.6696552962064743,-9.784721902012825
2.4,1.0,181.0,25.44793128967285,-0.02385532110929489,-79.78274536127357,40.45899233758589,276.2078048276901,0.027583809569478042,0.0204781461507082,-0.7480313181877136,0.6627736687660217,-0.0011487206374950095,-0.009133620016425316,-0.00113569713380495,-0.0008092388161458075,-0.0008502191631123424,0.0031497147865593433,0.06065345118753612,-0.6758716173470021,-9.786329886317253
2.5,0.8999999761581421,179.0,25.44167137145996,-0.02385532110929489,-79.78274537926744,40.45899234278878,276.2064250993729,0.027585072442889214,0.020478418096899983,-0.7480312585830688,0.6627736687660217,-0.0011219399379343087,-0.009363874550201148,-0.0003543941577749609,-0.00425861356779933,-0.0008960600825957953,-0.00625154422596097,0.05984242867212744,-0.6658179147541523,-9.7858445674181
2.7,0.8999999761581421,180.0,25.44167137145996,-0.015903547406196594,-79.7827454004826,40.458992347118894,276.2064084100724,0.027588501572608948,0.020479964092373848,-0.7480342984199524,0.6627700924873352,-0.002448454005659591,-0.009060995000874672,0.00018593978014981832,-0.0056833126582205296,-0.00209296541288495,-0.0020508866291493177,0.0606940482230857,-0.6836280220001937,-9.786240423917773
2.8,0.8999999761581421,174.0,25.436662673950195,-0.015903547406196594,-79.78274539994167,40.45899236435239,276.20490851879117,0.02758399024605751,0.020479951053857803,-0.7480345368385315,0.6627700328826904,-0.0046710733479983285,-0.0066065622759689715,-0.00010145581760206528,0.0011147338664159179,0.0020422276575118303,-0.0005241264589130878,0.059978207414969814,-0.6716591370105743,-9.783650692105294
3.0,0.8000000119209291,176.0,25.44292259216309,-0.03180709481239319,-79.78274542296833,40.45899236386983,276.20209935188296,0.027590377256274223,0.02048306167125702,-0.7480357885360718,0.6627681851387024,-0.0013221298056680403,-0.00699374010865565,-0.002483701486330606,-0.006760799326002598,-0.0014407029375433922,-0.005311337299644947,0.059226497593335814,-0.6845100744813681,-9.786669609546662
3.1,0.8000000119209291,175.0,25.44292259216309,-0.03180709481239319,-79.78274543088965,40.45899236579147,276.20185914516446,0.027590377256274223,0.02048306167125702,-0.7480357885360718,0.6627681851387024,-0.0008935657615945226,-0.006881177972959363,-0.002442699107714289,0.0044882968068122855,0.0015916874399408698,0.006153529044240713,0.05990546439774335,-0.6811981384456158,-9.785887836813927
3.3,0.8999999761581421,179.0,25.44793128967285,-0.02385532110929489,-79.7827454555595,40.45899235791922,276.20018640041354,0.027598729357123368,0.020488006994128227,-0.7480376958847046,0.662765622138977,0.0018958066360200176,-0.0073277420920661316,-0.0010044640058375423,0.0032291898969560857,-0.0024886501487344503,0.0002693526330403984,0.0596171509847045,-0.6699409326910973,-9.784419600963592
3.4,0.8000000119209291,180.0,25.45168685913086,-0.02385532110929489,-79.78274546425574,40.458992357413045,276.2000842380524,0.027599075809121132,0.020487487316131592,-0.7480391263961792,0.6627639532089233,0.001551272840173624,-0.00715795384171148,-0.0008192839335370403,0.003052716609090566,0.00036904885200783616,0.004699305631220341,0.06015277421101928,-0.6850537924468517,-9.786953199505808
3.6,0.8000000119209291,179.0,25.449182510375977,-0.015903547406196594,-79.78274548853838,40.458992384798975,276.1985651540756,0.02759617380797863,0.020481888204813004,-0.7480389475822449,0.6627644300460815,-0.003560767110441686,-0.008524340095052171,-0.0003640746332554549,0.006201206240803003,0.002545368392020464,0.0033411376643925905,0.059527606358751664,-0.6664385966956616,-9.785237041711806
3.7,0.8000000119209291,178.0,25.45043563842773,-0.015903547406196594,-79.78274549788364,40.45899238942646,276.1985687303544,0.02759627066552639,0.020489120855927467,-0.7480429410934448,0.6627597212791443,-0.004923090438790227,-0.00837101171702842,-0.00010139506369462568,-0.003552321344614029,-0.002656733384355903,-0.0016221951227635145,0.058691194136627024,-0.6787485936284066,-9.785488471984863
3.9,0.8000000119209291,178.0,25.44292259216309,-0.03180709481239319,-79.78274552173787,40.45899237151556,276.19720271110543,0.02761154621839524,0.02048604004085064,-0.7480438947677612,0.6627581119537354,0.0008050478506642664,-0.008325833355778661,0.0006421541823743227,0.00305674085393548,0.0020302871707826853,0.0036898988764733076,0.060004734587855636,-0.6852514283359051,-9.7866134762764
4.0,0.699999988079071,177.0,25.45168685913086,-0.015903547406196594,-79.78274553170216,40.45899237659608,276.1956600236893,0.02762311510741711,0.02048735879361629,-0.7480523586273193,0.6627480387687683,-0.0004303428727622268,-0.008665444688920445,0.0006976601950855697,-0.004445208236575128,-0.0012214138405397534,-0.004457164090126753,0.05919514189939945,-0.6673783904314041,-9.784345341324807
4.2,0.699999988079071,178.0,25.44417381286621,-0.015903547406196594,-79.7827455518694,40.45899237888647,276.1958341884613,0.02763384394347668,0.020479200407862663,-0.7480457425117493,0.6627553105354309,-0.0011081820818599703,-0.0085416143521461,0.0011572456295769063,-0.0011830495204776525,-0.0018833506619557734,-4.347602953203023e-05,0.058250428279861814,-0.6808331990987063,-9.787025704979897
4.3,0.699999988079071,176.0,25.44417381286621,-0.02385532110929489,-79.78274549540083,40.458992366888616,276.194197087288,0.02763666585087776,0.020497692748904228,-0.7480485439300537,0.6627514362335205,0.0015579941397691492,0.003165982791390943,0.0011117907177856214,0.0012516984716057775,-0.0016476036980748177,0.0018794198986142878,0.05941895321477205,-0.667840320467949,-9.784631854891778
4.5,0.699999988079071,177.0,25.42914962768555,-0.007951773703098297,-79.78274548239584,40.45899235860413,276.1929350185394,0.02764699980616569,0.02049833163619041,-0.7480491399765015,0.6627503633499146,0.003114549300889268,0.0027306770722111675,0.0012827295048272733,-0.006310876924544573,-0.0009169502300210297,-0.005400054156780243,0.06004617672879248,-0.6847196240723133,-9.786812866330148
4.6,0.699999988079071,178.0,25.44292259216309,-0.015903547406196594,-79.7827454796866,40.458992355143046,276.19304337978366,0.02764355204999447,0.020493876188993454,-0.7480566501617432,0.6627421379089355,0.00364882896877916,0.0027601989471208303,0.001371857426867962,0.0041897245682775966,-0.0019457043381407853,0.0027726858388632536,0.060174783496186136,-0.6764402590692044,-9.785768553614618
4.8,0.699999988079071,176.0,25.44292259216309,0.03180709481239319,-79.78274549089514,40.45899236197021,276.1917736816406,0.027644267305731773,0.020481102168560028,-0.7480590939521791,0.6627397537231445,0.0010588157724983763,-0.0020810508250481306,0.001339674512752249,-0.0008971190545707941,-0.002459975192323327,-0.0050618308596313,0.05866452535148711,-0.6827427535504103,-9.787005239725113
4.9,0.6000000238418579,176.0,25.436662673950195,0.05566241592168808,-79.78274549350094,40.45899236108561,276.1919091033936,0.02764485403895378,0.02048116363584996,-0.7480591535568237,0.6627396941184998,0.0014301509630214554,-0.002013196227948389,0.0015169537070597585,0.005310012958943844,-0.004837334621697664,0.002584678586572409,0.05990746524184942,-0.6824633297324181,-9.78678304553032
5.1,0.6000000238418579,176.0,25.43415832519531,0.04771064221858978,-79.78274547972181,40.458992367211756,276.1906220006943,0.027643628418445587,0.020481565967202187,-0.7480591535568237,0.6627397537231445,-0.00039096079534992317,-0.0013296638645181494,0.0015082735596823455,-0.0007851659902371466,-0.002482961863279343,-0.0009776175720617175,0.05857008825056255,-0.6754783920943738,-9.7854878872633
5.2,0.6000000238418579,176.0,25.426645278930664,0.12722837924957275,-79.78274548115247,40.45899236782636,276.19078829765317,0.027645327150821686,0.02048246376216412,-0.7480607032775879,0.6627377867698669,-0.0007940837815935133,-0.0011801929732608422,0.0016644873004529495,0.0028045065701007843,0.0007075842004269361,0.003171841148287058,0.05928722640965134,-0.6850113270431757,-9.7874361795187
5.4,0.6000000238418579,175.0,25.422889709472656,0.04771064221858978,-79.78274546615826,40.45899235758052,276.1894645977021,0.027649274095892903,0.02048742026090622,-0.7480624914169312,0.6627355217933655,0.002298712309951169,-0.0001647508868157896,0.001583322557199836,0.004976655822247267,0.00022371177328750488,0.00610222527757287,0.060046295500360426,-0.6788100624829531,-9.785693709254266
5.5,0.6000000238418579,176.0,25.42539405822754,0.05566241592168808,-79.78274546992337,40.45899235026114,276.18757870674136,0.02765534073114395,0.020487312227487564,-0.7480620741844177,0.6627357602119446,0.004548721486096038,-0.003335351712098994,0.0014534888112238866,-0.002555622486397624,-0.0007643342833034692,0.001763789332471788,0.05841510505881161,-0.6813759668916464,-9.786568452715873
5.7,0.6000000238418579,176.0,25.43791389465332,0.039758868515491486,-79.78274547893712,40.45899234302657,276.18784597396854,0.027656320482492447,0.020487522706389427,-0.7480654120445251,0.6627318859100342,0.00435610085703564,-0.003221484227431169,0.0018147303989811208,0.005362705327570438,0.0007044665399007499,0.006680076476186514,0.059603821160271776,-0.6842919002473354,-9.786619908213616
5.8,0.6000000238418579,176.0,25.430402755737305,0.04771064221858978,-79.78274545488621,40.45899233685749,276.1861135053635,0.02764281630516052,0.02048165537416935,-0.7480757236480713,0.6627209782600403,0.004835147122484756,-0.0012125513287116244,0.0016590340135739505,-0.0032525269780308013,-0.0015445570461452007,-0.005548011977225542,0.05882346455007793,-0.6703528690338135,-9.784738274216652
6.0,0.6000000238418579,176.0,25.42914962768555,0.039758868515491486,-79.78274545392576,40.458992340192964,276.1845345783234,0.027639368548989296,0.0204676017165184,-0.7480677962303162,0.6627305746078491,0.0030612511557596483,-0.003771197583253897,0.001345444282858969,-0.0009386947494931519,-0.00045155573752708733,0.0024928878992795944,0.0591087675606832,-0.6757424669712783,-9.785680260658264
6.1,0.6000000238418579,175.0,25.42539405822754,0.02385532110929489,-79.7827454587288,40.45899233794661,276.1846581983566,0.02765076607465744,0.02046868018805981,-0.748071551322937,0.6627257466316223,0.002237254859093145,-0.003683611976622668,0.0015950127906154364,-0.0003986649680882692,0.00205760495737195,-0.006807660683989525,0.05999457961879673,-0.6658375029265879,-9.784285699725153
6.3,0.5,175.0,25.43415832519531,0.06361418962478638,-79.78274543763222,40.45899234438943,276.1828301239014,0.02761301212012768,0.020472843199968338,-0.7481013536453247,0.6626936197280884,9.393907553188624e-05,-0.001931687899879501,0.0013493262383417527,-0.005545939784497023,0.0004347250214777887,-0.003371502738445997,0.05952574712689966,-0.6757176893949509,-9.785692539811137
6.4,0.5,174.0,25.432905197143555,0.039758868515491486,-79.78274543997334,40.45899234408829,276.18296995639804,0.027611874043941498,0.02046989090740681,-0.7481131553649902,0.662680447101593,0.00019162085860671888,-0.0018653790248607336,0.0015559859171979345,0.002138246549293399,-0.00042554765241220593,0.0005332143045961857,0.05890612499322743,-0.6710339965671301,-9.785545774698257
6.6,0.5,173.0,25.432905197143555,0.07951773703098297,-79.78274544113663,40.45899235124397,276.18301644802096,0.027605894953012463,0.02048396877944469,-0.7481259107589722,0.6626658439636229,-0.0014603222077264662,-0.004833473263395127,0.00547861540720809,-0.006117138545960188,-0.0007110608858056366,-0.004274860955774784,0.059226049915887424,-0.6663477455824613,-9.784300902485848
6.7,0.5,173.0,25.432905197143555,0.05566241592168808,-79.78274544666108,40.45899235249893,276.1835700559616,0.027618667110800743,0.020477987825870514,-0.7481456398963928,0.6626432538032532,-0.0009237772973229073,-0.004677103406151574,0.005530986798663956,0.008607595227658749,0.002990662818774581,0.002657588804140687,0.060932345101609824,-0.6802726703882218,-9.786304743289948
6.9,0.5,173.0,25.43540954589844,0.04771064221858978,-79.78274539628045,40.458992360031935,276.1832740592957,0.02761881053447724,0.02048580534756184,-0.7481425404548645,0.6626464128494263,-0.002929731943504797,0.0015641442923822481,0.0075379702851977705,-0.0004261625872459263,0.0035729946102947,0.0005737917963415384,0.05902095425873995,-0.6681005946546793,-9.784646472930909
7.01,0.5,173.0,25.42414093017578,0.04771064221858978,-79.78274535745645,40.458992345418416,276.1801559019089,0.02762138843536377,0.020494235679507256,-0.7481424808502197,0.6626461148262024,0.0029450590101135397,0.0049147767357642464,0.0057844146007648214,0.004089225083589554,0.0020412991289049387,0.006634923163801432,0.06005785745568574,-0.6848299171775579,-9.786671363711356
7.2,0.5,172.0,25.42038536071777,0.08746951073408127,-79.78274534660959,40.458992339847825,276.18135192871097,0.027621347457170486,0.020493503659963608,-0.7481439113616943,0.6626445651054382,0.0021941900867809643,0.005061617212223612,0.006289899672390686,0.004635700955986978,0.0035780903417617096,0.0023637572303414345,0.058806114764884114,-0.6655852686613799,-9.784136595726013
7.3,0.5,170.0,25.426645278930664,0.05566241592168808,-79.78274534454508,40.45899233480811,276.1792903232575,0.027628026902675632,0.020491590723395348,-0.7481436729431152,0.662644624710083,0.003641539371288582,0.00044145904938926487,0.008026052385939186,-0.002454349072650075,-0.000607406604103744,-0.004660476464778185,0.05849067118484527,-0.6785084192454816,-9.785687277317047
7.5,0.5,169.0,25.43165397644043,0.02385532110929489,-79.782745322293,40.458992338865535,276.17753496646884,0.02762898430228233,0.020492225885391242,-0.7481458783149719,0.6626421213150024,0.001752980069704817,0.0007391278496407997,0.008702883684050677,-0.0008435790077783168,-0.0014165474567562342,0.0035623752046376467,0.059327823445200926,-0.6698065198212863,-9.78450730919838
7.6,0.5,168.0,25.43415832519531,0.0,-79.78274532179198,40.45899233705664,276.17840650558475,0.02762898430228233,0.020492225885391242,-0.7481458783149719,0.6626421213150024,0.0006441850078946652,0.0007990474104284691,0.008997491063752609,-0.004694400355219841,-0.0005083908326923847,-0.002165071899071336,0.05985130456276237,-0.6657987651228905,-9.784144781827925
7.8,0.5,168.0,25.44793128967285,-0.015903547406196594,-79.78274530008274,40.45899232741628,276.17396190643314,0.02763153798878193,0.02049490064382553,-0.7481468915939331,0.6626406908035278,0.0031203793996075445,0.0014034629977179008,0.0057237243850980935,-0.0043324925936758536,-3.467600981821306e-05,-0.003539562691003084,0.059251910140737885,-0.6828752660751343,-9.786195985078812
7.9,0.5,167.0,25.44542694091797,-0.015903547406196594,-79.7827452990344,40.45899232366856,276.174515156746,0.027633856981992718,0.02049614861607552,-0.7481488585472107,0.6626383662223816,0.003681356577834804,0.0014803793540810368,0.005840108319140632,0.00584648083895445,0.00414959155023098,0.002236014232039452,0.05936050846707076,-0.6761037518084051,-9.786094828248023
8.1,0.5,168.0,25.44167137145996,-0.015903547406196594,-79.7827453008763,40.45899233476034,276.1698228406906,0.02763541787862777,0.020492281764745712,-0.7481483221054077,0.6626390218734741,0.0015385052364221615,-0.0014748501331032107,0.004222881799246164,0.00031994495657272637,0.0007277873810380697,0.0009918117430061102,0.059040286615490926,-0.6695665647089482,-9.78394539177418
8.2,0.5,169.0,25.440418243408203,-0.02385532110929489,-79.78274530289359,40.458992333474775,276.17024138450626,0.027636462822556496,0.020492268726229668,-0.7481498122215271,0.6626372933387756,0.0013184249544257655,-0.0014227622282710613,0.004356488311944475,-0.0002246231742901728,0.0013874013675376773,0.005441751331090927,0.059612843231298035,-0.6854405857622624,-9.78702044248581
8.4,0.4000000059604645,167.0,25.44417381286621,-0.03180709481239319,-79.78274530835881,40.45899234628905,276.16477325439456,0.02763928659260273,0.02048993669450283,-0.7481504082679749,0.6626365780830383,0.0003908005117116738,-0.003919798317870496,0.0029698830601695373,0.005519854836165905,0.002246202901005745,0.006164404097944498,0.05986917968373745,-0.6660920029878616,-9.784119054079056
8.5,0.4000000059604645,168.0,25.449182510375977,-0.015903547406196594,-79.78274529050522,40.45899234352309,276.1584756660462,0.027639057487249367,0.02049272321164608,-0.7481469511985779,0.662640392780304,0.0023535797760917197,-0.0017711051423929406,0.001983288251996204,-0.004761139862239361,-0.0018008671468123798,-0.0015876312972977755,0.058754220725968476,-0.6768320225179196,-9.785692539811137
8.7,0.4000000059604645,168.0,25.44667816162109,-0.015903547406196594,-79.78274529525834,40.45899233934488,276.1588547515869,0.02763432823121548,0.02050456590950489,-0.74814772605896,0.662639319896698,0.0020545346059397136,-0.0015571578427426198,0.0022490922679666765,0.0020168335177004337,-0.0007389854290522635,0.002213236875832081,0.05986757626757026,-0.684047998264432,-9.787722693085671
8.8,0.4000000059604645,169.0,25.43791389465332,-0.015903547406196594,-79.7827453044347,40.45899233629925,276.1519856142998,0.02765052206814289,0.020517868921160698,-0.7481481432914734,0.6626377701759338,0.004112057187072974,-0.004092482499340933,0.001440959020297352,-0.006239715963602066,-0.0008724797517061234,-0.004781840369105339,0.05933474874123931,-0.6656686645746231,-9.784158815145494
9.0,0.4000000059604645,169.0,25.44542694091797,-0.03180709481239319,-79.78274529795628,40.45899233314681,276.1453361201286,0.027642836794257164,0.0205120611935854,-0.7481453418731691,0.6626414656639099,0.004814553382265578,-0.00225772709694152,0.0011042507720918416,-0.002499795518815517,-0.0020309928804636,-0.002841426758095622,0.05900166301522404,-0.6742335198819638,-9.785442863702775
9.1,0.4000000059604645,169.0,25.44542694091797,-0.015903547406196594,-79.78274530123151,40.45899232879308,276.14541253328326,0.027651980519294742,0.02052859589457512,-0.7481526136398315,0.6626323461532593,0.005154900074553646,-0.00210615721763152,0.0011575602002643168,0.0046999487094581145,0.0016893530264496805,0.002928658854216337,0.059376944624818864,-0.6750663095712662,-9.784714300632476
9.3,0.4000000059604645,169.0,25.436662673950195,-0.015903547406196594,-79.78274529111931,40.45899235482314,276.1379385876656,0.027636989951133728,0.020503124222159386,-0.7481580972671509,0.6626275777816772,-0.0021877653857309,-0.0015519578831705075,0.00048099241769887307,0.00043550875852815807,-0.00021527767239604143,-0.008798918686807156,0.05888496081344784,-0.6828037838637829,-9.78682105243206
9.4,0.4000000059604645,170.0,25.436662673950195,-0.02385532110929489,-79.7827452925572,40.458992356861785,276.137999265194,0.027637222781777385,0.02050149813294411,-0.7481606006622314,0.6626248359680176,-0.0018845224190390528,-0.001348730521817042,0.000500888079497053,0.004102479666471481,0.0007751925149932504,0.0021584341302514076,0.05967018705792725,-0.683818641230464,-9.786863737106325
9.6,0.4000000059604645,169.0,25.44292259216309,-0.007951773703098297,-79.78274528226521,40.45899235321552,276.1280269312859,0.027660887688398358,0.02052579075098037,-0.7481626272201538,0.6626208424568176,0.0014179121783134026,-0.00019583908789193966,-0.0028889981810885854,0.0050915400497615355,0.005478997249156237,0.0044209170155227176,0.06046631744597108,-0.6792207562923431,-9.78623925447464
9.7,0.4000000059604645,167.0,25.44542694091797,0.007951773703098297,-79.78274528254366,40.458992352655656,276.127750723362,0.02765355445444584,0.02053241990506649,-0.7481620311737059,0.6626215577125549,0.00023859508708075542,-6.858408683232164e-05,-0.0026359054168302834,-0.004519899375736713,0.0011808577692136168,0.00363360857591033,0.05866202201228589,-0.6815554764121772,-9.786312929391864
9.9,0.4000000059604645,166.0,25.44417381286621,-0.04771064221858978,-79.78274529689854,40.45899234077053,276.118986158371,0.02763490937650204,0.02054831385612488,-0.7481679320335388,0.6626152396202087,0.0036412255022224226,-0.0027373168552008104,-0.0018153373089300781,0.0032989881001412873,-0.00296135270036757,0.002863066736608744,0.059478311589919036,-0.6841450620442628,-9.786457355618477
10.0,0.4000000059604645,164.0,25.43415832519531,-0.02385532110929489,-79.78274530299342,40.45899235934595,276.11041757345197,0.02762822061777115,0.02055532298982144,-0.7481760382652283,0.6626061201095581,-0.0017284729974430175,-0.005316360069214442,-0.0015794010497880734,-0.0008832116727717221,-0.002776942914351821,-0.007596549112349749,0.05851266676560045,-0.668570418432355,-9.784737689495088
10.2,0.4000000059604645,165.0,25.44542694091797,-0.02385532110929489,-79.78274531470441,40.45899236337708,276.11013987541196,0.027619743719697,0.020549338310956955,-0.7481878995895386,0.6625931859016418,-0.002263328042756029,-0.0049649302396196655,-0.0013245914355406664,-0.0028865875210613012,-0.002760328119620681,-0.0012228026753291488,0.058610114268958576,-0.677632944881916,-9.786510565280915
10.3,0.4000000059604645,166.0,25.44417381286621,-0.015903547406196594,-79.78274530175477,40.45899236666801,276.09946057081225,0.027621341869235042,0.020545369014143944,-0.7481841444969177,0.6625975966453552,-0.0018067708651598147,-0.003094722562016905,-0.004444384159990034,0.0010955639882013204,0.0033880893606692553,-0.0024414826184511185,0.05995877455919981,-0.668390324190259,-9.78465699791908
10.5,0.4000000059604645,166.0,25.440418243408203,-0.007951773703098297,-79.78274533411455,40.458992371556356,276.08762302875516,0.027634430676698685,0.02054035849869252,-0.7481805682182312,0.662601113319397,-0.0011795769466188461,-0.008926190224441747,-0.006854991275621493,-0.004237038549035789,-0.004040686879307032,-0.005373943131417036,0.05907351524569095,-0.6680884616822005,-9.784400305151939
10.6,0.4000000059604645,168.0,25.44292259216309,0.0,-79.78274534423302,40.45899237370773,276.086940972805,0.027634430676698685,0.02054035849869252,-0.7481805682182312,0.662601113319397,-0.0006838624805558122,-0.008807182334698224,-0.006784912281226,0.0067217149771749965,0.0020110078621655703,0.0039005947764962907,0.059163164938800035,-0.6773941592127085,-9.786109446287156
10.8,0.4000000059604645,169.0,25.439167022705078,0.03180709481239319,-79.78274534286513,40.45899234392298,276.0764217662812,0.0276409275829792,0.02055240236222744,-0.7481815218925476,0.6625995039939879,0.005684828470419254,-0.004184724382692661,-0.0043101586368927865,-0.002021412132307887,-0.0010248402832075953,-0.0022770424839109182,0.05893402717541904,-0.6823990834504366,-9.786055067181588
10.9,0.4000000059604645,170.0,25.439167022705078,-0.02385532110929489,-79.78274534850634,40.45899233955637,276.07595273733136,0.027641674503684044,0.02055195719003677,-0.7481842041015625,0.6625964045524597,0.0059070571641273795,-0.004081761084303574,-0.0042623103293781715,0.0043044970370829105,1.8273838577442802e-05,0.00471800472587347,0.05936680792830885,-0.6849832604080439,-9.786394790410997
11.1,0.4000000059604645,171.0,25.43540954589844,-0.015903547406196594,-79.78274534729725,40.45899235745545,276.0654881286621,0.02763644978404045,0.020548870787024498,-0.748184084892273,0.6625968217849731,0.00028539135303972963,-0.002848011864494471,-0.0036002407228111514,0.004315633326768875,0.0018948114011436694,0.0020307661034166813,0.059111407944001264,-0.6717524001002312,-9.78460203409195
11.2,0.4000000059604645,173.0,25.439167022705078,-0.03180709481239319,-79.78274535046481,40.458992358144656,276.065139977932,0.027638664469122887,0.02054981328547001,-0.7481849193572998,0.6625957489013672,-0.0006112874224657932,-0.002600704829865518,-0.003419740946375766,-0.003004947677254677,-0.0019853892736136913,-0.0021080176811665297,0.05918992965482176,-0.6835883340239525,-9.78678421497345
11.4,0.4000000059604645,176.0,25.440418243408203,-0.03180709481239319,-79.78274536751894,40.45899234798739,276.05242642641065,0.027645042166113853,0.02055097743868828,-0.7481861114501953,0.6625941395759583,0.0029555468049529644,-0.0040674531317625075,-0.0056793367466767535,0.004793158266693354,0.003496385645121336,0.000214752639294602,0.058715071789920324,-0.6651185877621174,-9.783989830613136
11.5,0.4000000059604645,179.0,25.43415832519531,-0.02385532110929489,-79.78274536534305,40.45899233917794,276.04199084520343,0.0276460349559784,0.020555101335048682,-0.7481861710548401,0.6625939011573792,0.0042137581258073365,-0.001958355296596488,-0.003906528425509515,-0.002610433613881469,-0.0019648531451821327,-0.006213180720806122,0.05954352631699294,-0.6731919115036726,-9.785497827529909
11.7,0.4000000059604645,180.0,25.439167022705078,-0.02385532110929489,-79.78274537067371,40.45899233221552,276.041177778244,0.027647050097584724,0.02055514976382256,-0.7481873035430908,0.6625925898551941,0.004133111484830168,-0.0015324765151218374,-0.003684742259964537,0.003841572441160679,0.002957001095637679,0.0022269964683800936,0.059975009718909865,-0.6845450115948916,-9.786580731868744
11.8,0.4000000059604645,182.0,25.44167137145996,0.0,-79.78274534039711,40.45899229920908,276.0328429627419,0.027647672221064568,0.020565545186400414,-0.7481880187988281,0.6625914573669434,0.008667646676545364,0.004448590336721646,0.0017204949401976098,-0.0024180791806429625,-0.003026064718142152,-0.004471730440855025,0.05936135814059526,-0.6662362099438907,-9.784226058125496
12.0,0.4000000059604645,182.0,25.43791389465332,-0.03180709481239319,-79.7827453564342,40.45899230769111,276.0221983480454,0.02764769084751606,0.020555950701236725,-0.7481902241706848,0.6625892519950867,0.002410813997737353,-0.00014489006974581107,0.0007491382490631733,-0.0005225905333645642,-0.0005981824942864478,-0.004839479457587004,0.058272432996891436,-0.6782814741879702,-9.786151546239854
12.1,0.4000000059604645,184.0,25.44167137145996,-0.02385532110929489,-79.78274535689727,40.45899230531804,276.02225306510934,0.02764769084751606,0.020555950701236725,-0.7481902241706848,0.6625892519950867,0.002415332264979939,2.8600997598928087e-05,0.0008219155665691272,-0.0006135032745078206,0.00024337341892533004,-0.0007661274867132306,0.059035398708656435,-0.6687206187844277,-9.78409157216549
12.3,0.4000000059604645,186.0,25.44167137145996,-0.02385532110929489,-79.78274539468566,40.45899231122894,276.01133218288425,0.027654584497213364,0.02054882608354092,-0.7481902241706848,0.6625891327857971,0.0009780925262022212,-0.006745833712410311,0.0003136219637412397,-0.003508595749735832,-0.00010704178566811606,-0.006756247021257877,0.060105069153942176,-0.6683461046218873,-9.784206762313843
12.4,0.4000000059604645,189.0,25.436662673950195,-0.06361418962478638,-79.78274540274867,40.45899231062615,276.0113454151154,0.027656383812427517,0.02054926566779613,-0.7481929659843445,0.6625860333442688,0.0016313120039985016,-0.006593868228084604,0.00026549778804088446,0.0021674700547009698,-0.00221246643923223,0.003611258696764708,0.06009162969421596,-0.6777463077753783,-9.785933445096015
12.6,0.4000000059604645,190.0,25.44542694091797,-0.039758868515491486,-79.78274540427391,40.45899229688273,275.9999128866196,0.02765684388577938,0.020554140210151672,-0.7481927871704102,0.6625860333442688,0.0029689024344007266,-0.003708046756373136,-0.0001192831007665084,-0.0055011408403515824,0.0021068453788757324,-0.004422449041157961,0.058661779901012776,-0.6660159891843797,-9.783504511713982
12.7,0.30000001192092896,192.0,25.439167022705078,-0.02385532110929489,-79.78274540894806,40.45899229455153,275.9998837399483,0.02765712328255176,0.020553510636091232,-0.7481940388679504,0.662584662437439,0.003474091302136105,-0.003474037417774905,-3.804561211038696e-05,0.006574431899935007,0.0036055906675755978,0.006646532565355301,0.06028743832837793,-0.6828644487261772,-9.785959757566454
12.9,0.30000001192092896,191.0,25.427898406982425,-0.039758868515491486,-79.78274540628162,40.458992297831735,275.9882688212395,0.02765706554055214,0.020554505288600918,-0.7481957077980042,0.6625827550888062,0.0010593803065318712,-0.001809477219077189,-0.0006475535890786452,0.00159555918071419,-0.0005779603379778564,0.0010022467467933893,0.05871069551445544,-0.6694578064978123,-9.784037777781487
13.0,0.30000001192092896,190.0,25.440418243408203,-0.02385532110929489,-79.78274540459229,40.45899228874639,275.9772898840904,0.02765863016247749,0.020557306706905358,-0.748195469379425,0.6625828742980957,0.003370611424680383,-0.0006868979666203683,-0.0008628760442031041,0.007594112306833267,0.0013180109672248366,0.0011800326174125073,0.06023330590222031,-0.6855293172597885,-9.787221586704254
13.2,0.30000001192092896,190.0,25.439167022705078,-0.02385532110929489,-79.78274540646578,40.45899228418439,275.977099685669,0.027658669278025627,0.020556075498461723,-0.7481967806816101,0.6625814437866211,0.002841991365276119,-0.00022010840267912017,-0.0006770481472537841,0.0037039890885353093,0.003583506913855672,0.002839371562004089,0.05989306647330522,-0.6672111600637436,-9.784234244227411
13.31,0.30000001192092896,189.0,25.42038536071777,-0.039758868515491486,-79.7827454243487,40.45899227297344,275.9660862374306,0.027664080262184143,0.020555740222334862,-0.7481963634490967,0.6625816822052002,0.004783009437142646,-0.0032272156912513715,-0.0005340638029408853,-0.00035285160993225867,-0.0020160384010523558,0.002115014707669616,0.05741529970429837,-0.6803818671405316,-9.78611763238907
13.5,0.30000001192092896,189.0,25.436662673950195,-0.02385532110929489,-79.78274542962617,40.458992260262754,275.9544208335877,0.027666041627526283,0.020558811724185944,-0.7481980323791504,0.6625795364379883,0.006559745154992066,-0.001412254822897582,-0.00083485914587736,0.006657211575657129,0.0020743384957313533,0.00493281614035368,0.060041416729800415,-0.6845656230300665,-9.787701058387757
13.6,0.30000001192092896,185.0,25.44167137145996,-0.02385532110929489,-79.78274543203636,40.45899225506255,275.95430579662326,0.027666041627526283,0.020558811724185944,-0.7481980323791504,0.6625795364379883,0.00530220323111864,-0.0012133249156287464,-0.0006407850576016003,-0.005618254188448191,-0.0022412585094571114,-0.004939521197229624,0.05999588153790681,-0.6671490333974361,-9.784265819191932
13.8,0.30000001192092896,182.0,25.44417381286621,-0.02385532110929489,-79.7827454350895,40.45899224112857,275.94248387098315,0.0276678055524826,0.02056045457720756,-0.7481987476348877,0.6625785827636719,0.0062657560261987905,-1.5346249919374975e-05,-0.0008663050892167082,-0.0021925678011029963,-0.0024354865308851004,-0.0020895593333989373,0.05906250146683305,-0.6784662462025881,-9.786574299931527
13.9,0.20000000298023224,172.0,25.40786552429199,0.3657816052436829,-79.78274543597796,40.45899223523754,275.94235476732257,0.027670370414853096,0.0205618217587471,-0.7482008337974548,0.6625761985778809,0.0064759973938396005,0.0001557899780914051,-0.0007328400896978947,0.004139341879636049,0.0019133551977574825,0.0017801030771806836,0.058136809570714834,-0.6732661711424589,-9.785480285882947
14.1,0.20000000298023224,167.0,25.392841339111328,0.278312087059021,-79.7827454335124,40.458992237464045,275.9313612866402,0.027654686942696568,0.020559245720505714,-0.7482460141181946,0.6625258326530457,0.0030173943330809357,0.0006790077209835443,-0.0008713912040049872,0.001224490930326283,0.0008398279896937313,-0.014680542051792143,0.06757502419408411,-0.6780204690992833,-9.785006076693538
14.2,0.20000000298023224,155.0,25.400352478027344,0.2624085247516632,-79.78274543346387,40.45899223434221,275.93125894546506,0.027660338208079338,0.020569803193211555,-0.7482337951660156,0.6625391244888306,0.0047151736207495295,0.0004389265038172215,-0.0008085284870566128,0.004685215651988983,-0.0004137619107495994,0.01600516214966774,0.05842548843473196,-0.6846045070141554,-9.78587263405323
14.4,0.20000000298023224,149.0,25.39910125732422,0.2703603208065033,-79.78274543092164,40.458992255921366,275.91993537426004,0.027648279443383217,0.02059931680560112,-0.7482575178146362,0.6625118851661682,-0.0019080483970141825,0.0005544210754462631,-0.0013173818083784669,0.005727847572416067,-0.0020103463903069496,0.0063724475912749785,0.05995887962635608,-0.6742371743917466,-9.78403017640114
14.5,0.20000000298023224,138.0,25.396596908569336,0.278312087059021,-79.78274542970237,40.45899227185213,275.9089387941361,0.027643283829092983,0.020586699247360236,-0.7482215166091919,0.6625531315803528,-0.005210417647405593,-0.0002979664461804492,-0.0017358501871999224,-0.0035522128455340867,0.0011737477034330368,-0.00033787896973080933,0.05705283171962947,-0.682511349990964,-9.787182995080947
14.7,0.20000000298023224,132.0,25.39158821105957,0.3419262766838074,-79.78274542740692,40.458992282090456,275.90868916988376,0.027662904933094985,0.020575368776917458,-0.7482525110244751,0.6625177264213562,-0.005468634101552956,0.0003641178632156571,-0.0015445422770959116,0.003191177034750581,0.003272032830864191,0.011857496574521065,0.05645740244071931,-0.6738051382452249,-9.788509728312492
14.8,0.20000000298023224,120.0,25.39158821105957,0.3816851377487183,-79.78274544989355,40.45899226407328,275.8975927519798,0.027666965499520302,0.020584557205438614,-0.7482461929321289,0.6625243425369263,-0.0010369790112213387,-0.002649561841318904,-0.0013006002550904046,-0.0045441980473697186,-0.0030832190532237287,-0.006874733138829471,0.05862245737574995,-0.6656649369746447,-9.783208057880405
15.0,0.20000000298023224,114.0,25.376564025878906,0.4293957948684693,-79.78274546913238,40.45899225510817,275.8866414117813,0.027692023664712902,0.020568691194057458,-0.7482396960258484,0.6625310778617859,0.0021152653805987087,-0.0042312350626077634,-0.0012792816724332802,-0.00669279508292675,-0.0028458903543651104,-0.00045697801397182053,0.05811747264582664,-0.6621014975756407,-9.78363139629364
15.1,0.20000000298023224,106.0,23.81400489807129,9.033215522766113,-79.78274547447177,40.458992252892386,275.8865398454666,0.027788834646344185,0.02054944820702076,-0.7482919096946716,0.6624687314033508,0.003850059734957033,-0.005658789326080767,-0.0007823135682004769,0.012465019710361958,0.016223348677158356,0.002365761203691364,0.06177736369427294,-0.7025433260947467,-9.791058529615405
15.3,0.20000000298023224,104.0,25.32272529602051,0.2703603208065033,-79.78274549141155,40.458992236679826,275.87529888629916,0.02797929011285305,0.0206545889377594,-0.7481921911239624,0.6625699996948242,0.005965525900234756,-0.005960049997557971,-0.0023851070353528053,0.007947406731545925,0.012301448732614515,0.0027946287300437693,0.05327317324932665,-0.6865555036067963,-9.7813691085577
15.4,0.20000000298023224,99.0,25.380319595336914,0.21469789743423465,-79.78274549709819,40.458992233150575,275.87511816501615,0.027986234053969383,0.020649315789341927,-0.7482081055641174,0.6625519394874573,0.0025702933932812678,-0.004566864604050709,-0.0017664401492468336,0.005224838387221098,0.01605011336505413,-0.00553459906950593,0.06283602492883802,-0.6841628229618073,-9.77140662252903
15.6,0.20000000298023224,96.0,25.18124389648437,0.7474667429924011,-79.78274549557948,40.45899224642111,275.86383560180667,0.028068603947758675,0.02070683799684048,-0.7481562495231628,0.6626052260398865,0.0004689111656330188,-0.0018484613419221551,-0.002728700673722725,0.005304304417222738,0.004602036438882351,-0.012225108221173286,0.053906508930958816,-0.6994832588732243,-9.773397599458695
15.7,0.20000000298023224,91.0,25.33274269104004,0.2544567584991455,-79.78274549782962,40.4589922486648,275.8636493968964,0.028065724298357964,0.02068462409079075,-0.7482022643089294,0.6625540256500244,-0.0024170582317868325,-0.001964318070464828,-0.002322350022697045,-0.013647864572703838,0.010908902622759342,0.02880407683551312,0.0683357606548816,-0.6877058701962233,-9.788546565771105
15.9,0.20000000298023224,88.0,25.22381401062012,1.3756568431854248,-79.7827454967556,40.458992245302476,275.8516554522514,0.027936847880482674,0.0206909142434597,-0.7481985092163086,0.6625635623931885,0.0001902648916308369,-0.0008901001348091594,-0.002420364773490825,-0.0018662746297195554,0.006899579893797636,0.01529677491635084,0.06689312007743865,-0.6959854544699192,-9.788618486523626
16.0,0.20000000298023224,87.0,25.127405166625977,2.8626387119293213,-79.78274549634011,40.458992216028726,275.8403154301644,0.027766307815909386,0.020628171041607857,-0.7481817603111267,0.6625915765762329,0.005595565555170975,0.0023165404281049705,-0.0018069697332930394,-0.003307877341285348,0.0011198974680155516,0.004648818634450436,0.05992331667803227,-0.6715815152227879,-9.77905536532402
16.2,0.30000001192092896,82.0,24.738018035888672,6.05925178527832,-79.78274549457338,40.45899220871903,275.84002265214923,0.027823526412248608,0.020622622221708298,-0.7482537031173706,0.6625081300735474,0.005127461301839879,0.0009072674654876908,-0.0008258770112387931,0.009058739058673382,-0.01739305630326271,4.125830309931189e-05,0.045595783665776254,-0.6275415294617415,-9.786908760666847
16.3,0.30000001192092896,71.0,24.60530090332031,6.6238274574279785,-79.78274553984183,40.4589921894984,275.8278799343109,0.027882782742381096,0.020692644640803337,-0.7482282519340515,0.6625322103500366,0.009369949294128849,-0.007228134571543644,-0.0005352982619137328,0.022562932223081592,0.04683903977274895,0.02085776999592781,0.07685145366936923,-0.6627064651250839,-9.814806411266328
16.5,0.30000001192092896,64.0,24.306060791015625,9.168395042419434,-79.78274555358738,40.45899219078451,275.81423374891284,0.028369799256324768,0.021121766418218613,-0.748366117477417,0.6623421907424927,0.0019807184494817845,-0.0020396245327882145,0.0011823457638247047,-0.003227670677006245,0.005124720744788647,-0.028814690187573436,0.031729381266050044,-0.6689460289478303,-9.769376469254494
16.6,0.30000001192092896,50.0,24.15331077575684,10.265740394592283,-79.78274555789201,40.45899219023861,275.8141995954514,0.028726954013109207,0.02136366069316864,-0.7482861876487732,0.6624093651771545,-0.007746570708409088,-0.0001873928775832515,0.001263574195905963,-0.04890250414609909,-0.050122838467359536,0.046910379081964486,0.06860902205575257,-0.6618198079615831,-9.796502872109414
16.8,0.4000000059604645,38.0,23.84154891967773,13.510064125061035,-79.78274557983009,40.45899215654888,275.8008047628403,0.030325340107083317,0.022624600678682327,-0.7484107017517091,0.6621555089950562,0.016543761176506282,-0.004622139056233286,0.004039626516401804,0.045776646584272385,0.01762167550623417,-0.06582798063755035,0.06260786474682391,-0.8074366738647223,-9.769948326945306
16.9,0.4000000059604645,21.0,23.670019149780273,14.893672943115234,-79.78274558682317,40.45899214905183,275.8011269259453,0.03138374909758568,0.0233338475227356,-0.7484270334243774,0.6620631217956543,0.008225176216798556,-0.005209137737358194,0.00489197721200994,0.043762948364019394,-0.0037548677064478397,0.04770184680819512,-0.016332387942820787,-0.8326242130994798,-9.750904530286787
17.1,0.5,11.0,23.35199737548828,18.01872062683105,-79.78274559951551,40.458992109354575,275.79008397340783,0.033456411212682724,0.022956326603889462,-0.7486603856086731,0.6617109775543213,-0.001829890096649312,-0.007339702969176033,0.01729000618135751,-0.03867006301879883,0.04536520317196846,-0.027183590456843376,0.07570833671372383,-0.6674744309484959,-9.80950064778328
17.2,0.5,353.0,23.18672752380371,20.125940322875977,-79.78274560486703,40.45899210700513,275.79174223423007,0.032017674297094345,0.022541973739862442,-0.7494497299194336,0.6609023213386536,0.008790580591790245,0.004801191648900767,0.019346401230655456,-0.0033293312881141897,-0.09819858521223067,0.12628468871116638,0.13974540257826448,-0.9182900154590607,-9.848799784183504
17.4,0.5,343.0,22.867454528808594,23.71219062805176,-79.78274565111052,40.45899208448286,275.78248014926913,0.015911690890789032,0.016244946047663692,-0.7495577335357666,0.661548376083374,0.025238234613734308,0.012495730069920928,0.08301296223204588,-0.3007327914237976,0.014846796169877052,-0.08009583503007889,0.1090628145262599,-0.6502275567501784,-10.018854357004166
17.5,0.699999988079071,324.0,22.704687118530273,25.032184600830078,-79.78274573136078,40.4589917716348,275.7649832654,0.00511716865003109,0.005783429369330406,-0.7467767000198364,0.6650301218032837,0.057447794339160974,0.01778408383862317,0.1450654341023845,-0.3224590420722961,0.033929478377103806,-0.09082559496164322,-0.059808610752224926,-0.1651732075586915,-10.5325135409832
17.7,0.8000000119209291,320.0,23.23806190490723,18.034624099731445,-79.78274567424876,40.45899162145875,275.81573650121686,-0.005920701194554567,-0.005549098830670118,-0.7422606348991394,0.6700621843338013,0.09466405338756788,0.04368863245185935,0.35460620075735005,0.06231242790818215,0.020716601982712742,0.06840147078037262,0.07122653271071612,0.0646566286124289,-10.961281678676606
17.8,0.8999999761581421,303.0,23.17671012878418,18.980884552001953,-79.78274564897346,40.45899165642654,275.8147207188606,-0.005974122788757086,-0.006103416904807091,-0.7409432530403137,0.6715133786201477,0.06042888730729036,0.05310792095579343,0.31334859074193105,-0.07644690573215485,-0.029511602595448494,-0.08416756987571716,0.07243926807772369,0.1456068434100598,-9.952426478862764
18.01,0.8999999761581421,291.0,23.09657859802246,19.855579376220703,-79.78274547570653,40.458991606733576,275.8324552464485,-0.006176217924803495,-0.007771949749439955,-0.7399001717567444,0.6726435422897339,0.03917748245480822,0.07759317634628668,0.1522225808177873,0.010042506270110607,0.008848133496940136,0.011775707826018332,0.1776058863848448,-0.06451511228922754,-9.249439129829408
18.1,1.0,267.0,23.00893592834473,20.68256378173828,-79.78274538363404,40.458991576944534,275.8450238990784,-0.006031390279531479,-0.007361745927482843,-0.7401242852210999,0.6724028587341309,0.027271699713686967,0.09224380204589176,0.10115125004361518,0.0990021601319313,-0.014249203726649284,0.08196821808815002,0.1810088562592864,-0.11563908660784365,-9.289936360716819
18.3,1.0,255.0,22.93882179260254,21.27099609375,-79.78274534297788,40.45899159017589,275.84563603878024,0.0002102115540765226,-0.007073939312249422,-0.7416765093803406,0.6707203984260559,-0.035275130760273464,0.08268344547033102,0.044224050550975856,0.020470404997468,-0.0387759767472744,0.045569922775030136,0.2425220765545965,-0.1847701690904796,-9.470150470733644
18.4,1.100000023841858,235.0,22.94508171081543,21.34256172180176,-79.78274524011174,40.458991621944,275.8487580108643,0.001729507464915514,-0.00687049049884081,-0.7425922155380249,0.6697064042091371,-0.0372756141540567,0.08743838551532593,0.0154716210222504,0.13058993220329285,0.06586539000272751,0.0649188980460167,0.15041484438814226,-0.049944403627887365,-9.498904738426207
18.6,1.100000023841858,227.0,22.85869026184082,22.59894180297852,-79.78274499753005,40.45899150716086,275.85271128892896,0.006627583876252174,-0.005267911124974489,-0.7438499927520752,0.6682930588722229,-0.046399322350461,0.09535546075920276,0.043823469093666516,0.17009016871452332,0.10994377732276917,0.15754848718643188,0.15548243433237074,0.15439136216416954,-9.609475001692774
18.7,1.100000023841858,215.0,22.78857421875,22.54327964782715,-79.78274487116995,40.45899155824728,275.85728052139285,0.007073784247040749,-0.006777232978492975,-0.7444835901260376,0.6675689220428467,-0.08524225312453583,0.10428834465582963,0.04394494275973738,-0.12259329110383987,-0.026584086939692497,-0.0844549685716629,0.20249455980956554,0.15671853572130204,-9.771346980929373
18.9,1.100000023841858,210.0,22.72972869873047,23.71219062805176,-79.78274461340014,40.458991545332076,275.8603835391998,0.011505227535963058,-0.00834426563233137,-0.7457197904586792,0.6661081314086914,-0.08722345013766279,0.10037555511068308,0.09295527358567557,-0.04305148869752884,-0.014075011014938353,-0.09631339460611343,0.11430507176555693,-0.2563230038434267,-9.917768862247467
19.0,1.100000023841858,204.0,22.73849296569824,23.338457107543945,-79.7827445280771,40.458991518184476,275.8513852643967,0.01465403288602829,-0.006064386107027532,-0.7462929487228394,0.6654287576675415,-0.061356636273174475,0.0919188088220139,0.11394354837520765,0.1386795938014984,0.07198876887559891,0.1071816012263298,0.11560033053159716,-0.12806811092421413,-9.993618943691256
19.2,1.100000023841858,198.0,22.730979919433594,22.805686950683594,-79.7827443347282,40.45899161609107,275.8789462733269,0.019405169412493702,-0.005657241214066744,-0.7467820048332214,0.6647617816925049,-0.06606979947845062,0.07080079582185668,0.1430855093239261,-0.02042320370674133,0.06126091629266739,0.00789023842662573,0.1973344285413623,-0.027417502831667655,-9.856353217363358
19.3,1.0,196.0,22.619548797607425,24.3801383972168,-79.78274422435369,40.4589915596826,275.8699546146393,0.018155274912714958,-0.0054805162362754345,-0.7466676235198975,0.6649269461631775,-0.06319436524105622,0.07384239192767138,0.14131609238282766,-0.14615072309970856,-0.11006340384483336,-0.08334232866764069,0.16684423215687275,0.013641901295632123,-9.891958082914352
19.5,1.0,193.0,23.11661148071289,21.119911193847656,-79.7827440722496,40.4589915727266,275.8805123257637,0.016249652951955795,-0.007050621323287488,-0.746578574180603,0.6650614142417908,-0.04027342067651194,0.05586492030710785,0.07543116395880592,-0.03656129166483879,-0.05247658863663674,-0.0547182634472847,0.06505364085081965,0.001362876333296299,-9.948895930051805
19.6,1.0,188.0,22.54317283630371,24.984474182128906,-79.78274399699376,40.45899159970031,275.88253179073337,0.012409391812980177,-0.004406692460179329,-0.7469450235366821,0.6647554039955139,-0.037812854086428885,0.05759087882816705,-0.02281653183330028,-0.05556485801935196,-0.15609948337078094,0.034436561167240136,0.26479631368070844,-0.125858301948756,-9.02198185622692
19.8,1.0,183.0,22.166305541992188,29.707826614379893,-79.78274385706223,40.4589916163353,275.8591234970093,-0.0007638997631147504,0.003099537454545498,-0.7475452423095703,0.6642032861709595,-0.0497346491507436,0.04471199174271314,0.0872177777631333,-0.015786295756697655,-0.06869387626647949,-0.07682335376739502,0.1330063403584063,0.08735391179099679,-10.378839358091355
19.9,1.0,177.0,22.19510269165039,28.98421669006348,-79.78274378961474,40.458991652074964,275.8740634608269,-0.0015269301366060972,0.003935324028134346,-0.747426450252533,0.6643311977386475,-0.039774839344071417,0.05163554393311935,0.22034675114923385,0.11663541942834856,0.13002349436283112,0.12192150205373765,0.008252233123057522,-0.20378410840407016,-10.979892196655276
20.1,1.0,176.0,21.716819763183594,35.043468475341804,-79.78274372454445,40.45899154723279,275.90572109699247,0.008316471241414547,-0.0034567816182971,-0.7468678951263428,0.6649114489555359,-0.034787076499078994,0.06986313309636216,0.5190918567271052,0.029976241290569305,0.14447586238384247,0.05468648672103882,0.015110943422187119,-0.3079335989803076,-11.291174569129947
20.2,1.2000000476837158,168.0,21.746868133544922,34.113109588623054,-79.78274363861601,40.45899157634013,275.96805778026584,0.0095161572098732,-0.0073119024746119985,-0.7465866208076477,0.6651800274848938,-0.054680073622014734,0.07614048269006155,0.7307447868241855,-0.08161961287260057,0.062478385865688324,-0.055816348642110825,0.2325245620496572,0.09776983112096788,-11.862384388446806
20.4,1.2000000476837158,166.0,21.50897979736328,37.325626373291016,-79.78274351150563,40.45899154697782,276.12270447492597,0.012327468022704123,-0.007737359032034873,-0.7467349767684937,0.6649624109268188,-0.05181727346400016,0.07802354743069631,1.1586507249163325,-0.011803464964032171,-0.10016555339097977,-0.06169639900326729,0.18458464790135626,-0.04142939126584679,-11.981866393089295
20.5,1.2999999523162842,162.0,21.267333984375,39.32947540283203,-79.78274351348618,40.45899147750279,276.2104299354553,0.0108328340575099,-0.004214925691485405,-0.7471461892127991,0.6645581722259521,-0.05409459099791624,0.06705989252226409,1.3784620333732962,-0.005087064113467932,-0.11916059255599976,0.06041038408875465,0.16111984457820655,-0.17159250017255545,-12.268735470771787
20.61,1.399999976158142,159.0,21.417579650878906,38.33550262451172,-79.78274348984091,40.45899151485168,276.3618892717362,0.009363952092826366,-0.003664337564259768,-0.7471266984939575,0.6646056175231934,-0.05703743320075121,0.04809943257228613,1.6436210789596766,0.010508934035897257,-0.0674210637807846,0.057481035590171814,0.1383031228836626,-0.1723640037328005,-12.38874138593674
20.8,1.600000023841858,156.0,21.321170806884766,38.12080383300781,-79.78274345128847,40.45899146102345,276.66343560695645,0.007952700369060041,-0.0013356369454413652,-0.746042013168335,0.665850043296814,-0.05723883046677225,0.03607100810121977,2.0878530641494395,-0.019796347245573997,-0.0579054169356823,-0.050589688122272485,0.07589275698177518,-0.11880115119740367,-12.269722480773929
21.0,1.7999999523162842,153.0,21.351221084594727,37.47671127319336,-79.78274344705525,40.45899149578995,276.88470736026767,0.006126692518591882,0.0006618773331865668,-0.7455627322196959,0.66640704870224,-0.05797910719244305,0.029078521328697406,2.3391244745129987,0.05191522091627121,-0.007328784093260766,-0.02985695004463196,0.05343190231360495,-0.1836898411810398,-12.348675094842914
21.1,2.0999999046325684,156.0,21.451385498046875,36.24418640136719,-79.78274339167425,40.45899147109645,277.2909677314758,0.0070382016710937014,0.00666167587041855,-0.7456350922584534,0.6662840843200684,-0.0510290389306662,0.01999364063312317,2.7161129287500523,0.11489920318126676,0.02657497301697731,-0.002994600450620055,0.11040730867534876,-0.03958940497599543,-12.126827055215836
21.3,2.299999952316284,158.0,21.815731048583984,31.75938415527344,-79.78274324835685,40.45899135326609,277.6945638942719,0.007191261276602745,0.010526529513299463,-0.7471234798431396,0.6645630598068237,-0.055718170336564385,0.019663121462307084,2.9188903983906624,-0.005372102372348309,0.06533267349004745,-0.0195859856903553,0.007192162047140301,-0.09954343780875206,-11.416957533359527
21.41,2.5,160.0,21.7744140625,32.061553955078125,-79.78274319775268,40.45899133433426,277.992325334549,0.008035467937588692,0.00758841959759593,-0.7476925253868103,0.6639531850814819,-0.055085156973948335,0.031642618910735706,3.0326009290902185,-0.06643126159906387,0.058651257306337364,-0.08276302367448808,0.06412618565373122,-0.04970716198906303,-11.018063989877698
21.5,2.5999999046325684,160.0,21.83075523376465,31.20276069641113,-79.7827430683637,40.45899120702938,278.08038285255435,0.009415102191269398,0.004625382367521524,-0.7480346560478209,0.6635769009590149,-0.016707761009973142,0.051492706085539436,2.9747527800475675,0.03389260917901993,0.03452800959348678,0.028218276798725125,0.09375732555985453,-0.17698511308059098,-10.813326072692874
21.7,2.799999952316284,161.0,22.177574157714844,27.05988693237305,-79.78274295261829,40.45899110584904,278.68781879425046,0.011527455411851406,0.003435069229453802,-0.7481330633163452,0.6634396910667419,-0.010459542087096466,0.08645218897462739,3.0780714188587672,-0.04763701185584068,-0.024036169052124023,-0.0365193746984005,0.1214938762318343,-0.0710941937752068,-10.24119473218918
21.9,2.9000000953674316,161.0,22.304031372070312,25.93868637084961,-79.7827428289483,40.4589910313096,278.7833395290375,0.012411282397806644,0.003327174810692668,-0.748047411441803,0.6635209321975708,-0.0063805846822360965,0.07464996856025091,2.9514251993000555,-0.05754107981920242,0.027101254090666767,-0.04211735352873802,0.13092050149105489,-0.02443376918323338,-9.880115132331849
22.0,3.0,165.0,22.193851470947266,26.89289855957031,-79.78274269190071,40.45899081271703,279.2550852584839,0.011135906912386416,0.003565074410289526,-0.747624397277832,0.6640188694000244,0.02351289865874236,0.07413032004722206,2.7935067511398084,0.010609163902699949,-0.05438144505023956,-0.04887054488062858,0.20910732217133046,0.04843117162585259,-9.402417494058607
22.2,3.0999999046325684,164.0,22.129995346069336,27.48928260803223,-79.78274263089963,40.45899063396718,279.80399539947507,0.010813022032380104,0.003274964168667793,-0.7466196417808533,0.665155291557312,0.04181334050275936,0.05827017923180521,2.695746606892451,-0.07431452721357346,0.049456920474767685,-0.04513730481266976,0.0913598666433245,-0.15132818860933187,-9.343989191651344
22.3,3.2000000476837163,164.0,22.21138000488281,26.54302215576172,-79.78274275588603,40.45899069207024,279.9504668998718,0.011239532381296158,0.0011424871627241373,-0.7464008331298828,0.6654007434844971,0.03054472973017036,0.032476686005187265,2.568276299561344,-0.08575154840946198,-0.01750076375901699,-0.06152462586760521,0.06171331384219229,-0.14268587596714494,-9.401679575443268
22.5,3.2000000476837163,164.0,22.16254997253418,27.234825134277344,-79.78274276494486,40.45899060696611,280.2052004623413,0.012753410264849665,-0.001746767433360219,-0.7464392781257629,0.665329098701477,0.046895765653263866,0.03137887554578705,2.5274369750469656,-0.05485059320926666,0.03881239518523216,-0.055363979190588,0.1324866325221956,0.04805304863490165,-9.414865046739578
22.6,3.2000000476837163,166.0,22.232664108276367,26.09772109985352,-79.78274236704064,40.45899038559255,280.96632221221927,0.013864119537174702,-0.005450619384646416,-0.7470470070838928,0.6646043062210083,0.04717058889512355,0.07135678556462433,2.5902569609302546,-0.020405292510986328,0.039756305515766144,0.01239717286080122,0.1079702531453222,0.09547298085875808,-9.570578738451005
22.8,3.0999999046325684,168.0,22.091182708740234,27.77554702758789,-79.78274191324138,40.458989827341405,281.67365625381467,0.016403311863541603,-0.005167741794139147,-0.7476176619529724,0.6639067530632019,0.08227220387534248,0.07501446922663821,2.5988224175164234,-0.02001721225678921,0.015085290186107159,0.02802886813879013,0.12774273164570332,-0.3169379090890289,-9.469037745594981
22.9,3.0999999046325684,170.0,22.17381858825684,26.61458778381348,-79.78274193200869,40.45898971425607,281.93216875076286,0.015829704701900482,-0.005777918733656406,-0.7477846741676331,0.6637274622917175,0.06951262374302176,0.06969561037477241,2.574209649818717,-0.10525179654359818,-0.008927281945943829,-0.11302155256271362,0.11778653137385844,0.16547258500009776,-9.507178548574448
23.0,3.0999999046325684,172.0,22.073654174804688,27.457475662231445,-79.78274171082933,40.4589893468648,282.315496711731,0.013729777187108994,-0.006687774322926997,-0.7477462887763977,0.6638090014457703,0.08933436445077686,0.0719402971305845,2.606393758151912,-0.06893207132816315,-0.07078170776367188,0.017779620364308357,0.1234280712157488,-0.09541032428853216,-9.629225726723671
23.2,3.0999999046325684,175.0,22.166305541992188,26.686153411865234,-79.78274178286122,40.4589891134907,282.8348853874207,0.010521430522203444,-0.0075866742990911016,-0.7469432950019836,0.6647613048553467,0.1116862517788566,0.04460518921215065,2.58547724852623,-0.014251786284148691,0.04981483146548271,-0.019275637343525887,0.14947093019261956,-0.08650444840081037,-9.656134028434757
23.4,3.0999999046325684,177.0,21.972238540649414,28.7218074798584,-79.78274148671821,40.45898872220331,283.23429420471194,0.010668153874576092,-0.007057522889226675,-0.7462236881256104,0.6655724048614502,0.11719705100622378,0.055141184682157035,2.629298501142161,-0.0022892446722835307,-0.0015397064853459597,-0.06297668814659119,0.13453006993979216,-0.14373831083066765,-9.670001869797707
23.5,3.0999999046325684,179.0,22.0673942565918,27.38591003417969,-79.78274127521394,40.45898824223717,283.91778591156014,0.013828404247760773,-0.005689695943146944,-0.7462811470031738,0.6654629707336426,0.10724272674258338,0.05155618892048937,2.6972479157520453,0.02532813884317875,0.04749511554837227,0.0451248474419117,0.1860279965400696,-0.1895188939198852,-9.777701734900477
23.7,3.0999999046325684,181.0,22.047361373901367,27.855064392089844,-79.78274136519148,40.45898800720473,284.45459487915036,0.017527658492326736,-0.004549533128738403,-0.7465659379959106,0.6650649905204773,0.08337689444609968,0.044017106629460234,2.6674123722472745,-0.0817360207438469,-0.06916191428899765,-0.0746552124619484,0.15735818456858394,0.060723343687132,-9.686998556256297
23.8,3.0,185.0,21.99978256225586,28.1572322845459,-79.78274113281736,40.45898765064251,284.8923056411744,0.017339391633868214,-0.0054186834022402755,-0.7469415068626404,0.6646416187286377,0.09644533366139348,0.051854057653701525,2.7438185328254043,0.030064554885029793,0.05555032566189766,0.06441989541053772,0.24565430207178,-0.1255854379758239,-9.734975545406344
24.0,3.0,185.0,22.073654174804688,28.022050857543945,-79.78274119483245,40.45898752433496,285.1665470886232,0.01528310589492321,-0.007937291637063026,-0.7474191188812256,0.6641296744346619,0.10273546189211476,0.04599616844069196,2.7445766739431985,-0.019113965332508087,0.058922436088323586,0.0395408570766449,0.12110209451057018,-0.1653700029104948,-9.748281469345091
24.1,3.0,188.0,22.11246681213379,26.781574249267567,-79.7827410759645,40.458987188530905,285.87057426452634,0.009888798929750921,-0.00971913244575262,-0.7478394508361816,0.6637349128723145,0.123858111263994,0.035151306194594716,2.8170902935750215,-0.02292656898498535,-0.003347569378092885,0.04631283134222031,0.1929822728410364,-0.19422811349853875,-9.769101650118827
24.3,3.0,189.0,22.0035400390625,28.11747169494629,-79.78274097458876,40.458986701815185,286.58972385406486,0.00792839378118515,-0.008474859409034252,-0.7472916841506958,0.6643948554992676,0.12254008525080012,0.02992515270588662,2.8909887850243616,0.06363495439291,-0.02003416419029236,-0.0278786588460207,0.18190209154039624,0.14579214532859625,-9.713963575959204
24.4,3.0,190.0,22.151281356811523,25.318449020385746,-79.78274103918919,40.458986601642096,286.87865856170663,0.008092092350125313,-0.007893720641732216,-0.7470868229866028,0.6646303534507751,0.11890338380641848,0.023056480478585287,2.8879373794276155,0.08140572905540466,0.05426821857690811,0.05241445451974869,0.1988110880367458,-0.15524337457492948,-9.737641291022301
24.5,3.0,191.0,22.097442626953125,26.90085029602051,-79.78274090088316,40.45898625429525,287.2815878677368,0.008891561068594456,-0.007226060610264541,-0.746947169303894,0.6647846698760986,0.11812514688194055,0.021840440422303528,2.9401409899735063,0.042821478098630905,0.08512955158948897,0.007965981960296629,0.16829755760729315,-0.10136862790212037,-9.577296019792557
24.7,2.9000000953674316,190.0,22.022319793701172,27.218921661376953,-79.782741042577,40.458986060495945,287.8662264633178,0.01075627841055393,-0.00691128708422184,-0.7469584941864014,0.6647477149963379,0.08959577294024097,0.020240388172022644,2.916894090081481,0.013079002499580385,-0.027198251336812973,-0.06478482484817505,0.2934058993309737,0.039729034658521414,-9.729674459695817
24.8,2.9000000953674316,191.0,21.975994110107425,27.77554702758789,-79.78274102248436,40.458985843757375,288.2253325271607,0.010130436159670351,-0.0069833574816584604,-0.7472296357154846,0.6644520759582521,0.07485220407485421,0.01793278646322125,2.9673034055948984,-0.024471018463373184,0.02255677804350853,-0.009184779599308971,0.2008075832761824,0.04679581504315138,-9.7822356659174
25.01,2.799999952316284,193.0,21.86080551147461,29.501081466674805,-79.78274118834031,40.45898569186495,288.81967952728274,0.007589747663587331,-0.008318222127854824,-0.7472383975982666,0.6644607782363892,0.08572246250802731,0.0016978562217645002,2.9775005046182828,0.06135683134198189,0.07517401874065399,0.07661310583353043,0.1789885518886149,-0.32882961083203555,-9.867241902351381
25.2,2.799999952316284,193.0,22.103702545166016,26.081817626953125,-79.78274120692213,40.45898547208565,289.45380714416507,0.007667835801839827,-0.0089070750400424,-0.7465047240257263,0.6652764081954956,0.0729790078653648,7.941185333492848e-05,3.023039782728706,-0.007082797121256591,-0.03423135727643967,-0.03369630128145218,0.11440949024632575,-0.10344353978522122,-9.932873389720918
25.3,2.799999952316284,192.0,21.9309196472168,28.70590400695801,-79.78274123846954,40.45898538254421,289.7687065887452,0.00859921332448721,-0.008038878440856934,-0.7462925910949707,0.6655139923095703,0.04718068121695468,-0.005778129377197345,3.0213228139410737,-0.017458340153098106,0.007365148514509202,-0.08137226104736328,0.18353934846818448,0.12846723821014167,-9.720731143355373
25.5,2.799999952316284,191.0,22.031084060668945,26.84518814086914,-79.78274133673185,40.45898534450604,290.07072475433347,0.008343561552464962,-0.007201118394732475,-0.7464893460273743,0.6653060913085938,0.04257146055306248,-0.007794457630460769,3.0265881502076666,0.011031392961740494,-0.046283639967441566,0.07065434008836746,0.1530113827250898,-0.10090372857637704,-9.848634892702103
25.6,2.799999952316284,189.0,21.758136749267575,29.49312973022461,-79.78274149655563,40.45898521854888,290.6892111587525,0.008717453107237816,-0.004954657983034849,-0.7470325827598572,0.6647118330001831,0.030566269975408605,-0.026507738754478115,3.0478579899948217,-0.05595521628856659,-0.025330303236842155,-0.06423226743936539,0.10876972284168006,-0.05108821950852871,-9.873068068027496
25.8,2.799999952316284,190.0,21.924659729003906,27.60855865478516,-79.78274161330769,40.4589850742754,291.3055546569824,0.006609949748963118,-0.004312076140195131,-0.74709153175354,0.6646743416786194,0.01482044733526584,-0.030624858595968182,3.0763262483514557,-0.053536463528871536,-0.03455251455307007,-0.07268477976322174,0.2029657174833119,0.016460213558748358,-9.952334092855454
25.9,2.5999999046325684,193.0,21.945945739746094,27.354103088378906,-79.78274171717564,40.458985044202784,291.61320426940915,0.004015706945210695,-0.00451865466311574,-0.7467593550682068,0.6650668382644653,0.046669496910956856,-0.03421343130208306,3.0791573176834937,0.08845045417547226,-0.0016450134571641686,0.06173717603087425,0.2248014865256846,-0.19161917723715308,-9.86555790424347
26.01,2.5,195.0,21.932172775268555,27.5369930267334,-79.78274181334699,40.45898501470488,291.921134262085,0.0026541228871792555,-0.0043578180484473705,-0.7463877201080322,0.6654918789863586,0.04196412861125636,-0.033182818139805656,3.0804372925826384,-0.018941571936011314,0.0006460224976763129,0.011029326356947422,0.14378441247157753,-0.05429184957873077,-9.811013907194136
26.2,2.5,198.0,21.85454559326172,28.713855743408203,-79.78274193431416,40.45898489059977,292.53960350036624,0.001970587996765971,-0.005226897075772286,-0.745693027973175,0.6662662029266357,0.03208076110676921,-0.03313553528499971,3.0641818385631487,-0.04721815511584282,0.03272382542490958,-0.07372230291366577,0.2031241587549448,0.1587253001332283,-9.687795531749726
26.31,2.5,199.0,21.90462684631348,26.89289855957031,-79.78274196709275,40.458984817325465,292.85012939453134,0.002808995079249144,-0.005864946637302637,-0.7454914450645447,0.6664835214614868,0.02811633047192323,-0.01892829824563116,3.0669292650454536,-0.0028635463677346698,0.01048317365348339,0.0006400637794286013,0.2034122072160244,0.14633892394602302,-9.753690143823622
26.51,2.4000000953674316,199.0,21.97974967956543,26.550973892211914,-79.78274206742493,40.45898479633734,293.47036102294925,0.005424604751169682,-0.005508591886609793,-0.745412290096283,0.6665589213371277,0.0005764724886003177,-0.004097161525305771,3.0549891431579264,-0.027108408510684967,0.03855343908071518,-0.002217922126874328,0.21399820743128656,-0.06758120031561703,-9.67837976038456
26.7,2.4000000953674316,201.0,22.3641300201416,22.24906349182129,-79.7827421584258,40.45898481201235,294.0761120605468,0.006921790074557066,-0.005493510048836471,-0.7456243634223938,0.6663079857826233,-0.0020009251457768704,0.013084670710530176,2.989886717555214,0.1012660786509514,0.026425257325172424,0.11057642102241516,0.19915590930730107,0.252282760553062,-9.600199563503264
26.8,2.299999952316284,203.0,22.28900718688965,22.54327964782715,-79.7827421234305,40.45898481594392,294.3868897247315,0.007246709894388914,-0.006287266965955496,-0.7456497550010681,0.6662690043449402,-0.015707002843300108,0.015687708415414794,2.924831065484931,0.029531789943575863,-0.01917615719139576,0.04621043056249618,0.21851075956597926,-0.2364965939149261,-9.056136027574539
26.9,2.299999952316284,207.0,22.54818153381348,20.15774726867676,-79.78274215905863,40.458984828473,294.67423942565915,0.007805878296494484,-0.006467204075306654,-0.7459490895271301,0.6659259200096129,-0.013406883237171192,0.02403390218344555,2.8173191521940115,0.06943102926015854,0.06958003342151642,0.05854427441954613,0.18097560022026304,-0.03347402139566839,-8.771121686697006
27.1,2.299999952316284,210.0,22.508115768432614,21.14376640319824,-79.78274219183228,40.45898479707167,295.23807266235355,0.010669935494661331,-0.004340845160186291,-0.746806800365448,0.6649413704872131,-0.040806281859567466,0.02922586904493672,2.5824996306439383,0.008361339569091797,-0.013515082187950613,-0.042450301349163055,0.22260874411091208,0.05368516897782684,-8.378515069484711
27.3,2.299999952316284,211.0,22.63582420349121,19.97485542297364,-79.78274215186764,40.45898475944456,295.7336533355713,0.012770351022481918,-0.0037556840106844898,-0.7474607825279236,0.6641726493835449,-0.05066185197412392,0.02978305948032225,2.2970192834784657,-0.01136899832636118,-0.011161725968122479,0.00682244123890996,0.16104733910411598,-0.07984252374619245,-8.231434206962586
27.4,2.299999952316284,211.0,22.47430992126465,21.34256172180176,-79.78274217144273,40.458984777498884,295.95510604858396,0.01286033634096384,-0.004517144989222288,-0.7476240396499634,0.6639823317527771,-0.04589469943527015,0.028704692408880843,2.1354122587203648,-0.015835953876376152,-0.003674135077744722,0.03516032174229622,0.15366712968796492,-0.18526875386014585,-8.240069375038146
27.5,2.299999952316284,210.0,22.439252853393555,21.676536560058594,-79.78274212505676,40.4589847559136,296.17376640319833,0.012534751556813715,-0.00622055446729064,-0.7476397156715393,0.6639571189880371,-0.05046232192367745,0.03008922070484056,2.0216753695050818,-0.056863769888877876,0.02227170020341873,0.01699016056954861,0.14222591022960845,-0.07155248757451774,-8.384189207553863
27.7,2.299999952316284,208.0,22.191347122192386,24.02230834960937,-79.78274216375317,40.4589847949306,296.5561650085449,0.01165249478071928,-0.007843908853828907,-0.7474362850189209,0.6641850471496582,-0.042908260822990735,0.029328009995475593,1.8262741493099928,-0.03424189239740372,-0.061418607831001275,-0.004499640315771103,0.21135663639754051,-0.07011572618968785,-8.90385114312172
27.8,2.299999952316284,208.0,22.16254997253418,24.54712677001953,-79.7827420954747,40.458984766042036,296.7645943450928,0.011639091186225414,-0.007522428873926401,-0.7471175789833069,0.6645474433898926,-0.03720448041210863,0.030259987076832525,1.8042424665546268,0.019277499988675117,-0.023865126073360443,-0.03905422985553742,0.246772381067276,-0.06647215252742171,-9.168481505513194
28.01,2.200000047683716,210.0,22.277738571166992,22.96472358703613,-79.78274201017766,40.45898476242631,297.169877319336,0.012444195337593555,-0.006604338064789772,-0.7465037107467651,0.6652321219444275,-0.0593772939045905,0.036686284230122816,1.7675748077530855,-0.11444757133722305,-0.07732616364955902,-0.04879649728536607,0.18558655003085733,0.008198495269753041,-9.287068301439287
28.2,2.200000047683716,209.0,22.355365753173828,22.31267738342285,-79.78274203563139,40.458984817167455,297.5123455810546,0.014125701040029526,-0.004721987061202526,-0.7461429238319397,0.6656191945075989,-0.03484220425872789,0.027737551063875817,1.6601985093684983,0.11057870835065843,0.11073511838912964,0.029443373903632164,0.2907549179345369,-0.21511164519935846,-9.30228918850422
28.31,2.0,209.0,22.339088439941406,22.304725646972656,-79.78274192016322,40.458984800080316,297.7361977386475,0.015395197086036204,-0.0036191877443343397,-0.7461910247802734,0.6655440926551819,-0.047364083033971084,0.03751030468960248,1.6623018608321871,0.05314936488866806,-0.029515078291296962,0.046030838042497635,0.16825878325849772,-0.15041868162341418,-9.147607530355453
28.4,2.0,209.0,22.371641159057614,21.92304039001465,-79.78274192548056,40.45898482343009,297.8989613342285,0.016289841383695602,-0.0029264530166983604,-0.7463541030883789,0.6653433442115784,-0.05244892987577991,0.03701821893793157,1.5917316203308467,-0.017580412328243256,-0.057771235704422,-0.04690990597009659,0.2302018287219107,-0.11743487617000938,-9.1124932461977
28.6,1.8999999761581416,209.0,22.319055557250977,22.52737617492676,-79.78274182844626,40.45898481245378,298.2667420196533,0.01581457257270813,-0.003884220728650689,-0.7466164827346802,0.6650554537773132,-0.038062421940210985,0.03786322416983385,1.5141894511665992,-0.00419884966686368,-0.004886993672698736,-0.017318533733487133,0.3164113673195243,-0.2087068792618811,-9.180596936345099
28.7,1.7999999523162842,209.0,22.478065490722656,19.6965446472168,-79.78274183200486,40.45898482254208,298.4155304718018,0.014489424414932728,-0.004695870913565161,-0.746624231338501,0.6650717258453369,-0.02516947408578355,0.03589555765291606,1.4538678253264952,0.04031576961278915,-0.003336563240736723,0.08136463910341263,0.27018004612997176,-0.3129832544177771,-9.19375434100628
28.9,1.7000000476837158,209.0,22.75226593017578,17.318964004516598,-79.78274167953595,40.45898483795227,298.7193787384033,0.009218480437994005,-0.0043120430782437325,-0.7353032827377319,0.6776618957519531,-0.06482487745004617,0.03221499338670596,1.0673228037850495,-0.057184793055057526,-0.054237466305494315,-0.6580364108085632,0.14114834147505462,-0.247429023385048,-7.429347662329675
29.1,1.600000023841858,209.0,22.47430992126465,21.000635147094727,-79.7827416301685,40.45898497481228,298.8598034667968,0.007805909030139445,-0.003430333686992526,-0.6771971583366394,0.735752284526825,-0.07021898709813146,0.0204766460179175,0.6915681031173521,0.013971294276416302,0.007217695470899342,-0.869170069694519,0.08579981323331595,-0.07162025589030238,-8.053221598863603
29.2,1.600000023841858,206.0,22.478065490722656,21.09605598449707,-79.78274161585823,40.458985031195176,298.92265251159665,0.0092036509886384,-0.002647560089826584,-0.6442388296127319,0.7647644281387329,-0.06164373484774865,0.026388523651008768,0.5678738106258336,0.06409291177988052,0.014341621659696104,-0.800710141658783,0.16678945105522872,-0.13341707984916867,-8.458561112880707
29.3,1.5,200.0,22.4567813873291,21.930992126464844,-79.78274159275756,40.458985133132856,298.91688659667966,0.011118432506918907,-0.0016868400853127241,-0.6129876971244812,0.7900123596191406,-0.06665947576841902,0.03818463466260777,0.4701036910192792,-0.011774838902056215,-0.014580855146050453,-0.7951840758323669,0.1773217665217817,0.09660333900712433,-8.799258488416672
29.5,1.5,203.0,22.355365753173828,22.980627059936523,-79.78274157765672,40.45898530633411,298.9106381225586,0.012033558450639248,-0.000605752517003566,-0.5656771063804626,0.8245389461517334,-0.029503428638026657,0.06279613450595528,0.3345616704206825,0.05705742537975311,0.02662983164191246,-0.3367907702922821,0.2169551078416407,-0.04884278819896281,-9.257137573957444
29.7,1.399999976158142,205.0,22.21388435363769,23.664478302001953,-79.78274152404411,40.458985343172934,298.94333198547366,0.014342825859785082,2.0367815523059107e-05,-0.55079185962677,0.8345194458961487,-0.01774242020460253,0.07336410790855295,0.32772918442326143,0.03661026433110237,-0.003053146414458752,-0.30619415640830994,0.3836764205619693,0.033264983436092736,-9.664563959240915
29.8,1.399999976158142,197.0,22.15629005432129,23.96664619445801,-79.78274129891332,40.458985481878045,298.9272682952881,-0.00747720943763852,0.02339124120771885,-0.5372461676597595,0.8430679440498352,0.005239718692080944,0.19212827782563446,0.32111353645933033,-0.07109542936086655,-0.6541600227355957,-0.08776873350143433,0.595835550762713,0.0601259501092136,-9.772411174178124
29.9,1.2999999523162842,188.0,22.20011138916016,24.23700714111328,-79.78274103131268,40.458985536242416,298.95971611022946,-0.03335331380367279,0.04060123488306999,-0.5363258123397827,0.8423738479614258,0.04028429062340325,0.2682556646702916,0.3389293516520753,-0.01568937674164772,-0.629136323928833,-0.0009433103259652852,0.28760352451354265,0.03656435709446669,-9.83105348467827
30.1,1.2999999523162842,187.0,22.151281356811523,24.84134101867676,-79.78274001189524,40.45898601902713,298.9862740325928,-0.07163206487894057,0.0619562640786171,-0.5402498245239258,0.8361582159996033,0.05495478056801627,0.5194837505833907,0.43792773575715743,-0.09582868963479996,-0.33348163962364197,0.0002794462780002505,0.06010798362549395,0.04041448364965618,-9.934187843799592
30.2,1.2999999523162842,185.0,22.172565460205078,24.05411529541016,-79.78273924386588,40.45898620821164,299.02149894714364,-0.08152979612350464,0.0659179762005806,-0.5440415740013123,0.8324821591377258,0.08672864451186515,0.7024107054944784,0.4958910358570381,0.10068529844284058,-0.06984647363424301,0.2091827690601349,0.0606174177210778,-0.1572763600945473,-10.009049745798114
30.4,1.2999999523162842,168.0,22.0423526763916,25.20712280273437,-79.7827373869565,40.458987106543134,299.05902984619144,-0.08984371274709703,0.07008396089076996,-0.5516536235809326,0.8262534141540527,0.059543900306574624,1.1025384848415491,0.6349543316315869,0.08245983719825745,0.00381759344600141,0.07276587933301926,0.15093580389395356,-0.06684275636449456,-10.120777173042297
30.6,1.2999999523162842,164.0,22.14627265930176,24.06206703186035,-79.78273483191005,40.458988391746026,299.04813888549813,-0.09702426195144652,0.07819221913814545,-0.5561171770095825,0.8217092156410217,-0.0042383154670699716,1.527744251073608,0.7462049139495196,-0.03802686557173729,-0.19970576465129847,-0.0193776898086071,0.014402831902261826,-0.0039905054122209545,-10.079466594457628
30.7,1.399999976158142,154.0,22.043603897094727,25.270736694335927,-79.78273287068896,40.458988978148795,299.08390739440915,-0.10048498958349228,0.0824580267071724,-0.5571844577789307,0.8201518058776855,0.016284673336358708,1.7658526748180934,0.8126479611608267,0.14775507152080536,-0.0407496765255928,0.1605415940284729,0.01437345877988264,-0.3355382675305009,-10.051457262039184
30.8,1.399999976158142,147.0,21.922155380249023,26.02615547180176,-79.78273123497266,40.458990164936104,299.0017807769776,-0.10477887839078903,0.08560333400964737,-0.5567459464073181,0.8195897340774536,-0.041001668153278055,1.9819200596843167,0.8629770020058036,0.03583626076579094,-0.11018746346235277,0.011737649329006672,0.06288524660747499,-0.3500051195919514,-10.195035642385482
31.0,1.600000023841858,129.0,22.04110145568848,26.10567283630371,-79.78272636155313,40.45899246079843,298.9541561889649,-0.11465556919574738,0.09145563840866087,-0.5549763441085815,0.8188353180885315,-0.1029109533891856,2.4742217258721744,1.041695786010449,-0.16620583832263947,-0.14518891274929047,-0.08510517328977585,-0.17512403570115567,0.18274588130414487,-10.215905524492264
31.21,1.7000000476837158,121.0,21.93592834472656,26.495309829711914,-79.78272331211961,40.458993445466064,298.9858868408204,-0.11902400851249695,0.09456710517406464,-0.553706169128418,0.8187183737754822,-0.07256039615887971,2.7330120216680402,1.1631756419890371,-0.017130693420767784,-0.17042653262615204,-0.007971814833581448,-0.15221374028362333,-0.1527689060010016,-10.369930540323258
31.3,2.0,107.0,21.978498458862305,25.42182159423828,-79.78271652180827,40.458996312875826,298.9591458129883,-0.12457188218832015,0.10228752344846724,-0.5504856705665588,0.8191366195678711,-0.08987705397749057,3.2537586132044716,1.398694014872282,0.010655580088496208,-0.02445265091955661,-0.067490354180336,-0.3648566088080407,0.07346371396444737,-10.350599645376207
31.5,2.200000047683716,101.0,22.05111694335937,24.984474182128906,-79.78270856702062,40.45899977808532,298.94647720336917,-0.1206059232354164,0.105040542781353,-0.5490244626998901,0.8203614354133606,-0.11121203280384087,3.775318029812973,1.5965491192272694,0.0014174837851896882,0.09000977873802185,-0.12576916813850406,-0.31255812529474497,0.007763530947268009,-10.26502564430237
31.6,2.5999999046325684,87.0,22.137508392333984,24.01435661315918,-79.7827039805516,40.4590012668946,298.97789505004886,-0.1179407462477684,0.10465515404939653,-0.5492930412292479,0.8206183910369873,-0.08496580390408573,4.045576331725096,1.6547290725851784,-0.04951922595500946,-0.017601240426301956,-0.05807546153664589,-0.4223847689107061,-0.1568866066262126,-10.092369060516358
31.7,2.9000000953674316,82.0,22.2426815032959,22.551231384277344,-79.78269909449429,40.459002826379134,299.0066006469727,-0.116785429418087,0.10411705821752547,-0.5497708916664124,0.8205320835113525,-0.04764338711463745,4.307333591308908,1.6743220773381993,-0.0008318905020132661,-0.006321216002106666,0.015475677326321604,-0.4562255660444498,-0.2436627952381969,-9.766968585848806
31.9,3.4000000953674316,75.0,22.1062068939209,23.942790985107425,-79.78268916620894,40.45900731593953,298.96574333190915,-0.11544828116893767,0.10230432450771333,-0.5496286749839783,0.8210443258285522,-0.09543130668870534,4.789200670944923,1.6793508558236858,-0.06299588084220886,0.03759458661079407,-0.07723010331392287,-0.6407758980989456,0.1384861955512315,-9.674542817473412
32.1,3.5999999046325684,72.0,22.172565460205078,23.17146873474121,-79.78268424389384,40.45901040374382,298.9138768005372,-0.11323921382427216,0.10251270234584807,-0.5487876534461975,0.8218882083892822,-0.17216081558933355,5.014515403443706,1.6765029476900692,0.0883164256811142,0.0008049416355788707,-0.01296664122492075,-0.5795400550961495,-0.1230219089984894,-9.693428154587746
32.2,4.199999809265137,69.0,22.158794403076172,23.322553634643555,-79.78267234491891,40.459014370727786,298.9235585021973,-0.11051316559314728,0.1058131828904152,-0.5517886281013489,0.8198290467262268,-0.13021768558999994,5.460263319110376,1.7011428645721132,0.10682135075330734,0.02069266885519028,0.03984055295586586,-0.7479304372519255,-0.17419845800846814,-9.638884157538417
32.4,4.400000095367432,68.0,22.170061111450195,23.64857482910156,-79.78266011991356,40.459019742986996,298.8709252166748,-0.10929766297340393,0.10653248429298401,-0.5519063472747803,0.8198196887969971,-0.18124373433388266,5.8602539662885675,1.7518546644393362,0.007926025427877903,0.09168128669261932,0.04588373750448227,-0.8458551464974878,-0.41413065657019615,-9.6258787804842
32.5,5.0,66.0,22.02983283996582,24.642547607421875,-79.7826540775737,40.45902342449812,298.82904556274417,-0.10704688727855682,0.10495695471763612,-0.5503639578819275,0.821355402469635,-0.2881080486700027,6.037614871577071,1.7769500811590415,0.06912987679243088,0.1187792792916298,0.1674972027540207,-1.0768088357895609,-0.4441128395497799,-9.818969628810883
32.7,5.199999809265137,65.0,22.26146125793457,22.209304809570312,-79.7826472053556,40.459025777867694,298.8218109893798,-0.09713715314865112,0.0991305559873581,-0.5525168776512146,0.8218653202056885,-0.2344139289185456,6.2035846853799175,1.8182558890735403,-0.02581696957349777,0.3541094958782196,0.026198482140898705,-1.2674056273698808,-0.3066263442859053,-9.998286191225054
32.8,5.599999904632568,65.0,22.12874412536621,23.71219062805176,-79.7826336792587,40.45903220655618,298.77613761901864,-0.06364346295595169,0.08215994387865068,-0.5550543665885925,0.8252962231636047,-0.33265872720534084,6.551512949875704,1.5034916427965723,-0.0031297968234866858,0.34607797861099243,-0.1584649533033371,-0.9435029169917108,-0.025363193247467282,-9.92465454339981
33.0,5.9000000953674325,67.0,22.436748504638672,21.35846519470215,-79.78261953339252,40.45903927338953,298.71807792663583,-0.0395730696618557,0.06667684018611908,-0.5544279217720032,0.8286119699478149,-0.3781141319161357,6.805525040264222,1.0418921612953629,-0.01985667645931244,0.28634727001190186,0.0006697896169498563,-0.8254536263644696,-0.4547933636605739,-9.668614325523377
33.1,6.300000190734862,66.0,22.250192642211914,22.28087043762207,-79.78261214342952,40.459041876077364,298.70966079711917,-0.029270049184560776,0.05952373892068862,-0.5546714067459106,0.82942134141922,-0.2984288676365671,6.8414240148392365,0.8571797302197034,-0.06931671500205994,0.26356837153434753,-0.08077958226203917,-1.1409436552226544,-0.03901000985875727,-9.61999648153782
33.2,6.4000000953674325,65.0,22.402942657470703,20.68256378173828,-79.78260474437045,40.459044451003535,298.7011425781251,-0.01728614792227745,0.04920323565602303,-0.5541281700134277,0.8307961821556091,-0.2398435788153564,6.848172563312992,0.6935060937006123,0.0719219371676445,0.25339874625205994,0.0974135398864746,-1.076457856670022,-0.5816582089662552,-9.731476571559906
33.4,6.800000190734862,78.0,22.21388435363769,22.75002479553223,-79.78258996515275,40.45905108965444,298.6422741699218,-0.0037593266461044546,0.035336099565029144,-0.5510846376419067,0.8336923718452454,-0.22318520718027085,6.842219268517237,0.3280505832024414,-0.07864560931921005,0.0896361842751503,0.03849221020936966,-0.9623882541060448,-0.24162633793428545,-9.935691747665404
33.61,6.9000000953674325,83.0,22.586994171142567,18.392452239990234,-79.78258215950292,40.4590551297141,298.5722439575196,-0.0014499834505841134,0.029180843383073807,-0.5478674173355103,0.8360548615455627,-0.2524274575287244,6.861749594755437,0.2547931937578476,-0.015617551282048225,0.04560571536421777,-0.08173199743032455,-0.8483366317301989,-0.318146016933024,-10.08675690293312
33.7,7.099999904632568,82.0,22.453025817871094,20.63485336303711,-79.78256763862925,40.45906029499103,298.5678379821777,0.005253455601632595,0.0231372993439436,-0.5444653630256653,0.8384477496147156,-0.1250134785866484,6.712604515307148,0.15005596734102486,0.07668523490428925,0.11601010710000992,0.01780606433749199,-0.9482857201248408,-0.4235437601432204,-9.73975096642971
33.9,7.199999809265138,81.0,22.344097137451172,21.24713897705078,-79.78255243584299,40.459066955962896,298.45829704284665,0.02545270510017872,0.013103386387228966,-0.5411618351936339,0.8404310345649719,-0.09435550699763302,6.591144722025372,-0.1089449995021314,-0.01703787036240101,0.3037236034870148,0.041538119316101074,-1.3332306575775148,-0.4378102719783783,-9.600054552555084
34.0,7.199999809265138,85.0,22.251445770263672,21.827619552612305,-79.78254430839031,40.4590706435889,298.3533890533448,0.036879424005746834,0.0027182691264897585,-0.5395746827125549,0.8411252498626709,-0.11065895860599136,6.536743865958606,-0.2976058573239979,-0.042228493839502335,0.36393657326698303,0.13983875513076782,-0.9359546732157468,-0.6281502977013588,-9.88979344367981
34.21,7.199999809265138,93.0,22.62580871582031,18.26522445678711,-79.78253741390989,40.45907315247106,298.3435833740235,0.04640395566821098,-0.0068840025924146175,-0.5390109419822693,0.8409914374351501,-0.07425148409019541,6.389449698837647,-0.4711181577409642,-0.06557893007993698,0.2337685823440552,-0.11181534826755524,-0.6515979248285294,-0.3251984168216586,-9.957270312309266
34.3,7.199999809265138,93.0,22.5744743347168,19.092208862304688,-79.7825231755202,40.4590781952617,298.2530892181397,0.04897783696651459,-0.013653533533215523,-0.5391738414764404,0.8406582474708557,-0.06149626282494445,6.1036518136716005,-0.7273252197221359,-0.1252649426460266,-0.06876151263713838,-0.11406107991933825,-0.9848935293406248,-0.4946601550653577,-9.527556095123293
34.5,7.199999809265138,94.0,22.37038993835449,21.485692977905273,-79.78250968860722,40.459083009895615,298.1735375213624,0.04962839186191559,-0.02074375934898853,-0.537880539894104,0.8413033485412598,-0.07592417939898143,5.804240052485572,-0.7694413379367411,0.031090814620256424,-0.026626069098711014,0.10265108197927476,-1.0845286953449251,-0.4768071073293686,-9.731273088455199
34.6,7.099999904632568,99.0,22.32781982421875,21.34256172180176,-79.78250356066991,40.45908526133498,298.15696838378915,0.04746713861823082,-0.020969972014427185,-0.5374069809913635,0.8417249321937561,-0.0795657380467255,5.627296250078619,-0.7657461551331111,0.06284353137016296,-0.05110124871134758,-0.08103836327791214,-0.8802334123849869,-0.3605075228959321,-9.806181183457374
34.7,7.099999904632568,99.0,22.352861404418945,21.37436866760254,-79.78249762189478,40.45908745863371,298.1417343902588,0.042364414781332016,-0.018051575869321827,-0.5364347100257874,0.8426845073699951,-0.08923546346109884,5.471240124231282,-0.7086114643595891,0.03263559564948082,-0.17662517726421356,0.04974253103137016,-0.7276973900198936,-0.33324294302612545,-10.005147314071657
34.9,7.0,99.0,22.61078453063965,18.336790084838867,-79.78248569934766,40.45909166609218,298.07005432128915,0.024169750511646267,-0.010675890371203424,-0.5356022119522095,0.8440569043159485,-0.07449021690884018,5.233839626762955,-0.5315355226745734,-0.12425707280635835,-0.2612021863460541,0.025472743436694145,-0.8681108918040992,-0.6756202601641417,-9.756359397768977
35.0,6.9000000953674325,99.0,22.488082885742188,20.133892059326172,-79.78247963961397,40.459093682229366,298.0114682006836,0.006574179977178575,-0.010293605737388134,-0.5355645418167114,0.8444060683250427,-0.07284680513618383,5.164280932756762,-0.4714269916435884,-0.1445375829935074,-0.2062297761440277,0.12194500118494035,-0.8167673682421446,-0.6502798893302679,-9.500702172517775
35.2,6.699999809265138,92.0,22.478065490722656,19.79196548461914,-79.78246884005429,40.459097758115114,297.9612076568604,-0.0159049890935421,0.002950827823951841,-0.5352285504341125,0.8445524573326111,-0.1189682366656676,5.015976306392507,-0.2691944132963072,0.2395276129245758,-0.06307089328765869,0.05022858455777168,-0.9487180486321448,-0.2379037994518876,-9.386269238591195
35.4,6.599999904632568,88.0,22.29151153564453,21.978702545166016,-79.78245804730821,40.45910155462354,297.88262870788583,-0.024688826873898503,0.016056424006819725,-0.5351040959358215,0.8442727327346802,-0.14577832456600032,4.934105826584182,-0.17260425944637522,-0.04089754074811936,-0.0064076418057084075,-0.013219848275184631,-1.021991481408477,-0.04186925263144076,-9.17022339105606
35.5,6.5,88.0,22.141263961791992,23.43387794494629,-79.78245277096055,40.45910335833778,297.8326351928711,-0.0264127254486084,0.015342904254794119,-0.5350009799003601,0.8442991375923157,-0.12923719315692558,4.902455220800488,-0.13051143497480916,0.05003245174884796,0.025012625381350517,-0.0037196124903857712,-0.9073211505264044,-0.4939751537516714,-9.537378832697867
35.6,6.4000000953674325,89.0,22.143768310546875,23.227130889892567,-79.78244763961021,40.45910535440411,297.79047706604007,-0.025865033268928528,0.015654757618904114,-0.535281240940094,0.844132661819458,-0.17576086753483286,4.892555312636468,-0.1205391566386906,-0.09953553974628447,0.003197838785126805,0.05151839926838875,-0.8054544677585364,-0.18249242277815936,-9.694508135318756
35.81,6.300000190734862,86.0,21.994773864746094,25.46953201293945,-79.78243729305484,40.45910909478802,297.7168343353272,-0.034966565668582916,0.01651853136718273,-0.5328391790390015,0.8453324437141418,-0.19827420729675932,4.8536492646481815,-0.06882436313402063,-0.06356693804264069,-0.11362302303314208,0.09119660407304764,-0.7341443107277156,-0.5116670010611415,-9.779636578559877
36.01,6.300000190734862,83.0,22.09368705749512,23.855321884155273,-79.78242704290201,40.45911274165395,297.64008644104007,-0.03925758227705956,0.021318526938557625,-0.5300083160400391,0.8468149900436401,-0.1760679706666767,4.846695470835648,0.04519924305273229,-0.055324029177427285,-0.0907406359910965,-0.08184951543807982,-0.7866314765810967,-0.27548718005418776,-9.809364407658578
36.1,6.199999809265138,83.0,22.13625717163086,23.441829681396484,-79.78242198616417,40.45911478200155,297.6041653442383,-0.04169997572898865,0.0256978627294302,-0.5296239852905273,0.8468170762062073,-0.190249534087434,4.862129351292834,0.07965543814331537,-0.04694665968418121,-0.08005525916814804,-0.01641002669930458,-0.8665093394368888,-0.30826871752738955,-9.797202783823014
36.2,6.099999904632568,83.0,21.991018295288086,24.96061897277832,-79.78241692090366,40.45911685184995,297.56928565979007,-0.0437733419239521,0.029690630733966824,-0.5303373336791992,0.8461351990699768,-0.2011704283225288,4.8851538575991915,0.1412254731094927,0.010648331604897976,-0.06063389405608177,0.018433758988976482,-0.9887878480553628,-0.14512774631381034,-9.883686611652372
36.4,6.099999904632568,81.0,21.914644241333008,26.08976936340332,-79.78240674273232,40.459120862069575,297.4912998962402,-0.04770530387759209,0.043573349714279175,-0.5314885973930359,0.8445978164672852,-0.21961830988843345,4.927065752361984,0.30172354892679465,-0.06716462969779967,-0.1257329285144806,0.07046262174844742,-1.03143371142447,-0.3262752546742559,-10.120696481466293
36.5,6.0,78.0,21.81072425842285,26.88494682312012,-79.78240175334356,40.45912272268987,297.42519882202146,-0.05381407588720322,0.04335876926779747,-0.5310255289077759,0.8445330262184143,-0.2054602128464316,4.9416174347141535,0.3963792270182943,-0.13526903092861176,-0.024197056889534,-0.2348771244287491,-0.6998957799375057,0.020643101502209903,-10.297689360380174
36.7,6.099999904632568,77.0,22.084922790527344,24.32447624206543,-79.78239131290421,40.459126972497224,297.39150741577146,-0.06320806592702866,0.04212183505296707,-0.5301911830902101,0.8444690108299255,-0.21934175914697987,5.040899378054755,0.6033361280868901,-0.008291385136544704,-0.07717550545930862,0.08812107145786285,-0.8397482413798572,-0.3009177807345986,-10.153002347946169
36.9,6.0,77.0,21.9309196472168,25.437725067138672,-79.78238623934594,40.45912911738158,297.31631210327146,-0.06431831419467926,0.04407747834920883,-0.5299752950668335,0.8444207906723022,-0.2305349880373969,5.079208034512772,0.6183313219124834,0.07045090198516846,-0.08110853284597397,0.01895610429346561,-0.855509776622057,-0.11725289071910085,-10.092191305160524
37.0,6.099999904632568,74.0,21.793193817138672,27.354103088378906,-79.78237568152349,40.459133486145454,297.24212577819833,-0.06531231105327606,0.04825543612241745,-0.5309814810752869,0.8434834480285645,-0.2502642946162986,5.1752878937203874,0.7326623471974905,-0.013822060078382492,0.09371209144592284,-0.03267912566661835,-0.9453614544868468,-0.12804813902825118,-10.30989366889
37.1,6.099999904632568,75.0,22.101198196411133,22.503520965576172,-79.78237021702553,40.459135749127476,297.23507621765134,-0.06391643732786179,0.04657300189137459,-0.5310878753662109,0.8436180949211121,-0.2758578185120904,5.2369935108843295,0.8134201550672342,-0.015407395549118519,0.04061237350106239,0.009254905395209793,-0.8709750773012639,-0.17244513384997845,-10.393224678039553
37.3,6.099999904632568,75.0,21.85204124450684,26.964466094970703,-79.78235905034009,40.45914037818547,297.19417312622073,-0.06401854008436203,0.04247332364320755,-0.5298429131507874,0.8446088433265686,-0.30061193880758674,5.365248851258282,0.7867589437463398,-0.1400308459997177,0.04849938675761223,0.022938305512070656,-1.0043132288753986,-0.08739403830841183,-10.012155786752704
37.4,6.199999809265138,74.0,21.716819763183594,27.314342498779297,-79.78235341037465,40.459142752300075,297.1922829437256,-0.06402850151062013,0.03881645202636719,-0.5291004180908203,0.8452492952346802,-0.3111032232552842,5.410851788547177,0.8507585839511312,-0.06809192150831223,0.040329333394765854,-0.09274131059646606,-0.9686372465640308,-0.12258046248927712,-10.319536896944047
37.6,6.199999809265138,76.0,21.944692611694336,24.96857070922852,-79.78234198989887,40.45914767753408,297.1730587768555,-0.05420391634106636,0.039648853242397315,-0.5294036865234375,0.8457078337669373,-0.3090599383892064,5.509666565312916,0.8573090431622967,0.14014551043510434,0.0918996036052704,0.2303005009889603,-0.9736152736097576,-0.23389023408293724,-10.227581244707107
37.8,6.199999809265138,76.0,21.924659729003906,25.68422889709473,-79.78233053227426,40.4591527744997,297.1533825683593,-0.04474744200706482,0.04576130583882332,-0.5324497222900391,0.8440385460853577,-0.3534484147400385,5.572823723869318,0.8318944544014765,0.08097504824399948,0.13073776662349698,-0.07279966026544571,-0.94723132096231,-0.07926651818677784,-10.164206782579422
37.9,6.199999809265138,76.0,21.776918411254886,26.92470741271973,-79.78232470935309,40.45915526026217,297.16663291931155,-0.03810334950685501,0.04517887160181999,-0.5343531966209412,0.8431926369667053,-0.3734679468698929,5.594913686822643,0.8534609310214565,-0.015335599891841413,0.10028859227895737,-0.038934793323278434,-0.9428950989246369,-0.3022706619836389,-10.310726312398911
38.0,6.300000190734862,76.0,22.02357292175293,24.165441513061523,-79.78231882787532,40.45915798739015,297.160298614502,-0.03317264840006828,0.042338013648986816,-0.5354874134063721,0.8428288698196411,-0.4092904331803235,5.615963979627578,0.8021419409001274,-0.06426217406988144,0.01603463850915432,-0.0432109571993351,-0.8451021713018417,-0.2258368091471493,-10.199649095535277
38.2,6.300000190734862,77.0,22.004791259765625,23.410022735595703,-79.78230706541446,40.459162947750286,297.19949462890634,-0.032561469823122025,0.041474048048257835,-0.5364574790000916,0.8422785997390747,-0.3840544496579629,5.6480776902191865,0.7565931923983684,-0.08608387410640718,-0.047209054231643684,-0.025308933109045032,-0.8335795019567013,-0.27601973349228504,-10.000982927083973
38.4,6.300000190734862,76.0,22.027328491210934,24.276765823364247,-79.78230109331331,40.459165573965784,297.206441192627,-0.033085115253925323,0.03973271697759628,-0.5364152193069458,0.8423689007759094,-0.3725686575999872,5.658337513737093,0.7380786477550803,-0.09263220429420473,-0.03927034139633179,-0.023685663938522342,-0.927329153046012,-0.18704347517341371,-9.728717270493508
38.5,6.199999809265138,75.0,22.008546829223643,23.529298782348643,-79.78228911056802,40.45917061971079,297.2431042480468,-0.03347188979387283,0.03593897074460983,-0.5349586009979248,0.843449592590332,-0.3249020579689986,5.6844577470106685,0.6949372726329085,-0.008969530463218689,0.06811966747045517,0.12133370339870453,-0.9328908053040504,-0.26070165473967793,-9.699908623695373
38.7,6.199999809265138,75.0,21.78693389892578,26.46350288391113,-79.78227716659059,40.459175513082215,297.26895263671884,-0.032721195369958885,0.026773432269692414,-0.5330076217651367,0.8450536131858826,-0.28389711369206544,5.715279644490884,0.6198870948347301,-0.06017717719078064,0.047064680606126785,0.08492312580347061,-0.8982305574417114,-0.12003754494711755,-9.639698089957236
38.8,6.199999809265138,76.0,22.031084060668945,23.29074668884277,-79.78227107602699,40.45917813522686,297.30395248413083,-0.03184974193572998,0.023389795795083046,-0.5326594114303589,0.8454067707061768,-0.2787764431785605,5.732978939972501,0.6279045855072283,-0.0391211099922657,-0.0023868668358773,-0.02085584588348865,-0.6671634321659804,-0.22274246262386446,-9.95090386390686
38.91,6.099999904632568,77.0,22.0673942565918,24.3721866607666,-79.78226507604174,40.45918059048369,297.31895759582517,-0.028766483068466187,0.023272259160876274,-0.5321947336196899,0.8458130955696106,-0.2611350413236298,5.740966878975683,0.6022126782654624,0.018300566822290417,0.07273447513580322,-0.04635532200336456,-0.7119079343229533,-0.17131256472319364,-9.81481342792511
39.1,6.099999904632568,76.0,22.14627265930176,23.05219268798828,-79.78225281013782,40.45918570443696,297.37356689453134,-0.01707727089524269,0.02481831982731819,-0.5301345586776733,0.8473781943321228,-0.2602664163126159,5.757143711050827,0.5154379107585236,-0.05457369983196258,0.05959928780794144,-0.14161235094070435,-0.6728525537252427,0.10611318659037353,-9.528122105598447
39.2,6.0,76.0,21.977245330810547,24.730016708374023,-79.78224681689873,40.459188167646545,297.38763740539554,-0.01749648526310921,0.022691220045089718,-0.5292654037475586,0.8479723930358887,-0.24618151820915216,5.7409204780425345,0.449860117172096,-0.08920598775148393,-0.11468400806188585,-0.03832181915640831,-0.7118164984881878,-0.05304504961241037,-9.7008032476902
39.4,6.0,79.0,22.21513557434082,21.64472770690918,-79.78223466702869,40.45919322173938,297.45732810974124,-0.022240228950977325,0.01862500235438347,-0.5277918577194214,0.8488782644271851,-0.2224610730939052,5.706387109154378,0.5243002486305712,0.07026242464780807,-0.020738229155540463,-0.07063307613134384,-0.7540545916557312,-0.3842986008524895,-10.025612568855284
39.6,6.0,80.0,22.297771453857425,20.746177673339844,-79.78222272287137,40.45919812503889,297.5278523254395,-0.01634884625673294,0.03047393634915352,-0.5297166705131531,0.8474694490432739,-0.23509413133503484,5.654467397072944,0.5436737488778467,0.1289173811674118,0.002927921945229173,0.0058884588070213795,-0.8952609758824108,-0.3200610166043043,-9.73365232050419
39.7,6.0,81.0,22.28775405883789,21.14376640319824,-79.78221684553124,40.45920055363765,297.5474007415772,-0.014015051536262035,0.03907774016261102,-0.5316605567932129,0.8459395170211792,-0.2520917205564812,5.627981367163451,0.5033534606543023,0.07508619874715805,-0.10542544722557068,-0.0502450205385685,-0.9532771957665682,-0.4297344631701708,-9.42945384979248
39.81,6.0,82.0,22.052370071411133,24.181344985961914,-79.78221067963554,40.45920301186604,297.59662178039554,-0.01769896596670151,0.04154228419065476,-0.5338534116744995,0.8443704843521118,-0.2670305481718854,5.6274792981951345,0.5104493914968776,-0.002447822131216526,-0.027545567601919167,0.2088448256254196,-0.8304837667196989,-0.3806830846890808,-9.308497762084007
40.0,6.099999904632568,80.0,22.057376861572266,24.17339324951172,-79.78219875729081,40.459208059843995,297.6665795135498,-0.029358338564634327,0.0365290530025959,-0.5364046692848206,0.8426588773727417,-0.3003790371683951,5.616211345992764,0.5909347046313884,0.002939236117526889,0.007583086844533681,-0.014939078129827974,-0.6526102240383626,-0.4328074673563242,-9.628352737426756
40.11,6.099999904632568,82.0,22.13249969482422,22.59894180297852,-79.78219288242425,40.45921046183621,297.68017318725583,-0.031131826341152188,0.03584340959787369,-0.536995530128479,0.8422480821609497,-0.3216003465533661,5.6080675655563565,0.6219034311478318,-0.038787737488746636,-0.020939603447914124,0.04471514746546745,-0.8594418098777533,-0.28988028410822153,-9.62650501728058
40.3,6.099999904632568,82.0,22.004791259765625,24.403993606567386,-79.7821870040497,40.459212873996975,297.6927578735352,-0.0323798768222332,0.036209836602211,-0.5373005867004395,0.8419908881187439,-0.34527036554033186,5.620882007943798,0.6229058314915437,-0.07352149486541748,-0.05642196908593178,-0.1827010065317154,-0.8499993605911732,-0.20627050895243884,-9.5906054520607
40.4,6.199999809265138,83.0,22.022319793701172,23.95869445800781,-79.7821751058562,40.45921771212848,297.754838256836,-0.031124573200941086,0.04257683455944061,-0.5378594994544983,0.841383159160614,-0.34860679186891635,5.630397193018483,0.6698694035974315,-0.01857943832874298,-0.0052079157903790465,0.020437626168131832,-0.8872452472150326,-0.31510089665651325,-9.75051335155964
40.6,6.199999809265138,83.0,22.138761520385746,22.51942443847656,-79.78216299551863,40.45922269167488,297.82174613952634,-0.034343071281909936,0.04599480330944061,-0.5374605655670166,0.8413330316543579,-0.34082746723253005,5.67014309747235,0.7398943480962862,-0.03554204851388931,-0.04555065184831618,0.0466625802218914,-0.8571478740870953,-0.6013741430640221,-9.893153253793717
40.7,6.199999809265138,84.0,22.17381858825684,22.64665222167969,-79.78215703335681,40.459225116082564,297.83817031860355,-0.03654550760984422,0.04407530650496483,-0.5369916558265686,0.8416423201560974,-0.3171013203728236,5.687055350625586,0.7576179915937644,0.04829665645956993,0.13949823379516602,-0.02052561566233635,-0.7841882175207139,-0.2250744235888124,-9.75005083680153
40.8,6.199999809265138,84.0,21.96722984313965,24.88109970092773,-79.78215098830725,40.45922753403183,297.8724282073975,-0.036563701927661896,0.043612040579319,-0.5365969538688661,0.8419173359870911,-0.3034147477548024,5.6865837251228,0.7691013337198761,-0.019595135003328323,0.002602740889415145,0.14994141459465027,-0.9755556721240284,-0.3159655536711216,-9.59335832118988
41.0,6.199999809265138,83.0,22.08993148803711,23.29869842529297,-79.78213879368771,40.459232433140244,297.9285729217529,-0.036816000938415534,0.03950721025466919,-0.5350182056427002,0.8431129455566406,-0.2970780526627978,5.7385604292596515,0.7528246484037144,-0.19268497824668884,-0.05746616795659065,-0.22251547873020167,-0.7979978059977293,-0.12384225508198142,-9.515386869907381
41.2,6.199999809265138,83.0,21.902122497558594,25.14350891113281,-79.78213274193695,40.45923486007288,297.94305923461917,-0.038376480340957635,0.036618854850530624,-0.5337899327278137,0.8439518213272095,-0.2617683714917702,5.75110614450962,0.7334516195476443,-0.03569253161549568,-0.006496344227343798,0.0616963654756546,-0.9083610778301956,-0.10577431303448977,-9.563290184140207
41.3,6.199999809265138,83.0,21.93342399597168,24.80158233642578,-79.78212053823259,40.459239746109894,297.9907601165772,-0.03302854299545288,0.03217502310872078,-0.5313245058059692,0.8459126353263855,-0.23351429333110754,5.776463380758222,0.7310380268519778,-0.04693548008799553,0.07890661060810089,-0.04804413393139839,-0.8121079413592815,-0.04420032737776637,-9.795176723599434
41.5,6.199999809265138,83.0,22.0673942565918,22.94086837768555,-79.78210824678324,40.459244704426034,298.03608444213864,-0.033573150634765625,0.028933372348546982,-0.5286498665809631,0.8476821780204773,-0.2062066021543734,5.8073768245997845,0.6850184883772075,0.02926425822079182,-0.028418658301234245,0.10041965544223784,-0.7758750117570162,-0.4181842022761703,-9.794041779041287
41.6,6.099999904632568,85.0,22.099946975708008,22.789783477783203,-79.78210214897875,40.45924717692817,298.0539944458008,-0.03283420205116272,0.03008314222097397,-0.5281876921653748,0.8479591608047485,-0.20819871709249416,5.822400443567034,0.6828539884991156,-0.031125606968998912,-0.05063716322183609,0.12285665422677995,-0.7749676700681448,-0.3355294967070222,-9.732636074423793
41.8,6.099999904632568,85.0,22.0035400390625,24.865196228027344,-79.7820960496901,40.459249659804975,298.07055404663083,-0.03259661421179772,0.03147280216217041,-0.5289389491081238,0.8474494218826294,-0.19289188922096331,5.825975303379321,0.6648976587132787,0.1020856872200966,-0.008156516589224339,0.10912926495075226,-0.6851659858971835,-0.26345256870612505,-9.728717855215073
41.9,6.099999904632568,85.0,21.988513946533203,24.12568283081055,-79.78208360424851,40.4592546356584,298.1161644744873,-0.029328336939215664,0.03305801376700401,-0.5311605930328369,0.8461179137229919,-0.22967266545000944,5.84205817978175,0.6630770841164577,0.027273545041680336,-0.055683910846710205,-0.062211815267801285,-0.7489640787988902,-0.3456591034680605,-9.79462240755558
42.1,6.099999904632568,85.0,22.001035690307614,23.33050537109375,-79.78207126589089,40.45925959000676,298.1607601928711,-0.034130141139030463,0.03429600968956946,-0.5334859490394592,0.8444239497184753,-0.2634332278277401,5.834407406074117,0.7116932712155563,0.0202171690762043,-0.002400329103693366,0.07511226832866669,-0.8769414299726487,-0.5057669046521187,-9.813307185173038
42.21,6.199999809265138,85.0,21.99352264404297,23.354360580444336,-79.7820651505464,40.45926208671072,298.1813137817383,-0.03586247935891152,0.03270748257637024,-0.5342172980308533,0.8439527153968811,-0.2815414943094701,5.830014117339879,0.7552240062165911,0.020219119265675545,0.07752638310194017,0.04034646600484848,-0.9707728689908982,-0.3614764430746436,-9.865757879018783
42.3,6.199999809265138,84.0,22.0423526763916,23.577009201049805,-79.78205910122426,40.459264737900966,298.20133522033694,-0.03503945842385292,0.032630547881126404,-0.5343531370162964,0.8439042568206787,-0.3049565197181383,5.830303081991545,0.7574792022087725,0.1531241536140442,0.08597918599843979,0.0834837332367897,-0.985938134416938,-0.2885695759020746,-9.824056706428529
42.5,6.199999809265138,84.0,22.04110145568848,23.03628921508789,-79.78204678692794,40.459269912006675,298.2421524810792,-0.030038336291909218,0.04100115597248077,-0.5336894989013672,0.8441518545150757,-0.3064968255234591,5.853442728637729,0.7325112861673059,0.1895322203636169,0.07170771807432175,-0.018548941239714626,-0.963874104693532,-0.3751596951484679,-9.681369441747666
42.6,6.199999809265138,84.0,22.054872512817386,23.05219268798828,-79.78204064923119,40.459272434235054,298.26020172119144,-0.028839517384767525,0.043905507773160934,-0.5332612991333008,0.844318151473999,-0.3111797677267969,5.86166546629215,0.7238614650558802,0.026615139096975327,0.069416344165802,-0.035773925483226776,-0.9061746577173472,-0.35860863961279393,-9.749279004335405
42.81,6.199999809265138,83.0,22.07490539550781,23.27484130859375,-79.78202827943646,40.459277573094376,298.30538108825687,-0.030651256442070007,0.038859132677316666,-0.5325924754142761,0.8449235558509827,-0.29652060966754235,5.873629946274576,0.7221527087297996,-0.1515439599752426,-0.056285396218299866,0.076757051050663,-0.844891671538353,-0.4435204800590873,-9.735139267444607
43.0,6.199999809265138,83.0,22.253950119018555,20.610998153686523,-79.78202211273124,40.459280086064574,298.3220398712158,-0.03217647224664688,0.034737296402454376,-0.5325000286102295,0.8451046347618103,-0.27346010591421954,5.882682111323318,0.7023656949317341,-0.09355458617210388,-0.0017286125803366306,0.1461000144481659,-0.8517785221338272,-0.470404113829136,-9.697403676509856
43.1,6.300000190734862,83.0,22.097442626953125,23.378215789794922,-79.78200979582641,40.4592852652889,298.36599090576175,-0.02911041863262653,0.029795551672577858,-0.5330460667610168,0.8450602293014526,-0.2816776953550367,5.892058827150887,0.6206585906103068,-0.038820240646600716,-0.11455117166042328,-0.03462059423327446,-0.7694800581783057,-0.16393089350312948,-9.409083904623984
43.21,6.300000190734862,83.0,22.12123107910156,22.72616958618164,-79.78200364081451,40.45928778488926,298.37644699096677,-0.028587365522980687,0.029368676245212555,-0.5330392718315125,0.8450973629951477,-0.2818703514724488,5.890423080053768,0.5655045917696718,0.06386725604534149,0.11041342467069626,0.007969962432980537,-0.6465136977285147,-0.08431743443012238,-9.60027908563614
43.4,6.199999809265138,85.0,21.99352264404297,24.197248458862305,-79.78199106625152,40.459292963323456,298.41076400756833,-0.02792356163263321,0.02879256941378117,-0.5331496596336365,0.8450697064399719,-0.2787408905498494,5.897161386436324,0.5333803706520883,0.08568020910024643,0.02429137378931045,0.15315206348896027,-0.8641136620938779,-0.5416147951036692,-9.664631202220916
43.5,6.199999809265138,85.0,22.101198196411133,22.408098220825195,-79.7819847802743,40.4592955473017,298.43315055847165,-0.026945142075419426,0.027659531682729718,-0.5331123471260071,0.8451628684997559,-0.2855768646809865,5.8995895183114815,0.5446977337009582,-0.03291201591491698,0.03488493710756302,0.0789559930562973,-0.8606138842552901,-0.15462214445695285,-9.739267401695251
43.7,6.199999809265138,84.0,22.31780433654785,20.61894989013672,-79.78197247582733,40.45930058104026,298.4469502258301,-0.026196790859103203,0.03196745738387108,-0.5331043601036072,0.8450393676757812,-0.28506522722226124,5.891426560457318,0.4697437724075562,-0.059498216956853874,-0.06944756209850311,-0.12502428889274594,-0.8283173002302647,0.05554381610825658,-9.337712205648424
43.9,6.099999904632568,84.0,22.06363677978516,23.21122741699219,-79.78196000992241,40.45930557214653,298.46410873413083,-0.02956983633339405,0.03294674679636955,-0.5332292318344116,0.844811737537384,-0.2528079608857487,5.881633502980037,0.4514359124253154,0.08211610466241838,0.0304423738270998,0.22153720259666448,-0.7817043203115464,-0.2052132958173752,-9.383860770463944
44.0,6.099999904632568,83.0,22.14251708984375,22.074125289916992,-79.78195379617401,40.45930819147419,298.4834091949463,-0.029721317812800407,0.03094070591032505,-0.5333923101425171,0.8447792530059814,-0.27987507917655885,5.880155476989138,0.4820836899247676,-0.17820939421653748,-0.003073260653764009,-0.14247837662696838,-0.9092393296211958,-0.2638601561821997,-9.612098647356033
44.1,6.099999904632568,82.0,22.064889907836914,23.39411926269531,-79.78194765429463,40.459310688538864,298.48096397399905,-0.02937404438853264,0.02885218895971775,-0.5336819887161255,0.8446823954582214,-0.276134910346255,5.872031626396666,0.4526163081881373,-0.057013917714357376,-0.030603341758251187,0.037803683429956436,-0.9065531187504532,-0.11874446975067254,-9.53116792023182
44.3,6.099999904632568,81.0,22.08867835998535,22.96472358703613,-79.78193526754457,40.459315703932816,298.4778092193604,-0.030606620013713837,0.02775526791810989,-0.5334111452102661,0.8448464870452881,-0.260593290534993,5.8768435937196735,0.4174201998071612,0.09261242300271988,0.002793730236589909,0.029878463596105576,-0.7990081317722798,-0.4625725359097123,-9.590755140781402
44.5,6.099999904632568,81.0,21.95721244812012,24.777727127075195,-79.78192285551896,40.459320766905954,298.47024276733396,-0.031796038150787354,0.02638225257396698,-0.5328139066696167,0.8452232480049133,-0.26092579654384795,5.868221383968708,0.4602380925503294,0.0976799502968788,0.0833563357591629,0.09797661751508713,-0.995207725390792,-0.3575297552347184,-9.717035703063011
44.6,6.0,81.0,21.883342742919922,25.23892974853516,-79.78191672353394,40.45932327015419,298.4688656616211,-0.030004130676388737,0.02714015357196331,-0.5324803590774536,0.8454750180244446,-0.2714746931514441,5.873660952129692,0.4794816048423047,0.03937342017889023,0.0214128103107214,-0.051854792982339866,-0.8414131629467011,-0.11705555632710456,-9.986533287763596
44.7,6.0,80.0,22.05612564086914,23.855321884155273,-79.78191059415744,40.4593257746735,298.4703305053711,-0.028545206412672997,0.028371321037411686,-0.5320600271224976,0.84574955701828,-0.257096568211373,5.872435942157957,0.4917307817619668,0.0871647447347641,0.05329104512929917,-0.05881920456886292,-0.8086490940302611,-0.2800347606651485,-9.954089426994324
44.9,6.099999904632568,80.0,21.938432693481445,24.594837188720703,-79.78189828206484,40.45933084960154,298.46290710449216,-0.024946961551904682,0.033737283200025565,-0.5314502120018005,0.8460497260093689,-0.2420430833915285,5.861716840717351,0.4986997131029137,0.07044357061386107,0.0058248545974493035,0.01666921377182007,-0.9080750028043986,-0.3457191105186939,-9.887426490783694
45.0,6.099999904632568,80.0,21.908382415771484,24.80158233642578,-79.78189208738556,40.45933335006717,298.4505989837647,-0.023611336946487427,0.03439132496714592,-0.5315529108047485,0.8459972739219666,-0.22944117496463914,5.847105370800357,0.4961144930540746,-0.02474634721875191,0.032964643090963364,0.06768383830785751,-0.7638310631364584,-0.2804245872236789,-9.985909974575042
45.2,6.099999904632568,79.0,22.12874412536621,21.87532997131348,-79.78187986632109,40.45933829565545,298.46306541442874,-0.029591307044029236,0.027110770344734192,-0.5325166583061218,0.8454676270484924,-0.23029804559479394,5.833183364190832,0.4983431145863555,-0.08429679274559021,-0.11028929799795152,0.1597360074520111,-0.7858926077932121,-0.21771506315097214,-9.832352735996247
45.4,6.099999904632568,80.0,22.078662872314453,23.624719619750977,-79.78187365823945,40.45934070051617,298.45042541503915,-0.0317256972193718,0.028755154460668564,-0.5330350399017334,0.8450090885162354,-0.20898707069301528,5.829571563940843,0.4892182905621538,0.08240552246570587,-0.12307514995336533,0.022759398445487026,-0.8078803313523532,-0.3008092417940498,-9.657730903029442
45.5,6.099999904632568,80.0,21.972238540649414,24.54712677001953,-79.78186136053867,40.45934557344745,298.44029548645017,-0.03278843685984612,0.032418575137853615,-0.5333479642868042,0.8446384072303772,-0.2181780721796636,5.8193783389104725,0.4867288556263792,-0.0036122070159763093,-0.04346354305744171,0.11100304871797564,-0.7912954350560903,-0.26010459920391443,-9.680654327273368
45.6,6.199999809265138,79.0,22.081167221069336,23.39411926269531,-79.78185525922619,40.459348012042994,298.43854263305667,-0.03329819440841675,0.02985841780900955,-0.5331825017929077,0.8448172807693481,-0.2122236660495628,5.817568471451511,0.5049297852344685,0.04449135810136795,0.08524467051029205,0.09899932891130447,-0.8948448003083468,-0.11988760041072966,-9.678508399128914
45.8,6.099999904632568,79.0,21.87833404541016,25.23097801208496,-79.7818429554988,40.45935289112349,298.42406776428226,-0.03297485411167145,0.03152957931160927,-0.5326421260833739,0.8451099991798401,-0.20558787484996924,5.827359899211898,0.4762560465069458,0.04373051971197128,0.021202629432082176,-0.02228532545268536,-0.7836417952179909,-0.28967866480350496,-9.669405453801156
45.9,6.099999904632568,78.0,21.818235397338867,25.92278289794922,-79.78183684258295,40.459355329203724,298.42137840271,-0.03428734838962555,0.0306072011590004,-0.532221257686615,0.845356822013855,-0.20624348558723332,5.826677481882224,0.5027150523716912,-0.055080093443393714,0.04271400719881058,-0.04613323137164116,-0.7642937971651554,-0.09431975461542606,-9.979345890283586
46.1,6.199999809265138,78.0,21.928415298461914,24.61869239807129,-79.78182457915261,40.45936016080813,298.4122250366211,-0.03633579611778258,0.027325410395860672,-0.5311141014099121,0.8460797667503357,-0.18264594370707912,5.825248650688463,0.5430364254150521,0.01625639945268631,-0.013053211383521557,-0.008094518445432186,-0.9032318271696568,-0.1822843715362251,-9.956789671182632
46.3,6.199999809265138,78.0,22.03609275817871,23.736045837402344,-79.78181223467847,40.45936507540983,298.4012368011475,-0.04268255084753037,0.02509309165179729,-0.5291129946708679,0.8471056222915649,-0.18769059377760464,5.84542791453411,0.5872413294197822,-0.032292161136865616,-0.012160633690655231,-0.05211620032787323,-0.8462221323698759,-0.38361703477799897,-9.887790187597275
46.4,6.199999809265138,77.0,21.974742889404297,24.17339324951172,-79.78180610368291,40.45936755134729,298.40493896484384,-0.04588226974010468,0.022919582203030583,-0.52827388048172,0.8475236296653748,-0.2010708495683813,5.859217777614182,0.632693757113298,-0.049883902072906494,0.09649603068828584,-0.08795851469039917,-0.8230364605039359,-0.13161735255271198,-9.946200363636015
