time,wind_speed,wind_angle,battery_voltage,battery_current,position_x,position_y,position_z,orientation_x,orientation_y,orientation_z,orientation_w,velocity_x,velocity_y,velocity_z,angular_x,angular_y,angular_z,linear_acceleration_x,linear_acceleration_y,linear_acceleration_z
0.0,3.799999952316284,195.0,24.07568359375,0.039758868515491486,-79.78280327079342,40.45904533393916,267.7182214810848,-0.004750577732920647,-0.0014304328942671418,-0.8296118974685669,0.5583184957504272,0.0014005000521529133,-0.002511139798364691,0.007764530107590747,-0.0004592364421114325,0.0041024782694876185,0.0042495294474065295,-0.026601382275111968,0.09391171032562852,-9.807292739152908
0.1,3.9000000953674316,197.0,24.08444786071777,0.03180709481239319,-79.78280331775619,40.459045361272565,267.7136414005756,-0.004749839194118978,-0.0014369837008416653,-0.8296116590499878,0.5583188533782959,-0.0016090620898189748,-0.006709929999728234,0.008251028747165507,-0.0009431524667888881,-0.002333126496523619,-0.001452224561944604,-0.029827647465281187,0.0931175670772791,-9.807835360765457
0.21,3.700000047683716,195.0,24.07192611694336,0.03180709481239319,-79.7828033308065,40.459045368622796,267.7153110458851,-0.004749596118927002,-0.0014370391145348547,-0.8296135663986206,0.5583159923553467,-0.0019738003895745093,-0.006564580697142378,0.00847722429594298,-0.002082499209791422,0.00017327145906165242,0.003593893488869071,-0.028274252400733533,0.0923055806849152,-9.806400454044342
0.4,3.5999999046325684,200.0,24.08194351196289,0.03180709481239319,-79.7828033385435,40.45904537948599,267.70863532567023,-0.0047535221092402935,-0.0014330744743347168,-0.8296130895614624,0.5583166480064392,-0.002856403037694478,-0.001457618676506926,0.004980482677117803,4.892342622042634e-05,-0.0013891685521230102,-0.0019348916830495,-0.028063138222787533,0.0923119486682117,-9.80494566679001
0.5,4.300000190734863,199.0,24.06942367553711,0.03180709481239319,-79.7828033927433,40.45904536867594,267.70452647948264,-0.004744033329188825,-0.001430862583220005,-0.8296148180961609,0.5583141446113586,0.004273885393259876,-0.003558261800431744,0.006681060000364933,0.0005212087417021394,-0.0003345824079588056,-0.0013090595602989195,-0.029566982702817768,0.09118960303254424,-9.807490375041963
0.7,4.900000095367432,206.0,24.08194351196289,0.03180709481239319,-79.78280339852144,40.459045366404865,267.7052060320377,-0.004744033329188825,-0.001430862583220005,-0.8296148180961609,0.5583141446113586,0.004093981311872571,-0.003489944264379988,0.006755479262669579,-0.0007567612919956447,0.003601212054491043,0.0018631810089573266,-0.02847312397090718,0.08922102824784815,-9.808351669907573
0.8,4.900000095367432,205.0,24.083194732666016,0.03180709481239319,-79.78280345018403,40.45904535895405,267.70055073046683,-0.004739444702863693,-0.0014296398730948567,-0.829615592956543,0.5583130121231079,0.007230382543616094,-0.004384209041312013,0.007580329117329575,0.002231347607448697,-0.0008335054153576492,-0.0008205974590964615,-0.02873464297503233,0.09358446724712847,-9.80594787955284
1.0,4.699999809265137,212.0,24.07443046569824,0.14313192665576935,-79.78280345792876,40.45904535470184,267.70131381893157,-0.0047395401634275905,-0.001429717056453228,-0.8296167850494385,0.5583112239837646,0.006843154407680859,-0.004097349947757278,0.007576434816430558,-0.0010318906279280784,-0.0016561488155275585,0.0031791275832802053,-0.027643792361486702,0.09172208338044584,-9.807339516878127
1.11,4.5,213.0,24.06817054748535,0.12722837924957275,-79.78280348685188,40.45904537892775,267.69441690587996,-0.004745411220937967,-0.0014344783267006278,-0.829616367816925,0.5583119988441467,0.0005158704614119853,-0.0042749018086726395,0.004130873328219682,-0.0015397293027490375,0.005542153492569922,0.002846738556399941,-0.02651795438490808,0.09324495415203274,-9.804993029236794
1.3,4.199999809265137,212.0,24.07317924499512,0.12722837924957275,-79.78280349150394,40.45904538018353,267.69483756566046,-0.004745285026729107,-0.0014340600464493034,-0.8296164870262146,0.5583117604255676,2.0140972206556627e-05,-0.0042579927598767175,0.004243347411283956,-0.0011712723644450307,-0.0005859544617123902,0.0005806752014905214,-0.03030222210567445,0.0924190623499453,-9.806767659187317
1.41,4.0,218.0,24.07943916320801,0.07951773703098297,-79.78280354435026,40.45904540818244,267.68984919333457,-0.004744424019008875,-0.001440206659026444,-0.8296174407005309,0.558310329914093,-0.002579849101182157,-0.008127149166333728,0.006320772148103161,0.002458913717418909,0.00020316685549914842,0.005719249602407217,-0.02736234485870228,0.0913609904050827,-9.8052099609375
1.6,3.5999999046325684,220.0,24.063161849975586,0.12722837924957275,-79.78280356260285,40.45904538712588,267.6839783742428,-0.004742049612104893,-0.001431455137208104,-0.8296174407005309,0.5583103895187378,0.002774635422736107,-0.0026836752632209463,0.0075530369974705315,-0.0004684510640799999,-0.00015765105490572748,-0.00498767476528883,-0.026637388332746925,0.09478272618725896,-9.806146684885023
1.71,3.5999999046325684,225.0,24.078187942504893,0.11927660554647446,-79.78280357071685,40.45904538451725,267.68548488163947,-0.004741247743368149,-0.0014309752732515335,-0.8296188712120056,0.5583082437515259,0.00250540760001591,-0.002633470759396059,0.007393477327603786,0.0010457582538947463,-0.001760169630870223,-0.0004618735401891172,-0.02807985988911241,0.09004295490682125,-9.807282214164736
1.91,3.5,224.0,24.07568359375,0.11927660554647446,-79.78280358685599,40.45904538140292,267.67964517617224,-0.00474190479144454,-0.0014309044927358627,-0.8296186923980713,0.558308482170105,0.0018902281403099363,-0.0021058177120194498,0.007649179456463277,0.0007680419366806747,-0.0017928088782355191,-0.002695421455428005,-0.028561177100054926,0.09286185189150274,-9.805735040903091
2.11,3.299999952316284,225.0,24.07192611694336,0.11132483184337616,-79.7828036199568,40.45904537263192,267.6727529718876,-0.004739158786833286,-0.001432921621017158,-0.8296191692352295,0.5583077669143677,0.0023014661579556393,-0.004578901991417986,0.004686792017477882,-0.000855393591336906,-0.00044268136844038963,-0.003131801495328545,-0.02834596073487774,0.09473910961300136,-9.806649545431137
2.2,2.5,217.0,24.076934814453125,0.13518016040325165,-79.78280362582701,40.45904537222243,267.6732243552208,-0.004739158786833286,-0.001432921621017158,-0.8296191692352295,0.5583077669143677,0.002285204040382673,-0.004379370446866218,0.004635932315902434,0.0052226749248802645,0.0034681877586990595,0.0032516787759959693,-0.029368775796610864,0.08919182871468366,-9.807289815545085
2.31,2.299999952316284,217.0,24.07317924499512,0.16698725521564484,-79.78280366250294,40.459045363882865,267.66572492861746,-0.004736187402158976,-0.0014339336194097994,-0.8296197056770325,0.5583069920539856,0.0030897901535573927,-0.006495204817701548,0.0022455405686102204,0.0025479202158749104,0.0017112046480178833,0.002747852820903063,-0.027990402057766917,0.09456276124343277,-9.805082491636275
2.51,2.5,215.0,24.07568359375,0.12722837924957275,-79.78280367089523,40.459045363841796,267.66595828080176,-0.004736180882900953,-0.001433513592928648,-0.8296213746070862,0.558304488658905,0.002718533164510707,-0.006572469752485079,0.0023071961755688412,-0.0010589659214019775,-0.0026938642840832468,-0.0027557527646422386,-0.028221387632656844,0.09630524064414203,-9.80595314204693
2.61,2.5,210.0,24.07192611694336,0.11132483184337616,-79.78280368208544,40.459045330655606,267.65796105110644,-0.004735631402581929,-0.0014271734980866313,-0.8296210169792175,0.558305025100708,0.005286138796682694,-0.0022817017649791713,0.0007797503948504946,-0.0038700459990650415,-0.00299367168918252,-0.0008726735250093043,-0.02780782274901867,0.09156226253136993,-9.807716077566146
2.8,2.5,211.0,24.064414978027344,0.13518016040325165,-79.78280368685165,40.45904532691547,267.65804503405093,-0.004735637921839953,-0.0014270758256316185,-0.8296226263046265,0.5583025813102722,0.005368953186286312,-0.002285497143588025,0.0008017082180605862,0.0019054625881835816,0.0017392751760780813,0.0013592769391834734,-0.02950710812816397,0.08976273623295129,-9.807625445723534
2.91,2.5,207.0,24.07317924499512,0.11927660554647446,-79.78280369177321,40.459045311348255,267.65235319280623,-0.004737474024295807,-0.0014265035279095173,-0.8296241164207458,0.5583004951477051,0.003010674766827604,-0.0013116679653648947,0.003935078077781117,0.0020702907349914312,0.0016954009188339114,-0.0014704508939757945,-0.03033635065890849,0.09159359995275736,-9.806120957136157
3.1,2.5999999046325684,203.0,24.070674896240234,0.10337305814027786,-79.78280367310461,40.45904529189703,267.6443323894739,-0.004741830751299858,-0.0014237520517781375,-0.829623818397522,0.5583008527755737,0.0006538634941796834,0.0026299293751847817,0.0021800039969300192,-0.0028887907974421982,-0.002022362546995282,-0.0002225095813628286,-0.02900299819651992,0.09127593168988823,-9.807977448105811
3.3,2.5999999046325684,198.0,24.07568359375,0.11132483184337616,-79.7828036677242,40.459045289319135,267.6447524830104,-0.004741599317640064,-0.0014238640433177352,-0.8296242356300354,0.558300256729126,0.0004782770289078517,0.002740451793761634,0.002101313223319686,-0.0007236299570649862,0.00239028362557292,0.0035126609727740288,-0.0281866812100634,0.09198846059851347,-9.806791632771493
3.41,2.700000047683716,201.0,24.06566619873047,0.14313192665576935,-79.78280368989974,40.45904526524365,267.63845644438265,-0.004736925940960646,-0.0014265591744333506,-0.8296241164207458,0.5583004951477051,0.0016755454386827276,-0.0016356093737981588,0.004367404376632414,-0.002844760660082102,2.9362941859290004e-05,-0.0051151630468666545,-0.02808970879297704,0.09365592204965653,-9.805714575648306
3.5,2.5,200.0,24.07192611694336,0.11132483184337616,-79.7828037071056,40.45904525158081,267.6326957299709,-0.0047364113852381715,-0.0014326403615996242,-0.8296248912811279,0.5582992434501648,-0.0013651306963806814,-0.006441226229967659,0.006208300081649659,-0.002675887662917376,-0.0028398444410413504,-0.0007756616687402129,-0.029137678302358836,0.09047958659939467,-9.806532601118088
3.7,2.5999999046325684,205.0,24.07443046569824,0.07156596332788467,-79.782803713382,40.45904525488066,267.63331266784667,-0.0047364113852381715,-0.0014326403615996242,-0.8296248912811279,0.5582992434501648,-0.001298094942144949,-0.006306257764553021,0.006204185246361318,0.0012283897958695884,0.006544559262692928,0.002623262815177441,-0.02955827811732888,0.09053936524316668,-9.808416574001312
3.8,2.4000000953674316,209.0,24.076934814453125,0.06361418962478638,-79.78280370817865,40.45904522056411,267.62748443627356,-0.004736194387078285,-0.0014278973685577512,-0.8296259045600891,0.5582977533340454,-0.00045500114590929513,-0.003404086663939125,0.0071188378526089125,0.0008207194041460752,0.0031535334419459105,-0.0010329898213967679,-0.028382405333686626,0.09408633193932474,-9.806180014014243
4.0,2.200000047683716,210.0,24.078187942504893,0.03180709481239319,-79.78280371157773,40.459045222355904,267.62820204639445,-0.0047361841425299644,-0.0014280104078352453,-0.8296273350715637,0.5582958459854126,-0.0007897023885867112,-0.003424833888422257,0.007247414300323159,0.00040890119271352887,0.0008932318305596709,-0.0025787728372961287,-0.029321052466984836,0.09143581649288536,-9.807212047576904
4.11,2.0,212.0,24.08069038391113,0.03180709481239319,-79.78280370265314,40.45904518726406,267.62263676071166,-0.0047360751777887344,-0.0014255816349759698,-0.8296270966529846,0.5582960247993469,-0.0006255863749466396,-0.0021749825971018838,0.007557495184469336,-0.0022147982381284237,0.0005952726351097226,0.002291662385687232,-0.027923501688055696,0.0927773413527757,-9.806288187503815
4.31,1.8999999761581416,213.0,24.08069038391113,0.03180709481239319,-79.78280370469666,40.45904518851775,267.6233938887119,-0.004735835827887057,-0.0014253378612920642,-0.8296278119087219,0.558294951915741,-0.0006861339770121652,-0.0022064260877036304,0.007638357216845354,-0.0019795342814177275,-0.003095563966780901,-0.0033043513540178533,-0.02811357045779005,0.09286986440420153,-9.806785200834275
4.4,1.8999999761581416,213.0,24.08194351196289,0.039758868515491486,-79.78280369383077,40.459045129075186,267.61785283231734,-0.004732606001198292,-0.0014186465414240954,-0.8296286463737488,0.5582937002182007,0.0034304457337444344,0.0005129560236015827,0.008141712602592216,0.002360235899686813,7.450702833011745e-05,-0.0027146190404891968,-0.028390609708148988,0.09092114274390042,-9.806269476413727
4.6,1.7999999523162842,214.0,24.08069038391113,0.05566241592168808,-79.7828036782215,40.45904508772093,267.6111707046032,-0.0047331410460174075,-0.001417987747117877,-0.8296284675598145,0.5582939982414246,0.0025929490187004273,0.0007985534384776839,0.008202065843865748,-0.00012149452231824397,0.0006425564642995598,0.0047442386858165255,-0.028788163270801307,0.09073315476067363,-9.807384540438653
4.71,1.7999999523162842,213.0,24.07443046569824,0.05566241592168808,-79.78280367846007,40.459045083255404,267.6128317519426,-0.004732954315841198,-0.00141823326703161,-0.8296294212341309,0.5582928061485289,0.0024008779563441857,0.0008510173408540791,0.008249472299174058,0.0025035524740815163,0.00027282536029815674,0.0009050022345036267,-0.0277673399168998,0.0938828762434423,-9.80623322367668
4.9,1.7999999523162842,213.0,24.076934814453125,0.05566241592168808,-79.7828036635282,40.459045020818756,267.6058838024139,-0.0047302613966166964,-0.0014133014483377335,-0.8296290636062622,0.5582931041717529,0.005504923707735183,0.00234992586634468,0.008416672101096059,0.00018443545559421184,-0.0017365273088216786,-0.001684678951278329,-0.030346569581888617,0.09153690023347737,-9.807722509503368
5.0,1.7000000476837158,214.0,24.08069038391113,0.05566241592168808,-79.78280366634158,40.45904499352388,267.5985042258501,-0.00473122950643301,-0.0014199214056134224,-0.82962965965271,0.5582922697067261,0.0001539907423476545,-0.002256889124628745,0.005663898442727263,-7.433223072439432e-05,0.0018895678222179415,0.004288178868591785,-0.02830032961210236,0.09321583684533837,-9.806764150857925
5.2,1.7000000476837158,214.0,24.076934814453125,0.039758868515491486,-79.7828036688215,40.45904499418457,267.59906836891173,-0.00473122950643301,-0.0014199214056134224,-0.82962965965271,0.5582922697067261,7.230733046115911e-05,-0.002241265586039008,0.005620282739663927,-0.0003942139446735382,-0.0040242564864456645,-0.0007120991358533503,-0.02733278215862811,0.0931704021524638,-9.805926829576492
5.3,1.7000000476837158,214.0,24.078187942504893,0.039758868515491486,-79.78280363341153,40.459044929782,267.5926698102951,-0.004731873981654644,-0.0014116078382357955,-0.8296308517456055,0.5582904815673828,0.002224280074568095,0.003668069138309857,0.006601159427661603,0.00010314706014469266,-0.0015738236252218485,-0.003916991874575615,-0.028572439842391762,0.09161457683891057,-9.80776636362076
5.51,1.7000000476837158,211.0,24.08194351196289,0.039758868515491486,-79.78280363030724,40.45904492668432,267.5933221235275,-0.004731610883027315,-0.0014116305392235518,-0.8296325206756592,0.558288037776947,0.002270935162899296,0.003783055366817417,0.0064606053265104145,-0.0006862807786092162,-0.00021765546989627185,-0.0008092430653050543,-0.028657848020084205,0.09061736161820592,-9.807192751765252
5.6,1.7000000476837158,214.0,24.08069038391113,0.03180709481239319,-79.78280360903294,40.459044853624796,267.58952219331263,-0.004728124011307955,-0.0014074258506298065,-0.8296328186988831,0.5582876205444336,0.005741081638277364,0.004424368721652323,0.011395007278918672,0.0009708965080790225,0.0017417462076991794,0.003065147204324603,-0.02761040841462091,0.09381141230463982,-9.806887527108193
5.81,1.600000023841858,214.0,24.078187942504893,0.03180709481239319,-79.78280358735104,40.45904482036354,267.58531730914115,-0.004731146153062582,-0.0014127528993412852,-0.8296339511871338,0.5582858920097351,-0.0001763222990043623,0.001619310939149482,0.014236882744803519,0.0004915178287774324,-0.0006571888807229698,-0.002733964705839753,-0.029926734929904344,0.09107747353613377,-9.80838499903679
6.0,1.600000023841858,215.0,24.078187942504893,0.03180709481239319,-79.7828035854003,40.45904482010522,267.58673853719245,-0.00473124161362648,-0.001412989106029272,-0.8296354413032532,0.5582836866378784,-0.000251770460880245,0.001647036596726892,0.014287673485510174,0.002239981666207313,0.003240892896428705,0.0005415611085481942,-0.029084094052668662,0.08998213472776115,-9.80733542382717
6.11,1.600000023841858,211.0,24.078187942504893,0.02385532110929489,-79.78280356664665,40.459044774282496,267.57970906341075,-0.004730338230729103,-0.0014116255333647132,-0.8296350240707397,0.5582842826843262,-0.0001886366566879854,0.0014319411053396905,0.012514388903842157,-0.0041755447164177895,0.0006865559262223543,0.0002945653686765581,-0.02795696786139161,0.09404992388561367,-9.805354387164117
6.2,1.600000023841858,210.0,24.076934814453125,0.039758868515491486,-79.78280356288639,40.45904477365513,267.582195232749,-0.00472983019426465,-0.0014111916534602642,-0.8296359777450562,0.5582829117774963,-0.000429501234378193,0.0016365316198973456,0.01237976225539751,-0.002811532933264971,-0.001857198541983962,0.002655422082170844,-0.028182021710090342,0.09117818268947303,-9.806112186312676
6.4,1.5,212.0,24.07192611694336,0.04771064221858978,-79.78280354013216,40.45904470881632,267.57504720532893,-0.0047263880260288715,-0.0014060583198443055,-0.8296356201171875,0.5582835078239441,0.0035770380373679033,0.002848603822851857,0.010830675567867218,0.001687346724793315,0.00038692366797477007,-0.001460245461203158,-0.028107040305621923,0.09358114164322616,-9.806116864085196
6.61,1.5,214.0,24.08194351196289,0.039758868515491486,-79.78280351679709,40.45904466950875,267.56909459376334,-0.00472882017493248,-0.0014100025873631241,-0.8296367526054382,0.5582817792892456,-0.0014015334632710625,0.0007110806696949196,0.009952869350603495,-0.00015159405302256346,0.0006619726191274822,-0.0022236942313611507,-0.028463795834686605,0.09305936900898816,-9.806143761277198
6.7,1.5,215.0,24.07943916320801,0.04771064221858978,-79.78280351533823,40.45904467042461,267.57008102083205,-0.00472882017493248,-0.0014100025873631241,-0.8296367526054382,0.5582817792892456,-0.0012896725035708516,0.0007593879439514867,0.009804343153548254,0.002242699731141329,0.00013838353333994746,0.001708717318251729,-0.02820108683081344,0.09151200388558207,-9.80549179673195
6.8,1.600000023841858,213.0,24.07192611694336,0.039758868515491486,-79.78280348708729,40.4590445953586,267.5665377780199,-0.004724444821476936,-0.0014033468905836346,-0.8296377658843994,0.558280348777771,0.003140042386533457,0.0027159563006673468,0.01299727361066233,0.00025641010142862797,-0.0020027633290737867,-0.0010007786331698296,-0.0269662097026594,0.09118938376195727,-9.807723094224933
7.01,1.7000000476837158,213.0,24.083194732666016,0.03180709481239319,-79.78280348540744,40.45904459183458,267.5678413763046,-0.004724353551864624,-0.0014035796048119664,-0.8296387791633606,0.5582787990570068,0.0032748032533947515,0.0027942807568941096,0.013024745949939577,0.002412643283605576,0.0019304989837110047,0.001654301886446774,-0.029360240232199436,0.09070809395983816,-9.807923069000244
7.11,1.600000023841858,214.0,24.07192611694336,0.02385532110929489,-79.78280348349708,40.45904455397052,267.56301760220526,-0.004723177757114172,-0.0014079317916184664,-0.8296383619308472,0.5582793951034546,0.0007543889461290625,-0.0015192816108686195,0.011696815801136507,0.0031895404681563373,0.0013863726053386927,0.00012565660290420055,-0.02879240935435519,0.09246535585261882,-9.805998750329016
7.31,1.600000023841858,219.0,24.078187942504893,0.02385532110929489,-79.78280348535543,40.459044553992655,267.564185868144,-0.004722634330391886,-0.001407601055689156,-0.8296391367912292,0.5582784414291382,0.0005636727840778577,-0.0014129193208426759,0.01163320922874728,-0.0003420129651203752,0.0033542546443641186,0.0016949630808085205,-0.028266806337051094,0.09075913832522928,-9.807172871232034
7.4,1.5,221.0,24.06942367553711,0.02385532110929489,-79.782803460168,40.459044498897796,267.55948927545546,-0.004722786601632834,-0.0014053062768653035,-0.8296397924423218,0.5582773685455322,0.0007964459265865567,-0.00030320074833953725,0.010445675871845944,0.0025518001057207584,0.00043870985973626375,0.000621324812527746,-0.02773799420334399,0.0946641373448074,-9.805459052324297
7.6,1.399999976158142,224.0,24.08194351196289,0.06361418962478638,-79.78280343628133,40.45904442690679,267.55398709619044,-0.004719989839941263,-0.0013993361499160528,-0.8296395540237427,0.5582777261734009,0.004317880027312562,0.00180858746231258,0.009771531294231544,-0.0012415823293849824,-0.0014997568214312196,-0.0026086177676916122,-0.02799957259325311,0.09381701284088197,-9.806471790075305
7.7,1.399999976158142,225.0,24.07943916320801,0.04771064221858978,-79.78280343594085,40.459044418392295,267.5559185847044,-0.004719584248960018,-0.0013991539599373934,-0.829640805721283,0.5582758784294128,0.0042136596386820975,0.00198793637960154,0.009571078885518048,-0.0019131115404888988,0.0007140664383769035,0.0024950422812253237,-0.028296866964083168,0.09091518589295447,-9.805977115631103
7.91,1.399999976158142,229.0,24.06817054748535,0.039758868515491486,-79.78280344338131,40.45904436328939,267.54808635556697,-0.004715318325906992,-0.0014026015996932983,-0.8296399116516113,0.5582771897315979,0.004587851085155751,-0.0034368411559593365,0.003920135394774096,-0.00045463989954441786,-0.0013188039883971214,-0.002116407733410597,-0.028383232166524983,0.09300166429951788,-9.805050331950188
8.1,1.7000000476837158,225.0,24.07192611694336,0.04771064221858978,-79.78280342548781,40.45904430176483,267.5445555999279,-0.004716560244560243,-0.001400580513291061,-0.8296412229537964,0.5582752227783203,0.003575533881993806,-0.0020867516996480487,0.005265135337980022,-0.001223296974785626,0.002738864161074161,-0.001883810618892312,-0.02905308325309306,0.09114268826320768,-9.806903899312019
8.2,1.7999999523162842,223.0,24.08194351196289,0.039758868515491486,-79.78280342929939,40.459044299552545,267.5450788542032,-0.004716560244560243,-0.001400580513291061,-0.8296412229537964,0.5582752227783203,0.003528175487656463,-0.002018650740010913,0.005127576819071623,0.0005892498884350061,0.0014499220997095108,0.002388190478086472,-0.028334264019504188,0.0900740547850728,-9.806519737243653
8.3,1.7999999523162842,222.0,24.078187942504893,0.039758868515491486,-79.7828034327287,40.459044256130255,267.5422359212637,-0.004716238472610712,-0.0014044621493667366,-0.8296417593955994,0.5582744479179382,0.0005857698346056687,-0.005824905985950519,0.0066023676510310785,0.001066541182808578,0.003618894377723336,0.002657953649759293,-0.0272538424632512,0.09417051357217134,-9.806243163943293
8.5,2.0,220.0,24.06942367553711,0.039758868515491486,-79.78280343925877,40.45904425780228,267.5428982927799,-0.004716097377240658,-0.001404587063007057,-0.8296434879302979,0.5582718849182129,0.000333795313971176,-0.005767268524864182,0.006582829979669169,-0.002815546002238989,-0.0008619956206530333,-0.002881149528548121,-0.02706336027709768,0.09484611365944147,-9.804812934994699
8.6,1.8999999761581416,223.0,24.07443046569824,0.03180709481239319,-79.78280342233012,40.45904419717011,267.540754373312,-0.004716762807220221,-0.0014002157840877776,-0.8296435475349426,0.5582717657089233,0.0006958088768604622,-0.002936480818499735,0.007515383950596302,-0.001498000812716782,0.002129771048203111,0.0009484766051173213,-0.028785803827922788,0.09124945476651193,-9.80727870583534
8.8,2.0999999046325684,223.0,24.078187942504893,0.02385532110929489,-79.78280342573588,40.45904419754759,267.5414997442961,-0.0047167581506073475,-0.0014005698030814526,-0.8296455144882202,0.5582689046859741,0.000914608686963492,-0.0027166222610345127,0.0073587868480604,-0.0007678595138713717,-0.00042709647095762193,-0.00053654849762097,-0.027220248382072897,0.09196210244670512,-9.806272400021554
8.9,2.200000047683716,221.0,24.078187942504893,0.02385532110929489,-79.78280338754031,40.45904411313629,267.5397841736078,-0.004717329051345587,-0.0013911693822592495,-0.8296475410461426,0.5582659244537354,0.0033345972295460127,0.0040552083916360615,0.007935368738300159,0.001860043033957481,-0.0008114701486192644,-0.0019985423423349857,-0.027585607997607443,0.09218746692873538,-9.80663434267044
9.11,2.299999952316284,222.0,24.07943916320801,0.02385532110929489,-79.78280337925764,40.45904405808975,267.5376482262611,-0.004716564435511828,-0.001391077763400972,-0.8296474814414978,0.5582659840583801,0.0027610891135822642,0.00317298232435314,0.008324393255299779,-0.00012548011727631092,0.00034482160117477184,0.007050238084048033,-0.029285425564739856,0.09034931246191263,-9.8069261187315
9.3,2.299999952316284,226.0,24.07943916320801,0.03180709481239319,-79.78280337437404,40.459044051446035,267.5392982765436,-0.004716354887932539,-0.001391256577335298,-0.8296493887901306,0.5582631826400757,0.0026117647226321502,0.003420762566597947,0.008200154410060452,0.0006073537515476348,-0.00042901048436760897,0.0036126596387475725,-0.02835887029068545,0.08893610439263283,-9.807614336013792
9.4,2.4000000953674316,223.0,24.07317924499512,0.02385532110929489,-79.78280337303255,40.45904399566329,267.5377031519413,-0.004715397488325834,-0.0013915220042690635,-0.8296493291854858,0.5582632422447205,0.0020747497124257485,0.002177486336515592,0.00876883426487005,-0.0001355605199933052,-0.000988025218248367,-0.0017759270267561078,-0.02700083846691996,0.09543397810310124,-9.805777725577355
9.5,2.5999999046325684,220.0,24.078187942504893,0.039758868515491486,-79.78280339778641,40.45904392239451,267.5373613491058,-0.00470654061064124,-0.0013900212943553927,-0.8296504020690918,0.5582617521286011,0.007888546342957516,-0.0012892161032560458,0.00913498083604355,-0.0017424224643036725,-0.0009293450275436043,-0.0005183212924748659,-0.02813139532925561,0.09313625989481808,-9.8078868162632
9.71,2.4000000953674316,220.0,24.08194351196289,0.04771064221858978,-79.78280340261551,40.459043916163296,267.5382700591683,-0.00470654061064124,-0.0013900212943553927,-0.8296504020690918,0.5582617521286011,0.008074167806427208,-0.001135563182138297,0.008927776932207705,-0.0014701014151796699,0.00018991646356880665,0.0006496483110822737,-0.028012523262295873,0.0908138189278543,-9.807182811498645
9.81,2.5,225.0,24.06817054748535,0.07156596332788467,-79.78280340506697,40.459043840550585,267.5382335513234,-0.004705696366727352,-0.0013861097395420074,-0.8296514749526978,0.5582601428031921,0.009100426816898276,0.0009081401624029887,0.009116787011664157,0.0011327778920531273,0.002892999444156885,-0.001344620599411428,-0.029837256541941318,0.09239591103047133,-9.806623817682267
10.0,2.4000000953674316,227.0,24.076934814453125,0.04771064221858978,-79.78280340795871,40.45904383278153,267.5391511275768,-0.0047059101052582255,-0.001386204152368009,-0.8296524286270142,0.5582587122917175,0.008951572976297083,0.001033415877390398,0.009093374117893512,0.0006881786976009607,-0.001447826507501304,0.0019160794327035546,-0.02985837504034862,0.09134756008163096,-9.806610369086263
10.1,2.299999952316284,229.0,24.044382095336914,0.5168653130531311,-79.7828034316103,40.45904379106307,267.53948530101775,-0.004715781658887863,-0.0013979910872876644,-0.8297027945518494,0.5581837892532349,0.005280476822517559,-0.0025950642809784343,0.00911447517524021,-0.001401469693519175,-0.0017394190654158592,0.012817400507628921,-0.027082276933360846,0.09212224306538702,-9.806429690122604
10.31,2.299999952316284,226.0,24.05565071105957,0.3339745104312897,-79.78280343710983,40.45904378832797,267.54040771269797,-0.004697414115071297,-0.001393489190377295,-0.8296312689781189,0.5582902431488037,0.004843288856478107,-0.002878969769894031,0.009406310270066066,-0.0032434503082185984,0.002124325605109334,-0.01295726653188467,-0.035136375669389965,0.08911741375923157,-9.80739974319935
10.4,2.299999952316284,226.0,24.040626525878906,0.3180709481239319,-79.78280344645046,40.459043732737534,267.54121462547783,-0.004696298390626907,-0.0013895138399675488,-0.8296481370925903,0.5582652091979979,0.002835125694413825,-0.0014719039720143918,0.009161108821223994,0.002816400956362486,-0.005374270025640726,-0.010075714439153671,-0.03099046908086166,0.09953119520097972,-9.80473750591278
10.6,2.4000000953674316,225.0,24.05189323425293,0.3339745104312897,-79.78280347408372,40.459043681315634,267.54148116254805,-0.004680604673922062,-0.0013997670030221345,-0.8296587467193604,0.5582495927810669,0.004815757680340652,-0.004679458929927908,0.009317338585447123,0.005437297746539116,0.002666627522557974,0.011369443498551846,-0.028025263797026127,0.09384572815150023,-9.802234897613523
10.7,2.4000000953674316,221.0,24.048137664794922,0.3419262766838074,-79.78280348845867,40.45904367735026,267.5433763965368,-0.004683812148869039,-0.001396061503328383,-0.8296638131141663,0.5582420825958252,0.005239603972637986,-0.005629980671359591,0.009514062946875592,-0.0014826625119894745,0.0013801695313304665,0.01188685651868582,-0.031855943792033936,0.0846921861357987,-9.809404168725017
10.9,2.5999999046325684,213.0,24.04939079284668,0.3816851377487183,-79.78280349433871,40.45904362865434,267.54411179864405,-0.004680843092501164,-0.00139034993480891,-0.8296216130256653,0.5583047866821289,0.0024233392912303107,-0.0026591572000996995,0.009600447780220038,-0.00170389236882329,-0.002943067345768213,-0.009543677791953087,-0.03258311586454511,0.09290587959811092,-9.803689684867859
11.01,2.4000000953674316,211.0,24.04939079284668,0.4373475611209869,-79.78280351259937,40.459043566761714,267.54608661973475,-0.004658847581595182,-0.0013874552678316832,-0.8296232819557191,0.5583024024963379,0.005604497787519194,-0.0002078554040616954,0.009823668796220424,-0.004566347226500511,-0.0016010302351787686,-0.005172817036509514,-0.02292642551008612,0.10011222571134568,-9.808357517123225
11.21,2.299999952316284,208.0,24.04187774658203,0.5168653130531311,-79.78280351561793,40.45904356223031,267.5470630034208,-0.004649203270673753,-0.0013778185239061713,-0.8296524882316589,0.5582590699195862,0.006087835269942721,-0.0005360479098268367,0.00975330020471697,0.0033713679295033216,0.0007624756544828415,0.0043295989744365215,-0.029837270246353007,0.0974488646630198,-9.808085621595383
11.3,2.299999952316284,209.0,23.39206314086914,6.04334831237793,-79.78280355417154,40.459043531652476,267.5493459060192,-0.004523716401308775,-0.0011662169126793742,-0.8297597765922546,0.5581012964248657,0.0022917302378499768,-0.0006950161584508041,0.010813343597039131,-0.029601989313960075,-0.060325242578983314,0.003873527515679598,-0.04764726100489498,0.08667584490962328,-9.819001203775406
11.5,2.299999952316284,211.0,24.03937339782715,0.3419262766838074,-79.78280356034884,40.45904353189753,267.5503018006086,-0.004536390770226717,-0.001140677253715694,-0.8297477960586548,0.5581189393997192,0.002077473963566193,-0.00524001576479209,0.008884452616870184,-0.008132374845445156,-0.005418035201728344,-0.010278892703354359,-0.025929269960615783,0.059369265586137775,-9.806627326011656
11.6,2.4000000953674316,209.0,24.0468864440918,0.3101191818714142,-79.78280357702486,40.45904348681111,267.5530640437603,-0.004609904251992703,-0.00120695645455271,-0.8297274112701416,0.5581484436988831,0.002956791234482921,-0.0015655066516701347,0.010407832027094721,0.03403020277619362,0.0010220084805041554,-0.02973214164376259,-0.01602830075193197,0.08941657193005086,-9.810369544029236
11.8,2.5,208.0,23.98553466796875,0.8031291365623474,-79.78280358068817,40.459043484418174,267.554102609992,-0.004500864539295435,-0.0010429585818201306,-0.8297629952430725,0.5580968856811523,0.004415290461141411,-0.0016099117354587465,0.01031911714780929,0.029084522277116776,0.018300589174032208,-0.020878061652183533,-0.0004223454144084826,0.0932502075098455,-9.790380252599718
11.9,2.4000000953674316,210.0,24.040626525878906,0.326022744178772,-79.78280363351166,40.459043468770304,267.5537985816002,-0.004608838818967342,-0.0010845817159861326,-0.8297377228736877,0.5581335425376892,0.00042876158655951287,-0.006124934854352126,0.0051935433986202255,0.007143792696297169,-0.018770216032862663,0.007347588427364826,-0.051515491087920966,0.12360374350100756,-9.809928663969039
12.1,2.5,211.0,24.033113479614247,0.5645759701728821,-79.78280365708072,40.459043417929735,267.5550668939352,-0.0046260729432106035,-0.0011898758821189404,-0.8297370076179504,0.5581341981887817,0.002233621360839163,-0.0036159197699470592,0.006284364320140647,5.917832822888158e-05,-0.005691051483154297,-0.004739382304251194,-0.01718310186057351,0.0929608251526952,-9.814073170423507
12.2,2.4000000953674316,212.0,23.78645896911621,3.013722419738768,-79.7828036665798,40.45904341530413,267.55638160848616,-0.004655467811971903,-0.0012776294024661186,-0.8297150135040283,0.5581664443016052,0.0015698634123494592,-0.002468683652886381,0.006060196865175404,-0.013946372084319592,-0.01801472157239914,0.0064575206488370895,-0.026539954533800484,0.1346812204644084,-9.80901357471943
12.4,2.4000000953674316,216.0,23.628700256347656,4.946003437042236,-79.78280371185427,40.45904337631272,267.55851506733893,-0.004631590563803911,-0.0012298824731260538,-0.8297223448753357,0.5581558346748352,0.0047191793555617385,-0.003436921352798838,0.00845505279569724,-0.01696862280368805,-0.01866544969379902,0.010126616805791857,-0.07180027247406542,0.07276058628223837,-9.781338118314745
12.5,2.5,217.0,23.54606628417969,6.345515727996826,-79.78280373980411,40.45904334938518,267.5610857262611,-0.004570482298731804,-0.0009633893496356905,-0.8298005461692809,0.5580406188964844,0.002720490556061017,-0.0034757049239520174,0.01107351485736117,0.03951624780893327,0.009569969028234482,0.024401793256402016,-0.04989557937718928,0.07109111941885203,-9.785553960800172
12.7,2.5999999046325684,221.0,23.363265991210927,8.516349792480469,-79.78280374430192,40.45904335008245,267.56203387224673,-0.004402427468448877,-0.0007999562658369541,-0.8298222422599792,0.558009922504425,0.0021411987706556287,-0.0061473612778757325,0.007286772852891291,0.034118976444005966,0.014510196633636953,-0.09119361639022827,-0.01910250635817647,0.015457781525328756,-9.820206899642946
12.8,2.5999999046325684,218.0,23.23680877685547,9.939717292785645,-79.78280376071649,40.459043291764154,267.56577653729914,-0.0036981727462261924,-0.00023922634136397392,-0.8299000263214111,0.5578999519348145,0.010804025329732351,0.0004815699232774157,0.011929413375970293,0.07202287763357162,-0.000611713738180697,-0.02339004352688789,0.017863527042791247,0.2395076541602612,-9.849205580949784
13.01,2.5999999046325684,217.0,23.00893592834473,12.730790138244627,-79.782803764208,40.459043283853795,267.56708792889117,-0.0030327243730425835,0.0003739976091310382,-0.8300044536590576,0.5577484369277954,0.009823405257031471,0.0015312181314292,0.014573973916916116,0.037511467933654785,-0.044787682592868805,0.06869988143444061,-0.054721724996343264,0.004171434195886832,-9.855759140253069
13.1,2.5,216.0,22.90251159667969,14.551746368408205,-79.78280380129009,40.4590432688224,267.567761819005,-0.0011624709004536273,0.0014620190486311913,-0.8301778435707092,0.557495653629303,0.00019480535490647657,0.003536639770007719,0.013450682390860957,-0.041024260222911835,-0.013104652985930445,-0.05746433883905412,0.06661188727710396,-0.13250634860247373,-9.86079125404358
13.3,2.5999999046325684,216.0,22.63958168029785,17.668842315673828,-79.78280383096971,40.45904321747162,267.5704427614212,0.00010902142821578308,0.0017808977281674747,-0.8301587700843811,0.5575242042541504,0.000780880968868801,-0.0013920857029777495,0.015932858444092084,0.02645012550055981,-0.0057722190394997605,0.02108094096183777,0.009983193394728005,-0.05871323083061725,-9.873637586832047
13.41,2.5999999046325684,213.0,22.493091583251953,19.17172622680664,-79.78280382936184,40.459043216779186,267.5745255305767,0.0010137404315173626,0.0005646367790177463,-0.8299173712730408,0.5578851103782654,-0.0012197084087649177,0.0061306082609618034,0.025164539452804915,-0.003570219734683633,0.02932792529463768,-0.03873131051659584,-0.014068531051743776,-0.09130810964852573,-9.799166863560675
13.6,2.5999999046325684,210.0,22.2426815032959,22.614845275878906,-79.78280389008995,40.45904320538494,267.5763821109533,0.0017970680491998796,0.000194603533600457,-0.8294283747673035,0.5586102604866028,0.01065645916371883,-0.007024939484697057,0.01873131693214637,0.11017828434705734,0.033456459641456604,-0.04029317945241928,-0.01715968673117459,0.12611276546493172,-9.82005253314972
13.7,2.5999999046325684,208.0,22.1062068939209,24.28471755981445,-79.78280388018048,40.459043237705394,267.5874872460365,-0.0017959036631509664,-0.00383354933001101,-0.8297759294509888,0.5580806136131287,-0.03521927661832633,0.009934358007545682,0.10279828114454513,-0.009567074477672577,-0.07340550422668457,-0.054387427866458886,0.006661334793898278,-0.235070384927094,-10.028088279962539
13.91,2.5999999046325684,206.0,22.272729873657227,21.350513458251953,-79.78280392237666,40.45904313697137,267.5921909763813,-0.0044095260091125965,0.0013885167427361012,-0.8297528028488159,0.5581120848655701,-0.0360350613955904,0.041679241810735033,0.1955074358733993,0.042247697710990906,-0.20813389122486115,-0.04628148302435875,0.3413887356966734,-0.062423654613085085,-10.77597405910492
14.0,2.5,202.0,22.26772117614746,21.45388603210449,-79.7828038947202,40.45904330122846,267.6386831655502,-0.008981290273368359,0.00372510333545506,-0.8290419578552246,0.5591018199920654,-0.0995329119142499,0.0517652261629553,0.2972624297045487,-0.10363113135099412,0.17487704753875732,-0.022886674851179126,0.03313231559470296,-0.21601164132356648,-10.640213406085973
14.2,2.299999952316284,200.0,22.233917236328125,21.469789505004886,-79.78280376642299,40.45904336188492,267.66897263669966,-0.00469461502507329,-0.001188583206385374,-0.8287708759307861,0.5595672130584717,-0.09862073664363616,0.0794959703760241,0.3138765819989385,0.09125423431396484,0.1655227541923523,0.016353057697415352,0.15303467108868066,0.0026127689285203822,-9.997240709066393
14.3,2.299999952316284,200.0,22.297771453857425,20.96087646484375,-79.78280318708411,40.45904344414202,267.70657386922835,0.008121914230287075,-0.009659526869654655,-0.8278123736381531,0.560863196849823,-0.12959093559390894,0.10364611557088108,0.2220186056600412,0.09134218096733092,0.04541407525539398,-0.047905001789331436,0.0010607854183763267,-0.16148814607411624,-9.752462813258171
14.5,2.299999952316284,200.0,22.123735427856445,22.630748748779297,-79.78280302202313,40.45904351642059,267.7274936392307,0.013311877846717834,-0.0070868865586817265,-0.8277270197868347,0.5609284043312073,-0.12984040429598245,0.10055607473934698,0.19212911623452467,0.100752055644989,0.019172094762325287,-0.013275525532662868,0.12623601380735636,-0.11779682795517148,-9.503328741788863
14.6,2.299999952316284,206.0,22.02357292175293,24.658451080322266,-79.78280283556592,40.45904376066225,267.7569863452911,0.013861156068742277,-0.005680863745510578,-0.8279351592063904,0.5606238842010498,-0.16736172752026918,0.06913043249113812,0.13985429287380258,-0.13646920025348666,-0.056989580392837524,0.04384475573897362,0.10960812220349908,-0.4029307900741697,-9.474667444825172
14.8,2.299999952316284,207.0,22.03734397888184,23.950742721557607,-79.78280269129046,40.45904387340606,267.77230119252204,0.005980612244457007,-0.002826567273586989,-0.8278555274009705,0.5609025359153748,-0.1702471788108267,0.07004820428197682,0.1598857928434593,-0.15659478306770325,-0.14915049076080322,0.015729259699583054,0.14178218878805635,-0.20361929001286627,-9.890147784948347
15.0,2.299999952316284,207.0,21.94344139099121,24.674354553222656,-79.78280253149673,40.4590442500755,267.8330615415573,0.011144176125526428,0.007394819520413875,-0.8282419443130493,0.5602111220359802,-0.18209651932561646,0.04341042880737808,0.22307034173887252,0.11689520627260208,-0.03454666957259178,-0.0013618363300338387,0.011957820961251857,-0.205685842204839,-10.018064982891085
15.1,2.0999999046325684,208.0,21.99352264404297,24.141586303710927,-79.78280242808266,40.4590444742471,267.8479965581894,0.01664079912006855,0.009460481815040113,-0.8286040425300598,0.5595079064369202,-0.185800496711032,0.037419304043974345,0.2389857043643871,0.07775373011827469,0.09604699909687042,0.057928342372179024,0.010931652886793021,-0.2912791208177805,-9.9898662006855
15.2,2.5999999046325684,208.0,21.9497013092041,23.99845314025879,-79.7828021739063,40.45904472770816,267.8998727455139,0.01653336547315121,0.00342214060947299,-0.8297014832496643,0.5579519867897034,-0.1718567723891589,0.05526447709564322,0.26604443890484164,-0.13067255914211273,0.06039298325777054,0.08238726854324341,0.07463321648072453,-0.32403445545583964,-9.971646276712418
15.4,2.5,213.0,21.9497013092041,23.227130889892567,-79.78280200029664,40.459044718371736,267.9254687681198,0.014632170088589191,-0.0007785266498103738,-0.8303881883621216,0.5569927096366882,-0.15303022753054213,0.05952045276888621,0.2883687684892029,-0.010877811349928379,0.10754667222499847,-0.018776506185531616,0.1160453036427498,-0.03514113110024482,-10.131751227378846
15.5,2.5999999046325684,211.0,21.962221145629886,24.006404876708984,-79.78280181297684,40.45904489794867,267.9953981294632,0.012382362969219685,-0.003912642598152161,-0.8301018476486206,0.5574607253074646,-0.1612200998371544,0.04434075525978248,0.33205187333178066,0.05605098977684975,0.030333416536450383,-0.14375406503677368,0.14998110889457167,-0.1177984816208482,-10.059821119308474
15.71,2.799999952316284,217.0,21.9209041595459,24.300621032714844,-79.78280170344519,40.459045012698326,268.02960320854186,0.010955390520393848,-0.00014807438128627837,-0.8295769095420837,0.558285117149353,-0.15940434452339314,0.03983691582209862,0.34530516697718266,0.0110189625993371,-0.06978537887334824,-0.007225650362670422,0.10853503935970367,-0.23937263829633595,-9.907790004014972
15.8,2.799999952316284,213.0,21.932172775268555,23.86327362060547,-79.7828015618025,40.45904540038447,268.09172525548934,0.01066395454108715,0.005372084677219391,-0.828891932964325,0.5592814087867737,-0.19422307534499933,0.0225386586876523,0.3495764799385568,-0.09477560222148897,0.03235682472586632,0.04744959622621536,0.17650955172255636,-0.1656499200873077,-9.923624264001845
16.0,2.799999952316284,215.0,21.862056732177734,25.40591812133789,-79.78280145887436,40.45904554175207,268.12189581537245,0.012769663706421852,0.004957752767950296,-0.8291114568710327,0.5589156150817871,-0.17331466857155226,0.02638767375772164,0.2267350038959353,0.08281910419464111,0.0712728202342987,-0.017716433852910995,0.051286814706400036,-0.15025333332829174,-8.792002093791963
16.1,2.9000000953674316,219.0,21.59537124633789,28.79337310791016,-79.7828013050162,40.45904573635915,268.16919335269927,0.02047749049961567,0.006613053847104311,-0.8302266001701355,0.5570105314254761,-0.15804435642852835,0.0401116250641639,0.16133283843137156,0.04700491577386856,-0.047897998243570335,-0.08356495946645738,0.09885403281077744,-0.20957743830978875,-9.008179503679276
16.3,3.0,226.0,21.522750854492188,29.771442413330078,-79.78280119952592,40.45904584645498,268.1895951285362,0.017789363861083984,0.006665619090199471,-0.8313643336296082,0.5554030537605286,-0.15031549378073072,0.03875869989685997,0.23949736796491505,-0.11522773653268815,-0.04823616519570351,0.1435997188091278,0.004829836674034596,-0.4056798950582743,-10.314127053022387
16.4,3.0,227.0,21.378765106201172,30.93239974975586,-79.782800968517,40.459046018520425,268.29229160690306,0.01629452407360077,0.004255384672433138,-0.8337758779525757,0.5518462061882019,-0.14121701866534378,0.05124572730298997,0.5472149736136068,0.009078619070351124,0.01237438339740038,-0.023774420842528343,0.17615955932065847,-0.2064941101334989,-10.792646809816361
16.6,2.9000000953674316,232.0,20.99563789367676,36.458885192871094,-79.78280075699884,40.459046117515115,268.35164954805373,0.018308719620108604,0.0026326659135520467,-0.8343747854232788,0.5508870482444763,-0.14957235248858214,0.034764293222774106,0.6808982470426963,-0.0020831746514886613,-0.012971553951501845,-0.05644332244992256,0.21618579698726534,-0.2276749179325998,-11.364010995626453
16.71,3.0999999046325684,232.0,21.23728370666504,32.75335693359375,-79.78280059010022,40.45904629921269,268.5320210113525,0.01900673657655716,0.0009415147942490877,-0.834489107131958,0.5506958365440369,-0.14310031514369365,0.045961339408343335,1.1228172163585683,0.02350633032619953,-0.07048657536506653,0.0239277146756649,0.15878333374857906,-0.2829156107269228,-11.819811980724337
16.9,2.700000047683716,242.0,21.069509506225586,35.2025032043457,-79.78280049854006,40.45904628664628,268.65700706386565,0.017606595531105995,0.0022745002061128608,-0.8340703845024109,0.5513723492622375,-0.14132756555518408,0.052757080016179146,1.3346060608594077,-0.005553428083658218,0.011047559790313244,0.045942332595586784,0.18010127702727916,-0.33085461124777793,-11.976914970874784
17.11,2.700000047683716,233.0,20.9555721282959,36.11695861816406,-79.78280033576644,40.459046360474865,268.97731014633183,0.01840592920780182,0.004541330505162478,-0.8332701921463013,0.5525408983230591,-0.12578725515714406,0.06029419408716723,1.7940019722470166,0.02915686927735805,-0.02339567430317402,-0.05480437725782394,0.2692314632982016,-0.20249201992526653,-12.128808091878893
17.2,2.5,232.0,20.83287239074707,37.26201248168945,-79.78280026656347,40.459046398269614,269.169424618721,0.019768273457884792,0.004244290292263031,-0.8329136967658997,0.5530335307121277,-0.12738731942213805,0.06523203474917398,2.039550886335073,0.04595592990517616,-0.05048578605055809,0.07362796366214752,0.1910078873857856,-0.3693368185311556,-12.265644632577901
17.3,2.5,230.0,20.933034896850586,36.49069213867188,-79.78280011235466,40.459046372783135,269.6247138633728,0.018087822943925858,0.00477643357589841,-0.8321054577827454,0.5543018579483032,-0.10839598322782333,0.0949384167627648,2.490288054710504,0.04695738106966019,-0.047271143645048135,-0.06834429502487183,0.21651991054415706,-0.4636580714955926,-12.193320422172544
17.5,2.700000047683716,224.0,21.25731658935547,30.59047508239746,-79.78280004455083,40.45904636359463,269.8851549282074,0.0155913308262825,0.0096407076343894,-0.832485556602478,0.5537433624267578,-0.10045031455970313,0.09633930193318388,2.709143135374914,0.04730992019176483,-0.13631312549114227,-0.05366040766239166,0.278932067155838,-0.15425336787477134,-12.025498316287994
17.6,2.700000047683716,217.0,21.23102378845215,32.41143035888672,-79.7827998754337,40.45904625150129,270.45945831680297,0.011633677408099171,0.016498621553182602,-0.8338865041732788,0.5515667796134949,-0.09847920449007992,0.0565573495404772,2.981688253291164,-0.0626223087310791,0.03892475739121437,0.09958291053771973,0.0790518888272345,-0.31176173452287914,-11.539806364774703
17.81,2.799999952316284,207.0,21.495206832885746,27.74374008178711,-79.7827997818764,40.45904619579017,270.76344677352904,0.011119072325527668,0.013714313507080078,-0.8337407112121582,0.5518738627433777,-0.0899224899341805,0.058719372471092164,3.09291907782818,-0.09008459001779556,0.12832213938236234,-0.002928331261500716,-0.02290406676242128,-0.14323365957476195,-10.92811861038208
17.9,2.700000047683716,203.0,21.48268699645996,27.83916091918945,-79.78279945911265,40.459045993929045,271.4167012825012,0.012580790556967258,0.010198553092777727,-0.8318097591400146,0.5548245310783386,-0.06367746276452252,0.12558514516443026,3.190441416784016,-0.0008958206162787975,0.008933760225772858,-0.10792532563209534,0.0738439337303862,-0.3491979845613241,-10.584496457576751
18.1,2.9000000953674316,204.0,21.52901268005371,27.15530776977539,-79.78279930039865,40.45904585702543,271.7409190788269,0.010464809834957123,0.011348558589816092,-0.83111172914505,0.5558911561965942,-0.06544219759033328,0.149919449581268,3.1924127372870563,0.0024517672136425968,-0.04413482919335365,-0.043547995388507836,0.2546299060061574,-0.3276024264469743,-9.974357045888901
18.2,2.9000000953674316,202.0,21.44512367248535,28.20494270324707,-79.78279896355653,40.45904568592476,272.3750447883606,0.008137372322380544,0.016469674184918404,-0.8313130736351013,0.5555007457733154,-0.06559331977621473,0.15057611366587362,3.1722792282536285,0.07349313050508499,0.01933562569320202,-0.10967127233743668,0.13115251718088985,-0.3031298189610243,-9.785151672363284
18.4,3.0999999046325684,200.0,21.511484146118164,26.82928466796875,-79.78279876022583,40.45904561528014,272.7113437309265,0.010497566312551498,0.01588740199804306,-0.8315988183021545,0.5550503730773926,-0.08502792628480008,0.14906887350605288,3.168256583798817,0.012745938263833523,0.047512169927358634,0.03407207131385803,0.03410603231750429,-0.3706830668449402,-9.71779876470566
18.5,3.0999999046325684,199.0,21.47642517089844,27.425668716430664,-79.78279824673405,40.459045364994175,273.35103842163085,0.019039809703826904,0.007064721547067165,-0.8325847387313843,0.5535253286361694,-0.09399809446557872,0.20859240584919653,3.0902504111844413,0.04245115071535111,0.12136184424161912,-0.040151510387659066,0.1180690706614405,-0.3591373009979725,-9.650051754713061
18.7,3.4000000953674316,204.0,21.38627815246582,28.56277275085449,-79.78279801729711,40.45904527193112,273.6583151473999,0.02135697565972805,0.002822652691975236,-0.8334122896194458,0.5522317290306091,-0.09808238498477027,0.2457536634984834,3.0508990195103465,-0.005374014843255282,0.10431483387947084,0.05140228196978569,0.12033851210027935,-0.3085868791490793,-9.435718556642534
18.81,3.5,206.0,21.312406539916992,29.62035751342773,-79.78279757659571,40.459044784205325,274.1943897857666,0.02023399248719216,-0.001872583176009357,-0.83443683385849,0.5507289171218872,-0.06311571073871486,0.27046876129323283,2.950892040944021,-0.12103384733200072,-0.0006061273161321878,0.039784304797649384,0.09337834375910464,-0.3347566044330597,-9.591579013466836
19.0,3.5999999046325684,206.0,21.342456817626953,29.16710662841797,-79.78279739165252,40.45904468272668,274.48975941085814,0.018258269876241684,-0.0019416932482272387,-0.8346462249755859,0.5504804253578186,-0.052716413308852114,0.2568409864697432,2.945822970072543,0.017303625121712685,-0.0050407717935740965,-0.12400978803634645,0.0759431435354054,-0.22420249409973625,-9.755368879437446
19.11,3.5999999046325684,205.0,21.28360939025879,29.93842887878418,-79.78279695246408,40.45904468501345,275.0697593345642,0.01755862683057785,0.0006626107497140765,-0.8347299695014954,0.5503790378570557,-0.06417227924540381,0.20390016548236933,2.904013968414255,0.06446089595556259,-0.02554801665246487,-0.0405619814991951,0.004578534308820963,-0.3216921705007553,-9.719262907505037
19.3,3.5,206.0,21.351221084594727,27.7039794921875,-79.78279680623261,40.459044621612094,275.3603472366333,0.01840522326529026,0.0007933825254440308,-0.8346002101898193,0.5505481362342834,-0.07118679509681086,0.1900242639160678,2.8977983961145566,-0.012466639280319214,0.0103990463539958,0.008736962452530861,0.1077118336223066,-0.3210735350847244,-9.774124408364298
19.4,3.5999999046325684,208.0,21.35372543334961,28.22084617614746,-79.78279586575663,40.45904435683797,276.0638098373413,0.02057828567922116,-0.00150094844866544,-0.8347470760345459,0.5502470135688782,-0.08347712844649573,0.2139148125693721,2.896055701821532,0.007897792384028435,0.03098849393427372,-0.06448068469762802,0.093290343163535,-0.3434301448613405,-9.577056868672374
19.61,3.700000047683716,208.0,21.2134952545166,29.78734588623047,-79.78279544499155,40.4590439718313,276.45224710845946,0.021468866616487503,-0.0032464703544974327,-0.8347508907318115,0.5501996278762817,-0.050201156778630365,0.2336139389740813,2.9296090812642284,-0.02644016779959201,-0.008289925754070282,0.07419507205486298,0.11884651280008254,-0.3214504977688193,-9.713429725170137
19.81,3.700000047683716,208.0,21.2134952545166,29.89071846008301,-79.78279519212714,40.45904379213943,277.03643461608885,0.022785965353250504,-0.0077234809286892405,-0.8345221281051636,0.5504490733146667,-0.031068444200373687,0.2157417211766129,2.8996735438088668,-0.05240539833903314,0.06842935085296631,0.035075634717941284,0.1225203914847225,-0.18982369830831888,-9.619293061494828
19.9,3.700000047683716,208.0,21.244796752929688,30.50300407409668,-79.78279467675138,40.45904361173298,277.41611906433104,0.023014957085251808,-0.009344283491373062,-0.8344540596008301,0.5505174994468689,-0.0424843048369588,0.2358724121761149,2.932265547957236,0.0010969588765874503,0.06775501370429993,-0.09680158644914627,0.10023892756551504,-0.14999918958172204,-9.626672832369804
20.01,3.5999999046325684,209.0,21.281105041503906,28.57072448730469,-79.78279421880791,40.45904338953897,278.0737232818604,0.01942605897784233,-0.010358355939388277,-0.8343547582626343,0.550788164138794,-0.031572228534325585,0.20787245705106394,2.9798826933893143,-0.034037813544273376,-0.07109168916940689,-0.0667295977473259,0.15395600041374566,-0.3199643548205495,-9.822386741638184
20.21,3.5,210.0,21.2385368347168,29.13529968261719,-79.78279415716625,40.45904333120028,278.3720011367799,0.01891377568244934,-0.0094063738361001,-0.8344759941101074,0.5506393909454346,-0.027679353676987324,0.17812255546940553,2.9756474239936943,0.02233005128800869,-0.027941448614001274,-0.08102167397737503,0.2116586085408926,-0.20978068387135865,-9.82059866309166
20.3,3.5,210.0,21.23728370666504,29.381805419921875,-79.78279412040952,40.45904328827918,278.66974588775645,0.019539406523108482,-0.009514213539659977,-0.8344742059707642,0.5506183505058289,-0.038272989559262637,0.1430088341178022,2.9713477964222967,-0.02653592824935913,0.0487835668027401,0.08737123757600784,0.05619416353292764,-0.25255162283778193,-9.710959861278532
20.5,3.4000000953674316,209.0,21.188453674316406,29.81915283203125,-79.7827938699063,40.45904306393461,279.31999250793456,0.021327126771211624,-0.008241946808993816,-0.8344473242759705,0.5506131649017334,-0.04116375161064105,0.1327865406343428,2.99581420362124,0.040360119193792336,-0.0689595639705658,0.039627864956855774,0.1102085764333606,-0.3321043805032969,-9.841949186325074
20.61,3.4000000953674316,210.0,21.133363723754886,30.336017608642567,-79.78279375918069,40.45904274035922,279.9675497665405,0.01944476179778576,-0.006365983746945858,-0.8346040844917297,0.550470232963562,-0.023154037682222864,0.09643677144152576,3.0433633635041137,0.02249510958790779,0.02328412234783173,-0.026638394221663475,0.2186489000357688,-0.18906763505190613,-9.881100972890854
20.81,3.4000000953674316,210.0,21.322423934936523,27.505186080932607,-79.78279380176303,40.459042693949954,280.27235647583007,0.01783319935202599,-0.0061680045910179615,-0.8349716663360596,0.5499693751335144,-0.014116790282315463,0.07746598436507224,3.0476492173192247,-0.03758178651332855,-0.036702804267406464,0.05016234889626503,0.2160041130334139,-0.2643495498597622,-9.910406048297883
21.0,3.4000000953674316,210.0,21.26482963562012,28.62638664245605,-79.78279371806144,40.45904251002915,280.90787550354,0.01830537617206573,-0.005752893630415201,-0.8352330327033997,0.5495613813400269,-0.012746390469471677,0.0544815091856341,3.0131328042933165,0.0036595247220247984,-0.01683000475168228,-0.07590911537408829,0.21141236767172814,-0.21145870685577395,-9.631623669862748
21.11,3.4000000953674316,211.0,21.15089225769043,29.827104568481445,-79.78279386701671,40.45904242464349,281.2440514221191,0.018370220437645912,-0.006404041312634945,-0.8350209593772888,0.5498742461204529,-0.009925939099264416,0.029508819923401063,3.00598575805039,-0.0479448176920414,0.01764824241399765,0.07317280024290085,0.1252387346327305,-0.26384212117642164,-9.55624487400055
21.2,3.299999952316284,208.0,21.229772567749023,29.055782318115234,-79.78279396701727,40.45904239570817,281.54343935394286,0.017269587144255638,-0.007005871739238501,-0.8348927497863771,0.5500971078872681,-0.009971034027986363,0.0215247513642463,2.9887557206505178,-0.0044419425539672375,0.03125813230872153,-0.062470894306898124,0.1799692395888269,-0.15014060083776712,-9.679621708989144
21.41,3.299999952316284,208.0,21.192211151123047,28.87289047241211,-79.78279411441245,40.459042295706574,282.17189260864257,0.012593865394592285,-0.007540841121226548,-0.8349945545196533,0.5500624775886536,0.005377740952956381,-0.007545092288856272,3.0010790039487896,-0.00034386629704386,-0.012499358505010605,-0.06397242844104767,0.16830813741311432,-0.20836794175207607,-9.740284817218779
21.5,3.299999952316284,209.0,21.165916442871094,29.04783058166504,-79.78279439195094,40.45904240966201,282.81209799194335,0.010513689368963242,-0.007710859179496766,-0.8348691463470459,0.5502941012382507,-0.01362847079813894,-0.05149342884407653,3.0507339945356424,0.0048475745134055614,-0.007285376545041799,0.13704343140125275,0.23560807295143604,-0.17666983852162954,-9.923257058858873
21.7,3.2000000476837163,210.0,21.17968940734864,29.723730087280273,-79.78279453667996,40.45904244923957,283.1169333114624,0.012736976146697998,-0.004097485449165106,-0.8348566293716431,0.5503050088882446,-0.02790814517978525,-0.058103542309024925,3.0467247760328786,0.13961239159107208,-0.0372534915804863,-0.020172258839011192,0.13140391090884807,-0.16705237476155166,-9.726821603178976
21.81,3.2000000476837163,209.0,21.15089225769043,29.09554100036621,-79.78279467913781,40.45904249499426,283.42091032409667,0.015605610795319082,0.0013524495298042893,-0.8349788784980774,0.5500590801239014,-0.05167868087636498,-0.06649004438138473,3.038785062392627,0.10811644047498704,-0.0654282197356224,-0.035897094756364815,0.173167685251683,-0.2390383054688573,-9.836842228174213
22.0,3.2000000476837163,210.0,21.282358169555664,27.632413864135746,-79.78279496749825,40.459042430471456,284.05533644104,0.0163740087300539,0.002731948159635067,-0.8349822759628296,0.5500264167785645,-0.08443800298293988,-0.08903938917221109,3.040641673097107,-0.002870118943974376,-0.0100120697170496,-0.06914666295051575,0.14059976301155985,-0.3235885687172413,-9.781408284902573
22.1,3.2000000476837163,209.0,21.22100830078125,28.87289047241211,-79.78279512991348,40.459042470221576,284.3794197692871,0.01452590525150299,-0.000835927261505276,-0.8347423076629639,0.5504487156867981,-0.07020406603389867,-0.08697630904704508,3.0389622519950734,-0.07666494697332382,0.05802128836512565,-0.020591763779520992,0.16351431593298912,-0.22017781902104616,-9.672779297232626
22.3,3.0999999046325684,214.0,21.224763870239254,27.79940223693848,-79.78279542292736,40.459042531557046,284.98416563415526,0.012936339713633059,-0.004219708032906056,-0.8342775702476501,0.5511767268180847,-0.03775378588458311,-0.06588009882668673,3.0181625519187403,-0.037091385573148734,0.033037643879652016,0.04268816113471985,0.15143669100478294,-0.2258554654195905,-9.78204095363617
22.4,3.0999999046325684,212.0,21.21224403381348,28.10951995849609,-79.78279567437787,40.45904249774814,285.6035389556885,0.014520639553666115,-0.0022022807970643052,-0.834926426410675,0.5501657128334045,-0.0363736101103568,-0.06885943472580583,3.0219685157458764,0.07731907814741135,-0.011558941565454006,-0.028272174298763275,0.20497569786384706,-0.2378430432267487,-9.754019342064858
22.61,3.0,214.0,21.163414001464844,28.578676223754893,-79.78279587159767,40.45904244784773,285.91651960754393,0.01567651703953743,-0.0003587206592783332,-0.8352025747299194,0.5497189164161682,-0.03379916471523072,-0.06240297628086401,3.0095705985880636,-0.009195391088724136,-0.016301555559039116,0.028521642088890083,0.2133726649917662,-0.19743876479566091,-9.689936197400094
22.7,3.0,215.0,21.18720245361328,28.51506042480469,-79.78279602086913,40.459042463747615,286.21676107788085,0.015435972250998018,0.0008314762962982059,-0.8355316519737244,0.5492247939109802,-0.040252560106489435,-0.06874791718833352,3.0023007580588086,0.02519787661731243,-0.007359524723142386,-0.035833310335874564,0.1761808285675943,-0.2709355612099171,-9.71968683063984
22.9,3.0,219.0,21.05072784423828,29.556743621826172,-79.78279634298076,40.4590425069344,286.8263249053955,0.013591397553682327,0.0003854530514217913,-0.835338294506073,0.5495681166648865,-0.03671149631348235,-0.08062846614979192,3.0082523259230936,-0.029693566262722005,-0.004255339968949556,-0.018464438617229455,0.1974078841879964,-0.16849402405321598,-9.792218617200852
23.01,3.0,219.0,21.174680709838867,28.936504364013672,-79.78279665305541,40.4590425086891,287.4367813720703,0.010051187127828598,-0.0011758239706978204,-0.8346798419952393,0.5506426692008972,-0.010464403276078796,-0.07251705784158255,3.009696726887917,-0.09613866358995438,-0.01646536774933338,0.05035786703228951,0.1507983577810228,-0.17405942218378187,-9.742185162305832
23.2,3.0,220.0,21.56782531738281,23.50544357299805,-79.78279679451326,40.45904250975888,287.736790145874,0.008395165205001831,-0.001473478158004582,-0.834705650806427,0.5506304502487183,-3.675493800090824e-05,-0.07012186992197697,2.9895403858469267,0.008172136731445791,-0.01621018536388874,0.008365875110030174,0.21282143700867887,-0.2103649668954313,-9.587918071746829
23.3,3.0,221.0,21.490198135375977,24.04616355895996,-79.78279692496082,40.45904251047735,288.0324501647949,0.00799025222659111,-0.0017429273575544355,-0.8348298668861389,0.5504474043846129,0.009849018756295331,-0.06222970323596709,2.919265503812672,-0.032083380967378616,0.0032822994980961084,0.0992162674665451,0.16935091523453594,-0.21489453077316284,-9.233029503822328
23.5,2.9000000953674316,217.0,21.684267044067386,21.056297302246094,-79.78279711068335,40.45904251241723,288.6067509307861,0.008111060597002506,-0.003168170340359211,-0.8350113034248352,0.5501639246940613,-0.01217778898436035,-0.049238466611854416,2.7105338604734133,0.033612608909606934,0.04016591235995293,-0.0852973535656929,0.2129821988940239,-0.07942629335448148,-8.691388469338419
23.6,2.9000000953674316,218.0,21.662981033325195,21.899185180664066,-79.7827972825186,40.4590424901706,288.8931965484619,0.00942193903028965,-0.0033305061515420675,-0.8350839018821716,0.5500319004058838,-0.010412944644182569,-0.040006343935876834,2.6103272258933004,0.009684714488685131,0.010764816775918009,-0.0005144067108631134,0.19547442924231287,-0.11143325747922064,-8.499571729302406
23.81,2.9000000953674316,218.0,21.7205753326416,21.382320404052734,-79.78279745500599,40.45904252789066,289.3849300994873,0.014566400088369846,-0.0008020822424441576,-0.8351818323135376,0.5497804284095764,-0.033735846871673435,-0.02938604515161812,2.313463382599912,-0.0053571052849292755,-0.033562712371349335,0.020272869616746902,0.1591363045759499,-0.21212393727153545,-8.335733916163445
23.91,2.9000000953674316,217.0,21.594118118286133,22.614845275878906,-79.78279759594103,40.459042520140535,289.83615156555175,0.016630494967103004,0.0016013429267331958,-0.8345888257026672,0.5506200790405273,-0.05772522972848685,-0.04065170986118465,2.0533917932492605,-0.0004928507260046898,0.02993333525955677,-0.07843668758869171,0.14850016448646786,-0.2520155062526465,-8.289759013652803
24.11,2.799999952316284,218.0,21.5452880859375,23.03628921508789,-79.78279765132348,40.459042470056794,290.0536350860596,0.01620347611606121,0.00022259987599682066,-0.8341285586357117,0.5513321161270142,-0.05088921992376216,-0.03434910381020602,1.9684855455277832,-0.03283241018652916,-0.02605309896171093,-0.0070580109022557735,0.15539779588580133,-0.2660407838970423,-8.638658278584481
24.2,2.799999952316284,219.0,21.52901268005371,22.511472702026367,-79.78279772838152,40.459042484289476,290.2457623138428,0.015572728589177132,-0.001293674111366272,-0.8338204622268677,0.5518146157264711,-0.044912103142080766,-0.0374990817242514,1.8767721565024087,-0.009920484386384487,0.03524260222911835,-0.06781557202339172,0.13532346401363612,-0.14109262847341594,-8.824334857463837
24.4,2.700000047683716,217.0,21.61415100097656,22.392194747924805,-79.78279788982559,40.45904245823822,290.6275143280029,0.01656373031437397,-0.005007338244467975,-0.8336327075958252,0.5520480871200562,-0.018685793490042815,-0.034264375977674524,1.7465889190164552,-0.027971923351287842,0.06062451377511025,-0.0142218004912138,0.1016585127543658,-0.13753332780674102,-8.916952414512632
24.5,2.5999999046325684,216.0,21.562816619873047,22.050268173217773,-79.78279807877149,40.45904241199051,290.9963230743408,0.019236641004681587,-0.005415043327957393,-0.8338133692741394,0.5516846776008606,-0.01111223853685128,-0.028885045564517813,1.6267043317039669,-0.02945287339389324,-0.01039802934974432,0.0246861893683672,0.06380419593304396,-0.2348843703791499,-8.90517495274544
24.7,2.5,215.0,21.56532096862793,23.068096160888672,-79.78279818451406,40.459042414926365,291.1550373687744,0.018738415092229843,-0.0036844927817583093,-0.8337982892990112,0.5517388582229614,-0.004474829963802154,-0.03916845974710584,1.5555443644003446,0.04292593523859978,-0.029731579124927517,0.006169352680444717,0.2494604191929102,-0.16450920140370728,-9.100276073813438
24.8,2.5,214.0,21.536523818969727,23.17146873474121,-79.7827982985804,40.45904241537242,291.3072476043701,0.01699367165565491,-0.0022659148089587693,-0.8338910937309265,0.551662802696228,0.0022958886874563174,-0.04932787402962186,1.4944283749536438,-0.035282619297504425,-0.0729932114481926,0.06029987707734107,0.2020987946726382,-0.2413739026710391,-9.136375029087068
25.01,2.4000000953674316,215.0,21.566574096679688,23.13966178894043,-79.78279843833485,40.45904234656728,291.64975019836425,0.01307328324764967,-0.0034511045087128878,-0.8346328139305115,0.5506408214569092,0.012122807532103751,-0.057110473766193125,1.4260174413775475,-0.09914468228816986,-0.020134203135967255,0.12847299873828888,0.1603467695787549,-0.3148248349875212,-9.192860301733015
25.11,2.4000000953674316,215.0,21.52525520324707,23.51339530944824,-79.78279849369555,40.45904229836599,291.8407921447754,0.011269545182585716,-0.006869895849376917,-0.8350158929824829,0.5500675439834595,0.004544710334427476,-0.05296877756882002,1.4256222930179878,-0.16898395121097565,0.048427559435367584,0.04059803858399391,0.13890483791939914,-0.22090625418350104,-9.159841659665108
25.31,2.299999952316284,216.0,21.7844295501709,20.984731674194336,-79.78279869870785,40.45904231530936,292.10864302062987,0.009666691534221172,-0.010068716481328007,-0.8348446488380432,0.5503087639808655,0.0127638702989196,-0.05250781446716655,1.1743362135118636,0.11437411606311798,-7.507597183575855e-05,-0.16280709207057953,0.2112358365766704,-0.14892735840752722,-8.053205226659776
25.41,2.200000047683716,217.0,21.61164665222168,22.097980499267575,-79.78279886946866,40.459042349848005,292.34444662475585,0.014136387035250662,-0.0005485237343236804,-0.8004987239837646,0.5991674661636353,-0.051793150484940285,-0.06995927441113038,0.7975847088775513,0.0421653538942337,-0.08436442166566849,-0.8412086963653564,0.19542337574064733,-0.2930250080488622,-7.5701053458452225
25.61,2.0999999046325684,220.0,21.7456169128418,19.982807159423828,-79.78279900641995,40.459042418981646,292.38809629821776,0.01311746146529913,0.0010863427305594089,-0.7688904404640198,0.6392452120780945,-0.07553105207729857,-0.08037166057671792,0.6837483884331172,0.06980820000171661,-0.019410299137234688,-1.1985859870910645,0.13002262498252096,-0.30031120520085103,-8.449784442186356
25.71,2.0999999046325684,223.0,21.684267044067386,21.024490356445312,-79.78279908901193,40.459042498382075,292.45151564025883,0.012362671084702015,0.0010731954826042056,-0.7305426001548767,0.682754397392273,-0.08396782424039836,-0.07549744608009049,0.5835540289330354,0.029627127572894093,0.017316248267889026,-1.2074735164642334,0.16004832403734326,-0.2540586147643626,-8.752163844108582
25.9,2.0999999046325684,208.0,21.5352725982666,23.12375831604004,-79.78279924261288,40.45904269921297,292.4940132751465,0.01570991799235344,0.0024308688007295127,-0.6525835394859314,0.7575500607490541,-0.08714208063372225,-0.044901131696694636,0.4312721684936612,0.02993417903780937,-0.026350606232881543,-0.9098619222640992,0.26530723242089155,-0.2461211108788848,-9.1278240609169
26.0,2.0999999046325684,192.0,21.495206832885746,23.51339530944824,-79.78279935697647,40.45904292973361,292.50377699279784,0.017388366162776947,0.0015372599009424448,-0.596518337726593,0.8024096488952637,-0.0645899338457528,-0.0070018431995824346,0.3643594693843416,0.056558914482593536,0.03038193471729756,-0.4215432107448578,0.27224707340821624,-0.046349014677107336,-9.361018622517586
26.2,2.200000047683716,197.0,21.619159698486328,21.771957397460934,-79.7827993781819,40.459042958932464,292.540127243042,0.024162599816918373,0.0042214496061205855,-0.5792821049690247,0.8147580623626709,-0.0237555409604212,0.008231789683844472,0.3692818321179668,0.2492891401052475,0.056233622133731835,-0.290828138589859,0.3979104072600603,0.0380453791609034,-9.772471400499343
26.31,2.200000047683716,200.0,21.40255546569824,25.14350891113281,-79.78279936434734,40.459042961903755,292.5762676849365,0.03259605169296265,0.01859939843416214,-0.5692094564437866,0.8213356137275696,0.019917593795189655,0.0505614206930947,0.3488793185969861,0.3661304712295532,-0.21400795876979828,-0.12025658786296844,0.8833265894651413,-0.1502073778677732,-9.652790590524674
26.5,2.0999999046325684,190.0,21.477678298950195,23.5849609375,-79.78279897850278,40.45904291004708,292.61969801330565,-0.0039046837482601404,0.05614528805017471,-0.5651077032089233,0.8230952024459839,0.07820035355253083,0.2002139043635812,0.34698985304310376,-0.13908818364143372,-0.6930114030838013,0.04913211986422539,0.4797332733124495,-0.3119188784435392,-9.654054173827172
26.6,2.0999999046325684,167.0,21.47266960144043,23.82351493835449,-79.78279847641555,40.45904310571157,292.615997756958,-0.0339609794318676,0.06824418902397156,-0.5678263306617737,0.8196113109588623,0.10825623169596872,0.2974698149240621,0.3855060417028352,-0.1231561079621315,-0.5648761391639711,0.05754498019814491,0.3927650036662817,-0.2871606344729662,-9.860633379220962
26.81,2.0999999046325684,170.0,21.26482963562012,26.29651641845703,-79.78279734344066,40.459043135060746,292.689146484375,-0.07263007014989853,0.07787927985191345,-0.5784095525741577,0.8087657690048218,0.16365911403440342,0.6105605100508198,0.49068817462954106,-0.14913330972194672,-0.19887647032737726,0.19377733767032626,0.07962582958862185,-0.13381681012921035,-10.029181709289553
27.0,2.0999999046325684,169.0,21.357481002807614,25.191219329833984,-79.78279579393251,40.459043642493036,292.64532133483885,-0.08160925656557083,0.08122067898511888,-0.5894197821617126,0.7995796203613281,0.15031487355032613,1.0127436313477107,0.5777189862734445,0.03114929236471653,-0.06453443318605423,0.07168839871883392,0.2544574496895075,-0.13633204475976524,-10.108383414745331
27.11,2.200000047683716,153.0,21.377513885498047,25.14350891113281,-79.78279464892906,40.45904410002787,292.5739006652832,-0.08229487389326096,0.08448660373687744,-0.5931463837623596,0.7964088916778564,0.11405515813609934,1.2176707971016365,0.5814895939141482,0.018795963376760483,-0.07944227755069733,0.07243527472019196,0.16762796005234126,-0.25276784190908075,-10.066022676229476
27.2,2.200000047683716,151.0,21.42008399963379,25.23892974853516,-79.78279297514608,40.4590443674531,292.60218283081053,-0.0857093557715416,0.08776857703924179,-0.5954563617706299,0.7939662337303162,0.10392442953664056,1.4624275889796692,0.6380956172547603,0.02617035247385502,-0.1002606749534607,0.06434819102287292,0.07265266860835255,-0.32792537547647954,-10.024349570274351
27.4,2.299999952316284,142.0,21.35622978210449,25.262784957885746,-79.7827890343958,40.45904532295621,292.5700020446777,-0.0980481058359146,0.09279335290193558,-0.5956740379333496,0.7918007373809814,0.07629597594873172,1.9268973448248798,0.7362480869586805,-0.10907655209302902,-0.13396622240543365,0.06701991707086563,-0.07263664815109222,-0.2990912750177085,-9.990577222108842
27.6,2.299999952316284,137.0,21.24730110168457,27.632413864135746,-79.78278387519183,40.45904669680594,292.5303444519043,-0.11081667989492416,0.09982874244451524,-0.5904243588447571,0.7931916117668152,0.05201532271303312,2.42062333693943,0.9120755977451354,0.02523133158683777,-0.07613939791917801,-0.12754225730895996,-0.08561284851282835,-0.2112097799219191,-10.186601618528368
27.7,2.4000000953674316,122.0,21.2385368347168,27.409765243530273,-79.78278077067317,40.45904732715457,292.54994245910643,-0.11443942785263066,0.10452353209257126,-0.5869061350822449,0.7946822047233582,0.0703346346164887,2.6857973215639204,1.0362831712080325,-0.01475961785763502,-0.1323133111000061,-0.14371837675571442,-0.0905624251998961,-0.17871989060193302,-10.25535551905632
27.8,2.5,113.0,21.27359390258789,26.996273040771484,-79.78277379705406,40.45904934178354,292.50931211853026,-0.11852150410413742,0.1151624247431755,-0.579983115196228,0.7976903915405273,0.0703920448272502,3.223798487669625,1.258593665422465,0.01540667749941349,-0.1776154488325119,-0.008830088190734386,-0.2529823433607817,-0.2692998209036887,-10.299477438926695
28.01,2.799999952316284,102.0,21.21099090576172,27.15530776977539,-79.78276970144003,40.45905022927109,292.52720877075194,-0.12044422328472135,0.12043468654155733,-0.5776739716529846,0.7982991337776184,0.10214664680830413,3.5009402337621776,1.3844779006840255,0.040318179875612266,-0.167057067155838,0.03870486840605737,-0.3069753499701619,-0.4988667150959373,-10.222523403167727
28.1,2.9000000953674316,97.0,21.188453674316406,26.61458778381348,-79.78276560275367,40.45905194338575,292.4624790802002,-0.1201992928981781,0.12335378676652907,-0.5756967067718506,0.7993180751800537,0.070597464384309,3.7712647525694254,1.4731148491161,0.05168245360255242,-0.07166359573602676,-0.06880608946084976,-0.2655759485252201,-0.3762844801694155,-10.183373955488202
28.3,3.299999952316284,83.0,21.276098251342773,24.73796844482422,-79.78275578021108,40.459054152888434,292.4902195587158,-0.11442983895540235,0.12301959842443465,-0.5767430663108826,0.7994619607925415,0.13082428317368933,4.323357067823478,1.6834591088791335,0.08983972668647766,0.06834156811237335,0.07197342813014984,-0.46385504957288504,-0.4686573312431574,-10.299297344684602
28.4,3.5,77.0,21.27359390258789,26.360130310058594,-79.78275082163094,40.459056159577926,292.43713423156737,-0.1106366440653801,0.12090188264846805,-0.5776176452636719,0.7996875643730164,0.07013368647519798,4.583510794312343,1.7218864254536452,0.049668911844491966,0.1007002219557762,0.07223866134881972,-0.6208718298375607,-0.4038848729431629,-10.168437827825548
28.61,4.0,70.0,21.331188201904297,24.809534072875977,-79.78273986100255,40.45906001865743,292.38599630737303,-0.10306274890899657,0.11440017819404602,-0.5809468626976013,0.7992444038391113,-0.00609523351394059,5.0943330072069175,1.745663309079614,0.0767744779586792,0.03917831927537918,-0.02313358336687088,-0.4799968365579844,-0.3829781533777714,-10.1681407892704
28.7,4.199999809265137,66.0,21.13837242126465,27.544944763183594,-79.78272721645928,40.45906302240478,292.40652128601073,-0.1010335609316826,0.10871367901563644,-0.5851482152938843,0.7972296476364136,0.007252560720777276,5.552295981278402,1.8116155245503283,-0.01607270911335945,0.014727686531841757,0.027178579941391945,-0.7311476857960224,-0.4665630047768355,-10.083059123754502
28.9,4.800000190734863,66.0,21.269838333129886,25.779651641845703,-79.78272140867237,40.459066277633575,292.33491941833495,-0.09932994097471236,0.10820282995700836,-0.5857229828834534,0.7970911860466003,-0.12718459875582305,5.752686118270347,1.8427715145078951,-0.006185588426887989,-0.028278946876525882,0.13011744618415833,-0.9173255172371864,-0.4326485692709685,-10.15300819516182
29.0,5.099999904632568,64.0,21.321170806884766,24.91290855407715,-79.78271451891369,40.45906798677132,292.34637686157225,-0.097573921084404,0.1088031679391861,-0.5883808135986328,0.7952668070793152,-0.11606435505556685,5.9543064367154335,1.8878553603394248,0.05359199643135072,-0.043719567358493805,0.1011403426527977,-0.8002422597259283,-0.469150324612856,-10.079171894788745
29.2,5.599999904632568,61.0,21.34746551513672,24.952667236328125,-79.78270112548469,40.45907370951672,292.2679009094238,-0.10270658880472183,0.1081472858786583,-0.5914543867111206,0.7924249768257141,-0.2803070649662657,6.331280991161942,1.9100667451519977,-0.033775679767131805,-0.0710655003786087,0.23378729820251465,-1.1252291900664568,-0.4832477057352662,-9.718391672372821
29.3,5.800000190734862,59.0,21.162160873413086,26.94856262207031,-79.78269362710421,40.45907565467376,292.270143951416,-0.10674606263637544,0.10858512669801712,-0.593795895576477,0.7900766134262085,-0.3040389434465149,6.5163228071724975,1.9740512935611685,-0.06141643226146697,-0.1434498280286789,0.013140089809894562,-0.9648673273622992,-0.2901013088598848,-9.611363652348519
29.5,6.300000190734862,59.0,21.24104118347168,25.652421951293945,-79.78267947396193,40.45908206367781,292.18333097839354,-0.10447239875793456,0.10563518851995468,-0.595247745513916,0.7896878719329834,-0.4904169186728778,6.83158630475646,2.112916993754032,-0.06559275090694427,0.08859594166278839,0.15716436505317688,-1.1367221117019657,-0.4371454070135951,-10.032327511310578
29.71,6.599999904632568,57.0,21.34621238708496,24.47555923461914,-79.78266406769775,40.45908917018042,292.08540197753905,-0.10180985182523727,0.10459735244512558,-0.5931645631790161,0.7917386293411255,-0.6167712715059195,7.219575366945111,2.0672964217135448,-0.01655462011694908,0.027833599597215646,0.033268578350543976,-1.0463380448520183,-0.3217977492883802,-9.784488598108293
29.81,7.0,55.0,21.236032485961914,26.344226837158203,-79.78264753018107,40.45909635146134,291.99721952819823,-0.10301611572504044,0.10062143206596376,-0.5890637636184692,0.7951521277427673,-0.7020331443268433,7.577222318592862,2.098455232642205,-0.08295939862728119,0.07108768820762634,-0.2683488130569458,-1.207135305851698,-0.1947517133876681,-9.749642701148987
30.0,7.199999809265138,54.0,21.162160873413086,27.12350082397461,-79.78263876421941,40.45909895289528,291.9865517272949,-0.106444351375103,0.09778600931167604,-0.5877899527549744,0.7959965467453003,-0.6384230888028987,7.7455654850492035,2.1448332451071583,-0.16416800022125244,-0.1262965351343155,-0.017225006595253944,-1.3396906614303592,-0.3349289511144161,-9.739553915262222
30.1,7.5,57.0,21.22225952148437,25.76374816894531,-79.78263019142284,40.459104216070145,291.89858290100096,-0.11179593205451964,0.09387277811765672,-0.5842151045799255,0.7983623147010803,-0.7692476362119124,7.927695065216616,2.195203439340053,-0.21017524600028992,-0.12518034875392914,0.07588815689086914,-1.3310246492922306,-0.2980457380414009,-9.780567455291749
30.21,7.699999809265138,56.0,21.209739685058594,26.04205894470215,-79.78261183962734,40.459109934326015,291.8770699157715,-0.10257510095834732,0.08493531495332718,-0.583885908126831,0.800838053226471,-0.6784670032257334,8.170813062851032,2.3457550060535235,0.07413144409656525,0.325508177280426,-0.04202809557318688,-1.6138043305277825,-0.25737866381183266,-10.012055214643476
30.4,8.0,55.0,21.37250518798828,23.974597930908203,-79.78260253968455,40.459114781509534,291.8156246795654,-0.08244165033102037,0.0765552669763565,-0.5831985473632812,0.8045011758804321,-0.7971038142462036,8.338818965229647,2.1933381020835587,0.07887326180934906,0.4197268486022949,-0.035196874290704734,-1.663822728842497,-0.3386415676027537,-9.985031722784043
30.5,8.100000381469728,54.0,21.5452880859375,22.05821990966797,-79.7825930960935,40.45911783436153,291.8097977294922,-0.06020987778902054,0.06675909459590912,-0.5844590067863464,0.8064277172088623,-0.7565499758499437,8.492101001988297,1.8622400741083367,0.07176891714334488,0.4437878429889679,-0.1559484302997589,-1.423357446938753,-0.29253068078309297,-9.977259603738784
30.7,8.399999618530272,62.0,21.53151512145996,22.209304809570312,-79.7825737878835,40.45912595535679,291.7450432434082,-0.03495953232049942,0.050098225474357605,-0.5861565470695496,0.8078914880752563,-0.8419673237001335,8.688896152941183,1.1325472343709917,0.034129027277231216,0.21887674927711487,-0.13352303206920624,-1.4077506436407567,-0.1682809113152325,-9.753995953202248
30.8,8.5,70.0,21.56907844543457,21.040393829345703,-79.78256428400427,40.45912912029039,291.7401966705322,-0.0293097123503685,0.04388274997472763,-0.5873197317123413,0.8076328039169312,-0.8632052647947916,8.690411308345903,0.9185930441541172,-0.05827433243393897,0.27906355261802673,-0.046221233904361725,-1.2515985569357873,-0.3605346393585205,-9.683675583600998
31.0,8.699999809265138,70.0,21.511484146118164,22.16159439086914,-79.7825441745977,40.45913699654061,291.6596398010254,-0.02091518230736256,0.03794365003705025,-0.5868162512779236,0.8085601925849915,-0.9375612499593624,8.675669850623597,0.6759170667891226,0.07913954555988313,0.23966312408447266,-0.1546463817358017,-1.6938060812652111,-0.15161974539980294,-9.765317916870117
31.11,8.699999809265138,69.0,21.57909393310547,21.51749992370605,-79.7825242532966,40.459144662257344,291.5947765960693,0.0049402378499507895,0.027009299024939537,-0.5855886340141296,0.8101432919502258,-0.9659703660969312,8.562846900350031,0.4370217763688744,0.0064121875911951065,0.4781402349472046,0.13192568719387054,-1.6854226358234885,-0.543732729703188,-9.870496462583542
31.3,8.899999618530273,79.0,21.2385368347168,25.93073463439941,-79.78251506808351,40.45914786817429,291.59362837219237,0.02188782952725888,0.015544260852038859,-0.5847971439361572,0.8107352256774902,-0.9424621633258092,8.44981941063329,0.15126196573539924,-0.06601627171039581,0.4201124310493469,0.034078001976013184,-1.2438296538591385,-0.6107086746767164,-9.947712453603746
31.4,8.899999618530273,98.0,21.199722290039066,26.471454620361328,-79.78250444350951,40.45915112051098,291.53963705444335,0.03496997803449632,0.002285335678607225,-0.5835633277893066,0.8113110661506653,-0.9113361201579278,8.345831001183361,-0.1493924438170333,-0.08137115836143494,0.34975606203079224,-0.03149202838540077,-1.5134371662139894,-0.5040437667444349,-10.203911715745926
31.61,8.899999618530273,98.0,21.35372543334961,24.91290855407715,-79.78248544395888,40.459157540082906,291.49245306396483,0.04978231340646744,-0.022095929831266403,-0.5817117094993591,0.8115694522857666,-0.8911513434325469,7.993300874397263,-0.5404805334873645,-0.12981103360652926,0.05888170376420021,-0.0009238325874321164,-1.4392207968235016,-0.632791452035308,-10.607051507234576
31.71,8.899999618530273,98.0,21.60163116455078,20.603046417236328,-79.78246873380793,40.45916355252662,291.53963705444335,0.0576266273856163,-0.023070188239216805,-0.5813401341438293,0.8112895488739014,-0.8891006735948279,7.544599328433662,-0.6411420997341067,0.0793503001332283,-0.10240757465362547,0.024732872843742367,-1.1305031593143942,-0.2800959554314614,-10.737875940799713
31.9,8.899999618530273,115.0,21.659225463867188,20.937021255493164,-79.78245963011095,40.45916645479572,291.50131269836425,0.055630747228860855,-0.018016071990132332,-0.5815742015838623,0.8113890290260315,-0.8976469210734651,7.378243388745962,-0.6877222437572443,0.08008874952793121,-0.10774069279432297,0.15619029104709625,-0.9273999774456024,-0.6736873899400234,-9.977184759378432
32.01,8.899999618530273,120.0,21.665485382080078,19.982807159423828,-79.78245181513314,40.45916934808147,291.52169271850585,0.047701701521873474,-0.013602934777736664,-0.5822620391845703,0.8114866614341736,-0.9110474335190656,7.179416705952053,-0.6630254886071071,0.005248169880360365,-0.12937363982200625,-0.004752504639327526,-1.1235184409469368,-0.3653233262524009,-9.532536168694497
32.21,8.699999809265138,121.0,21.71556663513184,19.24329376220703,-79.78243577651756,40.45917471323378,291.4976238861084,0.04118362069129944,-0.008536512032151222,-0.5821046829223633,0.8120254278182983,-0.912304503604932,6.884025324965485,-0.5291511433681232,0.05834529921412467,-0.009951409883797169,0.0696454718708992,-0.925183882713318,-0.4632007095962763,-9.457189532518386
32.31,8.600000381469728,122.0,21.7205753326416,19.33871459960937,-79.78242850728168,40.459177474053625,291.5004963531494,0.03952675685286522,-0.0058386679738759995,-0.5819966793060303,0.8122090101242065,-0.9273374350854352,6.718858891223888,-0.5541330245214254,-0.05002126097679138,-0.0804232731461525,0.044462718069553375,-0.9984145577251912,-0.3820164325833321,-9.254270684123039
32.5,8.399999618530272,113.0,21.76690101623535,18.32088661193848,-79.78241366194953,40.459182475431426,291.4758553161621,0.02932302840054035,-0.0026906724087893963,-0.5814796090126038,0.8130280375480652,-0.8933877640940969,6.481345309321928,-0.5764016174550853,-0.15296952426433566,-0.23813703656196594,0.110315203666687,-0.8345749173313379,-0.5340289098769426,-9.206864967942238
32.6,8.300000190734862,109.0,21.789438247680664,18.5117301940918,-79.78240619273495,40.4591847683093,291.4654850616455,0.020753456279635436,-0.0018303531687706707,-0.5813402533531189,0.8133938908576965,-0.8634912847475558,6.391473203055455,-0.5290342712230676,-0.10811052471399307,-0.1303553432226181,0.16834142804145813,-0.811003987044096,-0.6042949369177223,-9.220656210780145
32.8,8.0,109.0,21.80821990966797,18.45606803894043,-79.78239279270036,40.459189936171256,291.41733976745604,0.00678203860297799,0.006964157335460186,-0.5809982419013977,0.8138467669487,-0.8805839687972831,6.212857324972494,-0.43666469105698336,-0.04894891008734703,-0.1800234615802765,0.10044748336076736,-0.7079422795772553,-0.29870959801599384,-9.285635733604432
32.9,7.900000095367432,110.0,21.803211212158203,17.923297882080078,-79.78238572951473,40.45919209478828,291.3979515686035,-0.001292108790948987,0.011741260066628456,-0.5805791020393372,0.8141181468963623,-0.8552311403065916,6.168730196755445,-0.3628495471096734,0.012370085343718529,-0.1361565738916397,-0.11312252283096312,-0.6795262002199889,-0.2338419945538044,-9.187941623926164
33.11,7.599999904632567,95.0,21.576589584350586,21.45388603210449,-79.78237218938486,40.45919666762722,291.3393978729248,-0.01920219138264656,0.021374324336647987,-0.5789991021156311,0.8148217797279358,-0.8428691173844955,6.113453131616418,-0.2252880165729537,-0.029876044020056725,-0.17073357105255127,-0.017663855105638504,-0.6672515058517456,-0.16417347986251116,-9.13943253815174
33.2,7.5,89.0,21.5352725982666,21.71629524230957,-79.78236574783547,40.459199193050424,291.29304930114745,-0.02205323427915573,0.024947687983512882,-0.5785731673240662,0.8149505257606506,-0.8487262083426991,6.095531937482948,-0.1485792691800869,0.10800718516111374,-0.06842627376317978,-0.1604122370481491,-0.7315567716211081,-0.1885291613079608,-9.364514088034634
33.4,7.400000095367432,90.0,21.589111328125,21.175573348999023,-79.7823524784965,40.45920375791943,291.2210945739746,-0.02979061380028725,0.034865524619817734,-0.5786176323890686,0.8143087029457092,-0.8596216871992224,6.1052914407489585,-0.060845097619301264,0.0018603666685521605,-0.2737379372119904,0.1928875595331192,-0.7218140678107738,-0.4637233775854111,-9.557910161018373
33.51,7.300000190734862,90.0,21.521499633789066,22.60689353942871,-79.78233900920132,40.459208096589855,291.17160078430175,-0.04881815239787102,0.03941861167550087,-0.5790876746177673,0.8128471970558167,-0.8696101102467725,6.146616289216612,0.19843131458484767,-0.16106165945529938,-0.2479618340730667,0.049503330141305917,-0.9148407429456712,-0.4933466877043248,-9.720844579339028
33.7,7.099999904632568,82.0,21.47642517089844,23.02833747863769,-79.78233248220056,40.459210655387174,291.1269917144775,-0.05487815290689469,0.04183104634284973,-0.5788752436637878,0.8124913573265076,-0.8952164735415739,6.188351897639794,0.3325322942821071,0.041357632726430886,-0.09701208025217056,0.2431133091449737,-0.9589875865727664,-0.5513872466236354,-9.819675972461699
33.81,7.099999904632568,79.0,21.425090789794922,23.680383682250977,-79.78232589862202,40.45921325846576,291.0846848144531,-0.059245433658361435,0.04914145916700363,-0.5789626836776733,0.8117126822471619,-0.9290872136012588,6.2574327238493535,0.4521300890526513,0.09066618978977203,-0.1913902908563614,0.13158871233463287,-0.8521175144612789,-0.6758183345943691,-10.042721521854402
34.0,7.0,79.0,21.427595138549805,23.624719619750977,-79.78231207479358,40.45921735092688,291.09154554748534,-0.06889961659908295,0.06517333537340164,-0.578264057636261,0.8103184700012207,-0.8892413418343105,6.363108707870808,0.7885054684600544,-0.027406811714172363,-0.07984330505132675,0.08435512334108353,-1.0732523399591447,-0.5291737109050155,-10.03479854464531
34.1,7.0,79.0,21.387529373168945,23.871225357055664,-79.78230553092746,40.45921915276885,291.07972380065917,-0.07512938976287843,0.06998708844184875,-0.5774099826812744,0.80997234582901,-0.8623303985767066,6.386204276437622,0.9259194555865108,-0.04604613408446312,-0.17648570239543915,0.10072900354862213,-1.1454233533143998,-0.2762568929046393,-9.936621454954148
34.3,7.0,68.0,21.25982093811035,26.05796241760254,-79.78229153250834,40.45922447680899,291.0295185699464,-0.0888521745800972,0.0735994502902031,-0.5758216381072998,0.8093935251235962,-0.8732435164739529,6.587604707173803,1.2330308692193863,-0.0576002225279808,0.02070540562272072,-0.00654455041512847,-1.333416014313698,-0.13670349827036266,-10.05516673564911
34.4,7.099999904632568,67.0,21.441368103027344,23.71219062805176,-79.78227728637023,40.45922963296509,290.94971701049803,-0.08654528111219406,0.07382237166166307,-0.5745000839233398,0.81056147813797,-0.8630011189002644,6.789990941593069,1.3992462312933072,-0.014594003558158875,-0.09690865874290466,-0.03099178895354272,-1.0765523622930049,-0.3115127527713776,-10.255115783214569
34.6,7.099999904632568,66.0,21.348716735839844,23.69628715515137,-79.78227007832203,40.4592324215509,290.90956732177733,-0.08468987047672273,0.07732120901346208,-0.5736832022666931,0.8110097050666809,-0.8680579143046766,6.896453037718422,1.4304457450878427,0.08719899505376816,-0.12418390065431595,-0.06067271158099175,-0.7768356361985207,-0.4526669505983592,-10.205483447313313
34.71,7.199999809265138,66.0,21.18219375610352,26.46350288391113,-79.78226250962406,40.459235267661136,290.89822241210936,-0.08417747169733047,0.08043713122606277,-0.572934091091156,0.8112894892692566,-0.8670313646252591,7.0086116765379325,1.5114747912031783,0.054815690964460366,-0.10964705049991608,0.05160417780280113,-1.1787002961337567,-0.4168046979233623,-10.318534684181213
34.91,7.300000190734862,60.0,21.294878005981445,25.15146064758301,-79.78224729680605,40.459241136972274,290.83494230651854,-0.08037379384040833,0.07861791551113129,-0.5729209780693054,0.811862587928772,-0.861730818455831,7.2030743680727065,1.5961516864206748,0.02073775790631771,0.20504368841648105,-0.2579776644706726,-1.1735228790342809,-0.009280773773789408,-10.155866314172746
35.0,7.300000190734862,61.0,21.28736686706543,24.594837188720703,-79.78223936431009,40.45924408717266,290.8314404144287,-0.07801448553800583,0.0781768411397934,-0.5730018615722656,0.8120782971382141,-0.8499514242036807,7.316589980298816,1.6035081392460782,0.08826091140508653,0.1276589184999466,-0.13909833133220673,-1.0212625528872017,-0.03875534534454346,-10.092346841096877
35.2,7.5,60.0,21.278602600097656,24.92881202697754,-79.78222344265045,40.45925032622718,290.7797760620117,-0.06719640642404556,0.07162366807460785,-0.5738272070884705,0.8130664229393005,-0.8775698822597713,7.479186025517548,1.5769295238081202,0.04384145513176918,0.24713134765625,0.07570849359035492,-1.2905043219029904,-0.2850197130069137,-10.235153388977054
35.3,7.5,59.0,21.62166404724121,20.51557731628418,-79.7822067959584,40.45925660277821,290.76059767150883,-0.05535028502345085,0.060225851833820336,-0.575815737247467,0.8134773969650269,-0.8926301222266705,7.641954982008588,1.3800905071686342,0.054555539041757584,0.17973090708255768,-0.2844808399677277,-1.1340793894976378,-0.1884154512360692,-10.280579237937927
35.51,7.699999809265138,61.0,21.513986587524414,22.972675323486328,-79.78219848378852,40.45925967658137,290.76836248779296,-0.04923577979207039,0.05997558683156967,-0.5767315626144409,0.8132401108741759,-0.8938321861029036,7.682407369815563,1.3049959992437747,0.16972047090530396,0.08838121592998505,-0.15172702074050906,-1.226250877082348,-0.24986606977879997,-10.103427314758301
35.6,7.800000190734862,66.0,21.441368103027344,22.26496696472168,-79.78218987123456,40.4592628669449,290.7440037384033,-0.04162134602665901,0.060848481953144073,-0.5772733688354492,0.8132162094116211,-0.9063099138880121,7.730280168517913,1.2146448524684086,0.08149392157793045,0.14308367669582367,0.05589362233877182,-1.0618906152248384,-0.1633739096671343,-10.08867128133774
35.8,7.900000095367432,65.0,21.546541213989254,21.310754776000977,-79.78217309218283,40.459269007045066,290.76647993469237,-0.035592921078205116,0.058963913470506675,-0.5764589309692383,0.8142184019088745,-0.8864041011860475,7.772965840085747,1.113961595945243,-0.0010618831729516387,0.0852077305316925,-0.12487183511257173,-1.1323174772411586,-0.10760875817388296,-10.055157380104065
35.91,8.0,65.0,21.557809829711914,21.692440032958984,-79.78215584719624,40.45927531076946,290.7756771697998,-0.04170053452253342,0.05416347086429596,-0.5743533968925476,0.8157485723495483,-0.8288153304434708,7.805623709851407,1.1221127244005622,-0.1300259232521057,-0.10834169387817384,-0.038781363517045975,-1.1397626638412477,-0.05748394053429365,-9.924377385377882
36.1,8.100000381469728,66.0,21.422588348388672,23.21122741699219,-79.78214715962497,40.459278541755644,290.7718586578369,-0.0418798066675663,0.05022662878036499,-0.5731728076934814,0.8168209195137024,-0.8257508166943288,7.8155537505500625,1.1180436844632031,-0.07714453339576721,-0.044791147112846375,-0.03917410224676132,-1.3314142200350765,-0.3504722390323878,-9.733711962103843
36.2,8.199999809265138,68.0,21.516490936279297,21.891233444213867,-79.78213870897889,40.45928161686423,290.78495260620116,-0.04142708703875542,0.04570811241865158,-0.5723363161087036,0.8176954388618469,-0.7920454276916835,7.824361915156735,1.1136727804299102,-0.03636036813259125,0.0030923045706003904,-0.03518503159284592,-1.0910041943192483,-0.1597418385744095,-9.9047576379776
36.41,8.300000190734862,68.0,21.790691375732425,18.45606803894043,-79.78212129084082,40.45928774248452,290.82114836120604,-0.03316452354192734,0.035317499190568924,-0.5725542306900024,0.8184341788291931,-0.7811592155733633,7.838425490804854,1.0926954653367773,0.04520944133400917,0.2332319915294647,-0.039900556206703186,-1.1614258669316768,-0.251439263150096,-10.320267798900606
36.5,8.300000190734862,68.0,21.606639862060547,20.300878524780273,-79.78211285121347,40.459290834838406,290.84744116210936,-0.027707895264029503,0.033221710473299026,-0.5733405351638794,0.8181744217872621,-0.7865530438782989,7.830664328815166,1.0030663296071305,0.1338193714618683,0.08236079663038254,-0.07253913581371307,-1.2059137494117025,-0.2874560102261603,-9.934577268362046
36.7,8.399999618530272,76.0,21.66172981262207,20.141843795776367,-79.78209556880817,40.459297084370654,290.89461752319335,-0.022880854085087776,0.03778858855366707,-0.5766834020614624,0.8157725930213928,-0.8500679389673139,7.8148983410201565,0.8598464523280458,-0.09081286191940308,-0.12393598258495332,0.10791539400815964,-1.130062279254198,-0.4348664912581444,-9.641819459795952
36.8,8.399999618530272,74.0,21.685518264770508,19.632930755615234,-79.78207845564157,40.4593033904826,290.94566007995604,-0.02845271117985249,0.03845660015940666,-0.5795112252235413,0.8135590553283691,-0.9330161501402364,7.779266630231155,0.8541972946785209,0.019153127446770668,-0.04581866413354874,-0.02059117890894413,-1.0480024547874929,-0.3949122474342585,-9.803581511378287
37.0,8.399999618530272,74.0,21.776918411254886,17.454143524169922,-79.7820701149579,40.45930649003349,290.965872253418,-0.02936900407075882,0.03747178614139557,-0.5803024768829346,0.8130083084106445,-0.9556653951759913,7.7543342798320545,0.8804379491145182,0.00039849756285548216,0.10994924604892732,-0.10690586268901824,-0.9588704229891301,-0.2283903064951301,-9.705895587801932
37.11,8.300000190734862,74.0,21.739356994628906,18.9013671875,-79.78206100354781,40.45930946034765,291.01147505187987,-0.027834048494696617,0.03413663432002068,-0.580761730670929,0.8128811120986938,-0.952854858981664,7.772202103400266,0.8951503632367925,0.015141915529966353,0.2090475112199784,0.06925325840711594,-1.1682343648374078,-0.3671567938104272,-9.541915687322618
37.3,8.300000190734862,75.0,21.690526962280273,20.022565841674805,-79.78204431579414,40.45931563401089,291.0444836273193,-0.02697852626442909,0.03207112103700638,-0.5805701017379761,0.8131309747695923,-0.9456148165236292,7.753864000637796,0.7008139899093375,0.0883457213640213,0.1187819316983223,-0.13543002307415009,-0.9947879683971406,0.003213227726519108,-9.044125846624377
37.4,8.199999809265138,77.0,21.666736602783203,20.078229904174805,-79.78202726275829,40.4593217547702,291.097479309082,-0.025797726586461067,0.03210486471652985,-0.579708456993103,0.8137825131416321,-0.9546511020165968,7.709698408535376,0.6416465628062322,-0.09506803005933764,-0.03561738505959512,0.13692732155323029,-1.0260907450318335,-0.501010340899229,-9.187726446390151
37.6,8.199999809265138,76.0,21.55154800415039,21.350513458251953,-79.78201846045734,40.45932470151809,291.13427587890624,-0.026979323476552963,0.02743685990571976,-0.5789605379104614,0.8144471645355225,-0.935668698854006,7.704336189623397,0.6123633239040167,-0.09561670571565628,-0.02684395015239716,-0.057904060930013664,-1.1639640701562166,-0.2169605347886681,-9.376308506727216
37.7,8.199999809265138,77.0,21.640443801879886,19.283052444458008,-79.78201022753234,40.45932776355529,291.1354431762695,-0.027536924928426743,0.02323569916188717,-0.5787841081619263,0.8146844506263733,-0.9294734405860494,7.672862525792527,0.5728888407611641,-0.16005824506282804,-0.008531189523637295,0.09987575560808183,-1.2266474644839764,-0.3644466459006071,-9.374884709715843
37.9,8.100000381469728,78.0,21.467660903930664,22.86134910583496,-79.78199329169983,40.45933371021264,291.1721024169922,-0.02746294066309929,0.020362498238682747,-0.5780361890792847,0.8152946829795837,-0.9287286779054146,7.618571359150642,0.4798524152227826,-0.015424642711877825,-0.1901836395263672,0.20658443868160248,-1.1061456323415042,-0.29892541509121656,-9.304738587141037
38.0,8.100000381469728,80.0,21.537776947021484,21.485692977905273,-79.78198517121086,40.459336763232116,291.16781088256835,-0.03229271993041038,0.02399504743516445,-0.5771995186805725,0.8156116008758545,-0.9271700845674878,7.587637707390424,0.4587074313180878,-0.006100777536630631,-0.06483336538076401,0.0007677481044083834,-1.0756044555455446,-0.16700645584613086,-9.411220477223397
38.2,8.0,80.0,21.33995246887207,24.18929672241211,-79.7819681142173,40.459342689810036,291.2318195953369,-0.0426667258143425,0.027004824951291084,-0.5756286978721619,0.8161506652832031,-0.9371086075130342,7.577486596475161,0.664519433046966,-0.10769354552030563,-0.13238270580768585,-0.1000094786286354,-1.098232010677457,-0.4013268988206983,-9.4832342004776
38.31,8.0,81.0,21.42634391784668,23.091951370239247,-79.78196005183527,40.45934578121921,291.2272610321045,-0.04277051240205765,0.02910471521317959,-0.5752872228622437,0.8163138628005981,-0.9521710326104058,7.546242133006532,0.72454595509367,0.10844488441944122,0.06735662370920181,0.03762338310480118,-1.215794739872217,-0.16981726722791793,-9.579279395341873
38.5,8.0,77.0,21.46014976501465,22.535327911376953,-79.78194333673713,40.459351705907686,291.27714392089837,-0.03690096363425255,0.038952276110649116,-0.5742790699005127,0.8168994188308716,-0.9552517919073228,7.5651046916648035,0.7805092874340224,0.06488509476184845,-0.09997166693210602,0.10310088843107224,-1.2111587749421595,-0.4051938818022609,-9.731636200547221
38.61,7.900000095367432,74.0,21.3061466217041,25.04808807373047,-79.78193464048582,40.45935443087139,291.3344273223877,-0.038726620376110084,0.04242835193872452,-0.5732505321502686,0.8173640370368958,-0.92216482685526,7.586913610097198,0.8371177928208051,0.06339629739522934,-0.011606574058532715,-0.20666548609733584,-0.9917352101951838,-0.34290089875459673,-9.772587760090827
38.8,7.900000095367432,74.0,21.730592727661133,19.267148971557614,-79.78191844178382,40.45936065714653,291.3517784729004,-0.04157603532075882,0.041875746101140976,-0.5745794177055359,0.8163188099861145,-0.9282044906606228,7.575819082228607,0.9890979454896552,0.11006741225719452,0.07273415476083755,-0.04222892597317696,-1.0075929321348671,-0.07637366306036711,-10.255104088783265
38.91,7.900000095367432,74.0,21.481433868408203,22.304725646972656,-79.78190992677935,40.45936360386006,291.38797994995116,-0.04351428151130676,0.044931016862392426,-0.575459361076355,0.8154349327087402,-0.9483398573461308,7.591088811087596,0.9949328661724216,-0.014055274426937105,-0.1204133853316307,0.11793865263462068,-1.3350931419432164,-0.35042122207582005,-9.536100631356241
39.11,7.900000095367432,72.0,21.50397109985352,22.034364700317386,-79.78189330351897,40.459369670839465,291.41303869628905,-0.048775624483823776,0.05211794003844261,-0.575602650642395,0.8146080374717712,-0.9795575444182574,7.599361861066187,1.0537231657155273,-0.04748787730932237,-0.056755717843770974,-0.022558629512786862,-1.3246324731409551,-0.3440049627050757,-9.306322597861293
39.2,7.900000095367432,71.0,21.29237365722656,25.31049728393555,-79.78188515730464,40.45937279807901,291.41589399719237,-0.04607630893588066,0.05317210406064987,-0.5757728219032288,0.8145768642425537,-0.9800581420861744,7.599161679186404,1.0446564614030147,0.0936879962682724,0.09779959172010423,-0.14342054724693298,-1.3140979832410813,-0.22256655279546972,-9.131525933146477
39.4,7.900000095367432,72.0,21.29112243652344,24.642547607421875,-79.78186868704718,40.45937889817488,291.43406340026854,-0.03891361877322197,0.052835166454315186,-0.5761936902999878,0.8146748542785645,-0.9831015536712384,7.6220715107518116,0.9260735551300842,-0.07837086170911789,-0.032237302511930466,0.1466912031173706,-1.3390657402575017,-0.5673111882805825,-9.39844781935215
39.51,7.900000095367432,72.0,21.451385498046875,22.81363868713379,-79.78185200585976,40.45938501754289,291.4505467071533,-0.03779463097453117,0.0522405207157135,-0.5771193504333496,0.8141105175018309,-0.9558534548084217,7.655115499095876,0.8771010208912801,0.0002550396602600813,-0.0824219360947609,0.03350156173110008,-1.2292364653944972,-0.3767956729978323,-9.575326677560806
39.7,7.900000095367432,69.0,21.376262664794922,23.74399757385254,-79.78184380054905,40.45938811544481,291.4471401824951,-0.03834792226552963,0.05223560705780983,-0.5775652527809143,0.8137686252593994,-0.9536527537871542,7.654000106791464,0.8644994327542055,-0.03299447521567345,0.08402089029550552,0.16895118355751038,-1.259122169315815,-0.5131240175664425,-9.632514200806618
39.8,8.0,72.0,21.29112243652344,24.61869239807129,-79.78183559415898,40.45939121118249,291.4433445587158,-0.03970939293503761,0.049912597984075546,-0.5781556963920593,0.8134296536445618,-0.9599929810451991,7.654170983044909,0.8668952622768479,-0.006131264846771956,0.041433632373809814,0.05061326920986176,-1.3240408810973168,-0.36523009970784187,-9.660339930653572
40.01,8.100000381469728,72.0,21.38001823425293,23.354360580444336,-79.78181904006922,40.45939744309155,291.4557308807373,-0.03978932276368141,0.05021431297063828,-0.5793960690498352,0.8125241994857788,-0.9917277283124648,7.645763566912258,0.8883758627955358,0.02615159749984741,-0.17023712396621704,0.17669591307640076,-1.299298095703125,-0.5568886725604535,-9.70287842452526
40.1,8.100000381469728,72.0,21.252307891845703,24.91290855407715,-79.78180241447016,40.45940357039515,291.448158706665,-0.04191592708230018,0.0509684681892395,-0.5799675583839417,0.811962366104126,-1.0098803902858746,7.640334803551568,0.8810887581399702,-0.020817121490836143,-0.03915971145033837,0.20494109392166132,-1.4729337957501412,-0.3732627853006125,-9.554046905636788
40.3,8.199999809265138,72.0,21.361236572265625,23.457733154296875,-79.78179420808006,40.45940667193851,291.44261976623534,-0.04411414265632629,0.049944907426834106,-0.5803101658821106,0.8116648197174072,-1.0099246846811791,7.65440571151928,0.8885807611693268,-0.03708989173173904,-0.04847277700901032,0.25186026096343994,-1.101290689185262,-0.4346251474320889,-9.754470747113226
40.4,8.199999809265138,71.0,21.421335220336914,23.147613525390625,-79.78178560213736,40.459409626518934,291.4344448699951,-0.046070016920566566,0.04917409271001817,-0.5811963081359863,0.810968816280365,-0.9891931660669468,7.676481743981527,0.901054448200221,0.043670859187841415,0.04854194447398186,0.09389765560626984,-1.3884899152815342,-0.2483982541970909,-9.615953131914141
40.6,8.199999809265138,70.0,21.493953704833984,21.930992126464844,-79.7817688974733,40.45941571665237,291.4262089385986,-0.04751789569854736,0.04826519638299942,-0.5810052156448364,0.8110767602920532,-1.0111231182176152,7.683218370565834,0.9265724037812793,-0.057989351451396935,-0.002570086857303977,0.1286756843328476,-1.455911527723074,-0.2258267775177956,-9.56107935190201
40.7,8.199999809265138,70.0,21.408815383911133,22.81363868713379,-79.78176062649995,40.45941881170299,291.4174828186035,-0.047885503619909286,0.04774318262934685,-0.5802208185195923,0.8116472959518433,-1.0096427770109926,7.696097439860736,0.9126467870529268,-0.015488463453948496,-0.037254594266414635,-0.02524974010884761,-1.3720498837530617,-0.33344551250338555,-9.57735215306282
40.9,8.300000190734862,71.0,21.2385368347168,26.479406356811523,-79.78174366674106,40.459424825641065,291.394619430542,-0.04613976180553436,0.048671439290046685,-0.5782989859580994,0.8130637407302856,-0.9581333489452488,7.730291417317952,0.891895683084622,0.10254039615392684,-0.01653483882546425,-0.2739280164241791,-1.2785558290779588,-0.1341614029929042,-9.644963507652283
41.0,8.300000190734862,72.0,21.511484146118164,21.55725860595703,-79.78172682697388,40.45943095857857,291.369846786499,-0.041893623769283295,0.04892203956842423,-0.5779085755348206,0.8135560154914856,-0.9269077731252244,7.743646227734847,0.8417852434448116,0.04500560835003853,0.03698265179991722,-0.1889047026634217,-1.0803093445301055,-0.18963013719767333,-9.840361082553864
41.2,8.399999618530272,72.0,21.258569717407227,24.761823654174805,-79.78171850895731,40.45943404572795,291.35747953796385,-0.04169150814414024,0.05151406675577164,-0.5769397616386414,0.8140937089920044,-0.9221403698192644,7.7509397461336516,0.8191550551178697,0.03822427615523338,-0.059413883835077286,-0.08267462253570558,-1.1930595959722996,-0.4579718735441566,-9.749780695438382
41.3,8.399999618530272,72.0,21.258569717407227,24.626644134521484,-79.7817101903111,40.459437134972866,291.3450493469238,-0.04346891865134239,0.05056346580386162,-0.5753976702690125,0.8151511549949646,-0.9071972603903641,7.7512565678886975,0.8434663068895758,-0.03523834049701692,0.06416304409503938,0.07900584489107132,-1.2492339429259298,-0.3355098354443908,-9.81215762257576
41.5,8.300000190734862,70.0,21.30364227294922,25.07194328308105,-79.7816933149242,40.45944324458458,291.31856771850585,-0.0441107340157032,0.0441119410097599,-0.5727301836013794,0.8173669576644897,-0.8441065537648099,7.77543310195667,0.8807392274907377,0.13498593866825104,0.05335820093750954,-0.17547492682933807,-1.2097694034129385,0.13068757217377425,-9.97087561368942
41.6,8.300000190734862,73.0,21.218503952026367,25.978445053100586,-79.7816763885363,40.45944941225317,291.296661819458,-0.034510236233472824,0.05362560600042343,-0.5734139084815979,0.8167802691459656,-0.8392008907670249,7.783891313921317,0.8967957846040417,0.1186857894062996,0.027946922928094864,-0.10754809528589247,-1.2008412898331882,-0.1860097970813513,-9.898949013948439
41.8,8.300000190734862,73.0,21.32993507385254,23.89508056640625,-79.78166802995283,40.45945251472407,291.2941746368408,-0.03270968422293663,0.05232110247015953,-0.5744084119796753,0.8162399530410767,-0.8464227509830884,7.794872665177193,0.863457203817892,-0.010490268468856813,0.003982598427683115,-0.0723862275481224,-1.0072320127487182,-0.3767207190021873,-9.956740554571153
41.9,8.300000190734862,73.0,21.35372543334961,22.85339736938477,-79.78165949470987,40.45945557507797,291.27132650756835,-0.034366823732852936,0.05119892209768295,-0.5753940939903259,0.8155485391616821,-0.8414237034054907,7.796193228699572,0.7973759806401441,-0.03793221712112427,0.05438574403524399,-0.05421709641814232,-1.0456098472326991,-0.20960930563509467,-9.758212965130808
42.11,8.300000190734862,75.0,21.39629364013672,22.54327964782715,-79.78164254124741,40.45946172027957,291.2456192626953,-0.042535167187452316,0.04793689399957657,-0.5761808156967163,0.8148059248924255,-0.8662702350835513,7.8040403293861536,0.8319953303250835,-0.10168608278036118,-0.15838810801506042,-0.03484421223402023,-0.9962678986787796,-0.25889519400894645,-9.851346831321717
42.2,8.300000190734862,75.0,21.3061466217041,24.42784881591797,-79.78163416647313,40.4594648031348,291.23973318481444,-0.04322995617985725,0.046072669327259064,-0.5762620568275452,0.8148192763328552,-0.8718179370853907,7.789160735480863,0.9021614733818336,-0.0039199599996209145,0.012585508637130259,-0.2602632939815521,-1.096428802460432,-0.0962290715239942,-9.86449371099472
42.41,8.300000190734862,75.0,21.38627815246582,23.60086441040039,-79.7816171371838,40.4594708814851,291.2211346282959,-0.039227597415447235,0.04500925913453102,-0.5769372582435608,0.8146035075187683,-0.8799707511865684,7.8072342640183185,0.8807624567513799,-0.04070106893777847,0.12165801227092744,-0.0637747049331665,-0.889637635499239,-0.2681362432613969,-9.976904093027118
42.5,8.199999809265138,75.0,21.4138240814209,21.573162078857425,-79.78160874576899,40.45947397629524,291.2179855957031,-0.03962768241763115,0.04436178877949715,-0.57765132188797,0.814113438129425,-0.8927036357161944,7.813524378111942,0.8596935653829453,-0.014482850208878515,0.02645701542496681,-0.1634160280227661,-1.109901298955083,-0.19411239344626666,-9.843926714658735
42.7,8.199999809265138,82.0,21.38126945495605,23.871225357055664,-79.78159159414929,40.4594800772156,291.20098539733885,-0.04451604932546616,0.04225986823439598,-0.578076183795929,0.8136709928512573,-0.9239569699322624,7.82255953361492,0.8423673748173477,-0.04600149765610695,-0.10564818978309633,-0.041815996170043945,-1.095261478945613,-0.3135133410617709,-9.524503263831141
42.8,8.199999809265138,80.0,21.447628021240234,22.304725646972656,-79.78157459526264,40.45948635086377,291.1838097229004,-0.043520666658878326,0.03983861207962036,-0.5771676301956177,0.8144915103912354,-0.9545755607816347,7.81904942693702,0.8647482433617929,0.0583486407995224,0.010211101733148098,0.024286657571792603,-1.2185667586326598,-0.2893056855350733,-9.513472491502762
43.01,8.300000190734862,79.0,21.410066604614254,22.503520965576172,-79.78156621760999,40.4594894934592,291.1763462677002,-0.03718546777963638,0.0412508063018322,-0.5765761137008667,0.8151537179946899,-0.9531816469140176,7.812397848176504,0.842590392106657,0.05174731835722923,-0.032723180949687965,0.19335533678531647,-1.2207097631692887,-0.5310813284665347,-9.766947535872461
43.1,8.199999809265138,79.0,21.252307891845703,24.730016708374023,-79.78155758540223,40.459492565768,291.1728539123535,-0.031678803265094764,0.04472873359918594,-0.5761894583702087,0.8154762387275696,-0.9315734130326307,7.8145775871800485,0.7754605138576818,0.04045900702476502,-0.017935629934072498,0.14954541623592374,-1.4243106892704964,-0.4473684595897794,-9.646787254214287
43.3,8.300000190734862,79.0,21.37375831604004,22.630748748779297,-79.78154086949458,40.45949882996905,291.1637100830078,-0.03396371752023697,0.0469207875430584,-0.5745641589164734,0.8164074420928955,-0.9181189781780558,7.790453917553699,0.7466724684808449,-0.09934482723474504,-0.06517771631479262,0.13187718391418454,-1.2421115957200528,-0.4306561305373907,-9.819835016727447
43.4,8.300000190734862,79.0,21.30364227294922,24.69025802612305,-79.78153217846028,40.45950193388279,291.1549267425537,-0.03807761147618294,0.04672596976161003,-0.573677122592926,0.8168607354164124,-0.8805515296130412,7.800478617663499,0.7831478033526729,-0.1222761571407318,-0.031707465648651116,0.16304345428943634,-1.3141190332174302,-0.4316042931005359,-9.828886506557463
43.61,8.399999618530272,79.0,21.377513885498047,22.789783477783203,-79.7815153044226,40.459508150676434,291.147024597168,-0.03715931251645088,0.04569124057888985,-0.573071300983429,0.8173865675926208,-0.8579613333634087,7.767452506853237,0.8914213266435007,-0.03853156417608261,-0.035042114555835724,0.09670526534318924,-1.3484553453326231,-0.3968895199522377,-9.995594133138658
43.7,8.399999618530272,79.0,21.408815383911133,22.376291275024414,-79.78150697858048,40.459511251979336,291.1477131500244,-0.0353873074054718,0.045532941818237305,-0.5730639696121216,0.8174791932106018,-0.8387413394394901,7.755897354670839,0.8668657500549244,0.013027221895754336,0.04237323254346848,0.1187666431069374,-1.2603424832224843,-0.226433188598603,-9.909827173948287
43.9,8.399999618530272,78.0,21.448881149291992,22.082077026367188,-79.78149021940743,40.45951735757171,291.1351818695068,-0.04110633209347725,0.04880790412425995,-0.5725082159042358,0.8174121379852295,-0.8209849935793487,7.737817997010382,0.8498712931705842,-0.022961433976888657,-0.11449290066957475,0.08235538005828857,-1.1695094963908197,-0.4511367342621088,-9.639608627557754
44.0,8.399999618530272,78.0,21.362489700317386,23.577009201049805,-79.78148192630671,40.45952043692292,291.1322388305664,-0.04504041001200676,0.04936691746115685,-0.5724499821662903,0.8172119855880737,-0.8247920422917552,7.722437988204107,0.8891449624898469,-0.03331746906042099,-0.1469140499830246,-0.08303122967481613,-1.2563254460692406,-0.2756166593357921,-9.544854497909547
44.2,8.5,77.0,21.477678298950195,21.930992126464844,-79.78146509400527,40.45952654869888,291.12005278015135,-0.04646921157836914,0.047992728650569916,-0.5729358196258545,0.8168732523918152,-0.8182699992833445,7.715519336127095,0.9811650176133484,-0.008732487447559834,-0.03920058161020279,0.07313590496778488,-1.3707510709762574,-0.3305406888574362,-9.894713290929797
44.3,8.5,77.0,21.45388984680176,22.169546127319336,-79.78144832826595,40.459532665902636,291.1113609924316,-0.04606160148978233,0.04227050021290778,-0.572474479675293,0.8175357580184937,-0.8170217894418099,7.720940043785423,0.8938648770007778,-0.006492001470178366,0.04368303343653679,0.02418770827353001,-1.4649273495376112,-0.09571058794856073,-9.565173572301864
44.51,8.5,75.0,21.383773803710934,22.74207305908203,-79.78144005216555,40.45953573250881,291.10457273864745,-0.04448159039020538,0.03880185261368752,-0.5718224048614502,0.8182511925697327,-0.816296341584119,7.690842692225921,0.8815805842705253,-0.07541696727275847,0.05057192593812943,0.1746876984834671,-1.5742973256111146,-0.3374614167585969,-9.675479541420938
44.61,8.5,72.0,21.357481002807614,23.23508262634277,-79.78143146160406,40.45953871048375,291.1100906982422,-0.026217933744192123,0.02477077394723892,-0.5710944533348083,0.8200916647911072,-0.7795319866668691,7.622293797186563,0.8602878249933446,-0.02248033881187439,0.7230598926544191,-0.16309794783592224,-1.640085956901312,0.038424648754298685,-9.902287774085998
44.81,8.399999618530272,72.0,21.470165252685547,21.764005661010746,-79.78141538955,40.45954470686733,291.11022993469237,0.0373169369995594,-0.020184664055705067,-0.5704224109649658,0.8202550411224365,-0.7562805455457907,7.399481975636089,-0.010206455061452171,-0.0499926432967186,0.6881551742553711,0.12315073609352112,-1.2838767953217027,-0.18407975910231472,-10.261338390111925
44.9,8.300000190734862,72.0,21.515239715576172,21.104007720947266,-79.78139982399772,40.45955033165247,291.11100813293456,0.08183152228593826,-0.05435946211218834,-0.5701183676719666,0.8156677484512329,-0.7815996278247512,6.881482424732156,-0.9379217619999818,-0.03420818969607353,0.4089128077030182,-0.10318900644779204,-0.9863416653871536,-0.15702489327639346,-10.173623138666152
45.1,8.199999809265138,114.0,21.589111328125,20.396299362182614,-79.78139209316701,40.45955294088028,291.10853620910643,0.09653645753860474,-0.06548402458429338,-0.569541335105896,0.8136431574821472,-0.7800586155130118,6.561605040379711,-1.2045445018155647,0.09904474020004272,0.3966235816478729,-0.1457776427268982,-0.7177753228694201,0.04752273358404637,-10.336084517240526
45.21,8.100000381469728,129.0,21.36624526977539,23.10785484313965,-79.78137868296821,40.45955822436648,291.12484785461425,0.11762507259845735,-0.0785810723900795,-0.5702020525932312,0.809233546257019,-0.8343692100349784,5.815298790985258,-1.4972881845404264,-0.06613057106733322,0.20784348249435425,0.3158155977725983,-0.7813836005330086,-0.10041015048511327,-10.159302138090132
45.4,7.800000190734862,129.0,21.437612533569336,22.121835708618164,-79.78137187483244,40.45956047079025,291.1244320526123,0.1221357360482216,-0.08031399548053741,-0.5715993642807007,0.8074074983596802,-0.8366825199329035,5.481926738102832,-1.516053280193972,0.006427225656807423,0.0627892017364502,0.2464013248682022,-0.6052031922340393,-0.299923644438386,-10.45171788454056
45.5,7.699999809265138,129.0,21.534019470214844,21.000635147094727,-79.78136609508145,40.4595628570315,291.1334538116455,0.12390878796577455,-0.07668344676494597,-0.572659969329834,0.8067384958267212,-0.8707369932787974,5.121660475228302,-1.4654229276804758,0.0227982010692358,-0.06561838835477829,0.08033685386180878,-0.6857379166781903,-0.21343267204239968,-10.29446052789688
45.7,7.300000190734862,135.0,21.537776947021484,20.952924728393555,-79.78135503731397,40.45956714269496,291.14300199890135,0.11791527271270752,-0.07307044416666031,-0.5718352794647217,0.8085550665855408,-0.8771707837324999,4.50372476361953,-1.35313449719143,-0.07990127801895143,-0.020058112218976017,-0.0232695359736681,-0.6945839499682188,-0.4936395235732198,-9.691820170283318
45.8,7.099999904632568,133.0,21.596622467041016,20.006662368774414,-79.78134997886251,40.459569251087615,291.1402096405029,0.11606674641370772,-0.07570608705282211,-0.5700350403785706,0.8098500967025757,-0.8564343340922037,4.2144856176884575,-1.32408812223767,-0.007425405085086822,0.07167789340019226,-0.20412687957286835,-0.579024988487363,-0.1858330832608044,-9.520268125534056
46.0,6.5,134.0,21.284862518310547,24.3721866607666,-79.78134067014973,40.45957271461054,291.1050400390625,0.1297956109046936,-0.08379493653774261,-0.564836859703064,0.8106114864349365,-0.7952934757564769,3.5825885432828013,-1.3766461787616229,0.001470642164349556,0.2465811669826508,-0.117033950984478,-0.4092232711985708,-0.2054616928473115,-9.435844271779061
46.1,6.199999809265138,135.0,21.252307891845703,25.032184600830078,-79.78133254876126,40.45957550845239,291.05258985900883,0.14504484832286835,-0.10154061764478683,-0.5584014058113098,0.810456395149231,-0.7286258260963769,2.879952793967428,-1.4247861709550738,-0.04657846316695213,0.16029110550880432,-0.13203401863574982,-0.3904765496402979,-0.3088276017084718,-9.632433509230614
46.3,5.5,144.0,21.068256378173828,27.680124282836914,-79.78132954537038,40.459577092890186,291.0099396362305,0.14893952012062073,-0.10883932560682297,-0.5551803112030029,0.8110153079032898,-0.7489868320641981,2.491484025743047,-1.4083094266149483,-0.08792043477296829,0.13384008407592773,0.008403078652918339,-0.2488847059942782,-0.2013115401752293,-9.831901330947877
46.41,5.199999809265137,144.0,21.079524993896484,27.028079986572266,-79.7813256978998,40.4595775550093,291.00013967895507,0.1508672535419464,-0.1126926690340042,-0.5511664748191833,0.8128684163093567,-0.6700480863162309,2.1663195606309467,-1.3299913139522104,-0.04740721359848976,0.12144460529088975,-0.11480247229337692,-0.09340842037461697,-0.04854932192713023,-10.088132168054582
46.6,4.400000095367432,150.0,20.686382293701172,33.52467727661133,-79.78132064367597,40.4595791103156,290.9448074951172,0.15534551441669464,-0.11668280512094498,-0.5450719594955444,0.8155669569969177,-0.6160720848023435,1.460716906683318,-1.040841218714576,0.051101304590702064,0.12700432538986206,-0.11373917013406755,-0.0679537638835609,-0.17777602208778262,-10.633776791095736
