time,wind_speed,wind_angle,battery_voltage,battery_current,position_x,position_y,position_z,orientation_x,orientation_y,orientation_z,orientation_w,velocity_x,velocity_y,velocity_z,angular_x,angular_y,angular_z,linear_acceleration_x,linear_acceleration_y,linear_acceleration_z
0.0,0.699999988079071,350.0,24.392452239990234,-0.03180709481239319,-79.7827210333686,40.45899438375308,275.4433248636723,0.004904975648969412,0.010540848597884178,-0.705697774887085,0.7084175944328308,-0.0001184220688259814,-0.0003196217014321791,0.020060106164102327,-0.006852076854556799,-0.0009058450814336537,-0.006645959336310625,-0.08000170505605639,-0.21148297280073167,-9.80419020652771
0.11,0.8000000119209291,350.0,24.381183624267567,0.015903547406196594,-79.7827209794057,40.45899436172631,275.4544804391861,0.004908744245767593,0.010548016987740992,-0.7056995630264282,0.708415687084198,0.0019464971469852536,0.00011534319898825901,0.021029791765971,-0.004419146105647087,-0.0018640620401129129,-0.00030213777790777385,-0.07901503309607506,-0.2252163830213249,-9.805664289593695
0.3,0.699999988079071,352.0,24.39119911193848,0.0,-79.78272097916464,40.45899435936596,275.45659163570406,0.004910274874418974,0.010550227016210556,-0.7057009935379028,0.7084141969680786,0.0016339859427556536,-0.00012289167764395308,0.02138135424153278,0.000684133090544492,0.001964552327990532,-0.002004713751375675,-0.08080661083571614,-0.2137493901327253,-9.805295330286027
0.41,0.699999988079071,355.0,24.39620780944824,0.007951773703098297,-79.7827209210388,40.45899435283325,275.46826407289507,0.004908226896077394,0.010550996288657187,-0.7057014703750609,0.7084137201309204,-0.0010803547654936335,0.0004585130198977988,0.022052635555140948,-0.0045844437554478645,0.00011266705405432732,-0.007419418543577193,-0.07989024250768126,-0.2322401315532625,-9.806655392646787
0.6,0.699999988079071,354.0,24.3974609375,0.02385532110929489,-79.78272092029319,40.458994352989826,275.4704720673561,0.004909922368824482,0.010553176514804363,-0.705703854560852,0.7084113955497742,-0.000503278375588198,0.0004186917252404132,0.022078576113927228,0.007734383922070266,0.0018921360606327653,0.002941318321973085,-0.07883820050396026,-0.22453702792525293,-9.804581969976423
0.71,0.6000000238418579,355.0,24.38994789123535,0.02385532110929489,-79.78272085745205,40.45899434658163,275.48276314115526,0.004910380579531193,0.010556589812040329,-0.7057045698165894,0.7084105610847473,-0.002064977083580388,0.0008935160205868014,0.02246786014771965,0.0015696648042649026,0.0002643149928189814,0.003573272610083223,-0.08088776836171746,-0.22400873199105265,-9.805149149894717
0.9,0.6000000238418579,355.0,24.398712158203125,0.007951773703098297,-79.78272078585425,40.45899433986378,275.4940375981331,0.004907292313873768,0.010560784488916395,-0.7057057619094849,0.7084093689918518,-0.0019767365409635125,0.003662807517748608,0.025032649446287542,0.0039190538227558145,0.00023018101637717334,0.001953902421519161,-0.07943791469559074,-0.23002822123467925,-9.805371344089508
1.0,0.699999988079071,353.0,24.39620780944824,-0.007951773703098297,-79.7827207769444,40.458994344087614,275.499093085289,0.0049087069928646105,0.01056283712387085,-0.7057067155838013,0.7084084153175354,-0.003054371953626871,0.0034839908578262967,0.02524289214317015,0.006703351624310018,-0.0007258185651153326,0.004101724829524756,-0.08020627537742257,-0.21043677801266314,-9.803007899522784
1.2,0.699999988079071,356.0,24.39495658874512,0.02385532110929489,-79.78272069913172,40.45899432430314,275.51089683151247,0.00490950420498848,0.0105707673355937,-0.7057077288627625,0.7084072828292847,-0.0005675079111539048,0.006089652263068971,0.02777302970785324,-0.003026956925168633,-0.0032269530929625034,0.0021172887645661827,-0.08121777973137796,-0.22377533672377467,-9.804112438559534
1.31,0.699999988079071,357.0,24.39495658874512,0.03180709481239319,-79.7827206178588,40.45899431328504,275.5275448856354,0.004908742383122444,0.010576029308140278,-0.7057110071182251,0.7084038853645325,-0.0010862125578551892,0.008078687926582173,0.033147406410971365,0.002567175077274441,5.021365359425545e-05,0.003359295893460512,-0.08014460552483797,-0.2133037409372628,-9.803095023036004
1.5,0.6000000238418579,2.0,24.39996337890625,0.0,-79.78272060803472,40.458994314129185,275.5308683810234,0.004908742383122444,0.010576029308140278,-0.7057110071182251,0.7084038853645325,-0.002478440649636949,0.008080871775858717,0.03345168504369933,-0.0048941527493298045,-0.00034848111681640154,-0.007060959469527006,-0.07966445775702596,-0.20926371691748505,-9.803009653687477
1.61,0.6000000238418579,1.0,24.398712158203125,0.007951773703098297,-79.78272050607781,40.45899428768925,275.55002400255205,0.0049091652035713204,0.010588059201836586,-0.7057143449783325,0.7084003686904907,0.0006828174977493817,0.012947547043983373,0.040901260135013176,-0.0018625276861712337,0.0030594971030950546,-0.0031432448886334896,-0.07903709719888867,-0.2254978350922465,-9.803768622279168
1.8,0.699999988079071,0.0,24.3974609375,0.02385532110929489,-79.78272049036491,40.45899428602871,275.5541085896492,0.004911106545478106,0.01058998517692089,-0.7057161927223206,0.7083985209465027,0.000588965220960904,0.012994339396297851,0.041097795260941546,-0.0011470668250694867,0.004325878340750933,-0.001773208612576127,-0.07944555262103678,-0.21485718168318274,-9.803621857166293
1.91,0.699999988079071,358.0,24.38869667053223,0.007951773703098297,-79.78272040003671,40.458994264957965,275.57261314964296,0.004910775925964117,0.010595344938337805,-0.7057172656059265,0.7083973884582521,0.0010038759197654387,0.01531003914178319,0.04461452637436955,-0.0055259177461266535,-0.004194711800664663,-0.006089983973652124,-0.07915803406387567,-0.2309209631569684,-9.805250891447068
2.11,0.699999988079071,1.0,24.39620780944824,0.03180709481239319,-79.78272038143838,40.45899426284432,275.57706066942217,0.0049122110940516,0.010597048327326776,-0.7057183980941772,0.7083961963653564,0.0016411616266484564,0.015463042295743603,0.04469976260974146,0.006555724423378706,0.005927876103669405,0.003230464877560735,-0.07827271079644561,-0.2256913962028921,-9.804186113476751
2.2,0.699999988079071,1.0,24.3974609375,0.02385532110929489,-79.78272033699035,40.45899425619484,275.59416738128664,0.004917906597256661,0.010593551211059092,-0.7057199478149414,0.7083946466445923,-0.0004953988100421133,0.010395052398293764,0.0442579788240711,0.0017002994427457456,0.0004841980407945812,-0.0028364043682813644,-0.0804823187738657,-0.2205835975147784,-9.804279668927194
2.4,0.699999988079071,1.0,24.39495658874512,0.015903547406196594,-79.78272027877031,40.458994236533705,275.6072344479561,0.00492058740928769,0.010597946122288704,-0.7057201862335205,0.7083944082260132,0.0024095047577457336,0.010658803264862612,0.0439534852181796,0.003669591387733817,0.0018855660455301406,0.0035373747814446688,-0.07959663005545736,-0.2304993971809745,-9.80556020915508
2.5,0.699999988079071,2.0,24.39495658874512,0.007951773703098297,-79.78272025260928,40.45899423181184,275.61604288196565,0.004921600222587586,0.010599201545119286,-0.7057212591171265,0.7083932161331177,0.0016766094532363071,0.010770871928785869,0.04419631948945185,0.004491125233471394,0.0011546992463991046,0.0005554172676056623,-0.08017092713154853,-0.20947602566331627,-9.802329622507095
2.7,0.699999988079071,1.0,24.39495658874512,0.02385532110929489,-79.78272022685793,40.45899422836825,275.6291000542641,0.0049242596141994,0.010595085099339485,-0.7057209610939026,0.7083935737609863,-0.0009157768138384184,0.00691293980096536,0.0437890414764394,-0.0033871217165142298,0.0005245231441222131,-0.003373702056705952,-0.07987406216561795,-0.2161015057191253,-9.8034400087595
2.81,0.6000000238418579,0.0,24.38744354248047,0.02385532110929489,-79.78272016807291,40.458994212964896,275.64656630134584,0.004927766509354114,0.01060182973742485,-0.7057226896286011,0.7083917856216431,0.0009932669507019206,0.007930710330989734,0.043843655439547706,-0.0012302550021559,-0.0005755669553764164,0.002578275976702571,-0.07900542173534633,-0.22102007389068604,-9.80375868201256
3.0,0.699999988079071,359.0,24.39620780944824,-0.007951773703098297,-79.7827201583423,40.45899421128254,275.65095284557344,0.004927766509354114,0.01060182973742485,-0.7057226896286011,0.7083917856216431,0.0005389800656759778,0.007912234946878552,0.04413158867179009,-0.00028013656265102327,-0.0004273152735549957,-0.00432443805038929,-0.08010820660740138,-0.2116442645899952,-9.803186824321749
3.1,0.699999988079071,357.0,24.39119911193848,0.007951773703098297,-79.78272010504273,40.458994206956895,275.66809448575975,0.0049264077097177505,0.01060313917696476,-0.7057265639305115,0.7083879113197327,-0.0014731876178183867,0.008822169011465666,0.04390300050428638,-0.003412376856431365,0.000702353660017252,-0.0052742622792720795,-0.07922084595076741,-0.2302235365100205,-9.805028697252274
3.3,0.699999988079071,359.0,24.392452239990234,0.015903547406196594,-79.78272009415191,40.45899420688848,275.6724801955223,0.004929371178150177,0.010606163181364536,-0.7057271003723145,0.7083873152732849,-0.0008129976526585577,0.00892923869763658,0.04389290132785805,0.0013352984096854925,0.003075772663578391,0.005767999682575464,-0.07808651352301241,-0.22675010768696666,-9.803977952599526
3.4,0.699999988079071,356.0,24.398712158203125,0.015903547406196594,-79.7827200483153,40.45899420297098,275.6891035733223,0.004928999114781618,0.01060730777680874,-0.7057272791862488,0.7083870172500609,-0.0018808908280298013,0.009527618100111756,0.04382720329513693,-0.0008262898772954942,0.003058847971260548,-0.0006491313688457012,-0.07937445413321258,-0.21937139661982652,-9.803813645839693
3.6,0.699999988079071,358.0,24.39996337890625,0.03180709481239319,-79.78272003662687,40.45899420437564,275.6934973893166,0.004929108079522847,0.010607262142002584,-0.7057289481163025,0.7083854675292969,-0.0027114439628129787,0.009642040133278457,0.04409094316348692,-0.0005295787705108523,-0.0012848955811932685,0.0037691211327910415,-0.08020417403429747,-0.2277285661362112,-9.805336260795594
3.7,0.699999988079071,358.0,24.40121650695801,0.03180709481239319,-79.78271997267191,40.4589941808736,275.70978024578096,0.004932183306664229,0.010618417523801328,-0.7057314515113831,0.7083827257156372,0.0010922662530807687,0.01345775038896965,0.04392581168940512,0.002193665597587824,0.0021856031380593764,0.003329809522256255,-0.07867252330295743,-0.2094419290870428,-9.80310262441635
3.9,0.699999988079071,359.0,24.39620780944824,0.007951773703098297,-79.78271997270635,40.45899419286695,275.72075656032564,0.0049327583983540535,0.01061190478503704,-0.7057312130928041,0.7083830833435059,-0.003513149145226125,0.009806801545538764,0.043661220754140785,-0.003936699125915766,0.002149782609194517,-0.004697948228567839,-0.07930673606693744,-0.21332219621166587,-9.803880888819696
4.01,0.6000000238418579,1.0,24.38994789123535,0.007951773703098297,-79.78271994862821,40.458994197446046,275.72951778745653,0.004933169577270746,0.010612519457936287,-0.7057321667671204,0.7083821296691895,-0.004411582857825341,0.009969061430929377,0.044056906018872966,-0.00357971154153347,-0.001045169890858233,-0.0034673446789383893,-0.07951984880492091,-0.22453240497037769,-9.804028238654137
4.2,0.699999988079071,1.0,24.40246772766113,0.007951773703098297,-79.78271993975982,40.4589941707719,275.7401784358025,0.004940662998706102,0.01061968319118023,-0.7057321071624756,0.7083820104598999,0.0031261328540932447,0.00980589759811692,0.043796053520992737,0.0021540115121752024,0.0004047430120408535,0.0015495758270844815,-0.07911632697097958,-0.21499703977257006,-9.803848144412044
4.31,0.699999988079071,2.0,24.39620780944824,0.02385532110929489,-79.78271992169066,40.45899417671682,275.75312969064714,0.004941393621265888,0.0106202969327569,-0.7057321071624756,0.7083820104598999,0.0005891813919106394,0.009812394471147177,0.03989924601417514,-0.0038167277816683054,-0.0004672076611313969,-0.0030469805933535103,-0.07902802487835288,-0.22967663912102584,-9.805723346471789
4.5,0.699999988079071,5.0,24.38368797302246,0.07951773703098297,-79.78271990964457,40.45899417538025,275.7571153936386,0.004941393621265888,0.0106202969327569,-0.7057321071624756,0.7083820104598999,0.0009546149456889812,0.009977579628395756,0.03996968799265272,0.007647931110113859,0.0015308132860809565,0.005011007189750671,-0.07884065816178919,-0.22876215286552906,-9.803482108712195
4.6,0.699999988079071,6.0,24.392452239990234,0.015903547406196594,-79.78271983350294,40.45899418339271,275.77071663713457,0.004932146985083818,0.010631266981363295,-0.7057362198829651,0.7083777785301208,-0.0004092441677980759,0.02077412139399153,0.041075345457487235,0.0018981144530698657,0.0006727260770276189,0.0034388299100100994,-0.07931682251393796,-0.21342455903068186,-9.803018424510958
4.8,0.8999999761581421,8.0,24.39495658874512,0.07951773703098297,-79.78271980859064,40.45899418363993,275.7748247084618,0.004932908806949854,0.010632004588842392,-0.7057375311851501,0.7083764672279358,-0.0017113066223039704,0.02088064335927905,0.041345012870765085,-0.004606139846146107,-0.002537969732657075,-0.0021498329006135464,-0.08015654663555324,-0.2233086192794144,-9.804839247465132
5.01,0.8999999761581421,12.0,24.38368797302246,0.07951773703098297,-79.78271982284048,40.45899416589261,275.7875451741219,0.004944198299199343,0.010631097480654716,-0.7057369947433472,0.7083769440650941,0.0033061877171724928,0.01511801926359126,0.04175655567779932,-0.0010032575810328126,0.0004643432039301843,0.002405316568911076,-0.08012608629651367,-0.2285950138606131,-9.804403629899024
5.1,0.8999999761581421,13.0,24.38994789123535,0.08746951073408127,-79.7827198503845,40.4589941725579,275.79975041723253,0.004951145965605974,0.010625801980495451,-0.7057373523712158,0.7083767056465149,0.0013721745778409985,0.009458464081480756,0.04190631568681198,0.005223083309829235,0.003175671212375164,0.005503633990883827,-0.07807656412012877,-0.20954973712563515,-9.802672854065897
5.3,1.0,18.0,24.386192321777344,0.13518016040325165,-79.78271983892094,40.45899417121367,275.8039441404343,0.004950879141688347,0.01062575448304415,-0.7057390809059143,0.7083748579025269,-0.00024460551348082313,0.009347301276771408,0.04218170656808105,-0.007606165017932653,-0.00356345041655004,-0.006294728256762028,-0.07974147655069827,-0.21321630679070952,-9.802927207946775
5.4,1.0,19.0,24.37492370605469,0.14313192665576935,-79.7827198770276,40.45899418745242,275.8137401638031,0.004954163916409016,0.010620675049722195,-0.7057381868362427,0.7083758711814879,-0.0017297688713471724,0.005616400452718606,0.0387174010771749,-0.004518919624388218,0.0006313198828138411,-0.0019712471403181553,-0.07888090345077217,-0.22514660015702248,-9.804097820520402
5.6,1.100000023841858,24.0,24.38368797302246,0.06361418962478638,-79.78271987006359,40.45899418789694,275.8176176247597,0.004956903401762247,0.010623738169670105,-0.7057392001152039,0.7083747386932373,-0.0016481049812507294,0.005621372353960422,0.03895830274445082,0.0022471933625638485,0.0019160107476636765,-0.0023449989967048173,-0.0795193006284535,-0.2144313582032919,-9.803633551597596
5.7,1.100000023841858,26.0,24.38744354248047,0.08746951073408127,-79.78271995415933,40.45899417926047,275.8237316308022,0.004968258552253246,0.010620268061757088,-0.7057381868362427,0.7083758115768433,0.0012135374849018116,-0.0016057113034208745,0.032074174925297884,-0.00648780632764101,-0.002344181761145592,-0.005026014987379313,-0.07924618997611106,-0.2308572285063565,-9.80642267346382
5.9,1.100000023841858,33.0,24.38744354248047,0.11132483184337616,-79.78271995570816,40.45899417736632,275.8269362745285,0.004968258552253246,0.010620268061757088,-0.7057381868362427,0.7083758115768433,0.001778118240589263,-0.0015319549159487314,0.03206598380025117,0.007100993767380714,0.00025801584706641734,0.003387403907254339,-0.07867460637353361,-0.2279198979958892,-9.804113023281095
6.01,1.100000023841858,34.0,24.384939193725586,0.07951773703098297,-79.78271997556716,40.45899420032226,275.835971921444,0.004966388922184707,0.010623976588249208,-0.7057408094406128,0.7083731293678284,-0.0007259556000708885,0.001945401091039513,0.032153601530018984,0.003182823304086924,0.001364304916933179,4.389040987007321e-05,-0.08003205575980246,-0.21927802389487625,-9.804149860739706
6.2,1.100000023841858,37.0,24.38869667053223,0.06361418962478638,-79.7827200247178,40.45899423074072,275.83981397724153,0.00496474327519536,0.010619235225021841,-0.7057402729988098,0.7083737254142761,-0.004352882322434548,0.0010032732597660481,0.02898390964926805,-0.001962491311132908,0.0022800136357545853,0.0012409619521349669,-0.07894138558767738,-0.2298826986551285,-9.804770835042
6.31,1.100000023841858,40.0,24.382434844970703,0.06361418962478638,-79.78272005947667,40.45899423821314,275.84677681303026,0.0049671600572764865,0.010625222697854042,-0.7057410478591919,0.7083728313446045,-0.00047799938048284933,0.0032665916135378,0.026561327304592264,0.004594983533024788,0.0005277386517263949,0.0039624208584427825,-0.07925483289174735,-0.20959830556064848,-9.802617305517195
6.51,1.0,38.0,24.38744354248047,0.05566241592168808,-79.78272005534465,40.45899423884659,275.8494467434884,0.0049671600572764865,0.010625222697854042,-0.7057410478591919,0.7083728313446045,-0.002090070965023884,0.0033336387601944693,0.02683758795599892,-0.0074978875927627095,4.521338632912375e-05,-0.004853864200413227,-0.07933757099322973,-0.2137641178071499,-9.801947214603423
6.6,1.0,39.0,24.386192321777344,0.08746951073408127,-79.7827201342339,40.45899426121047,275.85352006530763,0.004974875599145889,0.01061290968209505,-0.7057397365570068,0.7083743214607239,-0.002593659365305569,-0.0026679147250249467,0.02052127201109275,-0.004474437329918146,-0.0018390509067103265,-0.0005641548195853829,-0.07791307048872112,-0.22331717083230607,-9.803629458546641
6.8,1.0,39.0,24.386192321777344,0.13518016040325165,-79.78272013720222,40.45899426284559,275.8555837569237,0.004986008629202843,0.010620752349495888,-0.7057477235794067,0.7083660960197449,-0.002404017468624257,-0.0027125208559254143,0.02068835828836227,0.0007789828814566134,0.0007667376194149256,0.0020642592571675773,-0.07919541969895362,-0.21861120376735926,-9.804531683921814
6.9,1.0,39.0,24.38994789123535,0.08746951073408127,-79.7827201916676,40.45899424613896,275.85946080064775,0.005000119097530842,0.010638367384672165,-0.7057642936706543,0.7083492875099182,0.005233869021456825,-0.0022998577292730965,0.01709684372998808,0.00019650244212243703,-0.00065680465195328,-0.005190970376133919,-0.08062645263969899,-0.2275768857076764,-9.804918184876444
7.1,1.0,37.0,24.38994789123535,0.09542128443717957,-79.78272019414048,40.45899424126449,275.86116656637194,0.004995673429220915,0.01065845787525177,-0.7057529091835022,0.7083603143692017,0.0049861058534736965,-0.0022320769318243967,0.017263973072469685,0.0015995876165106893,-0.004560568369925022,0.00543009303510189,-0.0796423845179379,-0.2306324030645192,-9.805830350518226
7.2,1.0,34.0,24.384939193725586,0.08746951073408127,-79.78272024676895,40.45899426136031,275.8630867300034,0.005004138220101595,0.010645299218595028,-0.7057348489761353,0.7083784937858582,0.002716887764562213,-0.0020121966337389267,0.012209679257261779,0.0024675838649272927,-6.544592906720936e-05,0.006269966717809439,-0.07917249678634107,-0.2088786046765745,-9.803038305044174
7.4,1.0,32.0,24.38869667053223,0.08746951073408127,-79.78272029519088,40.45899428709511,275.86740204668047,0.005011993460357189,0.010656669735908508,-0.7057244777679443,0.70838862657547,0.00046063131895917453,-0.001833308978927659,0.015090259804073903,-0.0025574052706360817,-0.002459060400724411,-0.005695086903870107,-0.07893168286420406,-0.2089860289916396,-9.802326114177703
7.51,1.0,31.0,24.384939193725586,0.10337305814027786,-79.78272029932289,40.45899428533309,275.87045380449297,0.005014423280954361,0.010649430565536022,-0.705730140209198,0.7083830237388611,-0.0004017694124448669,-0.001962775900643864,0.015556485311078684,-0.007457882631570102,-0.0020187182817608122,-0.008175543509423733,-0.08054101933725179,-0.22931919151917105,-9.804477889537813
7.7,0.8999999761581421,30.0,24.38869667053223,0.08746951073408127,-79.78272035074689,40.45899429542615,275.87475869035717,0.005007637199014425,0.01063944771885872,-0.7057413458824158,0.7083720564842224,0.003543451040105847,-0.0019296773039285348,0.017425060121282684,0.007922740653157234,0.0017381048528477552,0.005400660447776318,-0.07847596549428999,-0.22745159083977345,-9.804231721758844
7.81,0.8999999761581421,29.0,24.39620780944824,0.02385532110929489,-79.78272042931569,40.45899430155636,275.8781066236496,0.0050147552974522105,0.010637534782290459,-0.705740213394165,0.7083731889724731,0.005792610402177586,-0.006259463048726145,0.014414232255344196,0.004412955604493618,0.0035117943771183486,0.004494430497288704,-0.07954266208223999,-0.21581775130704045,-9.804525251984597
8.0,0.8000000119209291,29.0,24.38994789123535,0.007951773703098297,-79.78272043657554,40.45899429669649,275.8795546588898,0.0050147552974522105,0.010637534782290459,-0.705740213394165,0.7083731889724731,0.004500439801782477,-0.006318124391016317,0.01459198763818419,-0.0020421305671334267,-0.003187541849911213,0.000389418622944504,-0.08084576890803874,-0.22200105395168068,-9.80286405801773
8.1,0.8000000119209291,29.0,24.39370346069336,0.007951773703098297,-79.78272046509983,40.45899430514951,275.88339868164064,0.005012192297726871,0.01064614485949278,-0.7057405710220337,0.7083727121353149,0.0051475728894034714,-0.00047493213055894035,0.013855566643435643,-0.0008430540328845383,-0.0010953008895739913,0.001841521472670137,-0.08046676883473992,-0.21615922870114448,-9.802307403087617
8.3,0.8000000119209291,30.0,24.38368797302246,-0.06361418962478638,-79.78272046558753,40.458994300307175,275.8847852048874,0.005012070760130882,0.010646742768585682,-0.705741286277771,0.7083719372749329,0.004762617967534452,-0.0006628009176480522,0.01410698631307199,0.0024020571727305646,-0.003422127803787589,-0.00035217520780861383,-0.08028122937306763,-0.21179932544007896,-9.80339673936367
8.4,0.8000000119209291,30.0,24.386192321777344,-0.05566241592168808,-79.78272053802719,40.458994328145316,275.8878643808365,0.005013684742152691,0.010639920830726624,-0.7057408094406128,0.7083725333213806,0.001512806834234722,-0.004562886032626556,0.013025814476463244,-0.0043199672363698465,0.0004316116392146797,-0.004839401226490736,-0.07996620149351656,-0.2307916117832065,-9.804633425474169
8.6,0.8000000119209291,32.0,24.3974609375,0.015903547406196594,-79.78272054321471,40.458994326345476,275.8891724047661,0.0050138342194259175,0.010640949010849,-0.7057435512542725,0.708369791507721,0.0019707707249085045,-0.004523314516343715,0.013160009206152163,0.0043821437284350395,0.00044053964666090906,0.0044455728493630895,-0.0789597038179636,-0.2310874260775745,-9.805599385499956
8.7,0.8000000119209291,32.0,24.392452239990234,0.03180709481239319,-79.78272059217916,40.45899433478945,275.8914709386826,0.005017383489757775,0.010646572336554527,-0.7057449817657471,0.7083682417869568,0.004369206008291039,-0.003369352185945393,0.012149280316033087,0.002925261622294784,0.004672183189541102,0.005108640063554049,-0.07929487718269229,-0.2102420291863382,-9.803401417136193
8.9,0.8000000119209291,32.0,24.39370346069336,0.015903547406196594,-79.78272064261441,40.45899436292975,275.8924535212517,0.005015128292143345,0.010644517838954927,-0.7057448625564575,0.7083683609962463,0.0009261839107735627,-0.002648183779874445,0.011460670438455936,-0.004800712689757347,0.0018466316396370528,-0.003206625347957015,-0.08017806256189942,-0.21566899448633195,-9.802572281956671
9.0,0.8000000119209291,32.0,24.39370346069336,0.0,-79.78272064893609,40.45899436037857,275.89476814842226,0.005014599766582251,0.010644529946148396,-0.7057465910911559,0.7083666920661926,0.0003793576119374117,-0.0028782179969754976,0.011733084846576052,-0.005463048815727235,-0.0036173728294670577,-0.0019718033727258444,-0.07927384547889232,-0.2231324719078839,-9.803659279346467
9.2,0.8000000119209291,31.0,24.39620780944824,0.02385532110929489,-79.78272068694787,40.45899437438389,275.8954703507424,0.005014040507376194,0.010648224502801895,-0.7057465910911559,0.7083666324615479,0.0026716586038470244,-0.00014363977840058779,0.011481714130720235,0.0030272975564002986,0.0040848753415048105,0.0010510527063161137,-0.08023792343214155,-0.2153018989786505,-9.802655897140504
9.3,0.8000000119209291,31.0,24.39370346069336,0.02385532110929489,-79.78272075775091,40.45899438661696,275.8967604336739,0.005022168159484863,0.010647900402545929,-0.7057463526725769,0.7083668708801271,0.004460731825959382,-0.004690555977057476,0.01120219677909573,-0.0003253286995459348,2.223209207841137e-07,-0.003199854167178273,-0.08014839707873762,-0.2290068588405848,-9.805315210819245
9.51,0.8999999761581421,32.0,24.39620780944824,0.015903547406196594,-79.78272076313023,40.458994382322715,275.89787408685686,0.005022168159484863,0.010647900402545929,-0.7057463526725769,0.7083668708801271,0.004836852318195897,-0.004648200255335468,0.011191934187287287,0.0030513308010995392,-0.0012550288811326027,0.007389968726783991,-0.07931931671686471,-0.2300226481072605,-9.803921819329265
9.6,0.8000000119209291,31.0,24.3974609375,0.0,-79.7827207821059,40.45899438066198,275.90058049535753,0.005020231008529663,0.010660725645720959,-0.705748438835144,0.7083645462989807,0.009487373020907576,0.003525068164102304,0.01475150072969328,0.006638475693762302,0.0023376736789941788,0.006312971469014883,-0.07864072906784714,-0.2105486425571144,-9.803396154642105
9.8,0.8000000119209291,30.0,24.39119911193848,0.015903547406196594,-79.7827207777954,40.45899437255988,275.9020483789444,0.005020176526159048,0.010660847648978232,-0.7057503461837769,0.7083626389503479,0.008013151650970267,0.0035012806944542713,0.015063986027599209,-0.0027674348093569283,-0.0016021316405385733,-0.005265655927360058,-0.08003192785196006,-0.2190873498469592,-9.80423815369606
9.91,0.8000000119209291,30.0,24.39620780944824,0.015903547406196594,-79.78272086074502,40.45899442731138,275.9045170841217,0.00501847080886364,0.010646346025168896,-0.7057502865791321,0.7083629369735718,-0.000490318915749212,-0.0026814292083259987,0.017113788116550947,-0.002654112176969648,0.0006206475663930178,0.0020424420945346355,-0.07971454281359913,-0.21980683146044613,-9.80316694378853
10.1,0.8000000119209291,29.0,24.39370346069336,0.007951773703098297,-79.78272086379765,40.45899442715546,275.9062379894257,0.00502052903175354,0.010649004951119423,-0.7057511210441589,0.7083620429039001,-0.0006433995852349049,-0.0027688351788011604,0.017245535463565737,0.001978751737624407,0.0026988759636878967,0.0006812206702306867,-0.0792337372340262,-0.2123228522390128,-9.802103335261343
10.21,0.8999999761581421,27.0,24.392452239990234,0.007951773703098297,-79.78272090636378,40.45899444645827,275.90793266868593,0.00501540070399642,0.010654098354279995,-0.7057546973228455,0.7083585262298584,0.0003492564269078868,-0.0002719560035278562,0.018210228663301263,-0.004578620195388794,-0.003368549281731248,-0.0033757418859750032,-0.07922191489487887,-0.2310726618580521,-9.804968470931053
10.4,0.8000000119209291,27.0,24.39620780944824,0.007951773703098297,-79.78272096544606,40.45899448208785,275.90761533355715,0.005005335435271263,0.01063452661037445,-0.7057543396949768,0.7083592414855957,4.239464849265323e-05,-0.0007562284682984579,0.01874029401603836,0.004934836644679308,-0.0014451071619987488,0.006025698967278004,-0.07951492435298861,-0.2293076067231596,-9.80474393785
10.51,0.8000000119209291,27.0,24.39119911193848,-0.007951773703098297,-79.78272096713329,40.45899448297264,275.9114241895676,0.005013427697122097,0.010638004168868065,-0.7057557106018066,0.7083576321601868,-0.0007711789067832518,-0.000970865900181314,0.01915304576368317,0.00550962146371603,0.0013598445802927015,0.0037099402397871017,-0.08084796161390842,-0.21149167053401471,-9.803508421182633
10.7,0.8000000119209291,28.0,24.3974609375,0.02385532110929489,-79.78272101160944,40.45899451674129,275.9104516801834,0.0050225509330630285,0.010635466314852238,-0.7057465314865112,0.7083668112754822,-0.002504163360556939,0.0020391493933372253,0.01951421411276354,-0.002903694985434413,-0.0010956135811284184,-0.002332624513655901,-0.08022377134300769,-0.2211953624524176,-9.805408181548119
10.8,0.8000000119209291,30.0,24.39620780944824,0.02385532110929489,-79.78272108596823,40.458994534743404,275.912843495369,0.0050597614608705035,0.010642604902386664,-0.7057339549064636,0.7083789706230164,0.0011015363821931072,1.9322209420258264e-05,0.02357748168807831,-1.634677937545348e-05,0.0005333110457286239,0.0025805674958974123,-0.07984913840889933,-0.2187124519608915,-9.803924158215525
10.91,0.8000000119209291,32.0,24.40246772766113,0.07156596332788467,-79.78272108586353,40.458994533348225,275.9152081308365,0.005071375984698534,0.010647619143128395,-0.705734133720398,0.7083786725997925,0.0006583942630233152,-0.00021110934854117136,0.02372764707927278,0.0006874133832752705,-0.0015603111824020743,-0.007566536776721477,-0.08043404269963503,-0.21076204765588047,-9.801957154870033
11.11,0.8000000119209291,33.0,24.39370346069336,0.015903547406196594,-79.78272115623086,40.458994556320526,275.91532132005693,0.005080430302768946,0.01064119953662157,-0.7057303786277771,0.7083824276924133,0.0016703363783314989,-0.0010817810195936721,0.0228337822523464,-0.005045123863965273,-0.0009897269774228334,-0.005997843574732542,-0.07962593922391534,-0.2310228691622615,-9.80536023437977
11.3,0.8000000119209291,34.0,24.39620780944824,0.007951773703098297,-79.78272115724981,40.458994553835296,275.9176104960442,0.005067987833172083,0.01066428143531084,-0.7057262659072876,0.7083863019943237,0.002497804914876023,-0.0011490169961777313,0.0229608639363724,0.004486014135181904,0.005012377630919218,0.0076037608087062844,-0.07868371523916723,-0.2291280241124332,-9.804908829331401
11.4,0.8000000119209291,35.0,24.39119911193848,0.007951773703098297,-79.7827212194079,40.458994593237406,275.916985660553,0.005075572058558464,0.010674290359020231,-0.7057275176048279,0.7083848118782043,0.0008439831352880782,0.001434051358224913,0.02211324144764692,0.007707365322858095,0.00022120552603155366,0.003498829435557127,-0.07920178768225014,-0.212863683141768,-9.803221322894094
11.6,0.8000000119209291,36.0,24.38869667053223,0.007951773703098297,-79.78272121753373,40.45899459274693,275.91920641040804,0.00506198825314641,0.010673374868929386,-0.7057141661643982,0.708398163318634,-0.0004664090629560082,0.0013587890984223005,0.0223378669182234,-0.005516591481864452,-0.0018442218424752355,-0.0015922703314572573,-0.08015799016691745,-0.22213314620777969,-9.804416493773461
11.71,0.8000000119209291,36.0,24.392452239990234,0.02385532110929489,-79.78272130280868,40.45899461895122,275.9173174200058,0.005067935213446617,0.010679192841053007,-0.7057161927223206,0.7083960771560669,0.0024275490501042807,-0.00030394752619935985,0.021240094967993416,-0.00020238243450876323,-0.000364700797945261,0.0027787045110017053,-0.07954589632339776,-0.21663502760231496,-9.80269565820694
11.91,0.8000000119209291,37.0,24.39495658874512,0.02385532110929489,-79.78272135188062,40.45899465616874,275.9127446112633,0.005072691943496466,0.010686764493584631,-0.7057198286056519,0.7083922624588013,0.003836548709830255,0.005712060453584527,0.02045638610313,-0.0019446985097602008,-0.0005082390853203833,-0.006324928719550371,-0.0791884395852685,-0.21072574010118844,-9.803106717467307
12.01,0.8000000119209291,39.0,24.392452239990234,0.0,-79.78272133807981,40.45899464839397,275.9168484506607,0.005073446314781904,0.010687882080674171,-0.7057223916053772,0.7083896994590759,0.0030387634340803943,0.005564739673790235,0.020913547787661992,-0.005593538284301758,-0.00023166557366494087,-0.00554297585040331,-0.07906615968793633,-0.23044496325775984,-9.804562674164773
12.2,0.8000000119209291,42.0,24.392452239990234,0.007951773703098297,-79.78272146914357,40.45899470043566,275.91213235235216,0.005080563016235828,0.010675727389752865,-0.7057213783264159,0.7083908319473267,0.002152408146251247,-0.0038751972213756478,0.02017510492972096,0.005201182793825865,0.002788518089801073,0.004332916811108589,-0.07829410795122385,-0.2251869276724756,-9.804635764360428
12.3,0.8000000119209291,42.0,24.38869667053223,-0.007951773703098297,-79.78272155164062,40.458994753313476,275.9072311220169,0.005075639579445125,0.01067635416984558,-0.7057218551635742,0.708390474319458,0.00028789075566059547,-0.00022431470136245526,0.016456291147539763,0.00043104938231408596,0.0009439173154532908,0.000698111136443913,-0.07989558722823857,-0.21500920929014689,-9.803369257450104
12.5,0.8999999761581421,42.0,24.39370346069336,-0.039758868515491486,-79.78272155185284,40.45899475307639,275.90888944244386,0.005075639579445125,0.01067635416984558,-0.7057218551635742,0.708390474319458,-0.0001047485970873514,-0.00036240912798355,0.016657347742192574,0.003653736086562276,-0.0008062988636083901,0.00623275525867939,-0.08041790803894401,-0.2292641363292933,-9.805150319337846
12.6,0.8999999761581421,41.0,24.39119911193848,-0.007951773703098297,-79.78272167118179,40.45899481067777,275.9022891817093,0.00508359307423234,0.010668541304767132,-0.7057174444198608,0.7083948850631714,-0.0008854334509388729,-0.005378432629522096,0.013424569990225541,0.003984475042670965,-0.00023778574541211128,0.0069020786322653285,-0.08003454082645478,-0.20927164720371366,-9.803243542313576
12.8,0.8999999761581421,41.0,24.384939193725586,0.007951773703098297,-79.78272167744589,40.4589948117409,275.9036547241211,0.005080814938992262,0.010665045119822024,-0.7057198882102966,0.7083925008773804,-0.0022413600234767826,-0.005495284017228684,0.013730198778309437,-0.003821650752797723,0.00014368632400874048,-0.0037101285997778173,-0.07961330375634135,-0.21633018666878345,-9.804322353601457
12.91,0.8999999761581421,42.0,24.392452239990234,0.007951773703098297,-79.78272178181383,40.45899483628576,275.89624413824083,0.005092786625027657,0.010670870542526243,-0.7056867480278015,0.7084254026412964,0.005360851870873538,-0.004689155204884201,0.011745262660683618,-6.644862151006237e-05,-0.0017911497270688415,-0.0003154033038299532,-0.08147206965833903,-0.22735655531287194,-9.804312413334848
13.1,0.8999999761581421,43.0,24.38994789123535,-0.007951773703098297,-79.78272178730072,40.458994830975605,275.8974204359055,0.005116395186632872,0.0106742475181818,-0.7056848406791687,0.7084270119667053,0.0051284735730765954,-0.004893108898870607,0.011958369789721294,-0.0004284016613382846,-0.0005623385659419,-0.003425888251513243,-0.08003373683430255,-0.21074602263048287,-9.80312133550644
13.2,0.8999999761581421,43.0,24.386192321777344,-0.039758868515491486,-79.78272193320531,40.45899489191768,275.8901242313385,0.0050984593108296394,0.010656646452844143,-0.7056834101676941,0.7084288597106934,0.001967829276038058,-0.01081451627528016,0.01094407497151824,-0.0017676071729511023,0.0015726624988019464,-0.0048648803494870645,-0.07942263884469868,-0.23053309176117184,-9.804648628234863
13.4,0.8000000119209291,44.0,24.386192321777344,-0.015903547406196594,-79.78272201822936,40.45899492879175,275.8828690943718,0.0051169744692742825,0.010670051909983158,-0.7056785225868225,0.7084333896636963,0.007839853932271148,-0.00504453238899613,0.013466407276921166,0.0047738407738506785,0.0015383490826934574,0.0050421254709362975,-0.07833999945782126,-0.2265666147507727,-9.804307735562325
13.5,0.8000000119209291,45.0,24.39119911193848,0.0,-79.78272203018552,40.458994915207036,275.8855997619629,0.005112337879836559,0.010695895180106165,-0.7056792974472046,0.7084322571754456,0.007305942773042358,-0.005436538122855429,0.013953153207246292,0.002795332344248891,0.00033364677801728254,0.0033425993751734486,-0.0806905618775636,-0.21954160541296008,-9.805059687495232
13.71,0.8000000119209291,45.0,24.38869667053223,0.007951773703098297,-79.78272215533795,40.45899496897861,275.8778098521233,0.005115653853863478,0.010691448114812374,-0.7056761384010315,0.7084354758262634,0.006943484277330033,-0.008495130454136768,0.01575900238209849,-0.004843288101255894,-0.001656079781241715,0.0043457243591547,-0.08032265324145556,-0.22706523606553675,-9.805325151085857
13.81,0.8999999761581421,42.0,24.386192321777344,0.03180709481239319,-79.782722261403,40.45899502140674,275.86671981191637,0.005109940655529499,0.010694220662117004,-0.7056770324707031,0.7084345817565918,0.00708352368515601,-0.0030497055508908106,0.009309085870948813,0.005913195200264454,-0.0009255422046408056,0.001472019124776125,-0.07887958782725038,-0.21089496217668052,-9.80388264298439
14.0,0.8000000119209291,42.0,24.39370346069336,0.03180709481239319,-79.78272226502202,40.458995015266545,275.8676502404213,0.005109940655529499,0.010694220662117004,-0.7056770324707031,0.7084345817565918,0.005925995865135396,-0.003260575142930816,0.009542108452844951,-0.004967863671481609,-0.0016121860826388,-0.004704635590314865,-0.07882223943248391,-0.21056552639231088,-9.803403756022453
14.11,0.8999999761581421,42.0,24.33360481262207,1.296139121055603,-79.78272237962936,40.45899506585433,275.85778138017656,0.005118238739669323,0.010707485489547251,-0.7056434154510498,0.7084677219390869,0.0056040612848330465,-0.0033000714764366817,0.009276066277301702,-0.005527110304683447,-0.00605071010068059,-0.0023211585357785225,-0.07890387204475703,-0.2259541006386281,-9.804597172737124
14.3,0.8999999761581421,43.0,24.369915008544922,0.3021674156188965,-79.7827223834297,40.458995059775226,275.8586952981949,0.005130358971655369,0.010699967853724957,-0.7056896686553955,0.7084216475486755,0.0066734625883149035,-0.0037363354232433257,0.009242079732290593,0.00742395268753171,0.0050111492164433,-0.005665139760822058,-0.07748712823726238,-0.2294135875068605,-9.804114777445793
14.41,0.8999999761581421,43.0,24.37367057800293,0.3021674156188965,-79.78272252925066,40.458995128240254,275.8479795751572,0.005123373121023178,0.010730648413300514,-0.705640971660614,0.7084698677062988,0.002314472880400744,-0.006947100405907583,0.009188875939715005,-0.0017791547579690816,-0.006633082404732704,-0.002723268000409007,-0.08313548373989761,-0.2162142473459244,-9.801495809555057
14.51,0.8999999761581421,44.0,24.3686637878418,0.2862638533115387,-79.78272253762363,40.45899512540794,275.8488951621056,0.005129321478307247,0.010712436400353909,-0.7056902647018433,0.708420991897583,0.0031379357307872915,-0.007223959168063543,0.00920589469019051,0.003138946834951639,0.004877727013081311,0.005782140418887138,-0.07648737313225866,-0.2351151343993843,-9.808488494753838
14.71,1.0,45.0,24.372419357299805,0.3180709481239319,-79.78272264434291,40.45899518059922,275.83474734401705,0.005132223013788462,0.010744292289018631,-0.7056644558906555,0.7084461450576782,0.004674424203491236,-0.0023509737029589442,0.005102605710773978,0.0049307039007544535,-0.00014509395987261092,-0.003371296217665077,-0.07938166265375912,-0.2066606278717518,-9.80370196402073
14.9,1.0,45.0,24.372419357299805,0.3816851377487183,-79.78272279797396,40.458995279413685,275.8192036447525,0.005115447100251913,0.010734068229794502,-0.7057004570960999,0.7084106206893921,-0.002850573324147191,-0.0068580624141028074,0.001836087204668964,-0.003928734455257654,-0.0013283431762829425,0.0007993699982762338,-0.07849081194028258,-0.2213766809552908,-9.804988351464274
15.0,1.0,45.0,24.362401962280273,0.3975887000560761,-79.78272281440786,40.45899528419482,275.8196158704758,0.005124699790030718,0.01074272021651268,-0.7056649923324585,0.70844566822052,-0.003931410892966286,-0.007030585763517466,0.0020266358245043872,-0.005895587615668775,-0.003686493262648583,-0.009417688474059105,-0.07618713688105345,-0.2295843079313636,-9.808363364338877
15.2,1.0,44.0,23.274370193481445,26.95651435852051,-79.78272294098895,40.45899533065523,275.8039990959168,0.005140717141330242,0.01075679250061512,-0.7056794762611389,0.7084309458732605,0.003487820047454697,-0.00547438155254673,0.0007461326786123932,0.0027619095053523783,0.0014564713928848505,-0.0025503046344965696,-0.07566577081102878,-0.21853274144232274,-9.804753878116607
15.3,1.0,43.0,24.14579772949219,2.3298697471618652,-79.78272309145001,40.458995401345774,275.78888419246675,0.005220904480665922,0.010899537242949007,-0.7056993246078491,0.7084084749221802,-7.05499778968713e-05,-0.007813694061682749,0.0035956353583952976,-0.013147799298167229,-0.008194812573492527,-0.014567206613719463,-0.08127951353788376,-0.2201728488877416,-9.804470872879028
15.5,1.0,40.0,24.36490631103516,0.2306014448404312,-79.78272310175967,40.45899540040924,275.7892017064095,0.005213462281972171,0.0109223872423172,-0.7056626677513123,0.7084446549415588,-0.00328630854846238,-0.008169389364559791,0.0037912969212302397,-0.03680185601115227,-0.026616785675287247,-0.0015908724162727597,-0.10485239898785947,-0.1962774346768856,-9.798787379264832
15.61,1.0,40.0,23.026464462280273,16.873664855957028,-79.78272328691213,40.45899546005175,275.7721391615868,0.0052805705927312365,0.010867644101381302,-0.7056912779808044,0.7084165215492249,0.005122685787965599,-0.01582645276666591,0.0020547134431195303,0.004020221997052431,0.02951135486364365,0.008820644579827784,-0.08793587420135737,-0.2466196225583553,-9.805997580885887
15.8,1.0,40.0,24.33861351013184,0.4532511234283447,-79.78272330396375,40.45899545610517,275.7723656592369,0.005354848224669695,0.010983946733176708,-0.705626368522644,0.7084788084030151,0.007310958464189753,-0.015260704907658662,0.0021391685418193523,0.009754425846040249,-0.008702205494046211,0.002034091623499989,-0.09446403466165068,-0.2737066115252674,-9.81448481440544
15.91,1.0,40.0,24.354890823364247,0.2544567584991455,-79.7827234929668,40.458995521671575,275.75107285356523,0.005315977614372969,0.010912294499576092,-0.7056455612182617,0.7084611058235168,-0.00012354988472805206,-0.017162674325401674,-0.003995361551559393,-0.02828330174088478,-0.0034560293424874553,-0.01511205732822418,-0.08968310446478428,-0.28778855234384537,-9.803879719376564
16.1,0.8999999761581421,40.0,24.29604339599609,1.8845703601837158,-79.78272351417186,40.458995520000755,275.75065395212175,0.005272647365927696,0.010855402797460556,-0.7056475877761841,0.70846027135849,0.003763461669722603,-0.016930335557042632,-0.004177959066363335,0.015018864534795284,-0.002133479574695229,-0.009692878462374209,-0.07532269913703203,-0.255210589338094,-9.806829054951669
16.2,0.8999999761581421,38.0,24.14204216003418,4.206488609313965,-79.78272365822689,40.45899557225055,275.73194178915026,0.00527147576212883,0.010825191624462605,-0.7056688070297241,0.7084395289421082,0.004398795812765736,-0.014070930536617577,-0.002910555300895346,0.0039608594961464405,-0.0023937874939292674,-0.007809361908584833,-0.09755278064869344,-0.19457560256123546,-9.80787687599659
16.4,0.8999999761581421,36.0,24.003063201904297,6.1387696266174325,-79.78272379278846,40.45899563991036,275.71104952669145,0.0052792769856750965,0.010853738524019718,-0.7056764364242554,0.7084314823150635,0.006729147271278983,-0.009934901506474251,-0.006129239057687468,0.027935270220041275,-0.010357107035815716,0.00539605226367712,-0.08073597829788924,-0.30356251291930675,-9.815489366054537
16.51,0.8999999761581421,35.0,23.91291618347168,6.902139663696289,-79.78272381790771,40.458995634799116,275.7099535164833,0.005512257106602192,0.01110187452286482,-0.7057409286499023,0.7083615660667419,0.0026449178635372145,-0.008928172098811832,-0.0029726082917799503,-0.02004493027925492,0.0009076657588593662,-0.008802722208201885,-0.0897805062867701,-0.2241822846606374,-9.803217814564707
16.7,0.8999999761581421,36.0,23.75140190124512,9.661405563354492,-79.7827239489753,40.45899570189371,275.68975403881075,0.0058292807079851645,0.011430632323026657,-0.7057647109031677,0.7083301544189453,0.0013463385935387805,-0.007570210812912863,-0.0027568048042682395,0.0013727067271247506,-0.028868649154901505,0.038576167076826096,-0.04234783809632063,-0.20955127201974394,-9.86655894756317
16.81,0.8999999761581421,36.0,23.64748191833496,10.838268280029297,-79.78272409383811,40.45899574173872,275.66835859394075,0.006965737789869309,0.012529629282653332,-0.7056685090065002,0.7083971500396729,0.011184933956605721,-0.0027270201684233162,0.0011763146698805195,0.007805590517818928,0.01945139840245247,0.036906030029058456,-0.2343504099547863,-0.21909308742731806,-9.759839075803756
17.0,0.8999999761581421,34.0,23.433380126953125,14.011025428771973,-79.782724103262,40.45899573226932,275.6681937274933,0.007781710475683212,0.0132509283721447,-0.7056741714477539,0.7083698511123657,0.0029603949069467537,-0.0004480685901722284,0.0003579745267899272,-0.06856601685285567,0.02127114683389664,0.11421102285385132,-0.08067547788843513,-0.3311455102264881,-9.818543951511383
17.1,0.8999999761581421,36.0,23.28939437866211,15.569573402404785,-79.78272427972071,40.45899574276167,275.6493203935624,0.009791661985218523,0.014224243350327015,-0.7057063579559326,0.7082939743995667,0.013489043779461392,-0.024823603454483603,0.0058652519931898075,0.02395546622574329,0.03867102414369583,-0.03601545840501785,-0.19148481918498875,-0.32414884161204105,-9.763419910669327
17.3,1.0,36.0,23.08781433105469,18.74233055114746,-79.78272431419883,40.458995730381496,275.650152712822,0.011687210761010649,0.013264941982924938,-0.7057273387908936,0.7082629203796387,0.017829148086419142,-0.026031708193225183,0.007886504843122864,0.0327511802315712,-0.010567443445324898,-0.04281321167945862,-0.13205867115408182,-0.14175339125096795,-9.755812098383904
17.4,1.0,36.0,22.96010589599609,20.491722106933594,-79.78272445017744,40.458995755608136,275.6262426671982,0.012283345684409142,0.01271794643253088,-0.7055274844169617,0.7084619402885437,0.008887144600559033,-0.0030717388477337,0.022982609840324568,-0.08405541628599167,-0.020483795553445816,0.01719263382256031,0.03998395498842002,-0.3709970257803798,-9.773651368618012
17.6,1.100000023841858,34.0,22.70218276977539,24.41989707946777,-79.78272444453421,40.458995737754286,275.62989804124834,0.0072031375020742425,0.012093210592865944,-0.7067340612411499,0.7073392868041992,0.0268312409309275,0.0002754544971036704,0.05208530653947945,-0.13670173287391665,0.07736162841320038,-0.028041798621416092,-0.04987536993809045,-0.08797111281193794,-10.07622372865677
17.7,1.100000023841858,35.0,22.575725555419922,26.034107208251953,-79.78272463621218,40.45899568894578,275.617057472229,-0.01016258355230093,-0.006267512682825327,-0.7076082825660706,0.7065040469169617,0.044622531931952335,0.02535513646237839,0.141738093880307,-0.2294306606054306,0.05104391649365425,0.12039104849100113,-0.053812149488367135,0.0914075854048133,-10.177982822656633
17.9,1.2000000476837158,35.0,22.704687118530273,22.33653259277344,-79.78272464564205,40.45899549968487,275.6031326351166,-0.012847792357206345,-0.010912404395639895,-0.7076793313026428,0.7063326239585876,0.03807326922986177,0.042920063331426964,0.20446732686035746,-0.14259757101535794,-0.049398131668567664,-0.1207370012998581,0.003346478005405516,0.4732229834049939,-10.76444802761078
18.0,1.2999999523162842,36.0,22.83615303039551,20.380395889282227,-79.78272447986686,40.45899541781525,275.6600649652481,-0.007245665416121483,-0.004311582539230585,-0.7068570256233215,0.7073062062263489,0.02585970203385036,0.07745258010295103,0.3278756649232731,-0.06407468020915985,0.02701997011899948,-0.07253584265708922,0.08041373276151717,0.09069811714813114,-10.707449369430543
18.21,1.399999976158142,36.0,22.74224853515625,22.121835708618164,-79.78272462922675,40.45899557866889,275.6565737423897,-0.004858049098402262,-0.0049833906814456,-0.7061717510223389,0.7080064415931702,0.016442517521076082,0.08326956688725727,0.2836772449382866,-0.09045317023992536,0.04006859287619592,-0.12533733248710632,-0.023682972989045085,0.3143568019196391,-9.79168827474117
18.31,1.399999976158142,37.0,22.76353454589844,22.360387802124023,-79.78272456245878,40.45899572726207,275.67002722597124,-0.0005964509909972547,-0.008939338847994804,-0.7045574188232422,0.709590494632721,0.02510496814992401,0.10064014795785364,0.2052078751928832,0.050876516848802567,0.006195490714162588,-0.03369008004665375,0.08050673089921474,0.07409797240979969,-9.752614840865137
18.5,1.399999976158142,37.0,22.568214416503906,24.04616355895996,-79.78272445165071,40.45899570867886,275.689377635479,0.0004846990923397243,-0.007559400051832198,-0.704021155834198,0.7101386189460754,0.01715121608741451,0.09612626987467154,0.18276573263701976,-0.026349235326051712,-0.02655722573399544,-0.11660227179527285,0.08689874259755016,0.3227118883654476,-9.595197270512582
18.6,1.399999976158142,39.0,22.59701156616211,23.815563201904297,-79.78272440468658,40.458995631254695,275.71160903549196,0.0031954096630215645,-0.008672468364238739,-0.7039546966552734,0.7101848721504211,0.048789423941927874,0.09308375864937864,0.1804337731008192,0.03690825402736664,0.05651936307549476,0.06438860297203064,0.14735472234897315,0.2661788147315383,-9.759759553670882
18.8,1.5,38.0,22.54692840576172,24.642547607421875,-79.78272430250058,40.458995591247934,275.7297925052643,0.004046556539833546,-0.008996480144560337,-0.7043465971946716,0.7097877264022827,0.029526278068792964,0.09105766325277788,0.1820623342586352,-0.14593619108200073,-0.09479670971632004,-0.06629470735788345,0.11981392549350856,0.2894506233930588,-9.791269614100457
18.9,1.5,38.0,22.598262786865234,23.07604789733887,-79.78272413738596,40.45899562426429,275.7588401732445,0.0008600550936535001,-0.01245258003473282,-0.7055246829986572,0.7085754871368408,0.020010720204249044,0.06786556967820552,0.25084688190729604,-0.09152974933385848,-0.045808095484972,-0.05490468442440033,0.13940337700769306,-0.0870055091008544,-9.974995561838153
19.1,1.600000023841858,41.0,22.652101516723643,22.91701316833496,-79.78272407026381,40.45899561072832,275.78485175943376,-0.0013097767950966954,-0.014249157160520554,-0.7060769200325012,0.7079905867576599,0.023521367428101816,0.057296528751375586,0.261533485228976,0.009033586829900742,0.07772189378738402,0.05591154471039772,0.11907935075461865,0.07551962696481497,-9.945345500707628
19.21,1.600000023841858,40.0,22.65085029602051,23.29869842529297,-79.782724065876,40.458995683396665,275.82692417478563,-0.0040568290278315535,-0.013391493819653988,-0.7071790099143982,0.7068961858749391,0.00013582760298688111,0.05359733045016391,0.2575418713335513,-0.04231464117765426,-0.06277266144752502,0.007732364349067211,0.0612284563248977,0.5519719681888821,-9.759044439196588
19.4,1.7000000476837158,42.0,22.5494327545166,23.974597930908203,-79.78272406046608,40.45899565814036,275.8448871073723,-0.004256248474121094,-0.012300580739974977,-0.70757657289505,0.7065168023109436,0.009140119058369386,0.07175827557897768,0.2768168938889082,0.08157394826412201,0.03980143368244171,0.006479828152805567,0.07250961282290519,0.1027431986667216,-9.897042821645737
19.5,1.7000000476837158,43.0,22.52814865112305,24.10182762145996,-79.78272392074791,40.458995678369696,275.9021235404015,-0.0010747723281383514,-0.011451462283730509,-0.7075551748275757,0.7065644860267639,-0.0014208328603610922,0.053319764957435296,0.29573279487943105,0.1051325500011444,0.09763070940971376,0.07720466703176497,0.04139347200281918,0.08572412833571434,-9.91236603498459
19.7,1.7000000476837158,44.0,22.73849296569824,23.48158836364746,-79.78272399935047,40.45899568211379,275.9169873890877,-0.0007042514043860137,-0.011813476681709293,-0.7075557112693787,0.7065584659576416,-0.012350541138395713,0.056153831363345175,0.2655286406126192,-0.03864682093262672,0.021529996767640117,0.015828842297196388,0.031632267236709595,0.16167505597695708,-9.362070536613464
19.8,1.7000000476837158,45.0,22.38416290283203,26.717960357666016,-79.78272394197863,40.45899571778408,275.94826528406145,-0.0025273158680647607,-0.009777015075087549,-0.7080235481262207,0.7061166763305664,-0.004332994075915726,0.04921281200671648,0.1100459823284438,0.06425091624259949,0.02353485859930516,0.05395721644163132,0.0824999918974936,0.05316936233080924,-8.704730061292649
20.0,1.7000000476837158,46.0,22.133752822875977,30.200838088989247,-79.78272388952516,40.458995727758044,275.96104243373867,-0.002167958300560713,-0.008400199003517628,-0.7084090709686279,0.7057488560676575,-0.027181258439202532,0.04578659133202264,0.15348730052737525,-0.14071927964687347,-0.09105296432971954,-0.12459045648574828,0.021904432713054117,0.4385827988013625,-10.01393450975418
20.1,1.7000000476837158,48.0,22.14752578735352,30.91649627685547,-79.78272399091708,40.458995658832656,276.0186783370972,-5.255985524854623e-05,-0.007784634828567505,-0.7093334794044495,0.7048301696777344,-0.0005711079089842808,0.0569466884014004,0.4029556889487296,0.006684278603643179,0.020413665100932118,0.09103260189294816,0.1316649342700839,-0.012206866666674615,-10.57081046462059
20.21,1.7000000476837158,50.0,22.04110145568848,30.908544540405273,-79.78272393413656,40.458995667362316,276.06644585704805,0.00016262990538962185,-0.007761231157928704,-0.7096395492553711,0.7045221328735352,0.001223055820679944,0.05639383372491705,0.5551475800272229,0.034196637570857995,0.004319522064179182,0.03865038231015205,0.11595317345112564,0.16256538592278955,-11.175641773939132
20.4,1.7000000476837158,53.0,21.723079681396484,36.450931549072266,-79.7827243145769,40.45899571604159,276.1762389240265,-0.0028388192877173424,-0.007118206471204758,-0.7101444005966187,0.7040144205093384,-0.020313710927509082,0.037086773970254325,0.9301517365798004,-0.06670548021793365,-0.01125277578830719,-0.04122622683644295,0.14456922758370638,0.2108037821576,-11.56784727215767
20.5,1.7999999523162842,54.0,21.66172981262207,35.9420166015625,-79.78272427628194,40.45899574127629,276.2811359462738,-0.0033507442567497487,-0.006320591550320387,-0.7103496789932251,0.7038127183914185,-0.008276943840445427,0.04469158134647952,1.1661637023525773,0.07227781414985658,-0.04665123671293259,0.07168157398700714,0.14324197358451785,0.09073554846458136,-12.109695882797242
20.7,1.7999999523162842,55.0,21.640443801879886,37.13478469848633,-79.78272457342374,40.458995802924704,276.37541177845003,-0.0031092772260308266,-0.003610834013670683,-0.7101311683654785,0.7040532827377319,-0.015905204399986148,0.043741169695227136,1.3654082374403151,0.06603644043207169,-0.034537851810455315,-0.0540170818567276,0.16179887076839805,0.08029583827592432,-12.022489339113235
20.81,2.0,55.0,21.32743263244629,40.65742111206055,-79.78272491493594,40.458995914438376,276.64050856208803,0.0005492910859175026,-0.0016143778339028358,-0.7083637118339539,0.7058455944061279,-0.033228416454542616,0.04023574217832288,1.8006157754740697,-0.03581589087843895,0.03442585468292236,-0.006101896520704031,0.10837975923903287,-0.015119456145912409,-12.29837617635727
21.0,2.0,54.0,21.50397109985352,38.31959915161133,-79.78272486480567,40.45899594817253,276.8340369758606,0.0020585607271641493,-0.0034817319829016924,-0.7073315978050232,0.7068703770637512,-0.03516482011919577,0.05581519978332135,2.0654397702873326,-0.018954213708639145,0.03917580470442772,-0.060683757066726685,0.2324363239109516,0.1082410157751292,-12.400992472171788
21.1,2.200000047683716,55.0,21.51899528503418,37.914058685302734,-79.78272524286658,40.458996040767936,277.2199241218567,0.003227482084184885,-0.003931952174752951,-0.7064311504364014,0.7077634930610657,-0.02370872744460576,0.06747359564718819,2.481180908063025,-0.02287847362458706,-0.04035860300064087,0.024970944970846176,0.2696052831038833,0.16509427014738326,-12.205953916311266
21.3,2.299999952316284,55.0,21.716819763183594,32.642032623291016,-79.78272587690545,40.458996148495906,277.61118736839296,0.0005400196532718837,-0.005364730954170227,-0.706389844417572,0.7078025341033936,-0.012370452870377809,0.04781557927227567,2.7714149273489834,-0.031242704018950462,-0.044884033501148224,-0.06244165822863579,0.2263826101832092,0.08282313278876245,-12.100711051225662
21.4,2.4000000953674316,54.0,21.72933959960937,34.26419448852539,-79.78272585264985,40.458996165671714,277.8953472671509,-0.001435685670003295,-0.0052325171418488034,-0.7065795063972473,0.7076129317283629,0.008678714214497452,0.05038701758312925,2.904864734462511,0.0037103390786796813,-0.05793965607881546,0.05388502776622772,0.12683662335388365,0.16938636397942902,-11.23527401804924
21.6,2.4000000953674316,57.0,21.58284950256348,24.69025802612305,-79.78272582019663,40.45899618004154,278.1919437942505,-0.002908446593210101,-0.0048745172098279,-0.7070820331573486,0.707108736038208,0.010216810229674396,0.04755994921216426,3.022152337344343,-0.050242599099874496,0.0074254502542316905,-0.008382483385503292,0.10513918664306404,0.27157771339640024,-11.003187503814695
21.8,2.299999952316284,60.0,21.743112564086914,32.75335693359375,-79.78272662578847,40.45899635251885,278.5832203922272,-0.0019119506468996406,-0.003701087087392807,-0.7083767056465149,0.7058223485946655,-0.006061165048991424,0.022894416819300892,2.9020540891648103,0.06278210878372192,0.033768557012081146,0.012026707641780376,0.09698098691180347,0.10009283853694798,-9.848698042631147
21.9,2.299999952316284,55.0,21.984758377075195,29.61240577697754,-79.78272720167776,40.458996442275684,279.01388135528566,0.00284722144715488,-0.007323807571083306,-0.7075502276420593,0.7066194415092468,-0.012950812236545341,0.027581226257387303,2.854217212110947,0.064872145652771,0.07859206199645996,0.030584514141082764,0.09010013884864748,-0.11172856927849352,-9.983134886026383
22.0,2.200000047683716,51.0,22.06989860534668,28.4912052154541,-79.7827271856147,40.45899648047857,279.3007036743164,0.006495170760899782,-0.007476333994418383,-0.7064282894134521,0.7077153921127319,-0.016667286139178103,0.05563195040576389,2.879009046704951,0.11173900216817856,0.04722625017166138,0.042367156594991684,0.20522776767611506,-0.12037187777459622,-10.073942145109175
22.21,2.200000047683716,47.0,22.18258285522461,27.58470344543457,-79.7827276500705,40.45899656248272,279.50131621932985,0.008881287649273872,-0.006832792889326811,-0.7049328088760376,0.7091856002807617,-0.04240223143397202,0.04591829678987165,2.8302709301224462,-0.015136166475713253,0.04686687886714935,-0.07607194036245346,0.15207008150406182,0.04600797582417727,-10.010676441192627
22.4,2.200000047683716,44.0,22.104955673217773,27.83916091918945,-79.7827277862161,40.45899670935616,280.00123277282717,0.009536635130643845,-0.008187420666217804,-0.7031478881835938,0.7109325528144836,-0.05874842413956161,0.042917440767089816,2.7597516882093482,-0.12343549728393555,-0.01793248578906059,-0.0592452883720398,0.14502451554872095,0.2677837657928467,-9.728622545599938
22.51,2.200000047683716,45.0,22.165054321289066,26.98036956787109,-79.78272781975494,40.458996739075154,280.2759224472046,0.007205481175333262,-0.009194697253406048,-0.7028985619544983,0.7111942768096924,-0.03216540493846678,0.03705795469579008,2.7317095883020643,0.008502698503434658,-0.05002252757549287,0.03653721138834953,0.1658829864487052,0.0649304062128067,-9.583557218313217
22.6,2.0999999046325684,38.0,22.238924026489254,26.19314384460449,-79.7827278198636,40.458996749982155,280.83444610214235,0.0053400867618620396,-0.009288344532251358,-0.7036153674125671,0.7105003595352173,-0.008125423759908615,0.0190620750066334,2.6443139755602623,-0.032649777829647064,0.0057543152943253534,-0.003969585057348013,0.11616935597732665,0.13161026280373336,-9.4445993077755
22.8,2.0,33.0,22.103702545166016,26.805429458618164,-79.7827278639911,40.45899676979228,281.0968085823059,0.006342228967696428,-0.008856558240950108,-0.7039875388145447,0.7101287841796875,-0.01146512837319068,0.011507033610264185,2.603746401337339,-0.04737402871251106,-0.09525166451931,-0.04737687855958938,0.11520791840739547,0.11590124286711215,-9.422854682207108
22.9,1.7999999523162842,20.0,22.140012741088867,28.1015682220459,-79.78272746953125,40.458996516690185,281.8284298477173,0.009601530618965626,-0.011462662369012831,-0.7048220634460449,0.7092265486717224,-0.0024016297271061858,0.0361908650720662,2.611414477764911,-0.012382330372929571,0.10387248545885086,0.012005077674984932,0.12797376975417138,0.025770990857854486,-9.420833884477618
23.11,1.600000023841858,11.0,22.007295608520508,27.33819961547852,-79.7827272915696,40.45899643833592,282.4772826728821,0.012468336150050163,-0.015938833355903625,-0.7054504156112671,0.708470344543457,0.01547969953360851,0.05597601165084661,2.5862481751560082,0.06490039825439453,0.0997781753540039,0.13813945651054382,0.191739392336458,0.10469750259071588,-9.450351798534394
23.2,1.5,359.0,22.103702545166016,26.92470741271973,-79.78272734781514,40.458996439009034,282.73470893478395,0.012976939789950848,-0.017163047567009926,-0.7054294347763062,0.7084535956382751,0.013450065863377651,0.04820109094375497,2.5621087001074376,-0.00765587668865919,-0.002132899360731244,-0.022771405056118958,0.1792411333322525,-0.07369395721703767,-9.521285541057589
23.41,1.600000023841858,355.0,22.068645477294922,28.992168426513672,-79.78272711436932,40.45899640341067,283.1167427597046,0.013381334021687508,-0.01761837862432003,-0.7055323123931885,0.708332359790802,0.00933664686690662,0.045769447174017375,2.5945690943606348,-0.07783113420009613,-0.06942419707775116,-0.07546421140432358,0.29235044036060576,0.07724379270337522,-9.620293520092963
23.6,1.600000023841858,345.0,22.12874412536621,26.638442993164066,-79.78272731269506,40.45899640478481,283.63285222625734,0.012995177879929544,-0.016707807779312134,-0.7053782343864441,0.7085151076316833,0.025449554481042275,0.006185266569132323,2.5721372064411194,0.12742368876934052,0.006892294157296419,0.04944763705134392,0.2691555774025619,-0.046960797887295486,-9.715775628089906
23.71,1.399999976158142,341.0,21.950952529907227,29.15915489196777,-79.78272701837416,40.45899631132521,284.02407041168215,0.015113689936697485,-0.014480439014732838,-0.7051389217376709,0.7087602615356445,0.030470557477781542,0.004857484302158571,2.606033468206514,0.11718616634607315,0.08433744311332703,0.07616210728883742,0.1678275876492262,-0.040636380915530027,-9.600998877882958
23.8,1.2000000476837158,334.0,22.008546829223643,27.354103088378906,-79.78272679362229,40.45899612387474,284.69766011810304,0.0196699146181345,-0.009115996770560741,-0.7044974565505981,0.7093753218650818,0.005371949331657598,0.0003215315334961222,2.666606710993781,-0.04313347861170769,-0.03729356080293656,-0.05982458963990212,0.2699514748156071,0.13883178426884116,-9.787694626450538
24.0,1.100000023841858,335.0,21.905879974365234,28.79337310791016,-79.78272710172011,40.458996029728354,285.22888246154787,0.01272048894315958,-0.011095552705228329,-0.7040230035781859,0.7099766135215759,0.03229790062079396,-0.04939103154809378,2.6593799015771955,-0.07186450809240341,0.0247955285012722,0.051873523741960526,0.19872458579018712,0.0816011926252395,-9.715982619524002
24.2,0.8999999761581421,331.0,21.910886764526367,28.403736114501953,-79.78272681669591,40.45899590992791,285.64186826324465,0.008478568866848946,-0.013578741811215878,-0.7035709619522095,0.7104447484016418,0.0756765008876438,-0.04767704933790663,2.733172226020052,0.013276704587042332,-0.026999874040484432,0.09510570764541626,0.21832797925919287,-0.0662325263209641,-9.77756958782673
24.3,0.8999999761581421,337.0,22.103702545166016,27.529041290283203,-79.78272697478258,40.45899584417604,285.914815574646,0.006152005400508642,-0.014047945849597454,-0.7034307718276978,0.710598349571228,0.09964982080274026,-0.06530724265570317,2.7271277850032893,0.06229652464389801,0.05295385047793389,0.10430973023176192,0.16800658553838732,0.03598130746744573,-9.752313709259033
24.4,0.8999999761581421,347.0,21.86330986022949,29.668067932128906,-79.78272671244073,40.45899580560626,286.61895909881594,0.0057247341610491284,-0.010249048471450806,-0.7045158743858337,0.7095912098884583,0.08921306635582514,-0.06652523678162224,2.7812262092830324,0.0028713911306113005,0.015549565665423868,0.03672367334365845,0.16232455372810364,0.03878492860123516,-9.753008943200113
24.61,0.8999999761581421,353.0,21.929668426513672,28.864938735961914,-79.78272650378794,40.458995705978786,287.3373343048096,0.005628812592476606,-0.007056560833007097,-0.7050975561141968,0.7090528607368469,0.05199310393127725,-0.0520839722241442,2.89261231683664,-0.06655516475439073,-0.05087202414870262,-0.08347506821155548,0.14656170286238193,0.09097165720537304,-9.861620389223095
24.7,1.0,9.0,22.01605987548828,28.16518402099609,-79.78272663914393,40.458995661766245,287.626090675354,0.0034049884416162968,-0.007189568132162094,-0.7045577764511108,0.7096020579338074,0.048097068553709335,-0.06524091720832953,2.883049588484522,-0.08355865627527237,-0.05248282104730606,-0.1208430603146553,0.13220799442380668,0.14641831817105413,-9.746572328209878
24.9,1.100000023841858,20.0,21.96973419189453,27.735788345336914,-79.7827268565952,40.458995416693796,288.01654306030275,0.0008442979888059199,-0.008904134854674341,-0.7038517594337463,0.7102906703948975,0.07772503731513881,-0.08219358379975301,2.953632740508504,-0.06870721280574799,-0.017121423035860058,-0.02900251187384129,0.09532105375081301,0.1350864507816732,-9.828536843061448
25.1,1.2000000476837158,34.0,21.95721244812012,27.79145050048828,-79.78272716078006,40.458995307600475,288.60909047698976,0.0007099309586919844,-0.011244422756135464,-0.7032194137573242,0.7108837366104126,0.10240719931529513,-0.08713655667122862,2.966225299194162,0.07129773497581482,0.02243948169052601,0.011056459508836271,0.1349588809814304,0.160545099824667,-9.826533586978913
25.2,1.2000000476837158,43.0,21.974742889404297,27.57675170898437,-79.78272735770283,40.45899521366336,288.9460884628296,0.0013559815706685185,-0.010789667256176472,-0.7034587264060974,0.7106530070304871,0.09438118937091516,-0.09093769413735804,2.9902770478763263,0.0935477614402771,0.09135611355304718,0.09338482469320296,0.12645258919335906,-0.031362911593168966,-9.832622877359393
25.3,1.2999999523162842,61.0,21.952205657958984,29.087589263916016,-79.78272767747094,40.45899509093082,289.5688911972046,0.0007596010691486299,-0.0107338335365057,-0.7040197253227234,0.710098922252655,0.07731867927634749,-0.09325375752442212,2.9932160573898434,0.035718295723199844,0.052971962839365005,0.07464098185300827,0.07820575104095043,-0.05787780532613398,-9.74693485558033
25.5,1.399999976158142,64.0,21.86581420898437,28.65819358825684,-79.78272801453113,40.458995055573936,290.169942527771,-0.0003135334700345993,-0.006574705708771944,-0.7051571607589722,0.7090205550193787,0.04058789994664545,-0.0988185715286694,3.0253056205376603,-0.02590254135429859,-0.04726509004831314,-0.028978344053030014,0.1902576530724764,-0.14129780178889634,-9.928095045089725
25.6,1.5,65.0,22.04986572265625,25.5570011138916,-79.78272819081319,40.45899496017571,290.48810067749025,-0.00048516623792238533,-0.0047769853845238686,-0.7058194875717163,0.7083755731582642,0.036521446609344574,-0.10485489498111453,3.0365992384633933,-0.08266567438840866,-0.09578441828489304,-0.09808860719203948,0.1636920712888241,0.147959141721949,-9.860088418722153
25.8,1.5,62.0,21.7744140625,29.96228408813477,-79.78272834507862,40.45899494390752,290.7911440429688,0.00012584244541358203,-0.003649021266028285,-0.7062651515007019,0.707938015460968,0.04002751181783906,-0.105481237832377,3.0259676698133813,0.04433397948741913,-0.0357833169400692,0.018939236178994186,0.15378891622647645,0.1819441366754473,-9.740760780572893
26.0,1.5,58.0,21.87332534790039,27.77554702758789,-79.78272860057348,40.458995016673825,291.4113451538086,0.0015110280364751814,-0.004104709718376398,-0.7065008878707886,0.70769864320755,-0.007590706062060543,-0.08563410337949459,3.0590572467805672,-0.14024950563907626,-0.05597907677292824,-0.1327083706855774,0.2096543840132654,0.12239295872859655,-9.928544111251833
26.1,1.5,55.0,21.945945739746094,27.640365600585927,-79.78272903572302,40.4589949720138,292.03283563232424,-0.0007103930693119762,-0.010631934739649296,-0.7061933279037476,0.7079389095306396,0.040424187529874166,-0.0683908351800954,3.0912552377922013,0.04684215784072876,0.12591144442558289,0.10281260311603546,0.18550260594114665,0.10827203342691064,-9.991394662857056
26.2,1.7999999523162842,45.0,21.91339111328125,28.90469741821289,-79.7827291524162,40.45899497052873,292.34242501831056,-0.0005634839180856942,-0.011279424652457236,-0.7061616778373718,0.7079606056213379,0.045022980163133774,-0.048183548146854514,3.099261047235924,-0.05222401022911072,-0.10534361004829408,-0.0863698273897171,0.3060325047187507,0.13104454468935728,-9.897531648874283
26.41,1.7999999523162842,39.0,21.83075523376465,29.09554100036621,-79.78272937197437,40.4589949706074,292.64623513793947,-0.0007204593857750298,-0.00950714386999607,-0.7060752511024475,0.7080727219581604,0.04041164359308662,-0.036512676469504415,3.0888097935922594,0.016241446137428284,-0.03909587487578392,0.005107094533741474,0.28659451436251404,0.2634593478217721,-9.784806686639786
26.6,1.8999999761581416,9.0,21.92716407775879,27.97434043884277,-79.78272953304277,40.458994987583644,293.2629114685059,0.000426967948442325,-0.006643328815698625,-0.7041749954223633,0.7099953293800354,0.014618552280275962,-0.023475411132094,3.0840264322271262,-0.029063818976283073,-0.03737855702638626,-0.12151768058538436,0.2187258274666965,0.21397268068045372,-9.767334621548653
26.71,2.0,354.0,21.872074127197266,28.17313575744629,-79.78272957359987,40.45899495855876,293.5715662536621,0.001567835919559002,-0.009178435429930687,-0.7024867534637451,0.711635947227478,0.021558036182453468,-0.003429590891032559,3.0607588104282737,0.03375363349914552,0.1373499482870102,0.03934590145945549,0.24423362966626885,-0.10989744974300264,-9.679880740642547
26.8,2.200000047683716,344.0,21.88709831237793,29.23072052001953,-79.78272969387052,40.45899489736775,294.1878058013916,0.004524709191173315,-0.013390358537435532,-0.7001510262489319,0.7138549685478209,0.046408008535198594,0.05186359434566694,3.0351495991517785,0.12468767911195755,0.08026251196861267,0.08201012760400772,0.34538731757551433,0.11394944228231907,-9.61884867310524
27.0,2.4000000953674316,344.0,21.790691375732425,28.284460067749023,-79.78272970635209,40.458994899049,294.4913145599365,0.006655321456491947,-0.012693949975073338,-0.7002527713775635,0.7137511372566223,0.04029711614893178,0.06704732230044888,3.034685275784286,0.030181143432855606,0.036248136311769485,-0.0017587993061169982,0.2746652808040381,0.08054989065974953,-9.76210954964161
27.1,2.5,337.0,21.954710006713867,26.821332931518555,-79.78272985715142,40.45899486867051,295.10420861816414,0.010380811989307405,-0.013785305432975292,-0.7005359530448914,0.7134084701538086,0.0271490573509391,0.07162789644651671,3.058536532771652,-0.05519399046897888,-0.050447437912225716,-0.05100130662322045,0.3075727526843548,0.3005170637369156,-9.801755425930024
27.3,2.5999999046325684,336.0,21.83952140808105,29.75553894042969,-79.78272988560056,40.458994853467885,295.40941873168947,0.008182828314602375,-0.014392967335879803,-0.7004017829895021,0.7135567665100098,0.045353893824691474,0.07949408122847702,3.0445743237043894,0.029010996222496036,0.06873293220996858,0.10767147690057756,0.2865335936844349,0.0033956517186015845,-9.69273876786232
27.5,2.700000047683716,334.0,21.925912857055664,28.66614532470703,-79.78272985153151,40.4589948369126,296.03078523254396,0.0020854221656918526,-0.014966960996389387,-0.6998077034950256,0.7141714692115784,0.06435496262642998,0.059126221030263874,3.0499896562323947,-0.08717495948076248,-0.021251006051898003,-0.04171779751777649,0.23705514919012785,0.32940095689147714,-9.746129693984988
27.61,2.700000047683716,330.0,21.93342399597168,27.76759529113769,-79.78272987712684,40.45899481464053,296.33436647033693,0.00045287967077456415,-0.014250064268708227,-0.6998996138572693,0.7140989303588867,0.07999012927269347,0.05291492283657096,3.02124857579978,0.011114020831882957,0.023357829079031944,0.018352799117565155,0.2702259650453925,0.2793639023043216,-9.592102339267733
27.7,2.700000047683716,331.0,21.84077262878418,27.831209182739247,-79.78272990570139,40.458994742491456,296.93797555541994,-0.0005486797308549285,-0.01349287386983633,-0.7008946537971497,0.7131369709968567,0.060820094903463226,0.04126110142152895,3.0079463026559843,-0.115183986723423,0.011214792728424072,-0.045013681054115295,0.17051522377878428,0.30995669905096296,-9.680259640216828
27.9,2.700000047683716,333.0,21.92340850830078,27.33819961547852,-79.78272977101491,40.45899462409171,297.54513040161135,0.0017512638587504625,-0.014760918915271759,-0.7030078768730164,0.7110267281532288,0.06790514398491697,0.08094965990009735,3.037961284333716,0.11838004738092422,0.1181791126728058,0.19906559586524966,0.2067886453494429,0.13909988824278116,-9.828129876852037
28.0,2.700000047683716,336.0,21.72808837890625,30.08156013488769,-79.78272974398888,40.458994628767705,297.849367767334,0.0029340279288589954,-0.014685765840113163,-0.7038493156433105,0.710191547870636,0.04515185411886029,0.09610517036871928,3.0468485478126515,-0.043717432767152786,-0.044871408492326736,-0.0719880536198616,0.3128415325284004,0.1411827943660319,-9.916062644720078
28.2,2.700000047683716,340.0,21.942188262939453,25.517242431640625,-79.78272970448076,40.45899445808839,298.14941850280763,0.0043123518116772175,-0.013743093237280846,-0.7044355869293213,0.7096218466758728,0.059203745716402585,0.10233788980157704,3.06578005670486,-0.048202384263277054,-0.030098916962742805,-0.1025383472442627,0.2303001898527145,0.34292406834661965,-9.899221494197846
28.3,2.700000047683716,342.0,21.844528198242188,27.41771697998047,-79.78272968099317,40.45899432473613,298.74887147521974,0.004823158495128155,-0.014088276773691176,-0.7045795321464539,0.7094687819480896,0.059445001700936334,0.10274153094590832,3.05306440631792,-0.06944499164819717,-0.061228837817907326,-0.031084617599844933,0.2822976513952017,0.12728162387385966,-9.784435973167419
28.51,2.5999999046325684,343.0,21.7744140625,30.495052337646484,-79.78272961899052,40.45899426885687,299.35962930297853,0.0010890907142311337,-0.014716369099915028,-0.7044923901557922,0.7095581293106079,0.08100549665977387,0.10155110323150827,3.063609044874788,-0.031185390427708626,-0.011500630527734756,-0.012651925906538963,0.2258749074116349,0.2472052029334009,-9.76274806559086
28.6,2.5999999046325684,344.0,21.977245330810547,25.71603775024414,-79.78272958920967,40.458994174318335,299.65388360595705,0.0003499570884741844,-0.01658495329320431,-0.7046440839767456,0.709367036819458,0.07933385984972675,0.09800190793226686,3.075708999955333,-0.0914834588766098,-0.05550897866487503,-0.08385330438613893,0.16518298337236048,0.2994990634918213,-9.921982365846636
28.8,2.5999999046325684,342.0,21.779422760009766,29.1114444732666,-79.78272955582227,40.45899415062715,299.9613539276123,0.0006375063676387073,-0.018170475959777832,-0.7048984169960022,0.7090752720832825,0.10366914669921756,0.10015778599215364,3.069293468064362,0.07379432767629622,0.13855212926864624,0.12840677797794342,0.2163713729940355,0.07959343235939742,-9.784370484352113
29.0,2.5999999046325684,339.0,21.89961814880371,27.012176513671875,-79.78272959630964,40.45899411112383,300.5585505065918,0.003332902211695909,-0.018410185351967808,-0.7045618295669556,0.7093960046768188,0.07313345965800577,0.10312012047962273,3.0405634666818955,0.0745200514793396,0.07243247330188751,0.057662405073642724,0.2414543749764561,0.09027595731429756,-9.71424599647522
29.1,2.5999999046325684,338.0,21.850788116455078,27.06783866882324,-79.78272958109122,40.458994114732796,300.86202111816414,0.004838863853365183,-0.017535628750920296,-0.7041488885879517,0.7098193764686584,0.05087146361364138,0.10373330495808236,3.021041985675512,0.004797952715307474,-0.06871896982192993,-0.08313222229480742,0.2743007617257536,0.17206963296979666,-9.608889110684396
29.2,2.5999999046325684,336.0,21.864561080932614,26.38398551940918,-79.78272951493159,40.458994067716134,301.45545640563967,0.004726584069430828,-0.014666097238659859,-0.7021163702011108,0.7118954658508301,0.020297429706937358,0.1012120062439512,2.985676926468541,-0.025731097906827927,-0.0392061285674572,-0.10982927680015564,0.22454033525660635,0.1924447675421834,-9.629816880226137
29.4,2.5999999046325684,334.0,21.76189422607422,29.19891357421875,-79.78272952850148,40.458994040350056,301.7490774688721,0.0050840619951486605,-0.014948186464607716,-0.7008146643638611,0.7131686210632324,0.01770063711124031,0.09326889851611836,2.9881223909325474,0.04817283153533936,0.03258664906024933,0.05427839234471321,0.2232020355015993,0.00028494212776422503,-9.667446051836016
29.5,2.5,328.0,21.914644241333008,26.9167537689209,-79.78272951166255,40.458994101388534,302.3481909332276,0.007075561676174401,-0.014982753433287144,-0.6990747451782227,0.7148566842079163,-0.004471391227289247,0.0937860999179683,3.0000157379064416,-0.05957400053739548,-0.07038168609142302,-0.13422316312789914,0.2033610075339675,0.2278365203551948,-9.805428062081338
29.71,2.4000000953674316,327.0,21.76189422607422,28.499156951904297,-79.78272952726215,40.458994076094974,302.6399694976807,0.006921553984284401,-0.014904576353728771,-0.6986573934555054,0.7152677178382874,-0.003504177510368648,0.09735713316685116,3.0080375215606545,0.08277709782123566,0.06817320734262466,0.14027376472949982,0.278712065666914,-0.06901601110585033,-9.822453399896624
29.8,2.200000047683716,326.0,21.629175186157227,29.85891151428223,-79.78272952226517,40.45899409602922,303.2336145935059,0.007113590370863677,-0.010938523337244987,-0.6980953216552734,0.7158859372138977,-0.015961771441034608,0.08449063115008965,3.0490297911136164,0.004743037279695272,-0.03296278417110443,-0.062481213361024864,0.22287786221131686,0.0764389874227345,-10.088777700662613
30.0,2.200000047683716,325.0,21.79444694519043,29.246623992919922,-79.78272952642138,40.458994136061655,303.54028192138674,0.009395213797688484,-0.007474369369447231,-0.6977920532226562,0.7161998152732849,-0.03755517543335113,0.07743489359440697,3.0751458069259567,-0.02757127769291401,-0.10160055011510848,-0.062005914747714996,0.2065595989488065,0.2065922702662647,-10.019603970050813
30.2,2.0999999046325684,321.0,21.829504013061523,27.99819564819336,-79.78272954657714,40.45899422655347,304.1324965057373,0.013746149837970734,-0.004123073536902665,-0.6963973045349121,0.7175130248069763,-0.05343356978327552,0.0619239632418566,3.0989608081423734,0.0781920850276947,0.08425375074148178,0.07459040731191635,0.19896324355155232,-0.05851879720576107,-10.059663244485854
30.31,2.0,316.0,21.7844295501709,28.348073959350586,-79.78272956217198,40.45899424457237,304.4434057769776,0.014536941424012184,-0.0051004039123654366,-0.6963393092155457,0.7175474166870117,-0.0553094321235565,0.06456186000158333,3.1164414830921223,-0.06257942318916321,-0.053071796894073486,-0.02184746600687504,0.2050861554220319,-0.07867094272747636,-10.020220266580582
30.4,2.0,315.0,21.733097076416016,27.354103088378906,-79.78272960782516,40.4589941305403,305.04972901916506,0.010161570273339748,-0.009985793381929398,-0.6980346441268921,0.7159223556518555,-0.009629468430002008,0.06868108353314184,3.1488950671625098,-0.05456659197807312,-0.03960025310516357,0.051455091685056686,0.2092368928156793,0.02702881830744445,-10.056289401054382
30.6,2.0,313.0,21.80821990966797,26.59073257446289,-79.78272964037825,40.458994118802345,305.3655859527588,0.00707709090784192,-0.01131755206733942,-0.6992069482803345,0.7147947549819946,0.033323636139239804,0.05631508658671694,3.161129053555966,0.08334887772798537,0.07427466660737991,0.17072726786136627,0.2634128076396883,-0.15606828879565002,-9.951092144250868
30.8,1.8999999761581416,312.0,21.85204124450684,25.827362060546875,-79.7827297644808,40.45899405461458,305.9809881744385,0.00433074776083231,-0.013215633109211922,-0.7009726166725159,0.7130525708198547,0.03071233476290365,0.04098096255145494,3.1508576466695195,0.0060542779974639424,-0.0421416200697422,0.006275193765759468,0.1857990049570799,0.1646919999830425,-9.847438552379607
30.9,1.8999999761581416,311.0,21.875829696655273,25.73989295959473,-79.78272982629895,40.45899400005353,306.278998046875,0.00552916480228305,-0.013048351742327213,-0.7015200257301331,0.7125089168548584,0.04976035718085635,0.03551652051006566,3.1367906665229404,0.1574496477842331,0.11079099774360657,0.13252820074558258,0.21921885738149285,-0.1452074146270752,-9.824980566501617
31.0,1.7999999523162842,309.0,21.86330986022949,26.54302215576172,-79.78272992183656,40.4589940073415,306.9056936798096,0.007995710708200932,-0.008038526400923729,-0.7028853297233582,0.7112128138542175,0.027324328913387885,0.0348251771521711,3.1294120889191617,0.1765499860048294,0.06861823797225952,0.1027485579252243,0.2440503011830152,-0.20639898324385286,-9.768526284098623
31.2,1.8999999761581416,307.0,21.849536895751953,26.89289855957031,-79.78273002978077,40.458993971142,307.5159479675293,0.007760324981063604,-0.005343533586710692,-0.7034745216369629,0.710658073425293,0.005673775685374472,0.02198632224866205,3.1080245869964136,0.0877835601568222,0.049889784306287766,0.04809555783867836,0.17299817081540825,0.2829859600402415,-9.694710448980333
31.3,2.0,297.0,21.954710006713867,25.692180633544922,-79.78273010496008,40.45899393703582,307.8196131286621,0.008648580871522427,-0.006306726951152086,-0.7033912539482117,0.7107223272323608,-0.015461489227209609,0.014600014233375468,3.1132161794218614,-0.06632611900568007,0.026573373004794117,-0.08050522953271866,0.18666503241285684,0.1444119466189295,-9.750309868454933
31.41,2.0,290.0,21.914644241333008,26.60663604736328,-79.7827301593869,40.45899393798543,308.13056817626955,0.008406299166381359,-0.010360449552536007,-0.7029240131378174,0.7111397981643677,-0.011068089503893559,0.018368049472094108,3.1039315824449005,-0.08590144664049149,0.07560668140649797,-0.004137000534683466,0.17587754080072046,-0.11760724112391473,-9.723475826382638
31.7,2.0,280.0,21.882089614868164,25.723989486694336,-79.78273034972862,40.45899391814385,308.7470499572754,0.007890583015978336,-0.012038299813866615,-0.7021799087524414,0.711854100227356,0.018815551267473925,0.03964524065349123,3.0845060497586965,0.08532479405403137,0.023318732157349583,0.04710148647427559,0.2516221896372736,-0.009115327263716607,-9.588503378033641
31.8,2.0,275.0,21.924659729003906,25.86712074279785,-79.78273042001058,40.45899392467445,309.0538164672852,0.007867066189646721,-0.00824405439198017,-0.7012553215026855,0.7128191590309143,-0.0034697399121226234,0.027274420409649964,3.0526054388536115,-0.08094540983438492,-0.17191630601882935,-0.1584329456090927,0.1398953471146524,0.12179596714675428,-9.486432042717936
31.9,2.0999999046325684,261.0,21.970985412597656,24.316524505615234,-79.78273052786818,40.45899379488132,309.6653772888184,0.0053113498724997035,-0.007258158177137375,-0.6987582445144653,0.7153013944625854,-0.041506363240589886,0.009780603452151277,3.022179545618776,-0.16533662378787994,-0.0645451471209526,-0.14026057720184326,0.1380451419018209,0.262102373521775,-9.437953362464905
32.1,2.0999999046325684,260.0,21.902122497558594,25.23892974853516,-79.78273066210754,40.4589937096683,310.2744623718262,0.009899688884615898,-0.003250399138778448,-0.6976937055587769,0.7163204550743103,-0.02187968169776215,0.007945851607941552,2.9664644754423413,-0.011528685688972471,-0.09788413345813753,-0.07620468735694885,0.13160238733515145,-0.07114604213275015,-9.335565692782405
32.2,2.0,249.0,21.77190971374512,28.7218074798584,-79.78273071422737,40.458993712787326,310.56830087280275,0.013345066457986832,-0.0006269311998039483,-0.6987304091453552,0.71526038646698,-0.007520593975201198,0.00970965883232878,2.9136939813994007,0.20248094201087952,0.07367061078548431,0.1692378669977188,0.2410122889280319,-0.24912683553993706,-9.328487053513527
32.4,2.0,249.0,21.75438117980957,28.32421875,-79.78273073554384,40.45899375168614,310.86225,0.013757731765508652,-0.0008729607798159122,-0.7003377676010132,0.7136784791946411,-0.05846720893754325,0.020921814573554503,2.9144208762254102,-0.18397371470928192,-0.04157169163227081,-0.006925565190613271,0.18781329765915872,0.07181386268232018,-9.463871730566023
32.6,2.0999999046325684,249.0,21.7844295501709,27.560848236083984,-79.7827308352471,40.458993726787256,311.44274392700197,0.005655202548950911,-0.009185833856463429,-0.704590380191803,0.7095322608947754,0.0041811398347313625,0.011787271790037846,2.8931165294547587,-0.0798703283071518,-0.013544632121920586,0.10624130815267564,0.17030656954273582,-0.11870439805090427,-9.695205708146096
32.7,2.0,241.0,21.562816619873047,31.560590744018555,-79.78273082057088,40.45899385495853,311.74677911376955,0.0028789513744413853,-0.011133784428238869,-0.7060259580612183,0.7080925703048706,0.023923829563129072,0.01625120786481106,2.9334322391984022,-0.08061938732862473,-0.08068497478961945,-0.0854838564991951,0.10916762586683036,0.17967892533168198,-9.720600750446321
32.8,1.8999999761581416,215.0,21.676753997802734,28.841083526611328,-79.78273094265488,40.45899387133045,312.33195367431637,0.003456920618191361,-0.008702397346496582,-0.7051882743835449,0.7089583277702332,0.03070534025298495,0.0160053322944789,2.996617294418644,0.08589716255664825,0.008355380035936829,0.001904736622236669,0.14098363271914424,-0.19858242535963647,-10.03766368031502
33.01,1.8999999761581416,198.0,21.823244094848643,26.94856262207031,-79.78273105067417,40.45899389657474,312.9352175292969,0.005098305642604828,-0.003018867690116167,-0.7009982466697693,0.7131384611129761,-0.01568605402448322,-0.00629639180841517,3.025776466482993,-0.024956684559583664,-0.08078078180551529,-0.20211875438690186,0.11875812848098576,0.08937183159403503,-10.027105947732926
33.1,1.8999999761581416,176.0,21.685518264770508,28.96831321716309,-79.78273113503555,40.458993876463104,313.2098070678711,0.0054717729799449435,-0.0008713720017112793,-0.6986137628555298,0.7154776453971863,-0.015613007529231818,-0.003932275798160724,3.0231560114999088,0.0975278466939926,0.012357807718217371,-0.002584202913567424,0.15359740164130928,0.04913163151592016,-9.947810686826708
33.3,1.8999999761581416,163.0,21.656721115112305,28.67409706115723,-79.7827311817019,40.45899388630186,313.5132776794434,0.0048595615662634355,-0.0009079121518880127,-0.6965544819831848,0.7174869179725647,-0.016882444857151478,-0.010871280343267677,3.046405056853627,0.06338746100664139,0.08608779311180115,0.04399925470352173,0.060844540935941036,-0.25368406405672433,-9.9874232339859
33.5,1.8999999761581416,143.0,21.849536895751953,25.40591812133789,-79.78273131808038,40.458993664635024,314.0864168701172,0.0040562921203672895,-0.004880473483353853,-0.6943855285644531,0.7195752263069153,-0.004416434825839505,-0.0144319108111646,3.059004928304975,-0.08794035017490387,0.057787500321865075,-0.08827593177556993,0.062001599846407775,0.11084957744926216,-9.935391200780867
33.6,1.8999999761581416,134.0,21.66798973083496,29.763490676879893,-79.78273137017213,40.458993655054776,314.3927561340332,0.0051075490191578865,-0.005592591129243374,-0.6941860318183899,0.7197557687759399,0.004217167447921164,-0.007440757921471363,3.06610404754208,-0.07231464982032776,-0.08544551581144333,-0.08113344758749008,0.1123947772756219,0.10696341742761434,-9.888094242811203
33.7,2.0,127.0,21.666736602783203,28.10951995849609,-79.78273146781463,40.45899364302016,314.97035470581056,0.007460182532668114,-0.001740211620926857,-0.6943925619125366,0.7195556759834291,-0.008990303606247873,-0.002636332415128341,3.07826728770506,0.01964548230171204,-0.06073812022805214,-0.04970152676105498,0.10089503997936844,0.01564311998896301,-10.051497023105622
33.91,2.0999999046325684,125.0,21.74060821533203,27.5369930267334,-79.78273168536515,40.45899363077868,315.5501390991211,0.004211165010929108,-7.085518154781312e-05,-0.694848895072937,0.7191434502601624,-0.02183422660180046,-0.03006032083890753,3.0944739098366187,0.06769213825464249,-0.05266647785902023,0.057546965777873986,0.07755677405744793,0.0486943694204092,-10.059997705221177
34.11,2.200000047683716,130.0,21.73434829711914,27.72783470153809,-79.78273175588552,40.45899362886926,315.86000695800783,0.004393216222524643,0.0014190262882038947,-0.6951566338539124,0.7188435196876526,-0.013517001434665265,-0.040414353135040194,3.1024585732683434,0.0637870654463768,0.04258609935641289,0.04954107850790024,0.06752208861988038,0.042278219684958464,-9.909930084943774
34.21,2.0999999046325684,135.0,21.690526962280273,28.284460067749023,-79.78273195763158,40.458993506455826,316.1303049621582,0.005707033444195986,0.002836028346791864,-0.695335328578949,0.7186572551727295,8.572911749556026e-05,-0.04702517608172303,3.0618111715517484,0.1212906688451767,0.023201894015073776,0.10628992319107056,0.07735723782330751,-0.2255337771959603,-9.789732381105424
34.3,2.200000047683716,135.0,21.67550277709961,28.483253479003906,-79.78273217431828,40.458993435216364,316.7215944824219,0.0059860777109861365,0.003966924734413624,-0.6957696080207825,0.7182291746139526,-0.023722962640864625,-0.028573392059690023,3.049751527518066,-0.08120514452457428,-0.054679617285728455,-0.03050675429403782,0.08333974342793228,-0.03558810048736632,-9.821014984846117
34.5,2.0999999046325684,136.0,21.6917781829834,28.690000534057607,-79.78273225843968,40.458993367942426,317.33290734863283,0.004590500146150589,0.0037622938398271795,-0.6953217387199402,0.7186741232872009,-0.002791171427720221,-0.026651961119697892,3.061761184914132,-0.14017346501350406,-0.00913085415959358,-0.13649509847164154,0.1130622095335275,-0.11834419129416347,-9.881932446956633
34.6,2.0999999046325684,129.0,21.8132266998291,26.98036956787109,-79.7827323370489,40.45899327958052,317.6154696044922,0.004588541574776173,0.0007287521148100495,-0.6953883171081543,0.7186192274093628,0.011003491552349785,-0.01832170044608089,3.052227187699582,-0.12374749779701233,0.002058272249996662,-0.04731680452823639,0.13809621367603542,0.0763805883564055,-9.80848440170288
34.8,2.0999999046325684,131.0,21.58660697937012,30.176982879638672,-79.7827323575091,40.45899322812467,317.9199892578125,0.0036622621119022365,-0.003255018498748541,-0.6958133578300476,0.718205988407135,0.025257764279904244,0.002289966033720522,3.0392586974988967,-0.12091239541769028,0.02768711745738983,-0.05409053340554237,0.1450341269094497,0.2951521702855825,-9.720107245445252
35.0,2.200000047683716,134.0,21.75563240051269,27.24277687072754,-79.78273244776915,40.45899316444325,318.51045098876955,0.001844188082031905,-0.005349688231945039,-0.6978673934936523,0.7162047028541565,0.05265474207740894,0.023990628878746287,3.0583501411897047,-0.03221174329519272,0.026777734979987144,-0.014419189654290674,0.11123637076467276,0.20474438566714528,-9.933338828086852
35.12,2.299999952316284,138.0,21.92340850830078,24.300621032714844,-79.7827324597513,40.458993128857905,318.81693521118166,0.0018650678684934974,-0.0059154718182981006,-0.6989299058914185,0.7151634097099304,0.05695211885484749,0.01918763094958939,3.0651293771772337,0.0763348937034607,0.04169294610619545,0.07378160208463669,0.16517996840178967,-0.023973520221188663,-9.866245536804199
35.3,2.299999952316284,144.0,22.0423526763916,23.1953239440918,-79.78273246230887,40.45899307082812,319.4047113952637,0.002935958793386817,-0.007500015199184419,-0.6990939378738403,0.7149844765663147,0.012077072905521848,0.047405321337522136,2.98356726474817,-0.07725091278553009,-0.07170186936855316,-0.10128121823072432,0.1910299971699715,0.03480946149677038,-9.300950760841367
35.41,2.299999952316284,148.0,22.079914093017575,22.288822174072266,-79.78273254946744,40.45899303067341,319.9783197937012,0.00711189629510045,-0.004702974110841751,-0.69949871301651,0.7145829796791077,-0.018881737014524044,0.0426286545547451,2.8283354335847157,-0.029386401176452637,-0.041629280894994736,-0.03836090862751007,0.1696901085600257,0.07391280753538013,-9.055361271500587
35.5,2.200000047683716,153.0,22.126239776611328,21.994606018066406,-79.78273255067718,40.45899304376774,320.2555300292969,0.01178677286952734,-0.003103846684098244,-0.6999789476394653,0.7140594720840454,-0.022877200086005044,0.04340980706377488,2.7118132608132117,0.10387375950813292,0.09528616815805437,0.05951366573572159,0.17653624791651965,-0.05357933894265443,-8.720103560686113
35.71,2.200000047683716,158.0,22.08617401123047,22.344484329223643,-79.78273259180344,40.458992942023656,320.516905456543,0.015785707160830498,-0.0015644164523109796,-0.7001938819885254,0.7137765288352966,-0.04105901338552422,0.053295485433757325,2.610743841418231,0.09667515009641647,0.08916637301445007,0.06664498150348662,0.21320431999862194,-0.1773106202669442,-8.560023168325424
35.9,2.200000047683716,171.0,22.2526969909668,20.49967384338379,-79.7827326005369,40.458992918163894,321.0068728027344,0.017247658222913742,-0.0033990934025496244,-0.6993367075920105,0.7145761847496033,-0.05385832482446057,0.06059366355180831,2.3782087580869438,-0.04188010841608048,0.03827690705657005,0.03888871148228645,0.19928694175556305,-0.23134095769375565,-8.61827313065529
36.0,2.200000047683716,180.0,22.177574157714844,22.05821990966797,-79.7827326280085,40.45899290386142,321.46019998168947,0.013742892071604729,-0.005900442134588957,-0.6973813772201538,0.7165442109107971,-0.006685422865539003,0.04426796098045421,2.152497783360108,0.020490545779466632,0.02815938740968704,-0.02934688702225685,0.22272848412394525,-0.25322323037311434,-8.65788626253605
36.1,2.200000047683716,188.0,22.123735427856445,21.461837768554688,-79.78273262270716,40.4589928679214,321.67215982055666,0.013644559308886528,-0.005196236539632082,-0.6964282393455505,0.7174779772758484,-0.002055389133696373,0.041632924053194506,2.0822816481740087,-0.021768834441900253,-0.015702124685049057,-0.004215732682496309,0.17785110399127008,0.03687544495565817,-8.797103204727174
36.3,2.0999999046325684,190.0,22.06614112854004,23.306650161743164,-79.78273264140947,40.45899284765504,321.8755671081543,0.012530185282230377,-0.004496787674725057,-0.695857048034668,0.7180569767951965,0.0008268853022008227,0.034190288745630924,1.984717486838491,-0.062450625002384186,-0.07606638967990875,-0.010942182503640652,0.18418058702722195,0.023689053179696204,-8.805726093649865
36.5,2.0999999046325684,190.0,22.08993148803711,22.360387802124023,-79.78273264396,40.458992743770864,322.2603670654297,0.008882874622941017,-0.003803254570811987,-0.6954652070999146,0.7184948325157166,0.02295480616630764,0.020680215959795724,1.8341981951528656,-0.07717054337263107,-0.043621066957712167,-0.0032856911420822144,0.16470572266727687,0.02384702850133181,-8.92662253975868
36.61,1.8999999761581416,196.0,22.06989860534668,22.72616958618164,-79.78273265973795,40.458992707927344,322.4397226867676,0.0058908010832965365,-0.004710058681666851,-0.6962103843688965,0.7177982330322266,0.037844232513021256,0.015297615572948968,1.7520464397273516,-0.04663190245628357,0.006519294343888761,0.03848998248577118,0.20941963657736776,-0.10550768913701178,-9.023268828392027
36.7,1.7000000476837158,201.0,22.124988555908203,21.278947830200195,-79.78273270530295,40.458992577745924,322.7888018188477,0.0038007970433682203,-0.008208426646888256,-0.6979666948318481,0.7160730957984924,0.058623144364686165,0.011880944872860032,1.636896925553916,0.014216988347470759,0.07512529194355011,0.01300676167011261,0.16239369705319406,-0.06338019970804454,-9.036675909161568
36.91,1.600000023841858,206.0,22.0673942565918,23.115806579589844,-79.78273272782843,40.458992477901184,322.95369973754885,0.004978371784090996,-0.009755426086485386,-0.6986655592918396,0.7153646349906921,0.054065745286762834,0.015862334401725617,1.5907588717703467,0.0010272329673171043,0.07932811230421066,0.022133450955152508,0.11766510115005074,-0.03570943478029222,-9.09742964923382
37.0,1.5,218.0,22.058629989624023,22.33653259277344,-79.78273275583165,40.45899240524205,323.2608973083496,0.007877470925450325,-0.010643660090863705,-0.6990699768066406,0.7149307131767273,0.045418477450575895,0.019379287006049448,1.4796688161611968,0.026793306693434715,0.023601125925779343,-0.04006336256861687,0.1983600301668048,0.018697358267381788,-9.214993767142298
37.2,1.5,222.0,22.22640419006348,20.181602478027344,-79.78273281190171,40.4589923296759,323.3994928894043,0.00904564931988716,-0.010522798635065556,-0.698635995388031,0.7153427600860596,0.038649232474320665,0.017665690858869442,1.4255719248561405,-0.0040305936709046355,-0.03165799006819725,-0.03329862281680107,0.2130658688955009,-0.048539390796795485,-9.082798161506654
37.3,1.399999976158142,230.0,23.311931610107425,7.768883228302003,-79.78273289090373,40.45899223084459,323.6488939819336,0.008293083868920803,-0.008906253613531591,-0.6970492601394653,0.716920018196106,0.03576974601832923,0.007492748064648971,1.1114028219975358,0.06756602227687836,-0.08997593820095062,-0.12009993195533752,0.18867119383066894,-0.026316892392933368,-7.622701050639153
37.5,1.2999999523162842,233.0,22.197607040405273,21.994606018066406,-79.78273291692388,40.4589922107877,323.7446657714844,0.00843233335763216,-0.0029711995739489802,-0.6823299527168274,0.7309897541999817,0.008931596346466312,-0.008944191533014761,0.8178854454506063,0.048696264624595635,-0.05271298438310623,-0.6053449511528015,0.10042652268894016,-0.1169056666083634,-7.181723341941834
37.6,1.2000000476837158,237.0,22.2714786529541,21.056297302246094,-79.78273310708431,40.45899216171551,323.79632821655275,0.008370727300643921,-0.003729132004082203,-0.6311892867088318,0.7755747437477112,0.007162489934592662,-0.033265139500922615,0.4421399277536801,0.004487721249461174,-0.005378647241741419,-0.7030902504920961,0.0958935235720128,-0.09253915867768228,-8.178038018345834
37.8,1.2000000476837158,238.0,22.273983001708984,19.99871063232422,-79.78273327423122,40.45899207148095,323.76196160888674,0.008299937471747398,-0.004058210179209709,-0.5781893730163574,0.8158503174781799,0.031129154935413038,-0.03754250324866637,0.22326171506482148,0.0733959972858429,0.07178130745887756,-0.5896735191345215,0.12937860899604858,0.1045607782434672,-8.620436015725138
38.0,1.100000023841858,250.0,21.69803810119629,27.98229217529297,-79.78273330940644,40.45899203179604,323.7804285583496,0.009211847558617592,-0.003048545448109508,-0.5569370985031128,0.8304980993270874,0.03583208501901429,-0.038128696120044735,0.1522797635290275,-0.0007059662020765245,-0.0004926804103888571,-0.3822963535785675,0.15425636457279324,0.12598630115389825,-9.068247950077057
38.11,1.0,257.0,21.894611358642575,26.312419891357425,-79.78273334373033,40.458991993218476,323.79296746826174,0.008518356829881668,-0.004152107983827591,-0.5438548922538757,0.8391258120536804,0.02400206010921396,-0.04212453591629097,0.12054055010417848,-0.18294532597064966,-0.07115641236305237,-0.3459691107273102,0.11414497682824733,-0.15655391832813625,-9.466671377420424
38.3,0.8999999761581421,255.0,21.816984176635746,26.06591415405273,-79.78273332722226,40.45899197359717,323.7284304199219,-0.02644425630569458,-0.008011042140424252,-0.5254124999046326,0.8503989577293396,0.0260935076514381,0.05983788965422562,0.11486879105293635,0.0039628599770367146,-0.5771859288215637,0.020424682646989826,0.44670955147594216,-0.11062427692115308,-9.922881667613984
38.4,0.8999999761581421,262.0,21.87958526611328,24.96061897277832,-79.78273292092766,40.4589921047555,323.7441088256836,-0.052767153829336166,0.009655943140387535,-0.5217669606208801,0.8513997793197632,0.004617417275453748,0.15494903091110585,0.1631891308014695,0.06815312802791595,-0.6974727511405945,-0.0033459989354014397,0.2286243230290711,0.14591786960139871,-10.057260038852693
38.5,0.8000000119209291,276.0,21.977245330810547,24.411945343017567,-79.78273232144562,40.45899237354747,323.78237786865236,-0.08596304804086685,0.0481075830757618,-0.5222840309143066,0.8470629453659058,-0.020594725929221163,0.4191298453957575,0.2831450130822816,0.18825696408748627,-0.2346678823232651,0.06492052972316742,-0.08740694786421956,0.10972652832046152,-10.084244939088824
38.7,0.8000000119209291,292.0,21.895862579345703,25.07194328308105,-79.78273049679026,40.45899277890532,323.8534113464356,-0.09486491233110428,0.062205538153648376,-0.5285611748695374,0.8412813544273376,-0.0062429225623011715,0.8135372885062072,0.4231977323633361,0.12113917618989944,-0.0025463213678449392,0.18165189027786247,-0.02000149063998833,0.04244994509965182,-10.069529836177828
38.8,0.8999999761581421,328.0,21.884593963623047,25.93073463439941,-79.78272952567312,40.45899330151033,323.87236657714845,-0.09768477082252502,0.06257481127977371,-0.5315636992454529,0.8390365242958069,-0.04388733918090572,1.0133345023908913,0.4926625151620655,-0.14895078539848328,-0.10232678055763243,0.002351075876504183,0.05024226901587098,0.15714518146589398,-10.002518405914307
39.0,0.8999999761581421,346.0,22.018564224243164,23.39411926269531,-79.78272825100954,40.45899379960541,323.89723458862306,-0.10173965245485306,0.061445657163858414,-0.5341410636901855,0.8369987010955809,-0.04663271018213581,1.2456807042181328,0.5463042214937913,-0.13010191917419436,-0.1026640459895134,-0.018677057698369026,-0.025434839911758902,0.18321574162691834,-9.999353892803194
39.2,1.100000023841858,16.0,21.914644241333008,24.276765823364247,-79.78272515852451,40.45899538879015,323.9176508483887,-0.11293882876634598,0.06437497586011888,-0.5368826985359192,0.833581268787384,-0.07949990319697774,1.6942002144010035,0.6620298511628535,0.03984204307198525,-0.18771207332611084,0.010160685516893864,0.047638275478966534,-0.03726168324239552,-9.956728860139847
39.3,1.2999999523162842,25.0,21.93592834472656,24.49941635131836,-79.78272312688067,40.45899619030348,323.94033685302736,-0.11954262852668762,0.07125063240528108,-0.5377008914947511,0.8315712809562683,-0.10386687181924736,1.942609212252724,0.7529432429986632,-0.004066966939717531,-0.20409919321537012,-0.10786736011505127,-0.049184740679338576,0.3125275370478631,-10.063361023664477
39.4,1.600000023841858,32.0,21.929668426513672,25.024232864379893,-79.78271845573269,40.45899849081436,323.93464532470705,-0.13071125745773315,0.08754892647266388,-0.5371235013008118,0.8287026882171631,-0.12902968742935506,2.4240570778366948,0.95401130298585,0.2558541893959045,-0.12429879605770112,0.12460339069366455,-0.18890310902148488,-0.226528333760798,-10.058553442955017
39.6,1.7999999523162842,33.0,22.044857025146484,22.630748748779297,-79.78271263944656,40.45900134100083,323.91686502075197,-0.13555745780467987,0.09872134774923323,-0.5362457633018494,0.8272356390953064,-0.2006442536196471,2.9516566749941595,1.1439766905222215,-0.06568779051303864,-0.12928864359855652,-0.05914682522416115,-0.2860616502910853,-0.09985532280988993,-9.996923789978027
39.71,2.299999952316284,39.0,21.882089614868164,25.44567680358887,-79.78270916165144,40.459002696281935,323.9273478088379,-0.13883690536022186,0.10165030509233476,-0.5362512469291687,0.8263329863548279,-0.1628549820570499,3.2343939415708363,1.2138215608569618,0.11297324299812316,-0.0841919332742691,0.04197312891483307,-0.3222934104502201,-0.15994864728301764,-9.802498022317886
39.9,2.5,40.0,22.017311096191406,22.55918312072754,-79.78270551096354,40.45900476680397,323.8943010864258,-0.14320826530456546,0.10221558064222336,-0.5347661972045898,0.8264796137809753,-0.20459039796176584,3.5082079461043065,1.304725049404718,0.024738449603319168,0.0026293504051864147,0.004125828389078379,-0.411884960308671,-0.1177440294250846,-9.862891573905944
40.1,3.0,39.0,21.955961227416992,24.58688545227051,-79.78269702706255,40.45900801372685,323.89482751464845,-0.13804057240486145,0.09735355526208878,-0.5358096957206726,0.8272697329521179,-0.17538893360113625,4.018933824101138,1.4733015868533794,-0.11990958452224733,0.3334417045116425,-0.05454819276928902,-0.8019901386648417,0.16430376313626768,-9.8738083255291
40.2,3.299999952316284,40.0,22.06614112854004,22.654603958129893,-79.78269257794462,40.459010512829096,323.8606325683594,-0.12068524211645125,0.0840870589017868,-0.5363486409187317,0.8310803771018982,-0.21896202067199355,4.258760337218682,1.4652951677872907,-0.039927441626787186,0.509368360042572,0.034418344497680664,-0.8675317250937223,0.2229701385833323,-9.882741701602935
40.3,3.9000000953674316,41.0,22.263965606689453,19.076305389404297,-79.78268287870117,40.459015001599376,323.81983056640627,-0.07332472503185272,0.06485231965780258,-0.5378519296646118,0.8373368978500366,-0.2019397504153661,4.722297510734943,1.0626880190105925,0.17884886264801025,0.3899557590484619,0.1058746501803398,-0.7433069707453251,-0.1279346664994955,-9.35462644636631
40.5,4.099999904632568,42.0,22.265216827392575,20.181602478027344,-79.78267243486479,40.45901896015396,323.7836290893555,-0.05698836222290993,0.0595993734896183,-0.5380867719650269,0.8388462662696838,-0.13060293572798706,4.995959829515578,0.5737142040464394,0.032198864966630936,0.07725287228822708,0.06934928894042969,-0.5990455625206232,-0.05264192520640791,-9.061096805334092
40.7,4.599999904632568,55.0,22.186338424682614,21.6685848236084,-79.7826672316672,40.45902191612785,323.7231279907227,-0.0544031448662281,0.05754177272319794,-0.5354524254798889,0.8408448100090027,-0.17090203783112246,5.079886846435297,0.4725364603483803,0.02480958215892315,0.1041385680437088,-0.054145924746990204,-0.7501759142428637,0.038296247553080316,-9.050404586791991
40.8,4.800000190734863,57.0,22.12123107910156,22.12978744506836,-79.78266182353264,40.45902395547275,323.6858622131348,-0.04628072679042816,0.05478011816740036,-0.5359964966773987,0.8411689400672913,-0.094589252163254,5.131973953081012,0.381948174809593,0.035104237496852875,0.26895883679389954,0.07451514154672623,-0.9573447382450104,0.08412283178418875,-9.059548462629321
40.9,5.199999809265137,58.0,22.21513557434082,20.777984619140625,-79.78265105233905,40.45902910362461,323.58323922729494,-0.02201447635889053,0.04100014269351959,-0.5352304577827454,0.8434233069419861,-0.0927689637668482,5.211088923955288,0.1205526804698698,-0.047668565064668655,0.22952330112457275,-0.0002910137118306011,-0.9945438471436501,-0.233327311668545,-9.273040246367453
41.1,5.300000190734863,59.0,22.151281356811523,22.344484329223643,-79.78264005605435,40.459034334906896,323.4679285583496,-0.0043405285105109215,0.029745740815997124,-0.5347626805305481,0.8444674015045166,-0.09911181355258852,5.219301831005353,-0.20683512290682016,-0.06275472044944763,0.15088005363941193,-0.1089751273393631,-0.6418130479753018,-0.27237348290160296,-9.343958786129953
41.21,5.599999904632568,67.0,22.240177154541016,20.451963424682614,-79.78263457425737,40.45903638810258,323.4162165222168,0.002178271068260073,0.025920752435922626,-0.535619854927063,0.8440585136413574,-0.0558248993381271,5.177317161490283,-0.3263916446374417,-0.06176760792732239,0.06786046177148819,-0.04804236814379692,-0.7480535211414099,0.07306730015203358,-9.477191687822344
41.41,5.699999809265138,73.0,22.256452560424805,19.919193267822266,-79.78262890626087,40.45903925843183,323.3425432739258,0.006065947469323874,0.021921278908848763,-0.5349598526954651,0.8445713520050049,-0.07403415960475282,5.154402299790872,-0.3985948712704287,0.02280133217573166,0.19425088167190552,0.06042907014489174,-0.8053894174844027,-0.3692984461784363,-9.6036716401577
41.6,5.800000190734862,75.0,21.987262725830078,24.24495887756348,-79.78261814670442,40.459043287322395,323.2361094055176,0.017925191670656204,0.011171785183250904,-0.5370545983314514,0.8432831168174744,-0.062357077356861065,4.997847256697861,-0.544816306246269,-0.17160601913928986,0.1280466765165329,-0.025472324341535568,-0.7739949126541615,0.19689197704195974,-9.803250558972355
41.71,5.9000000953674325,76.0,21.932172775268555,24.435800552368164,-79.78261249631541,40.459046160451436,323.1597582397461,0.026583051308989525,0.004929305985569954,-0.5359902381896973,0.843791127204895,-0.08770255831037622,4.961320267316727,-0.5957944329149157,0.00693105161190033,0.2492093741893769,0.09706352651119232,-0.5443437637388706,-0.02731622494524345,-9.998600771427157
41.8,5.9000000953674325,83.0,21.690526962280273,28.98421669006348,-79.7826014228603,40.45905055172523,323.00030770874025,0.03812834247946738,-0.0042347447015345105,-0.535747230052948,0.8435065150260925,-0.06900115270297784,4.802496890934196,-0.6934994298171708,-0.029953813180327405,0.035653959959745414,-0.06987512111663817,-0.547088885307312,-0.04915516655892134,-10.360863847732542
42.0,5.800000190734862,88.0,21.82699966430664,24.714113235473643,-79.78259143867326,40.45905427405223,322.93710961914064,0.03338853642344475,-0.005422055721282959,-0.5362860560417175,0.8433583378791809,-0.055332979613320704,4.568718989124911,-0.5520609482375171,-0.020502371713519096,-0.2471747547388077,0.15879078209400174,-0.5457159225270153,-0.4006941935420037,-10.688724246025084
42.1,5.699999809265138,88.0,21.97974967956543,23.60086441040039,-79.7825864828347,40.45905629038696,322.8130899963379,0.029605872929096225,-0.0025794869288802147,-0.5353062152862549,0.8441352248191833,-0.060122102969604366,4.5011339189807815,-0.487742431269299,-0.0030848481692373753,-0.11996293067932128,0.062283191829919815,-0.4155432707816363,-0.2301418582163751,-10.493645929098127
42.31,5.599999904632568,89.0,21.855796813964844,26.28061294555664,-79.78258174289562,40.45905804638889,322.79555001831056,0.025812193751335144,-0.0025548706762492657,-0.5336751341819763,0.8452916741371155,-0.03410669501386284,4.409739771038319,-0.3746499227019166,-0.03388567268848418,0.009909452870488169,-0.07501895725727081,-0.3857915411889553,-0.16056982258334754,-10.516935389041901
42.5,5.5,88.0,21.910886764526367,24.49941635131836,-79.78257256788751,40.459061533409425,322.6882654724121,0.021468240767717358,-0.012810123153030872,-0.5289254784584045,0.8483000993728638,0.012096347109137059,4.233792434861632,-0.23220296065750584,-0.02252216823399067,0.09383799880743028,-0.02358934655785561,-0.4783320977166296,-0.012255069650709629,-10.540483295917513
42.6,5.400000095367432,87.0,21.803211212158203,28.22084617614746,-79.78256372454291,40.45906485703331,322.59487023925783,0.02641596458852291,-0.01793414726853371,-0.5253123044967651,0.8503103852272034,0.04982469538010558,4.059391560904022,-0.22440911932581714,0.04912058264017105,0.09247280657291412,0.013316895812749864,-0.4167649003118277,-0.047955308770760895,-10.389081341028216
42.7,5.199999809265137,87.0,21.87457847595215,24.539175033569336,-79.78255946885412,40.45906643314049,322.5992914733887,0.026445936411619183,-0.019810182973742485,-0.5241661071777344,0.8509747982025146,0.048804610161220126,3.964188817092192,-0.1814181841878023,-0.013062377460300922,0.006932566408067943,-0.004587642382830381,-0.2228881679289043,0.03549673774279654,-10.377461754083631
42.9,5.0,87.0,21.842023849487305,26.28061294555664,-79.7825552882501,40.45906804660675,322.5062510070801,0.026111656799912453,-0.02012109011411667,-0.5233829021453857,0.8514597415924072,0.0540873673464437,3.868844401590104,-0.20439070512485474,0.040924739092588425,0.008882669731974602,-0.05292125791311264,-0.2121529540792108,0.00057526552118361,-10.35179130792618
43.1,4.800000190734863,87.0,21.83325958251953,27.19506645202637,-79.78254731406895,40.45907103271485,322.5258928833008,0.027664560824632645,-0.019133156165480614,-0.5215480327606201,0.8525587320327759,0.035223648415092436,3.6621336524660415,-0.09898791182522036,-0.023993074893951416,0.013693000189960005,-0.008006931282579899,-0.2914555422775448,-0.012712331051006914,-10.343657830953598
43.2,4.699999809265137,88.0,21.83451271057129,25.15146064758301,-79.78254349684659,40.45907247312692,322.42325845336916,0.028190670534968376,-0.019565461203455925,-0.52041095495224,0.8532262444496155,0.03940108266515027,3.5706886172357515,-0.1153833746389876,-0.08630756288766861,-0.05099634826183319,-0.11976121366024015,-0.2575423858501017,0.1234487740136683,-10.443760993480684
43.3,4.400000095367432,88.0,21.785682678222656,26.33627510070801,-79.78253626043632,40.459075180750865,322.36758294677736,0.0229691993445158,-0.019999600946903232,-0.5195503830909729,0.8538969159126282,0.052905442633377146,3.3880776409192985,-0.052667405758237314,-0.04141980409622192,-0.1981052458286285,0.05093234404921532,-0.2927639115974307,-0.1935493248514832,-10.324560824632645
43.51,4.300000190734863,88.0,21.696786880493164,27.139404296875,-79.78252929914552,40.45907784808711,322.4118219909668,0.013864971697330477,-0.017346397042274475,-0.5205579400062561,0.8535376191139221,0.03209401920352869,3.238862323946904,0.10729277963898697,0.04142039269208908,-0.07685326784849167,-0.008749203756451607,-0.3188244035840035,-0.09284173381514847,-10.305764365196227
43.6,4.099999904632568,85.0,21.84703254699707,24.54712677001953,-79.78252597423513,40.459078927764935,322.3510462341309,0.009930763393640518,-0.01585766114294529,-0.5208483338356018,0.8534440994262695,0.0359369431580669,3.175478921506154,0.12271157541325085,0.01818486675620079,0.0016830826643854382,-0.005157105159014463,-0.2670225496776402,-0.007315890043973924,-10.210526086091997
43.8,4.0,83.0,21.796951293945312,26.964466094970703,-79.7825226750051,40.45908021220494,322.377501159668,0.0047311028465628615,-0.015013490803539753,-0.5216561555862427,0.8530105352401733,0.019023048813381963,3.125576979772516,0.1703055054902817,0.07608459144830704,-0.09342025220394136,0.05747339129447938,-0.1818637191876769,-0.17213550550863144,-10.103557122945784
44.0,3.799999952316284,82.0,21.84077262878418,25.914831161499023,-79.78251620699322,40.45908234930829,322.31845727539064,-0.0001815484138205648,-0.011122656986117365,-0.5228742361068726,0.8523373007774353,-0.0030576789640918978,3.0348791327193148,0.2183356825842757,-0.018838196992874142,-0.017599454149603844,0.04356639832258225,-0.2106356747075916,-0.06744073009584099,-10.263603601455687
44.1,3.5999999046325684,82.0,21.915895462036133,24.6027889251709,-79.7825100939191,40.45908447322861,322.3262049255371,-0.004087461158633232,-0.00847378373146057,-0.5238825678825378,0.8517385125160217,-0.01650418205727001,2.964039028988781,0.2703213014806167,-0.11408496648073195,-0.08001954108476639,0.016735844314098358,-0.15135358745232225,-0.21564054412767286,-10.230521224737169
44.2,3.5,78.0,21.99602699279785,23.44978141784668,-79.78250699100221,40.45908568645445,322.355715423584,-0.006465822923928499,-0.006980878766626121,-0.5243764519691467,0.8514334559440613,-0.02643516008003429,2.9478698018422165,0.2910191794810567,-0.06056413426995276,-0.11741074919700625,-0.0943380743265152,-0.15331055916845798,0.06180611554998905,-9.93724359869957
44.4,3.4000000953674316,78.0,22.00979995727539,23.44978141784668,-79.78250401675699,40.459086907487055,322.3914972839356,-0.007232966367155314,-0.005687106866389513,-0.5247306823730469,0.851218581199646,-0.023863861803478718,2.9266217824043124,0.29223030533119243,0.08544594794511795,0.006291247438639402,0.07085425406694412,-0.19355866212397813,-0.0232175026461482,-9.770241272449494
44.6,3.2000000476837163,78.0,21.864561080932614,24.49941635131836,-79.7824979083602,40.45908936498543,322.44481912231447,-0.013295017182826996,-0.004958940669894218,-0.5261843204498291,0.8502522110939026,-0.08646629804282778,2.9292708231834603,0.27624235094700383,-0.19260545074939728,-0.21542206406593328,-0.024370908737182617,-0.1852712206542492,0.11565606180578472,-9.598844178915023
44.7,3.0999999046325684,77.0,21.96973419189453,23.96664619445801,-79.78249506672192,40.45909050927301,322.50301232910164,-0.017380692064762115,-0.0038368136156350366,-0.5270044207572937,0.8496761918067932,-0.05742985188391809,2.9079290810357614,0.29063786106280665,0.061971072107553475,-0.044885721057653434,0.1701783835887909,-0.15742281457409266,-0.11805431557819247,-9.554505912065506
44.81,3.0,72.0,21.87332534790039,25.286640167236328,-79.78248908150994,40.45909284352073,322.60644021606447,-0.02016350440680981,-0.0005618950817734003,-0.5291844606399536,0.848267138004303,-0.08056050136231531,2.919213711601067,0.3378760967654853,0.08395205438137054,0.08540160953998566,0.07597727328538895,-0.06611741839908064,0.15622530480846766,-9.63585354566574
45.0,3.0,69.0,22.034839630126953,22.29677391052246,-79.78248602289281,40.45909409175247,322.6308886108398,-0.0208670161664486,0.0010708653135225177,-0.5300788283348083,0.8476909399032593,-0.1221368969340912,2.9467920099039944,0.3444475235658195,-0.15243643522262573,-0.14638444781303406,-0.09637032449245453,-0.09733925677835943,0.2801994694210589,-9.747078697085383
45.11,2.9000000953674316,65.0,22.02983283996582,22.71026611328125,-79.78247988350867,40.45909664177258,322.7386499938965,-0.024862032383680344,0.006613320205360651,-0.5307106375694275,0.8471626043319702,-0.12573676165544548,2.989413592631803,0.3641914890941044,-0.036997620016336434,-0.09124034643173218,-0.03433922305703163,-0.16351974288001658,0.23100825112313034,-9.466451522111893
45.31,2.9000000953674316,63.0,22.02983283996582,22.980627059936523,-79.78247675684531,40.45909792475257,322.7604738769532,-0.02725339308381081,0.007110416423529386,-0.5306578278541565,0.847118079662323,-0.1326250318523557,3.0198573853006265,0.34774794767018197,-0.06626687198877335,-0.02933869510889053,-0.023922687396407127,-0.15503998283296824,0.18801782229915265,-9.404679197072983
45.5,2.9000000953674316,57.0,21.94344139099121,23.13966178894043,-79.78247050426067,40.45910062262022,322.83349481201174,-0.03055511973798275,0.0027412974741309877,-0.5301296710968018,0.8473615050315857,-0.1344213265355235,3.0872572468124737,0.3228011616318368,-0.04192015901207924,-0.03732230141758919,0.005074742250144482,-0.15495998561382293,0.08611174391582609,-9.465181506872176
45.6,2.9000000953674316,57.0,21.8570499420166,24.38809013366699,-79.78246727413377,40.459101968320546,322.8473841247559,-0.0317283608019352,0.0008920408436097205,-0.5295668840408325,0.8476741909980774,-0.14769130846927062,3.1244066804086046,0.3030160439749404,-0.06297919154167175,-0.10018802434206008,0.03828282281756401,-0.13792134538292886,0.057821324877440926,-9.579558892250061
45.7,2.799999952316284,54.0,22.01605987548828,22.392194747924805,-79.78246076218194,40.459104877297136,322.9176966247559,-0.030515776947140694,0.0007954572793096304,-0.5291871428489685,0.8479558229446411,-0.19166115014467847,3.216692795916221,0.31913236829526803,-0.1247044950723648,-0.09500060975551604,-0.13657696545124054,-0.16414137499406933,0.5501216898858547,-9.591320566534996
45.91,2.799999952316284,53.0,21.981002807617188,22.89315795898437,-79.7824540157562,40.45910775220395,323.00004449462887,-0.028263764455914494,0.008940258994698523,-0.5291849374771118,0.8479886054992676,-0.18129558793689085,3.294760079354562,0.3355866760827862,0.08402597159147263,0.02038637921214104,-0.038908597081899636,-0.03751937186345458,0.06838923526927829,-9.59719877243042
46.1,2.9000000953674316,50.0,21.895862579345703,23.69628715515137,-79.7824505880119,40.4591092238259,323.01387658691414,-0.028262505307793617,0.010646948590874672,-0.5290756225585938,0.8480371236801147,-0.2008333479039952,3.3374297784240605,0.32128890131708765,-0.08215858787298203,-0.05490963533520698,-0.0018483662279322746,-0.1525858698785305,0.1811501396074892,-9.594454674124716
46.21,2.9000000953674316,48.0,21.96597671508789,23.49749183654785,-79.78244717454697,40.45911072886491,323.0883127746582,-0.02907500974833965,0.010203014127910135,-0.5289596915245056,0.8480873107910156,-0.1699121238724262,3.3662899738152072,0.3686866462134441,0.05767661705613136,-0.004204043187201022,0.07391786575317383,-0.16306831955909729,-0.019533181199803948,-9.600935727953912
46.4,2.9000000953674316,46.0,22.007295608520508,22.55918312072754,-79.78244010855583,40.459113730397576,323.1193224487305,-0.029058706015348438,0.008126266300678253,-0.5284428596496582,0.8484324812889099,-0.1803420241639876,3.449758971466109,0.35507476774207564,-0.04999220371246338,-0.0054565444588661185,-0.016359707340598106,-0.2285367061570287,0.21113851698115468,-9.639684641361237
46.5,2.9000000953674316,46.0,22.05111694335937,21.915088653564453,-79.78243656965738,40.459115483234726,323.1949717102051,-0.02834558300673962,0.007045504171401262,-0.5277797579765321,0.8488789796829224,-0.16338180177149486,3.491262309658415,0.3860451468545094,0.12025941908359528,0.05882275849580765,0.0953202098608017,-0.14302291313186288,-0.004570453274063766,-9.595603652000428
