time,wind_speed,wind_angle,battery_voltage,battery_current,position_x,position_y,position_z,orientation_x,orientation_y,orientation_z,orientation_w,velocity_x,velocity_y,velocity_z,angular_x,angular_y,angular_z,linear_acceleration_x,linear_acceleration_y,linear_acceleration_z
0.0,0.4000000059604645,83.0,25.74216270446777,-0.039758868515491486,-79.78274427073059,40.45898996000192,271.7925434212685,0.008881295099854471,0.00865416694432497,-0.8061190843582153,0.5916234254837036,-0.005631413388943006,-0.00629952255718993,0.022903219922957727,-0.004629593808203936,0.0009724426199682057,-0.005511155817657709,-0.03537239989964292,-0.23762740887701514,-9.80453460752964
0.1,0.4000000059604645,82.0,25.74091148376465,-0.04771064221858978,-79.78274427613526,40.45898996584465,271.7948586742878,0.008881295099854471,0.00865416694432497,-0.8061190843582153,0.5916234254837036,-0.005133799018620778,-0.006584481788990443,0.02310201566750169,0.006381812505424023,-0.00020869275613222268,0.004250528756529093,-0.035330041847191754,-0.2449952112324536,-9.805614003539086
0.29,0.4000000059604645,78.0,25.74717140197754,-0.02385532110929489,-79.7827443628402,40.4589900973959,271.80015377211566,0.008882945403456688,0.008648685179650784,-0.8061205744743347,0.5916215181350708,-0.008186717455025722,-0.010474442599680634,0.018238720139370786,-0.001886991085484624,-0.0009147804812528193,-0.006874453742057085,-0.036941662388853734,-0.2479213954880833,-9.805396487116814
0.4,0.4000000059604645,75.0,25.748422622680664,-0.015903547406196594,-79.78274437197283,40.45899010687201,271.8020116786957,0.008882945403456688,0.008648685179650784,-0.8061205744743347,0.5916215181350708,-0.007916032507864193,-0.010741997730011657,0.018386170239381463,0.004524315241724253,0.0009409718913957477,0.004005135968327522,-0.034316781044472014,-0.2512058313377202,-9.805683585405353
0.6,0.4000000059604645,74.0,25.744667053222656,-0.015903547406196594,-79.78274443851942,40.45899020818279,271.8090311985016,0.008885075338184834,0.008654491975903511,-0.8061227798461914,0.5916183590888977,-0.004744968143696664,-0.007947095067362455,0.01975331514268761,0.00322395795956254,-0.001167511334642768,-0.0012956283753737807,-0.03611206125933677,-0.2431633333861828,-9.804762648940088
0.71,0.4000000059604645,71.0,25.75092697143555,-0.015903547406196594,-79.78274444583231,40.458990214151115,271.8110351960659,0.008885343559086323,0.008655417710542679,-0.8061243891716003,0.591616153717041,-0.004933443090797664,-0.008115040750401174,0.0199692866844714,0.002268741372972727,0.0023311662953346968,0.004319165367633104,-0.03498720314819366,-0.2518204102478921,-9.806287018060683
0.9,0.4000000059604645,70.0,25.74717140197754,0.0,-79.78274448983234,40.45899032112428,271.8151601057053,0.008882972411811352,0.00866012554615736,-0.8061242103576659,0.5916163325309753,-0.0032492943860578565,-0.0033944597144242553,0.017580491963863985,0.002150139305740595,0.0012873898958787322,0.0035506249405443673,-0.03648037645965815,-0.2374806620366872,-9.804421756267546
1.0,0.4000000059604645,68.0,25.748422622680664,-0.007951773703098297,-79.78274459094526,40.45899041604911,271.8167066078186,0.008893502876162529,0.008658330887556076,-0.8061256408691406,0.591614305973053,0.0018285138966255504,-0.008866199858296323,0.015325973519511725,-0.0036508024204522367,-5.544858504435979e-05,0.00011021814134437592,-0.03655893699964509,-0.2474411380849779,-9.804949759840966
1.19,0.4000000059604645,70.0,25.752178192138672,-0.007951773703098297,-79.78274461256635,40.458990417619155,271.81982667255403,0.008893001824617386,0.008658651262521744,-0.8061272501945496,0.5916121006011963,0.0016065800885465453,-0.00939352335928968,0.015828805233426668,0.003625914687290788,0.0012994330609217286,0.007178226485848427,-0.03562694107415155,-0.25059901826083664,-9.80633438050747
1.3,0.4000000059604645,70.0,25.749675750732425,-0.007951773703098297,-79.78274467619137,40.45899055618651,271.8207540910244,0.008886613883078098,0.008653732016682625,-0.8061272501945496,0.5916122794151306,-0.004383178011216292,-0.008401652792913878,0.014070800136490041,-0.004997583571821451,-0.0013641889672726393,-0.00020781042985618114,-0.03660962733440101,-0.2427847444452345,-9.804151614904406
1.5,0.4000000059604645,70.0,25.74717140197754,-0.02385532110929489,-79.78274477498283,40.45899068722299,271.82204390573503,0.008873224258422852,0.008655386045575142,-0.8061451911926271,0.5915879011154175,-0.002948328636297941,-0.010324758490308415,0.012970075298200923,0.00014996327809058132,0.00034068556851707404,0.004459755960851908,-0.03676983647514135,-0.23835765302181244,-9.804979580640794
1.6,0.4000000059604645,70.0,25.744667053222656,-0.02385532110929489,-79.78274478559959,40.45899069271199,271.8233684103489,0.008880459703505041,0.008638912811875343,-0.8061544895172119,0.591575562953949,-0.004062630605274936,-0.010567758075050159,0.013314468872288808,-0.00387255335226655,-0.0003056397254113108,-0.005520834121853113,-0.036616833570878964,-0.2387949333898723,-9.804701253175736
1.79,0.4000000059604645,71.0,25.749675750732425,-0.015903547406196594,-79.78274491267537,40.458990827113475,271.8210114042759,0.008873709477484226,0.00864269956946373,-0.8061501383781433,0.5915814638137817,-0.0013365631503643373,-0.01588551287832101,0.007934510721545128,0.0023709863889962435,-0.0008481472614221275,0.002639148384332657,-0.037057588007301086,-0.24101846504956484,-9.804897134900092
1.89,0.4000000059604645,71.0,25.74591827392578,-0.015903547406196594,-79.78274493013947,40.45899083280054,271.8218275110722,0.008879896253347397,0.008657753467559814,-0.8061366677284241,0.5915995240211487,-0.002482941804273332,-0.01616819929675873,0.008226258584667889,-0.007063383702188729,-0.0033610069658607244,-0.009381347335875034,-0.03616105453111231,-0.2395215595699847,-9.804279084205627
2.09,0.5,72.0,25.74591827392578,-0.007951773703098297,-79.78274499662494,40.458990949783356,271.819669703722,0.008853122591972351,0.008658572100102901,-0.8061255812644958,0.5916149616241455,-0.0014821637414680485,-0.010017957364772142,0.006492592475828868,-0.003990682307630777,-0.0033665604423731565,0.0017819261411204934,-0.03550534639740363,-0.24276212302967906,-9.805031620860099
2.2,0.5,70.0,25.74591827392578,-0.007951773703098297,-79.78274500748238,40.45899095369371,271.82033745455743,0.008849835954606533,0.008671416901051998,-0.8061255216598511,0.591614842414856,-0.002224051760689491,-0.010225877425252841,0.00676408877369286,-0.002869217656552792,0.00018092620302923024,-0.008979413658380508,-0.035951797300949696,-0.2353544134274125,-9.803870948553088
2.39,0.5,70.0,25.7434139251709,0.007951773703098297,-79.78274508415629,40.4589910873244,271.8189878265858,0.00884650181978941,0.008674857206642628,-0.8061296343803406,0.5916092991828918,-0.0036041516005301593,-0.008125231622393208,0.00819337536533544,-0.003520647529512644,0.00043438511784188455,0.0031850708182901144,-0.035661695462185894,-0.2469822595641017,-9.805436832904817
2.5,0.5,71.0,25.748422622680664,0.007951773703098297,-79.78274520033597,40.458991224628186,271.81384725379945,0.008852259255945683,0.008668385446071625,-0.8061301708221436,0.5916087031364441,-0.0014053714293202253,-0.013950065587618696,0.004720190526042349,-0.004179500974714756,-0.001594843459315598,-0.006889217998832464,-0.03643787222681568,-0.2350304411351681,-9.803680329322816
2.7,0.5,69.0,25.748422622680664,0.0,-79.78274523118839,40.45899123459599,271.8148531417847,0.008854270912706852,0.008670144714415073,-0.8061320185661316,0.5916060209274292,-0.0023290034109577037,-0.014302845263083444,0.005238243475024389,-0.003766788169741632,-0.0015711990417912602,-0.0029251473024487487,-0.034312158089596784,-0.2511000332795084,-9.806696907877923
2.8,0.5,66.0,25.74216270446777,0.0,-79.78274531965755,40.45899137702485,271.80945021915437,0.008853365667164326,0.008668171241879463,-0.8061317205429077,0.5916064977645874,-0.0017885381794192226,-0.0138560961773961,0.003058989268699521,0.0007814913406036794,0.00278730015270412,0.0019419798627495766,-0.036617797447834166,-0.2388587594032288,-9.803985553979873
2.99,0.5,63.0,25.74216270446777,-0.015903547406196594,-79.7827454080413,40.45899151702591,271.8042517106533,0.008849826641380787,0.00866807345300913,-0.8061344623565674,0.5916028618812561,-0.003401719256052677,-0.011345780421239984,0.0022340406582002266,-0.004319216124713421,-0.0022760629653930664,-0.008004454895853995,-0.036509422960225496,-0.2346708921901882,-9.802765240073203
3.09,0.5,62.0,25.74591827392578,-0.015903547406196594,-79.78274541983792,40.45899152284984,271.80449480819703,0.008849826641380787,0.00866807345300913,-0.8061344623565674,0.5916028618812561,-0.002931898764047025,-0.011685719071810612,0.002376990095606195,0.007707522716373204,0.0005112788057886063,0.007383813150227071,-0.03543670785147697,-0.2475706721842289,-9.805757845044138
3.3,0.5,61.0,25.73965835571289,-0.015903547406196594,-79.78274551463545,40.458991650867546,271.79873515176774,0.008854669518768787,0.008671444840729238,-0.8061354756355286,0.5916013121604919,0.00017671712805921485,-0.011018435723754648,0.0018308698386271345,-0.002733953762799501,0.0031894617713987827,0.001012234017252922,-0.03621908357832581,-0.2468626109138131,-9.80529591500759
3.4,0.5,63.0,25.73965835571289,-0.015903547406196594,-79.7827455270568,40.45899165373282,271.7989301185608,0.008854669518768787,0.008671444840729238,-0.8061354756355286,0.5916013121604919,0.00031151439530572385,-0.011102325799508808,0.001962995628756509,0.0024715503677725788,-0.0018392861820757391,0.006163942161947489,-0.03397453848738224,-0.2508551445789635,-9.805987055897713
3.59,0.5,63.0,25.74091148376465,-0.007951773703098297,-79.78274560020904,40.45899180048588,271.7924576203823,0.00885051302611828,0.008671511895954609,-0.806136965751648,0.5915993452072144,-0.0020440524707424773,-0.008136004461305685,0.0013528587367340915,0.0006290373275987804,-0.001676569925621152,-0.00184858578722924,-0.03607961378060282,-0.2413382163830101,-9.805457882881164
3.69,0.4000000059604645,64.0,25.75343132019043,-0.015903547406196594,-79.78274560856724,40.45899180464906,271.7926114897728,0.008851251564919949,0.008672192692756653,-0.8061384558677673,0.591597318649292,-0.0023441470537780484,-0.008200074929513341,0.001495509540408603,0.0043388791382312775,-0.0005537890247069299,0.006354297045618296,-0.03379377044504508,-0.25115761008113624,-9.806263044476507
3.9,0.5,64.0,25.74216270446777,0.0,-79.78274573806249,40.45899195364583,271.7879965107441,0.008856956847012043,0.008665051311254501,-0.8061383366584778,0.5915974378585815,-0.0010930008110539597,-0.014472072867443562,0.0051365317127940405,0.00515988701954484,0.003476822515949607,-0.001474014250561595,-0.03635449001798406,-0.2393295881710947,-9.803528301715847
4.0,0.5,64.0,25.734649658203125,-0.02385532110929489,-79.78274580285228,40.45899211886588,271.77999634552003,0.008851170539855957,0.008663280867040156,-0.806140661239624,0.591594398021698,-0.00595935560186225,-0.011609691891562229,0.0027684945431960123,-0.00027787088765762746,0.0005052179913036525,0.003335141111165285,-0.0347846747841686,-0.2510106622427702,-9.80555202305317
4.19,0.5,65.0,25.74717140197754,0.007951773703098297,-79.78274582476955,40.45899213654811,271.78064335393907,0.008850958198308945,0.008663894608616829,-0.8061428070068359,0.591591477394104,-0.006917454370384682,-0.012151844863426596,0.0032334222002274146,0.006744540296494961,0.00311739812605083,0.0011112202191725373,-0.03647647070232779,-0.2385813272930682,-9.804044610857963
4.29,0.5,65.0,25.73089408874512,-0.039758868515491486,-79.7827458857344,40.45899227302529,271.7745908300877,0.008850685320794579,0.008665498346090317,-0.8061429262161255,0.5915912985801697,-0.004744707284391337,-0.009715273771853808,0.004654033069323372,0.002274626400321722,0.0017143395962193608,0.00383993168361485,-0.034305120874196286,-0.25134252827614545,-9.806355430483821
4.49,0.5,67.0,25.735902786254893,0.05566241592168808,-79.78274597091726,40.4589924228739,271.767337362051,0.008852826431393623,0.008664137683808805,-0.8061441779136658,0.5915895700454712,-0.003953633644266807,-0.010983235994388387,0.002767644165050604,0.0015519794542342429,0.0024969454389065504,6.282218964770436e-05,-0.036356653030961764,-0.2412041872367263,-9.803762775063516
4.59,0.5,68.0,25.74591827392578,-0.03180709481239319,-79.78274598182425,40.45899242957599,271.76763782906534,0.008852826431393623,0.008664137683808805,-0.8061441779136658,0.5915895700454712,-0.004394122018667709,-0.011181448334370138,0.0029250878707808912,-8.813103340798989e-05,-0.0026516364887356762,0.0013851526891812682,-0.034210240663960584,-0.25187276110053064,-9.805899347662926
4.79,0.6000000238418579,70.0,25.73965835571289,0.08746951073408127,-79.78274604727879,40.45899256926465,271.7621484797001,0.00885378010571003,0.008668840862810612,-0.8061458468437195,0.5915873050689697,-0.00226050193842703,-0.007731037880401452,0.005270293790431412,0.004136542323976754,0.002020052867010236,0.0015994638670235872,-0.03635844602482394,-0.2389223113283515,-9.803084498047829
4.9,0.6000000238418579,71.0,25.72588539123535,0.04771064221858978,-79.78274605507131,40.45899257363824,271.7626955609322,0.00885378010571003,0.008668840862810612,-0.8061458468437195,0.5915873050689697,-0.00284029770517148,-0.007842218504941167,0.005436582671217597,0.0013374906266108155,0.0009263633983209727,0.0020061263348907232,-0.033572176960296934,-0.251474931165576,-9.806273569464684
5.09,0.6000000238418579,70.0,25.735902786254893,0.05566241592168808,-79.78274611321405,40.45899274669888,271.7571732800007,0.008848141878843306,0.008663874119520187,-0.8061476945877075,0.5915848612785339,-0.007876569824603084,-0.007638607092074705,0.0068252098389908755,0.005604534409940243,0.0037438143044710155,0.0026108811143785715,-0.035849409357178966,-0.2370158083923161,-9.804439297914506
5.2,0.6000000238418579,70.0,25.73965835571289,0.06361418962478638,-79.78274611891734,40.45899275582715,271.75789527106286,0.008849670179188251,0.008665282279253006,-0.8061501383781433,0.5915814042091371,-0.008744778836890791,-0.007746838172227858,0.007087125077339884,-0.003351656254380941,-0.0012357101077213886,0.00018410466145724053,-0.03523417948745191,-0.2494008506834507,-9.805808715820312
5.39,0.6000000238418579,72.0,25.72713851928711,0.02385532110929489,-79.78274617276783,40.45899289600643,271.75230447459217,0.008850349113345146,0.008666479028761387,-0.8061500191688538,0.5915815234184265,-0.0060242895178378685,-0.006400344317290086,0.007858975833737148,0.00466110510751605,0.004125250969082117,0.005147652700543404,-0.03572468322236092,-0.2484109901636839,-9.805380114912987
5.49,0.6000000238418579,73.0,25.73840713500977,0.10337305814027786,-79.78274621468043,40.45899305127747,271.74610249209405,0.008847135119140148,0.008663205429911612,-0.8061524629592896,0.5915783047676086,-0.00981675203570521,-0.006183852478617588,0.008302549176478085,-0.002541061025112868,-0.0018342821858823304,-0.0017332101706415415,-0.035087896313052626,-0.24662406278774146,-9.805129269361496
5.69,0.6000000238418579,74.0,25.73965835571289,0.03180709481239319,-79.78274622210962,40.458993071715476,271.7478557031155,0.008847227320075035,0.00866372138261795,-0.8061540722846985,0.5915760993957521,-0.01018387017994428,-0.006696602720224258,0.008560176626827263,0.002692763460800052,0.0034750157501548533,0.005602411460131407,-0.035610450098756706,-0.2504071199521423,-9.804745107293133
5.79,0.6000000238418579,75.0,25.72964286804199,0.07156596332788467,-79.78274626212135,40.4589931966999,271.7415362994671,0.008849285542964934,0.008666577748954296,-0.8061539530754089,0.5915762186050415,-0.0066651344185278405,-0.004657690005037266,0.008839777973031053,-0.003343424526974559,-0.005654712673276664,-0.004027535207569599,-0.03590981155168265,-0.24379885263741016,-9.805215808153156
5.99,0.6000000238418579,76.0,25.73965835571289,0.04771064221858978,-79.78274632618663,40.45899332774551,271.7361612122059,0.008856848813593388,0.008668123744428158,-0.8061556220054626,0.5915737748146057,-0.0010162310227296587,-0.006853881624318946,0.009048939455895815,0.00243273819796741,-0.00045779559877701104,0.0069969710893929005,-0.0362645251234062,-0.23715853527188305,-9.803347038030623
6.09,0.6000000238418579,77.0,25.73965835571289,0.03180709481239319,-79.78274633343244,40.458993330833,271.7370841305256,0.008856848813593388,0.008668123744428158,-0.8061556220054626,0.5915737748146057,-0.002329077094905957,-0.006997519735876459,0.009379742745959752,-0.0045943413861095905,-0.003018838819116354,0.00030447758035734296,-0.0361559039563872,-0.2437837595120073,-9.805650256276133
6.29,0.6000000238418579,80.0,25.735902786254893,0.03180709481239319,-79.78274639024067,40.45899347539015,271.73216782021524,0.008857143111526966,0.008664784952998161,-0.8061584234237671,0.5915700793266296,-0.002494500031466197,-0.008766645619968675,0.009492506981338095,0.0011667885119095445,-0.00027138672885484993,0.005177611485123634,-0.035025737669784576,-0.2381259753741324,-9.80479422390461
6.39,0.6000000238418579,82.0,25.73089408874512,0.07156596332788467,-79.7827463992236,40.45899348023181,271.73313812422754,0.008857143111526966,0.008664784952998161,-0.8061584234237671,0.5915700793266296,-0.003714484752238932,-0.009028354895790536,0.009761926595336295,-0.004612981341779232,-0.004753465764224529,-0.00463731586933136,-0.03687735443701968,-0.2428808032348752,-9.80474627673626
6.59,0.5,87.0,25.73965835571289,0.04771064221858978,-79.78274643892753,40.458993608871616,271.72837261366845,0.008856414817273617,0.008667180314660072,-0.8061603903770447,0.59156733751297,-0.001935006384829753,-0.0068621670362159605,0.009610618480415905,0.0017403960227966304,0.002789654303342104,0.005594449117779732,-0.035845396248623734,-0.23759417111054065,-9.80418786764145
6.7,0.5,88.0,25.72964286804199,0.07951773703098297,-79.78274644599414,40.458993612493735,271.7293543319701,0.008858193643391129,0.008668853901326656,-0.8061619400978088,0.5915651917457581,-0.0030803514854601784,-0.0070821006996916605,0.009874687270289841,-0.0023723607882857323,-6.935649435035884e-05,-0.0033776233904063697,-0.03605985430302098,-0.24273657800629736,-9.80467727959156
6.89,0.5,91.0,25.73840713500977,0.09542128443717957,-79.78274648299188,40.458993774459366,271.7268067698479,0.008852355182170868,0.008663618937134744,-0.806162416934967,0.5915647149085999,-0.0077612228860756,-0.007052972702309946,0.013247921431003607,0.0027962797321379185,-0.001377055305056274,0.004710080567747354,-0.03485567734111101,-0.2379378594830633,-9.804526421427727
7.0,0.5,92.0,25.73715400695801,0.04771064221858978,-79.7827465158618,40.45899388942553,271.7225398670435,0.008853904902935028,0.008667273446917534,-0.8061646223068237,0.5915616154670715,-0.00480979286038555,-0.004808081094810862,0.015417302291592341,-0.00416953070089221,4.398661985760556e-06,3.322051634313539e-05,-0.03668822213541716,-0.2440758462063969,-9.804758555889133
7.19,0.5,96.0,25.73965835571289,0.04771064221858978,-79.78274652404994,40.4589938999784,271.72568027186395,0.008854241110384464,0.008668121881783009,-0.8061668872833252,0.5915585160255432,-0.005043658928720973,-0.005371517491455546,0.015736977601244616,0.004361462313681841,4.0860755689209334e-05,0.007340548560023308,-0.03609080571681261,-0.23762556334957485,-9.803773884773255
7.29,0.5,95.0,25.73715400695801,0.07156596332788467,-79.78274653952464,40.458994010359504,271.7215439181328,0.008852211758494377,0.008670445531606674,-0.8061670064926147,0.5915583372116089,-0.004682528584337163,-0.0020271538162307387,0.016710100826746992,-0.0037879063747823243,-0.0020792067516595125,-0.002563158050179481,-0.03664798141457142,-0.2437646281532944,-9.804671432375908
7.49,0.5,96.0,25.73840713500977,0.07951773703098297,-79.78274657707051,40.45899413546308,271.7189523379803,0.008853040635585785,0.00866988953202963,-0.8061691522598267,0.5915554165840149,-0.004663448546528714,-0.002735373894245105,0.0174701716868542,0.003947610501199961,-0.002068911679089069,0.004661431536078453,-0.035887411690782765,-0.2364525936171413,-9.80403174698353
7.6,0.5,97.0,25.74216270446777,0.039758868515491486,-79.78274657845206,40.45899414040779,271.7207335929871,0.008853040635585785,0.00866988953202963,-0.8061691522598267,0.5915554165840149,-0.005881562158921464,-0.0029421516530022,0.017853910997486042,-0.0028353584930300717,-0.005519172176718712,-0.0032846280373632912,-0.03716152683366089,-0.2443761007301509,-9.805216977596283
7.79,0.5,97.0,25.7434139251709,-0.007951773703098297,-79.78274664325028,40.45899428052585,271.7184635500908,0.008853762410581112,0.008662999607622623,-0.8061699271202087,0.5915544629096985,-0.00792531032991098,-0.00806741263382309,0.018348561858742844,0.0028332273941487074,0.004104519728571177,0.006177206989377737,-0.03597527524223551,-0.2361074799858033,-9.804222366213798
7.89,0.5,98.0,25.74216270446777,0.0,-79.78274664943919,40.45899428974325,271.72033382463457,0.008853762410581112,0.008662999607622623,-0.8061699271202087,0.5915544629096985,-0.009213028472618264,-0.00823246471025533,0.01859625785930271,-0.004155451897531748,-0.00022113768500275907,-0.002943390980362892,-0.03637400510022417,-0.2449617541953921,-9.804906490445138
8.09,0.5,97.0,25.744667053222656,-0.007951773703098297,-79.78274671948886,40.458994404292895,271.7181860904694,0.00885720457881689,0.0086625125259161,-0.8061708211898804,0.5915532112121582,-0.006070063199621408,-0.010040652224972838,0.018888820708800186,0.005614361260086298,0.0036716123577207327,0.002196292392909527,-0.03560287384316325,-0.23653728688135744,-9.803420128226279
8.19,0.5,95.0,25.74591827392578,-0.015903547406196594,-79.78274672856105,40.458994412236,271.7201123635769,0.008859071880578995,0.008664018474519253,-0.8061731457710266,0.5915499925613403,-0.007281244571593075,-0.0101438790713131,0.019187634990735333,-0.002774797147139907,-0.0019092371221631765,-0.003447034163400531,-0.03615818802500144,-0.2447607744298876,-9.804397197961807
8.39,0.5,91.0,25.73965835571289,-0.007951773703098297,-79.78274676349066,40.45899449999872,271.71989961969854,0.00885865930467844,0.008669408969581127,-0.8061734437942505,0.5915495157241821,-0.0036639044947622155,-0.005856726574686371,0.021531452765250054,0.004578440450131893,0.002233940176665783,0.006698713637888432,-0.035361287905834614,-0.2366396131552756,-9.804491922855377
8.49,0.6000000238418579,91.0,25.74091148376465,-0.015903547406196594,-79.78274680915017,40.458994611538174,271.71625375258924,0.008855408988893032,0.00866627600044012,-0.8061757683753967,0.591546356678009,-0.007695125263847061,-0.005941628869655712,0.02095964241900075,-0.0028980011120438576,0.0007626381702721119,-0.0023792721331119533,-0.03645251082256437,-0.2435521549545229,-9.804819366931916
8.69,0.6000000238418579,89.0,25.74717140197754,-0.015903547406196594,-79.78274681777191,40.45899462734601,271.7205213110447,0.008855588734149933,0.008666926994919777,-0.8061777949333191,0.5915436148643494,-0.007886024307253322,-0.006464274907885132,0.021234444032763027,0.0035147934686392546,0.002173955319449305,0.004939601756632328,-0.035217873521614824,-0.2505992558039725,-9.806319177746774
8.8,0.6000000238418579,87.0,25.73840713500977,-0.007951773703098297,-79.78274686547988,40.45899472014793,271.7168095062971,0.008855707012116909,0.008667198941111566,-0.8061776161193848,0.5915438532829285,-0.007651932402426283,-0.005411025811863643,0.02069358893960632,-0.005177517887204886,-0.0023358834441751237,-0.0010495808674022558,-0.036690165877807886,-0.2435339189507067,-9.804919939041136
9.0,0.6000000238418579,85.0,25.7434139251709,-0.007951773703098297,-79.7827469414774,40.45899480002446,271.71562431263925,0.008863934315741062,0.008670063689351082,-0.8061785101890564,0.5915424227714539,-0.0014324273633758765,-0.007210167092537099,0.020273822882178747,0.0036357729695737358,0.0021615908481180672,0.002275001723319292,-0.03656711396528408,-0.2374604891426861,-9.803888490200043
9.1,0.6000000238418579,84.0,25.73965835571289,-0.007951773703098297,-79.78274694907034,40.45899480326655,271.71766933310033,0.008863934315741062,0.008670063689351082,-0.8061785101890564,0.5915424227714539,-0.0026533892240621733,-0.0072893567088315875,0.020539722723937483,-0.004304151516407728,0.000626911292783916,-0.004874530248343945,-0.03514822770142928,-0.2396996438317001,-9.803724768161775
9.29,0.6000000238418579,82.0,25.7434139251709,-0.007951773703098297,-79.78274699448461,40.45899486419837,271.7174949001074,0.00886338111013174,0.008675648830831051,-0.8061808347702026,0.5915392637252808,0.000492367808220916,-0.003149121678956694,0.02061765069942757,0.0016831448301672935,-0.002662151120603085,0.0045258887112140656,-0.03657267338829115,-0.2399455375224352,-9.805577750802039
9.4,0.6000000238418579,82.0,25.72713851928711,-0.08746951073408127,-79.78274699828003,40.458994864523646,271.7195701401234,0.00886338111013174,0.008675648830831051,-0.8061808347702026,0.5915392637252808,-0.0005444333082741084,-0.003332339438751375,0.020929068016665008,-0.005193667951971293,-0.0015190609265118835,-0.0076773110777139655,-0.035574989933520554,-0.23689550193026665,-9.804926370978356
9.59,0.6000000238418579,81.0,25.7434139251709,-0.007951773703098297,-79.78274708419794,40.4589949444077,271.71948450315,0.008866687305271627,0.008671983145177364,-0.8061833381652832,0.5915358662605286,-0.0007913191447226888,-0.006994604690193227,0.020725585053212755,0.002391752554103732,-0.004889764357358217,0.0022758275736123323,-0.035194879802875216,-0.2457145283930004,-9.806357184648514
9.69,0.6000000238418579,78.0,25.744667053222656,-0.007951773703098297,-79.78274709204665,40.458994946533295,271.72155890870096,0.00886770524084568,0.008673160336911678,-0.8061853051185608,0.5915331244468689,-0.0014010007883422453,-0.007290794021233262,0.020777602362046937,0.0001083992319763638,0.0003604597586672753,0.0007560728117823603,-0.03588782510720193,-0.2346438670903445,-9.803294413089752
9.89,0.6000000238418579,77.0,25.7333984375,-0.015903547406196594,-79.782747157315,40.458995025833346,271.721794361949,0.00886598415672779,0.008672122843563557,-0.8061852455139159,0.5915332436561584,-0.003221470623361948,-0.006457555395236681,0.020702006992519714,-0.005732636898756027,-0.0023294202983379364,-0.0023977821692824364,-0.03570143368793652,-0.2509012279473245,-9.805354971885684
10.0,0.6000000238418579,77.0,25.73965835571289,-0.015903547406196594,-79.78274720493583,40.458995097066854,271.71991021442415,0.008862772025167942,0.008675023913383484,-0.8061875104904175,0.5915302038192749,-0.004320450660150534,-0.0023069984528005442,0.02028803940071661,0.004075322765856981,0.005251260008662939,-0.000298044178634882,-0.0360820805747062,-0.2373039299435913,-9.80451998949051
10.19,0.6000000238418579,75.0,25.73089408874512,-0.007951773703098297,-79.78274720728926,40.45899510569271,271.7240231435299,0.008863748051226139,0.00867590494453907,-0.8061894774436951,0.59152752161026,-0.005730439079818032,-0.0026642297858797607,0.020648922218396714,-0.005985122639685868,-0.0010190423345193267,-0.005619238130748272,-0.03552319867769256,-0.2384644926153124,-9.804689558744432
10.29,0.6000000238418579,75.0,25.7434139251709,-0.007951773703098297,-79.7827473231123,40.45899518473403,271.72276076185705,0.008868969976902008,0.008666898123919964,-0.8061889410018921,0.5915282964706421,-0.005644146615688546,-0.010611355555928115,0.02031473214186005,0.004182679113000631,0.0031366387847810984,0.002687369240447879,-0.03512508095009253,-0.2442916267365217,-9.805480102300645
10.49,0.6000000238418579,76.0,25.74091148376465,-0.015903547406196594,-79.78274740487218,40.45899522375496,271.7237435977459,0.008872440084815025,0.00867468398064375,-0.8061922192573547,0.5915235877037048,-0.00023549527946279487,-0.006884302467038184,0.020539638569029826,-0.003475885139778257,-0.00011378528870409356,-0.00684942863881588,-0.035727264219895014,-0.2483736958913505,-9.806116279363634
10.6,0.6000000238418579,76.0,25.73715400695801,-0.007951773703098297,-79.78274741283475,40.45899522533736,271.72580314683916,0.008872440084815025,0.00867468398064375,-0.8061922192573547,0.5915235877037048,-3.0018633674199494e-06,-0.007216425784430833,0.02063219206072075,0.005906705744564533,0.001487121800892055,0.004937794059514999,-0.03525447572115808,-0.2490447735227645,-9.8062531042099
10.79,0.6000000238418579,77.0,25.74591827392578,0.06361418962478638,-79.78274749817432,40.45899528222946,271.7249999444485,0.008873088285326958,0.00867597758769989,-0.8061939477920532,0.5915212631225586,-0.0019852234950365625,-0.00634030605575777,0.01716010708695221,-0.005241416394710541,-0.0015342216938734055,-0.002398502081632614,-0.03697512856218964,-0.2485591257177293,-9.80493338763714
10.91,0.6000000238418579,76.0,25.7434139251709,0.007951773703098297,-79.78274750483331,40.45899528538136,271.7267268102169,0.008873088285326958,0.00867597758769989,-0.8061939477920532,0.5915212631225586,-0.0018096595906959328,-0.0066730856922099634,0.017199060436133982,0.00760467816144228,0.0006338907987810671,0.005953332409262657,-0.03552469245856628,-0.2509736968763173,-9.805506999492646
11.09,0.6000000238418579,74.0,25.744667053222656,0.0,-79.78274759011738,40.458995378421605,271.72575987386705,0.008868169039487839,0.008670196868479252,-0.8061959743499756,0.5915185809135437,-0.010041207252911391,-0.007935350462504173,0.014371262206421802,0.0009181859786622226,-0.0014784701634198427,-0.0022767584305256605,-0.036518314839340746,-0.2448982205428183,-9.80446327149868
11.2,0.6000000238418579,72.0,25.7434139251709,-0.007951773703098297,-79.7827475956176,40.45899538907646,271.7272310655117,0.008868169970810413,0.008670603856444359,-0.8061979413032532,0.5915160775184631,-0.010098295099674302,-0.008214640297459691,0.01446966776022174,0.0014695795252919195,0.0018866133177652953,0.004300940316170454,-0.03471770360833034,-0.2514445256441832,-9.80629988193512
11.39,0.6000000238418579,73.0,25.735902786254893,0.007951773703098297,-79.78274767767543,40.45899542747152,271.72872419166566,0.008871620520949364,0.008674376644194126,-0.8061978220939636,0.5915159583091736,-0.006447843867688164,-0.0066932584222224615,0.016128025467199655,0.0038864719681441775,0.0013108000857755544,0.002194239990785718,-0.03547455715248361,-0.2384233062900603,-9.804424095153813
11.5,0.5,72.0,25.74091148376465,-0.007951773703098297,-79.78274780324878,40.45899545964436,271.72690347838403,0.008882532827556133,0.00867239199578762,-0.8061981797218323,0.591515302658081,-0.0020591376846219463,-0.01285132844447594,0.01367870164002789,0.001079119392670691,-0.00032684259349480266,0.003155175596475601,-0.035209931815043095,-0.2509390521235764,-9.805740888118743
11.69,0.5,72.0,25.7333984375,-0.015903547406196594,-79.78274783092208,40.458995470552566,271.7296832602024,0.008881935849785805,0.008672600612044334,-0.8062000870704651,0.5915127396583557,-0.0025591735017873552,-0.013377691912976494,0.01381755079120784,0.003421517321839929,0.0015320576494559643,0.00653340807184577,-0.036495670583099125,-0.2354529572837055,-9.803403756022453
11.8,0.5,72.0,25.73965835571289,0.0,-79.78274795510544,40.458995485670115,271.72833401966096,0.008890552446246147,0.008674243465065956,-0.8061994910240173,0.591513454914093,0.003377901157562166,-0.01569546244624807,0.012571301229184312,-0.001267872634343803,-0.0036685694940388203,-0.0009438319248147307,-0.036985726640559734,-0.24753080148249865,-9.805612834095957
11.99,0.5,73.0,25.74216270446777,0.0,-79.78274804125664,40.45899552305927,271.7303089599609,0.008885730057954788,0.008679096587002277,-0.8062025904655457,0.5915092825889587,0.0010101091611758595,-0.009575932793521643,0.01477322582144501,0.0038266675546765327,-4.5938613766338676e-05,0.006701179780066013,-0.03596236797049642,-0.2502175057120621,-9.805439756512644
12.1,0.5,72.0,25.73965835571289,-0.015903547406196594,-79.78274805233016,40.4589955250217,271.7317986588478,0.008885730057954788,0.008679096587002277,-0.8062025904655457,0.5915092825889587,-0.00020005134358901884,-0.009726664696760028,0.015001328719772944,-0.002356116194278002,-0.0034983369987457986,-0.004982669837772846,-0.03607130662305282,-0.2428947086445987,-9.804717040657998
12.29,0.5,71.0,25.74216270446777,-0.03180709481239319,-79.78274814564706,40.458995559933136,271.7325555484295,0.008885032497346401,0.008680402301251888,-0.8062044382095337,0.5915067195892334,-0.0004882193453550693,-0.008277941578409363,0.0136853464701419,0.003990417346358299,0.002657277742400765,0.0055357827804982645,-0.03631980415200815,-0.2372558183223009,-9.804647458791733
12.4,0.5,70.0,25.73840713500977,-0.007951773703098297,-79.78274825455671,40.45899557463736,271.73363400506975,0.008890961296856403,0.008683158084750175,-0.8062067627906799,0.5915034413337708,0.003377408440403223,-0.008812888838253808,0.0126008786764262,0.005470317788422108,0.000955521361902356,0.002292673336341977,-0.03578315766295418,-0.2381658278033137,-9.80391363322735
12.6,0.5,70.0,25.735902786254893,-0.02385532110929489,-79.78274826556206,40.45899557439046,271.73490355420114,0.008890961296856403,0.008683158084750175,-0.8062067627906799,0.5915034413337708,0.002461690273352701,-0.008947108418074636,0.012820340505759227,-0.001323781325481832,-0.0012403986183926465,0.0028878217563033104,-0.035485511545557534,-0.24949639784172176,-9.805661365985873
12.79,0.6000000238418579,73.0,25.734649658203125,-0.06361418962478638,-79.78274834178167,40.45899560062019,271.7379408876896,0.008887581527233124,0.008686251007020473,-0.8062087297439575,0.5915007591247559,0.00024137866910491358,-0.0048165833502918564,0.015250934726277525,0.0053823175840079784,0.0031593788880854845,0.0039828093722462645,-0.03610934778582305,-0.2344659290090204,-9.803213721513748
12.9,0.6000000238418579,73.0,25.74216270446777,-0.007951773703098297,-79.78274834722849,40.45899560196533,271.7394779126644,0.008887581527233124,0.008686251007020473,-0.8062087297439575,0.5915007591247559,-0.0009373305271927967,-0.005000236942925121,0.015368744959828953,-0.002672782866284251,-0.0024918501731008287,-0.0008151810616254808,-0.03645688938209786,-0.2449763722345233,-9.804433450698854
13.09,0.6000000238418579,75.0,25.74216270446777,-0.03180709481239319,-79.78274843621519,40.45899560678552,271.7433875601292,0.008890119381248951,0.008689309470355509,-0.8062115907669067,0.5914967656135559,0.002122875842680054,-0.004093406779117359,0.01702407987796975,0.005562614183872938,0.0003370940394233912,0.008090204559266567,-0.035585147186648104,-0.2515283600986004,-9.805086584687233
13.19,0.6000000238418579,76.0,25.7434139251709,-0.02385532110929489,-79.78274844157416,40.45899560608986,271.745098004818,0.008891605772078037,0.008690753020346166,-0.8062142133712769,0.5914930701255798,0.0008884353864944773,-0.0042423939526485144,0.017267261831794698,-0.006225756835192442,0.0011688045924529429,-0.006583141628652811,-0.03621691828127952,-0.24044812398031354,-9.804142844080923
13.39,0.6000000238418579,79.0,25.7333984375,-0.04771064221858978,-79.78274855234253,40.45899564755953,271.7469425599575,0.008891915902495384,0.008684104308485985,-0.8062137961387634,0.5914937257766724,-0.002532855161267564,-0.008487622145489487,0.01485926799147438,0.0007093088934198023,-0.0008520894916728139,0.002634647302329541,-0.036582147704903034,-0.2421922022290528,-9.804556242227557
13.5,0.6000000238418579,79.0,25.73840713500977,-0.03180709481239319,-79.7827486180353,40.45899566432068,271.74826420354844,0.008888771757483479,0.008687191642820835,-0.8062156438827515,0.5914912223815918,-0.003576368632908365,-0.004488401635099532,0.013754053842195734,-0.005391874816268682,0.00031927673262543976,-0.00458058062940836,-0.03591040769359097,-0.23574509879574185,-9.803690269589424
13.69,0.6000000238418579,80.0,25.735902786254893,-0.03180709481239319,-79.78274862634855,40.458995672387225,271.7510603468418,0.008890507742762566,0.008688821457326412,-0.8062179684638977,0.5914880037307739,-0.004421465933038771,-0.004952945698657642,0.014034433665834435,-0.00384237919934094,-0.001884968136437237,-0.003949883859604597,-0.03591391830705106,-0.2452575502172113,-9.804574368596075
13.79,0.6000000238418579,80.0,25.735902786254893,-0.007951773703098297,-79.78274870483513,40.45899566862233,271.7544584672451,0.008893955498933792,0.008692014031112194,-0.8062180280685425,0.5914878249168396,-0.0005870151349063485,-0.003852664853518321,0.015983414668417902,0.0005235419375821948,0.0007955071050673722,-0.0037030221428722148,-0.035370472145732496,-0.2377829448133708,-9.803729445934296
13.99,0.6000000238418579,80.0,25.68331527709961,0.787225604057312,-79.7827488105263,40.458995662797314,271.7598165075779,0.008896198123693466,0.008696052245795727,-0.8062378168106079,0.5914607644081116,0.0031048389817455264,-0.006437875254638386,0.01806853502754684,-0.003869569394737482,-0.0007403216441161933,-0.007847772911190987,-0.03482176805846393,-0.2509750490449369,-9.80653610944748
14.1,0.6000000238418579,80.0,25.71586990356445,0.3021674156188965,-79.78274881898004,40.45899566116339,271.76161832618715,0.0089066531509161,0.008698416873812675,-0.8062104582786559,0.5914978981018066,0.0019332915709193664,-0.007270957437021694,0.01803194217593947,-0.0026122985873371363,0.0011328539112582805,-0.0011232116958126426,-0.04305519587360323,-0.25842721575871114,-9.808558076620102
14.29,0.6000000238418579,77.0,25.70960998535156,0.278312087059021,-79.78274891215148,40.45899568744896,271.76723701763154,0.008900053799152374,0.008703667670488358,-0.8062223792076111,0.5914815664291382,-0.0007780138626935132,-0.00949598532629828,0.019076793686123285,-0.001414131256751716,-0.005272133275866509,-0.0058385711163282394,-0.04022396035026759,-0.241980642657727,-9.801437337398529
14.39,0.6000000238418579,77.0,25.717121124267567,0.2862638533115387,-79.78274892274575,40.458995690389365,271.7691637377739,0.008913714438676834,0.008707951754331589,-0.8061762452125549,0.5915443301200867,-0.0012956049570952807,-0.009486093579760902,0.019262139722206643,0.006722945254296064,0.0020949493627995253,0.0005929945036768912,-0.033317823079414666,-0.2506505833938718,-9.802626661062241
14.6,0.6000000238418579,78.0,25.71336555480957,0.2703603208065033,-79.7827489979956,40.458995689714115,271.7752722005844,0.008893565274775028,0.008722716011106968,-0.8062037229537964,0.5915068984031677,0.00015855348197592596,-0.008056672475614814,0.02001681394077869,-0.002810736419633031,0.002310555428266525,-0.01038296241313219,-0.032012582933530216,-0.25245399260893464,-9.805897008776663
14.69,0.6000000238418579,78.0,25.71586990356445,0.326022744178772,-79.78274900685064,40.45899569052357,271.7772692542076,0.008892860263586044,0.008716367185115814,-0.8061866760253906,0.5915302038192749,0.0015356215083191242,-0.007408505385681685,0.019936300064707417,0.0046910052187740785,0.003616019850596785,0.008299047127366066,-0.034417136167176066,-0.25040059665217995,-9.805483610630036
14.89,0.6000000238418579,77.0,25.708356857299805,0.4214440286159515,-79.78274904817646,40.45899568020794,271.7863407533169,0.008904254995286466,0.008706022053956984,-0.8061838150024414,0.5915341973304749,0.0020407677700711,-0.003084247992895501,0.023653198136436075,0.0003062983450945467,0.00685229292139411,-0.00946418847888708,-0.03553926024818793,-0.2513310165703297,-9.804515896439552
15.01,0.6000000238418579,77.0,25.702096939086914,0.44529932737350464,-79.78274910621867,40.4589956862133,271.7913672130108,0.008902175351977348,0.008685968816280365,-0.8062041401863098,0.5915067791938782,0.001884436214349777,-0.0027375525053658953,0.022695933830479874,0.001994518330320716,0.002224950585514307,0.011348200030624866,-0.04235190830659122,-0.24026530712842945,-9.798836495876312
15.19,0.6000000238418579,77.0,25.43415832519531,2.5843265056610107,-79.78274911474062,40.458995685693715,271.7960482041836,0.009121332317590714,0.00869139563292265,-0.8061562180519104,0.5915687084197998,0.00372848224976956,-0.0074669026181961315,0.023811632795253813,0.010308664292097092,0.002782720606774092,-0.001929306075908244,-0.0860743674170226,-0.2291269825771451,-9.804186113476751
15.3,0.6000000238418579,77.0,25.68456840515137,0.4771064221858978,-79.78274917347504,40.45899566776242,271.80148992943765,0.009322337806224823,0.00875441450625658,-0.8061268925666809,0.5916045308113098,0.006028196203695302,0.002407130276700861,0.022794310149681092,0.03391940146684646,-0.009457040578126907,-0.00012214902380947024,0.013868212524103002,-0.3246113929152489,-9.7910181838274
15.49,0.6000000238418579,76.0,24.465070724487305,22.38424301147461,-79.7827492439597,40.45899567034751,271.809654484272,0.00913990382105112,0.008692558854818344,-0.8061603307723999,0.5915626883506775,0.0009807176728943432,-0.0032384082819901013,0.022074556113098786,0.01164113823324442,-0.0005455286591313778,-0.004633637145161629,-0.05096369208768009,-0.25936799621209505,-9.799352805018426
15.6,0.6000000238418579,77.0,25.539329528808594,1.669872522354126,-79.78274925329471,40.4589956681693,271.8120299379826,0.00935921724885702,0.008747361600399017,-0.8061432838439941,0.5915817618370056,0.01090814516941679,-0.010421377628513868,0.02444386845978913,0.03508198261260986,0.022035699337720868,0.03442932292819023,-0.021478869616985318,-0.2656935871951282,-9.815883468389512
15.8,0.6000000238418579,77.0,25.70710563659668,0.2306014448404312,-79.78274929856913,40.45899564778282,271.8225182693005,0.009292428381741049,0.008759154938161373,-0.8061183094978333,0.5916166305541992,0.003487680371963123,-0.0031579473255085515,0.023965756837201563,-0.0010960910003632307,-0.02134077064692974,-0.017070746049284942,-0.016510016532847657,-0.4140260279551149,-9.810286513566973
15.89,0.6000000238418579,77.0,25.708356857299805,0.3021674156188965,-79.78274930299699,40.45899564498733,271.8249741892815,0.009190080687403679,0.00865057110786438,-0.8061416745185852,0.5915880799293518,0.003103662199884461,-0.0028130022074483053,0.024735730772819303,-0.003160787979140877,0.00719913002103567,0.002963188337162137,-0.02958052951376885,-0.2272657590173185,-9.810392932891846
16.1,0.6000000238418579,73.0,25.45794677734375,4.357572078704834,-79.78274934230599,40.45899569793311,271.83413685369493,0.009098253212869169,0.008718396537005901,-0.8061294555664062,0.5916050672531128,-0.006363526760256472,-0.00428959157711991,0.02507779928984086,-0.009099585935473442,-0.002345516113564372,0.01873568817973137,-0.04149584395810962,-0.2771406630054116,-9.82081384062767
16.2,0.6000000238418579,72.0,25.374059677124023,5.462868690490723,-79.78274934712177,40.45899570363253,271.83661980438234,0.009152715094387531,0.008659928105771542,-0.8061556816101074,0.5915693640708923,-0.005423533324135322,-0.0064826471713619535,0.02444087004154791,-0.003693674923852086,0.014394297264516354,-0.0022197477519512177,-0.0008603081479668617,-0.2529708316549659,-9.819051489830017
16.39,0.6000000238418579,72.0,25.20378112792969,7.792738437652588,-79.78274938239781,40.45899569880053,271.8477948408127,0.00944335665553808,0.00875013042241335,-0.8061329126358032,0.5915944576263428,0.00013354064279480518,-0.003498693644182109,0.03146992331404839,0.014283686876296997,0.07734673470258713,0.04953829571604729,-0.04142712090164423,-0.11580685601569712,-9.77372445881367
16.5,0.699999988079071,69.0,25.12114524841309,8.87417984008789,-79.78274940187242,40.458995690441974,271.85679526138307,0.010016803629696373,0.009161610156297684,-0.8061522841453552,0.5915524363517761,0.005857009439501798,-0.0074569940785370065,0.02884608028501618,0.04796198755502702,0.059492100030183785,-0.04112982377409935,0.00679971223580651,-0.287438870575279,-9.841884866952896
16.69,0.699999988079071,67.0,24.889516830444336,12.205972671508787,-79.78274941424881,40.45899568189984,271.86318255472185,0.01163959689438343,0.010365291498601437,-0.806082546710968,0.591597855091095,0.010332171555004077,-0.013601865371481595,0.02992848713524332,0.0882500410079956,-0.09836355596780776,0.011465429328382015,-0.04993823664262891,-0.2641651067510247,-9.782903417944908
16.79,0.699999988079071,66.0,24.774328231811523,13.581629753112793,-79.78274944767179,40.458995717855814,271.8681168060303,0.012778637930750849,0.011132538318634031,-0.8061746954917908,0.5914348959922789,-0.006580330486996682,-0.0064854691131310685,0.03252529105019982,-0.025704700499773026,0.011411850340664387,0.05906544625759125,-0.09517463581636547,-0.4588443146646023,-9.81670909523964
17.0,0.8000000119209291,65.0,24.52642059326172,17.064506530761722,-79.78274944318841,40.45899570977423,271.8810116450787,0.01426501013338566,0.012999438680708408,-0.8058436512947083,0.5918138027191162,0.00538667877805054,0.00869111673620457,0.03457363601416835,0.07948743551969527,0.07837284356355667,-0.21543021500110626,0.13380468629300596,-0.3183360514417291,-9.84072594881058
17.09,0.8000000119209291,63.0,24.37116622924805,19.108112335205078,-79.782749430084,40.45899571768405,271.885718474865,0.012472099624574184,0.012217910028994085,-0.8061259388923645,0.5914863348007202,-0.020054682475238457,0.01147934825467573,0.06313976041543824,-0.05848807841539382,0.030981864780187607,-0.02028118260204792,0.1409837058093399,-0.5010848198086023,-10.081787939071656
17.3,0.8999999761581421,59.0,24.10197639465332,22.408098220825195,-79.78274942445168,40.45899565265454,271.9072580735684,-0.003655710257589817,0.00016920659982133654,-0.8054834008216858,0.5926070213317871,-0.0016722551484899568,0.025410357577270892,0.17425322417540698,-0.2691777050495148,0.06286244839429855,-0.08472584933042526,0.06604581284802408,-0.3922074716538191,-10.15928810477257
17.4,0.8999999761581421,58.0,24.461315155029297,16.046680450439453,-79.78274938620379,40.458995637527316,271.9297958712578,-0.009674567729234695,-0.007031612563878298,-0.8046393990516663,0.5936434268951416,-0.00097235007769711,0.03880742893390178,0.2869941396496362,-0.18008628487586975,0.05141209065914154,-0.1216726005077362,0.14380960118025546,0.2526723130233586,-10.876242113113403
17.59,1.0,58.0,24.411231994628906,17.55751609802246,-79.78274926241043,40.458995472851015,271.9814018111229,-0.0012192358262836929,-0.0021505157928913827,-0.8030998706817627,0.5958393216133118,0.002476585154891988,0.06999595461475433,0.2929821936278291,0.1249799132347107,-0.08482950925827026,-0.037952419370412833,0.21383947379887105,0.07949794001877307,-10.452803127765657
17.7,1.0,61.0,24.362401962280273,17.978960037231445,-79.78274918857376,40.458995455704475,272.0091843109131,0.003625432029366493,-3.2138785172719515e-05,-0.8026175498962402,0.5964829921722412,-0.0015275299839832884,0.07690146861106623,0.26644900979867325,-0.006307472474873066,0.005125688388943672,-0.048356860876083374,0.19111856421455745,-0.015496898484416306,-9.60579476416111
17.89,1.100000023841858,60.0,24.33360481262207,18.98883628845215,-79.78274916959809,40.458995576588,272.0364206533432,-4.826288932235912e-05,-0.004173057153820992,-0.8027608394622803,0.5962866544723511,0.010859096749331136,0.06261376248094651,0.17113159871287922,-0.09663086384534836,-0.06433186680078506,0.03008807636797428,0.2298133543320001,0.01672943215817213,-9.54218816757202
18.0,1.2000000476837158,61.0,24.40121650695801,17.27125358581543,-79.78274897536926,40.45899543477157,272.0591485004425,0.0005928828613832593,-0.006041820626705885,-0.8031592965126038,0.5957335233688354,0.02905023212392238,0.08235862567246928,0.14436899725970362,-0.012796266004443169,0.00854234118014574,-0.022943807765841484,0.2162425515241921,0.08638199491426349,-9.621798008680344
18.19,1.2999999523162842,64.0,24.22092056274414,20.8177433013916,-79.78274881938272,40.45899534034539,272.08269692468645,0.0005013759946450591,-0.007810093928128481,-0.8036674261093141,0.5950273275375366,0.03170688251064032,0.08994775026939755,0.08739910463155147,-0.01867057755589485,-0.07628867775201797,0.06954619288444519,0.15087427108548582,0.08492672343738378,-9.509006388187409
18.29,1.2999999523162842,67.0,24.20214080810547,19.259197235107425,-79.78274859436966,40.45899539790845,272.1185165743828,-0.00014508925960399208,-0.0074506732635200015,-0.8039472699165344,0.5946539640426636,0.008798798411348691,0.087422818742352,0.11338569932565735,-0.07344209402799606,-0.02518818899989128,0.026105636730790138,0.12442701319232585,0.1226940172445029,-9.772531626820564
18.5,1.399999976158142,68.0,24.177099227905273,20.062326431274414,-79.78274829963014,40.45899531799327,272.16941119241716,-0.0038841427303850646,-0.01057751663029194,-0.8049551248550415,0.593228816986084,0.019002287159268744,0.08318144953960976,0.17408268411774475,0.04593227803707123,0.05368945002555847,0.03062201291322708,0.09307891150005164,0.11771632824093105,-9.99249276995659
18.6,1.399999976158142,69.0,24.27475929260254,18.74233055114746,-79.78274821078118,40.45899528818115,272.1878378491402,-0.003185795387253165,-0.011535894125699995,-0.8055296540260315,0.5924345850944519,0.015214999655795853,0.0826766520135706,0.1903711751663928,0.06787825375795364,0.02870607003569603,0.02826158702373505,0.1200384494382888,0.13990026243031026,-9.990577222108842
18.79,1.5,73.0,24.18085479736328,20.33268547058105,-79.782748064748,40.45899512854616,272.2422295908928,-0.0031719261314719915,-0.012767817825078964,-0.8066919445991516,0.5908256769180298,0.023246916016178155,0.06840934730491012,0.22118769807681332,0.014649766497313975,-0.008221952244639397,0.03467082232236862,0.10460275028832257,0.09655697241425516,-10.00354283809662
18.9,1.5,74.0,24.21716499328613,19.34666633605957,-79.78274799490141,40.45899510284139,272.26503152656556,-0.003326951060444117,-0.01280251517891884,-0.8070014715194702,0.5904013514518738,0.01220570553277498,0.06383574075026355,0.23568644350623585,0.006958855781704186,-0.017946507781744003,0.04150725528597832,0.12878932842984794,0.1510905632469803,-10.010791046619417
19.09,1.5,72.0,24.17960357666016,19.267148971557614,-79.78274771504141,40.4589951706664,272.3270653586388,-0.002241719514131546,-0.012427473440766336,-0.8067453503608704,0.5907644629478455,-0.025260069583013613,0.06352268996198543,0.25961542252256303,-0.03626078739762306,-0.054137837141752236,-0.03388505056500435,0.12947354402393102,0.1586436949297786,-10.007176297903062
19.19,1.600000023841858,72.0,24.13828468322754,20.730274200439453,-79.78274764219488,40.45899518107112,272.3534122209549,-0.002427609171718359,-0.012242286466062069,-0.8061422109603882,0.5915902853012085,-0.035884107807294216,0.05853042000202039,0.2683381929661698,-0.05902351066470146,-0.02740276604890824,-0.10344812273979187,0.11573332727886736,0.2087677085772157,-9.87613317847252
19.4,1.600000023841858,70.0,24.840686798095703,12.444525718688965,-79.78274743330441,40.45899518552093,272.41964812088014,0.0009520604507997633,-0.009651143103837969,-0.8048940300941467,0.5933393836021423,-0.023354084936618492,0.04169053147192834,0.2680925774622309,0.02396504022181034,0.006309671327471733,-0.025733644142746925,0.09122630344703794,0.2243107406795025,-9.983210899829864
19.5,1.600000023841858,69.0,24.059406280517567,20.746177673339844,-79.78274733137775,40.45899530217041,272.4535418252945,0.00026596282259561116,-0.008121970109641552,-0.8045052886009216,0.5938900113105774,-0.034381680983443436,0.02650512136250833,0.09572627295920756,0.04318015649914742,-0.0850505530834198,-0.02014223299920559,0.17721105314791202,0.11215862285345793,-8.532897350192071
19.69,1.600000023841858,66.0,23.79397201538086,25.87507247924805,-79.7827472577533,40.458995350443075,272.4637022714615,-0.00045240123290568585,-0.002538174856454134,-0.8041427731513977,0.5944306254386902,-0.03412340227655351,0.02599512916706105,0.08339271552421268,-0.024526042863726616,-0.007785611785948275,-0.04116780683398247,0.10433161307126283,0.15823504764586688,-9.097146059274673
19.79,1.600000023841858,64.0,23.66751480102539,26.209047317504893,-79.78274704090026,40.458995363497294,272.52937335777284,-0.0018948767101392148,-0.0028439408633857965,-0.8040208220481873,0.5945914387702942,-0.037949408793517006,0.037571118652162255,0.2676748125570912,-0.1039683073759079,-0.011923848651349545,-0.03775521367788315,0.10258667601272464,0.16543947514146568,-10.848253830671313
20.0,1.600000023841858,59.0,23.52102470397949,29.206865310668945,-79.78274675698694,40.45899520023376,272.6016474466324,-0.0036898190155625343,-0.0069773239083588115,-0.8038331866264343,0.5948024392127991,-0.026574432313988858,0.05684970125101978,0.5573305755574828,-0.11687882989645006,0.05860170349478721,-0.10811466723680496,0.18302581675350668,-0.05184747132472694,-11.321171954870223
20.1,1.7000000476837158,59.0,23.636213302612305,27.46542739868164,-79.78274669005313,40.458995202550454,272.66703457641603,-0.0035630592610687017,-0.009185419417917728,-0.8035920262336731,0.5950989723205566,0.0008960281502858615,0.06058592466428001,0.7569640035655043,0.11708319932222365,0.05074864625930786,-0.04386955127120018,0.11790940512903035,0.17596853809431195,-11.75532888650894
20.29,1.7000000476837158,58.0,23.43713760375977,28.523012161254893,-79.78274638714586,40.45899529994497,272.87123973178865,-0.0045454902574419975,-0.00996890850365162,-0.803210973739624,0.5955939888954163,-0.003858456135954261,0.0648951868826714,1.1862697017389807,0.10926636308431624,0.06595339626073837,0.08256302773952484,0.10854597548022868,0.18034910760819914,-11.920646045207976
20.4,1.7999999523162842,57.0,23.517269134521484,28.713855743408203,-79.78274631578141,40.4589953205966,273.0017746191025,-0.004455586429685354,-0.009379938244819641,-0.8031094074249268,0.5957412123680115,-0.010434750314050252,0.06427708856054133,1.4215056189782411,0.07876728475093843,0.02974268607795238,0.036536145955324166,0.05222717032302171,0.15431450782343745,-12.084639394283295
20.5,1.8999999761581416,58.0,23.402080535888672,31.44926643371582,-79.78274608866856,40.45899538095838,273.1655551891327,-0.00448909355327487,-0.008796815760433674,-0.8030356168746948,0.5958492755889893,-0.01863893632805981,0.061581873525458325,1.6268862686797652,0.08810444176197052,0.02690074034035206,-0.017693344503641132,0.07075685511343181,0.2159052219986916,-12.02688527584076
20.69,2.0,60.0,23.2180290222168,31.58444595336914,-79.7827459387852,40.45899545438725,273.5411390762329,-0.005077654495835304,-0.005213778931647539,-0.8031282424926758,0.595761775970459,-0.028101119574938625,0.06637295801343222,2.162360544140125,-0.024466147646307945,-0.08135891705751419,0.07860718667507173,0.02961853641550988,-0.0714909090846777,-12.604805359840393
20.89,2.0999999046325684,60.0,23.32695770263672,30.200838088989247,-79.78274565148963,40.45899560629704,274.0283910732269,-0.0028425969649106264,-0.002198677742853761,-0.8031970858573914,0.5957026481628418,-0.050990135472180786,0.06276004312791432,2.664212476500321,-0.05786756053566933,0.004546873737126589,-0.043815288692712784,0.07357630027458073,0.21809736141935,-12.523000473976134
20.99,2.200000047683716,62.0,23.602407455444336,24.80158233642578,-79.78274546079551,40.45899575945325,274.3125800590515,-0.002704424085095525,-0.001963012153282761,-0.8032081723213196,0.5956891775131226,-0.050967204433341184,0.06929517310530492,2.8838984422276766,-0.0339752733707428,-0.013902504928410052,0.0334513857960701,0.06106366991065443,0.06277875876054168,-12.121714249849319
21.09,2.4000000953674316,61.0,23.86033058166504,21.93894386291504,-79.78274535539599,40.45899580165291,274.60969896125795,-0.0029483453836292037,-0.002595563651993871,-0.8032822012901306,0.5955857038497925,-0.044127797723284366,0.07604583741289117,3.043743761603253,0.02510569803416729,0.004356077406555414,0.06135793402791024,0.024153045730199663,-0.013830437455326321,-11.4966422188282
21.29,2.5,62.0,23.73637771606445,24.35628318786621,-79.7827450332745,40.458995934011455,275.25223607826234,-0.002062987769022584,-0.0039593526162207135,-0.8036907911300659,0.5950304269790649,-0.05020418931269581,0.0942237035099297,3.1939805205651424,-0.07530683279037476,0.016517968848347664,-0.04691062495112418,0.11663619219325486,0.2975749458186329,-10.69373647928238
21.39,2.700000047683716,64.0,23.86408615112305,22.57508659362793,-79.78274490964908,40.45899596504528,275.5752996902466,-0.0015044559258967636,-0.004265469033271074,-0.803948700428009,0.5946816205978394,-0.03404306046145287,0.10721165464733463,3.2603790725185413,0.028539428487420082,0.008822398260235786,-0.02308674156665802,0.07023447491694243,0.18804919626563787,-10.472536311149597
21.59,2.799999952316284,64.0,23.93420219421387,21.25509262084961,-79.78274463845753,40.45899619513864,276.2368034820557,-0.0017741447081789374,-0.005661487579345703,-0.804436981678009,0.5940083861351013,-0.05760222247975905,0.10822753149843932,3.2828440770735523,-0.10261037200689316,0.048103883862495415,-0.07146119326353073,-0.009897581934928894,0.3224087833240629,-9.901893671751024
21.79,2.9000000953674316,65.0,23.849061965942386,21.636775970458984,-79.78274451053954,40.45899623557879,276.56425089645387,-0.0013611394679173827,-0.00748815294355154,-0.80440753698349,0.5940291881561279,-0.04833953486181782,0.11396819787614315,3.2655774110908697,-0.10380561649799347,-0.012148406356573105,-0.04207402467727661,0.10393538198433816,0.08737889036536217,-9.70314915060997
21.9,2.9000000953674316,65.0,23.88662338256836,21.54135513305664,-79.78274412836427,40.45899646536727,277.22902197647096,-0.001082263421267271,-0.010026181116700172,-0.8040933609008789,0.5944176316261292,-0.05256259553314251,0.13218171242787968,3.2153819328697355,-0.0077116298489272594,-0.015152039937675,-0.007274905685335399,0.08231818003579974,0.04301267565228045,-9.565360683202744
22.0,2.9000000953674316,64.0,23.77393913269043,24.411945343017567,-79.78274384386098,40.45899655031735,277.5833320121765,-0.0021151057444512844,-0.01088772900402546,-0.8038393259048462,0.5947430729866028,-0.058224157820190574,0.13349889991639466,3.1935759411157365,-0.008138473145663738,-0.0800420492887497,0.01894441619515419,0.13528551192954186,0.005171697791665793,-9.625173021554946
22.19,3.0,65.0,23.74639320373535,22.78183174133301,-79.78274359247537,40.45899669335007,278.22144551086427,-0.00025671528419479733,-0.011364665813744068,-0.8035269379615784,0.5951598286628723,-0.06449786094074161,0.12022879129919392,3.1886400559062675,-0.00505525805056095,0.047193117439746864,-0.04632500186562538,0.07265313455834985,0.2334393954835832,-9.756048910617828
22.29,3.0,69.0,23.84530639648437,22.877254486083984,-79.7827434372049,40.458996861350045,278.52252001571657,0.0012627164833247662,-0.01121846865862608,-0.8033000826835632,0.5954675078392029,-0.07448645114008139,0.11200191834147677,3.160393861068444,0.003146747360005975,0.03929036110639572,-0.011904624290764332,0.05067892811726779,0.07861327456310392,-9.746478188037873
22.5,3.0,70.0,23.78771209716797,22.996530532836914,-79.78274320177603,40.458997116309774,279.11985583114625,0.002271752804517746,-0.007588959764689206,-0.8030073046684265,0.5959165692329407,-0.10287556781572953,0.08921590616365288,3.1110682886768366,-0.03908234462141992,-0.12894456088542938,-0.058085642755031586,0.13387119837105274,0.053564679790288214,-9.775499673485756
22.69,2.9000000953674316,72.0,23.93670463562012,19.76015853881836,-79.78274305473234,40.45899730257384,279.7432856063843,0.0022454983554780483,-0.0019399323500692844,-0.8032259941101074,0.5956670641899109,-0.10993328093252068,0.03737241009690258,3.1038071504581257,-0.014029356651008127,-0.034628260880708694,-0.02368427813053131,-0.00880190508440137,0.06809531675186009,-9.724752858281137
22.79,2.9000000953674316,73.0,23.702571868896484,23.632671356201172,-79.78274296305209,40.45899749463715,279.9993032913208,0.0035176989622414108,-0.003703033551573753,-0.8038273453712463,0.5948408246040344,-0.1058701434316449,0.016581332471296048,3.0217403274862886,0.02494206465780735,0.028231900185346607,0.016696278005838394,0.05838302303105593,0.02462458484340459,-9.562534139156345
22.89,2.9000000953674316,74.0,23.835289001464844,21.533403396606445,-79.78274293254823,40.45899758141653,280.300582359314,0.00474090315401554,-0.0058515723794698715,-0.8043173551559448,0.5941522717475891,-0.09783197695034156,0.02277757154343281,3.005683308542273,0.0261499471962452,0.06332898139953612,-0.04225300997495651,0.08994969181716443,0.09045429739169776,-9.638145069479943
23.09,2.9000000953674316,75.0,23.738882064819336,23.17146873474121,-79.78274327605716,40.45899786024205,280.7881330947876,0.002721654716879129,-0.005522787570953369,-0.8040058016777039,0.5945897102355957,-0.09027006598271163,-0.0047659374858706,2.8974212050044215,-0.1316879391670227,-0.05658320337533952,-0.10437425225973128,0.02544227683916688,0.1970386507920921,-9.666200010180471
23.29,2.799999952316284,78.0,23.8365421295166,23.068096160888672,-79.78274331286694,40.45899794230109,281.0779327850342,0.0018768142908811567,-0.00477302260696888,-0.8037309050559998,0.5949710011482239,-0.06791709029699032,-0.025054236557136768,2.9035138605172746,-0.0053641218692064285,-0.06285905838012695,0.02903957292437553,0.07073603354394438,0.0008304508030414581,-9.866278281211851
23.4,2.799999952316284,81.0,23.861581802368164,21.040393829345703,-79.78274313110234,40.45899793010248,281.75571102905275,0.002412743167951703,-0.0025435041170567274,-0.8032518625259399,0.5956292748451233,-0.06007986731832736,-0.03198280069165234,2.9114735101546327,-0.009818101301789284,-0.028240686282515526,-0.039023399353027344,0.07372792588546873,0.07700444972142577,-9.76521325170994
23.59,2.799999952316284,84.0,23.796476364135746,22.670507431030273,-79.78274286357689,40.45899781719642,282.4615473251343,0.004652242176234722,-0.0047320444136858,-0.802489161491394,0.5966298580169678,-0.04171633573930531,-0.02476552145324708,2.902827128147162,0.04717971757054329,0.11093699187040328,-0.0032648819033056498,0.05854829366784544,-0.002114809993654489,-9.574899830818175
23.71,2.700000047683716,87.0,23.847810745239247,21.636775970458984,-79.78274290720904,40.458997862248495,282.75095505523683,0.006125491112470628,-0.006364536937326193,-0.8023052811622621,0.5968486666679382,-0.04069942599916748,-0.014042308050099341,2.89049297344888,0.02242179773747921,0.07258611172437668,-0.032019242644310004,0.05931009907275439,0.0658314164634794,-9.646956823468207
23.79,2.700000047683716,91.0,23.85657501220703,22.193401336669922,-79.78274268632693,40.45899778972891,283.16659493255617,0.006804734468460083,-0.0070165847428143024,-0.8021766543388367,0.5970068573951721,-0.03411049054609271,-0.005518448218629754,2.9274759415952327,-0.03666890040040016,-0.03286568447947502,-0.037338487803936005,0.107809007037431,0.050656937104649837,-9.713384701609613
23.99,2.5999999046325684,93.0,23.817760467529297,21.604969024658203,-79.78274234754647,40.4589977249871,283.8654207687378,0.004274265840649605,-0.005228656344115734,-0.8018396496772766,0.5975010991096497,-0.019823049539785864,0.003834309187880483,2.960408102886704,0.00946008786559105,0.02601911686360836,-0.050756022334098816,0.06534172585699707,0.11486602074466648,-9.760925488471985
24.09,2.4000000953674316,97.0,23.756410598754893,22.85339736938477,-79.78274240082685,40.45899774538538,284.16101403045656,0.0037486120127141476,-0.004464211873710156,-0.8017469644546509,0.5976352095603943,-0.010714821618150398,-0.014083087613629903,2.952498267981768,-0.0025059343315660954,-0.025059832260012627,-0.032598122954368584,0.12901493959128854,0.08817336251959207,-9.782011132836342
24.3,2.299999952316284,100.0,23.808996200561523,21.326658248901367,-79.78274214118511,40.458997634615656,284.83697457122804,0.006318944040685892,-0.0021072803065180787,-0.8029634356498718,0.5959911942481995,0.009574256360709207,0.0037997647189297904,2.9967340806267764,0.015993837267160416,0.04774024337530136,0.05485167354345322,0.1376939800567925,0.01029395006597042,-9.885458317995072
24.49,2.0,109.0,23.718849182128906,24.18929672241211,-79.78274205440759,40.458997584338704,285.5134462814331,0.004979893099516629,-0.004809070378541946,-0.8039963245391846,0.5945940017700195,0.006246055217680047,0.01748367368962533,3.0057818454489285,-0.0926009938120842,-0.0033791325986385345,-0.04476039111614226,0.1661637989804149,0.09397861526347698,-9.739881359338758
24.6,1.7999999523162842,108.0,23.74764633178711,21.899185180664066,-79.782742085146,40.45899756157864,285.81354851531984,0.006163923069834709,-0.006413832772523165,-0.8036258220672607,0.5950684547424316,0.023933323379648583,0.025184643710570758,2.9963113116796114,-0.017612790688872337,0.03914668783545494,-0.0233063604682684,0.17461998743936422,0.07050283013842999,-9.708971807956695
24.8,1.7000000476837158,114.0,23.54731750488281,24.658451080322266,-79.78274211663789,40.45899753551852,286.1126064758301,0.00721735693514347,-0.007753668818622827,-0.8031939268112183,0.5956234335899353,0.031332219020103975,0.03558755839275446,2.98447153818019,-0.006800821516662836,0.08867013454437256,-0.032100848853588104,0.13234709420241414,0.0946871973015368,-9.656645075082778
24.9,1.7000000476837158,124.0,23.718849182128906,21.92304039001465,-79.78274189881914,40.458997482238864,286.7839006881714,0.003584991209208965,-0.009564850479364395,-0.8020145893096924,0.5972170829772949,0.042747776047817126,0.058134569161751824,3.0162471465855463,-0.015904905274510384,-0.056744065135717385,0.03401639685034752,0.2093481543660164,-0.14310673845000565,-9.88905786395073
25.09,1.7000000476837158,134.0,23.7000675201416,23.64857482910156,-79.78274151703913,40.458997317171786,287.4531359176636,0.007975921034812927,0.0016513060545548794,-0.8010844588279724,0.5984960198402405,0.05711656618371293,0.06204756895625575,3.026009777133902,0.08160453289747238,-0.06544802337884903,0.009377164766192436,0.15194700675085188,-0.054859180245548485,-9.641040610671043
25.19,1.7999999523162842,131.0,23.77769470214844,22.43195343017578,-79.78274150886942,40.45899725738757,287.7552151184082,0.011564720422029495,0.0036400358658283953,-0.8016514778137207,0.5976688265800476,0.021362593768961616,0.05011568346935001,3.017860807084749,-0.015363638289272785,0.07371413707733154,0.02504268474876881,0.09725071714259684,-0.022371992978733032,-9.691774562001227
25.29,1.7000000476837158,120.0,23.778947830200195,22.718217849731445,-79.78274133747159,40.45899714963989,288.12050289916994,0.013820103369653223,0.0017133617075160144,-0.8029642701148987,0.5958645343780518,0.023764810941914183,0.05455483270470583,3.041637920126962,-0.00963034015148878,0.08605530112981796,0.02536880038678646,0.08451094072312118,-0.018574096220545483,-9.767443964481354
25.49,1.7000000476837158,136.0,23.79772758483887,21.35846519470215,-79.78274117698216,40.458997100378475,288.7804645996094,0.008616457693278791,-0.010006754659116268,-0.8027697205543518,0.5961430072784424,0.06316777732295155,0.09167291808845332,3.0184309317535014,-0.08589614182710648,0.058331284672021866,-0.005797589663416147,0.1964155386015773,-0.0563627323647961,-9.552041310667992
25.59,1.8999999761581416,280.0,23.666261672973643,23.219179153442386,-79.78274118684033,40.45899699547885,289.0810207824707,0.004077745135873556,-0.013304878026247023,-0.8017868399620056,0.5974481701850891,0.11323707504644198,0.1048614003352778,2.9938000801513245,-0.061102442443370826,-0.03249901533126831,-0.0912710502743721,0.2434524416550994,0.16114422015845775,-9.583139142394066
25.79,2.0,295.0,23.690052032470703,23.56905746459961,-79.78274104618036,40.45899677098935,289.7314095001221,0.0037992233410477643,-0.010051938705146313,-0.8001353144645691,0.5997233986854553,0.15927866017276093,0.09133956072289667,3.025717692474472,0.13197612762451172,0.015482038259506226,0.01449110731482506,0.24829572692513466,-0.042510801823809743,-9.87610628128052
25.99,2.299999952316284,311.0,23.748897552490234,23.34640884399414,-79.78274078141065,40.4589966214102,290.37407154846187,0.0002536979445721954,-0.011580917984247208,-0.7994435429573059,0.6006296277046204,0.11707244350314948,0.10989141106609693,3.0671294594219862,-0.042479582130908966,-0.05596010759472847,-0.026879264041781425,0.354231633245945,0.04524685563985258,-9.983402688503269
26.1,2.5,314.0,23.642473220825195,24.39604187011719,-79.78274074716083,40.458996530515954,290.68140454101564,-0.0015400020638480785,-0.01258678175508976,-0.7996389865875244,0.600347101688385,0.13260273044957135,0.11784782845303148,3.0739530396431647,0.06045878306031228,0.03178678080439568,0.02546187862753868,0.3135055569559336,-0.04936448774300516,-9.924023044109346
26.19,2.700000047683716,308.0,23.72010040283203,21.85147476196289,-79.78274070205296,40.45899644309353,290.98979420471187,-0.0014809536514803767,-0.013358533382415771,-0.8001935482025146,0.5995912551879883,0.12894959534789285,0.1251792542485179,3.087151176321915,0.011919411830604076,0.02477805875241756,0.05207444354891777,0.26283959778025745,0.003773272214457393,-9.944087179899217
26.39,2.700000047683716,318.0,23.63746452331543,22.46376037597656,-79.7827406304145,40.458996186469825,291.6317142944336,0.003934411332011223,-0.016147622838616368,-0.8012275099754333,0.5981290936470032,0.15879621862882742,0.12136059961700668,3.0788963555704894,0.20405390858650208,0.08590083569288254,0.037767183035612106,0.26418385438621045,0.07273568079806865,-9.799622361660004
26.59,2.799999952316284,332.0,23.666261672973643,22.376291275024414,-79.78274018806798,40.45899616770225,292.2619976501465,0.006870977114886046,-0.01481515634804964,-0.8011540770530701,0.5982353091239929,0.0931082007236598,0.16348915566617553,3.0482270556432405,-0.09430701285600662,-0.029176654294133183,-0.0934109091758728,0.2536529276333749,0.15019205633550886,-9.684049805402756
26.69,2.799999952316284,329.0,23.72761344909668,22.034364700317386,-79.78274014587149,40.45899607965502,292.5663380126953,0.0033740929793566465,-0.01556629315018654,-0.8005542159080505,0.5990486145019531,0.10342534727003468,0.1596226057599995,3.0296211020492043,-0.21213513612747192,-0.0828198492527008,-0.056671246886253364,0.2911425517871976,0.2336817077547312,-9.627225978970527
26.79,2.9000000953674316,323.0,23.5786190032959,24.141586303710927,-79.78274007484914,40.45899596948434,292.892153213501,-0.0008525101002305746,-0.017432643100619316,-0.8000593781471252,0.5996670722961426,0.14707253429040698,0.13585901506182305,3.0017572118987053,-0.061500169336795814,0.006016057915985584,-0.058199543505907066,0.3316227526590228,0.2545643623732031,-9.549335219264027
27.0,3.0999999046325684,323.0,23.5886344909668,23.839418411254893,-79.7827398529186,40.45899580593525,293.52067417907716,-0.007136579602956772,-0.020011957734823227,-0.7993693947792053,0.6004641652107239,0.1956282448411284,0.13604664474807718,3.0026536375027364,-0.11712466925382616,-0.010226479731500149,-0.08674865961074829,0.31425714343786243,0.4328395539522171,-9.764753660559654
27.09,3.0999999046325684,325.0,23.59239196777344,23.24303436279297,-79.78273981746442,40.458995699282546,293.8217186431885,-0.007375934161245824,-0.02305242978036404,-0.799211323261261,0.6005626916885376,0.21269295171713146,0.13618852720868901,3.00399467762168,0.056022945791482925,-0.016875440254807472,0.13506725430488584,0.3457115456834436,0.08651372171938419,-9.87974091053009
27.3,3.0999999046325684,328.0,23.598651885986328,23.92688751220703,-79.78273950113417,40.45899545433571,294.4425510864258,-0.004087903071194886,-0.027881670743227,-0.7999244928359985,0.5994386672973633,0.20671528161271074,0.17977232845126734,3.001176516321937,-0.039346467703580856,0.06826630234718323,-0.1190047338604927,0.3945179623737932,0.4900078544765711,-9.730626971125604
27.4,3.2000000476837163,332.0,23.48221015930176,24.84134101867676,-79.78273944206691,40.458995363172015,294.7432732086182,-0.0029876565095037213,-0.029814412817358967,-0.8001255393028259,0.5990837812423706,0.20191371639374972,0.19133962258378454,2.994167304982639,0.06619876623153688,0.07934755086898804,0.056438971310853965,0.3859798946231604,0.2957501577213407,-9.801022185087202
27.59,3.2000000476837163,333.0,23.633708953857425,23.529298782348643,-79.78273918127141,40.45899521756817,295.36304516601564,-0.0008543548174202442,-0.028748022392392162,-0.8003130555152893,0.598892331123352,0.1644385170098171,0.20271416379313534,3.018594411447745,-0.1552739292383194,-0.13147884607315066,0.056719440966844566,0.33428857136517764,0.18417918004095554,-9.945062495470047
27.69,3.2000000476837163,334.0,23.47970771789551,25.31049728393555,-79.78273913636416,40.4589951561436,295.6667236785889,-0.002699323231354356,-0.029409194365143776,-0.8004634976387024,0.5986536145210266,0.1680286316116448,0.18808650493959087,3.0307073982891364,0.1205761730670929,0.029829256236553192,0.002648028312250972,0.4387028494477273,0.17737720543518665,-9.935911602973938
27.9,3.299999952316284,333.0,23.583627700805664,22.718217849731445,-79.78273887326603,40.45899497339214,296.28373379516603,-0.003012793604284525,-0.028984520584344864,-0.8007082939147949,0.5983453989028931,0.14970983206724453,0.17376500031438108,3.0507078811656703,-0.09102006256580353,-0.06283645331859589,-0.0038063554093241687,0.3949214202538133,0.24413177847862244,-9.882832918167113
28.0,3.299999952316284,331.0,23.48471450805664,25.80350685119629,-79.78273866200108,40.4589949651828,296.59400410461427,-0.002407046500593424,-0.029016025364398963,-0.8006086349487305,0.5984799265861511,0.143509134464051,0.17246847269185642,3.0337751423781802,0.06260982155799866,0.026990083977580067,0.05583438277244568,0.4039528833702207,0.18772047311067586,-9.772752066850662
28.2,3.299999952316284,331.0,23.44089317321777,24.57893371582031,-79.78273859073751,40.458994934475335,297.2007488708496,-0.0013737935805693267,-0.02731951326131821,-0.8004968762397766,0.5987125039100647,0.11955218495284753,0.16123678433785307,3.012621963699408,0.0973612368106842,-0.02832226082682609,0.021874474361538887,0.4489242209494114,0.15308248121291398,-9.712904645204542
28.39,3.299999952316284,332.0,23.474699020385746,24.920860290527344,-79.78273847629701,40.45899490441737,297.81448979187013,0.001205401960760355,-0.026460852473974228,-0.800714910030365,0.598459780216217,0.06540874103309276,0.13314004987279196,3.0250042329771323,-0.11228477954864502,-0.08767075091600418,-0.01689968816936016,0.3097166343033314,0.20869704863056546,-9.952764447927477
28.49,3.299999952316284,332.0,23.65249061584473,23.441829681396484,-79.7827383509748,40.45899490559074,298.13081402587886,0.00018813210772350436,-0.025977058336138725,-0.800857663154602,0.5982910990715027,0.08549815061157354,0.1261278188955474,3.045296955413723,0.09194232523441316,0.012518164701759815,0.08022156357765198,0.33226777363568544,0.09863889181986453,-9.94101388335228
28.59,3.299999952316284,332.0,23.47094345092773,24.316524505615234,-79.78273835621705,40.45899492589778,298.43470616149904,-0.002438864205032587,-0.02556280605494976,-0.8006876111030579,0.5985316038131714,0.05758517326402625,0.11850992138678484,3.02483605190486,-0.19014021754264832,-0.0938265398144722,-0.1655457764863968,0.31221566118299965,0.4714188250154257,-9.629950196743012
28.8,3.299999952316284,331.0,23.40959167480469,25.20712280273437,-79.78273824337029,40.45899498326222,299.05278248596187,-0.003742346074432135,-0.02270231768488884,-0.7995136976242065,0.6002071499824524,0.07412210389821196,0.0793034516580423,3.0314365228674465,0.12380993366241455,0.06474735587835312,0.002573070116341114,0.3343698111176491,0.25373550128191713,-9.883291339874267
28.89,3.299999952316284,328.0,23.53229331970215,23.86327362060547,-79.78273824727532,40.45899502775927,299.3569225769043,-0.003253255737945437,-0.02325990982353688,-0.7991198897361755,0.6007127165794373,0.045521484492944735,0.08218802630181897,3.047943302065435,-0.08432544767856598,-0.0005274632130749524,-0.08315049111843109,0.3764387735724449,0.3237730849161744,-9.928242394924164
29.09,3.4000000953674316,329.0,23.541057586669922,23.537250518798828,-79.78273810081227,40.458995074869314,299.97510762023927,-0.0014573545195162294,-0.022320743650197983,-0.7992182374000549,0.600624680519104,0.040028868172117836,0.09876343346733933,3.031329883180967,0.03693141788244248,-0.053422540426254266,0.09112507849931717,0.4210444774478673,0.0261304758489132,-9.775598491430284
29.29,3.4000000953674316,328.0,23.51226043701172,24.05411529541016,-79.78273797286153,40.45899518270183,300.59170574951173,0.0015356326475739481,-0.024591151624917984,-0.7994577884674072,0.6002168655395508,0.0030020824869899172,0.10517889370212667,3.0193902860752484,-0.09653788059949876,-0.0252024494111538,0.009264280088245869,0.4142223847657441,0.2182017159461976,-9.7138828843832
29.39,3.4000000953674316,327.0,23.41835594177246,25.46953201293945,-79.78273796190305,40.458995245702354,300.8934616546631,0.0020489164162427187,-0.024273291230201718,-0.7998262047767639,0.5997371673583984,0.011708203907079169,0.11714933469198599,3.0131083316164515,0.012210802175104618,0.0011657255236059427,-0.01987871155142784,0.39083816338330507,0.30277438133955004,-9.728799716234207
29.49,3.4000000953674316,327.0,23.473445892333984,23.60086441040039,-79.78273795210198,40.458995313595,301.19440884399415,0.002813008381053805,-0.0234640333801508,-0.8000022768974304,0.599531352519989,-0.00024652338491273906,0.10897167786925066,3.008445204274183,-0.03635510802268982,-0.08251503109931946,0.056653156876564026,0.4031237116456032,0.10390363343060018,-9.830825443267825
29.7,3.4000000953674316,327.0,23.430877685546875,24.41989707946777,-79.78273786628299,40.45899542962074,301.812900970459,0.007313648704439402,-0.021592477336525917,-0.7993422746658325,0.6004433631896973,-0.02129969452858826,0.1004796018180414,3.0222788238644314,-0.07103187590837479,-0.0286601297557354,-0.0492650531232357,0.3455909834057093,0.21022222174331548,-9.846380206346511
29.79,3.5,326.0,23.397071838378906,25.89097595214844,-79.78273764218311,40.458995522489225,302.12029881286617,0.005659015383571386,-0.02109973505139351,-0.7989611625671387,0.6009858250617981,-0.03492013999850438,0.10577292662152077,3.0260022974838217,-0.12865951657295227,-0.0314226895570755,-0.1657804697751999,0.3817602514475584,0.4542655793577433,-9.785144070982932
29.99,3.5,324.0,23.43838882446289,23.40207099914551,-79.78273751135109,40.4589956091999,302.7402233581543,0.0016957254847511651,-0.01922365091741085,-0.7987814545631409,0.6013118624687195,-0.01571653148765809,0.08760585809557005,3.061101635215685,-0.12477254122495653,-0.10781364887952803,0.015704577788710594,0.3802265633270145,0.22683540394529705,-10.061011612415315
30.19,3.5,322.0,23.37703895568848,24.6027889251709,-79.78273753239559,40.458995736050134,303.3552956085205,0.0032804016955196857,-0.017895547673106194,-0.799270749092102,0.6006956696510315,0.0013128441902307655,0.060925720577036185,3.064668402303066,0.10487573593854904,0.022660691291093826,0.11491265892982486,0.3096211785078049,-0.017277023904025555,-9.732060123682023
30.29,3.5,320.0,23.49222755432129,24.41989707946777,-79.78273743715535,40.458995798380776,303.66977352905275,0.005540995392948389,-0.01641296222805977,-0.7994856238365173,0.6004354953765869,-0.007395729321488291,0.06967913018407915,3.0567321925754687,0.07069183140993117,-0.02291739359498024,-0.1248369961977005,0.4383479600027204,0.32781036805361513,-9.803082159161569
30.4,3.5,320.0,23.447153091430664,23.990501403808594,-79.78273745433046,40.45899585337915,303.9761661987305,0.006059644743800163,-0.016938749700784683,-0.7988331317901611,0.6012837290763855,-0.02622425325382204,0.0704884226690861,3.0773917870269,-0.14428196847438812,-0.02155944518744945,0.03270333260297775,0.3987049342319369,0.052257808819413186,-10.002811936140061
30.6,3.5,321.0,23.400827407836914,25.000377655029297,-79.78273736391915,40.45899592450958,304.60407681274415,0.0012438214616850019,-0.019184121862053868,-0.7966448068618774,0.6041420698165894,0.02943241250347237,0.09147446039921434,3.10403036538026,-0.06929716467857361,-0.09596236050128937,0.054290547966957085,0.4132163347676397,0.33479625586420303,-9.990048633813856
30.79,3.5,321.0,23.52102470397949,23.21122741699219,-79.78273735756567,40.458995933632494,305.23733181762697,0.002168589271605015,-0.01872076280415058,-0.7975950837135315,0.6028988361358643,0.05005063871587746,0.06898725930355755,3.1853402052976274,-0.12556590139865875,0.0014105350710451605,0.06737876683473587,0.3602091687172652,0.36834308423101897,-10.241409909725188
30.9,3.5,322.0,23.57110595703125,23.250986099243164,-79.78273737357722,40.458995940818745,305.55651516723634,-0.0011837398633360865,-0.02532748319208622,-0.7997985482215881,0.5997327566146851,0.06323917384804825,0.0964778013412024,3.1905631447207083,-0.08823065459728241,-0.04939410835504532,0.10259787738323213,0.5362960581108928,0.1181009014416486,-9.983321996927264
30.99,3.5,323.0,23.47595024108887,21.74015045166016,-79.78273726615807,40.45899583466953,305.8803066711426,-0.002767134224995971,-0.027490902692079544,-0.8015571236610413,0.5972795486450195,0.10418090978095226,0.1093423661954073,3.1507162916363924,0.11527667939662932,0.05807009339332581,0.06322123855352403,0.4756029829010368,0.33082632534205914,-9.80970471560955
31.19,3.5,324.0,23.59990310668945,21.565210342407227,-79.78273727211014,40.458995848945435,306.51226849365236,9.563748608343305e-05,-0.02564035728573799,-0.8012067675590515,0.5978380441665649,0.09214758407437837,0.13669015713996854,3.1502377537224597,0.02641544118523597,0.02364937961101532,-0.0027363162953406572,0.4347383276000619,0.3609441637247801,-9.734491980671883
31.29,3.5,326.0,23.660001754760746,20.34063720703125,-79.78273713545553,40.45899581545753,306.831455657959,0.0007796846912242472,-0.027451731264591217,-0.8002144098281859,0.5990850329399109,0.10105800294165944,0.1301501983444476,3.092559612328581,-0.019929440692067143,0.0689869374036789,-0.04591315984725952,0.43424347043037415,0.3810949113965035,-9.46483067393303
31.5,3.5,327.0,23.54481315612793,24.730016708374023,-79.78273702287697,40.45899578503241,307.46630139160163,0.001990979071706533,-0.03169417381286621,-0.7992046475410461,0.6002194881439209,0.11289647448293524,0.1492855832031713,3.0294171232173315,0.09905052930116652,0.052372582256793976,0.0019694275688380003,0.4804371684417129,0.3311207326501608,-9.483826523423195
31.59,3.5,330.0,23.52102470397949,23.10785484313965,-79.78273702780166,40.458995785563815,307.76893658447267,0.0038010086864233017,-0.031680162996053696,-0.7991138696670532,0.6003323793411255,0.10631723607025127,0.15657906442539518,3.0128556835914524,0.07032140344381332,0.04489979147911072,-0.0879073515534401,0.5207538300007581,0.35593291718512776,-9.558016580343248
31.81,3.5,330.0,23.53855323791504,23.083999633789066,-79.78273681908423,40.458995614580466,308.40906567382814,0.0023461091332137585,-0.02621574699878693,-0.7984589934349059,0.6014736890792847,0.08477969841437144,0.1516177046404695,3.0424975605735947,0.04406774044036865,-0.03778113052248955,0.08829575031995772,0.4205195071175695,0.16765087382867933,-9.83164990067482
31.9,3.4000000953674316,332.0,23.59113883972168,22.16159439086914,-79.78273682739027,40.45899562334912,308.7147449951172,0.002230595098808408,-0.024895241484045986,-0.7980080246925354,0.602128267288208,0.07421007637610214,0.12448521685141252,3.062160274444491,-0.006483969744294882,0.04373527690768242,-0.0510069727897644,0.3650954310223461,0.2361514620110393,-9.910765067338943
32.1,3.4000000953674316,330.0,23.48221015930176,21.84352302551269,-79.78273658175486,40.458995579329795,309.35458798217775,0.0019033906282857054,-0.02787875942885876,-0.7977088689804077,0.6023950576782227,0.0683586600569259,0.14118296470301414,3.0707300602477305,0.0006629917188547553,0.031827159225940704,-0.1068192571401596,0.4329978307709098,0.4276663760840893,-9.704745440483093
32.19,3.4000000953674316,326.0,23.499740600585927,22.92496490478516,-79.78273657445357,40.458995600673866,309.6619457702637,0.0015445853350684047,-0.026681069284677502,-0.7977240681648254,0.6024301052093506,0.07025770809424772,0.1370586620778001,3.0657900777171205,0.06220542639493942,-0.009952036663889885,-0.043095912784338,0.4946800721436739,0.2068351672589779,-9.786366139054303
32.4,3.4000000953674316,325.0,23.51100730895996,22.137739181518555,-79.78273651911138,40.45899560578498,310.2987102966309,0.0057666809298098105,-0.02218042686581612,-0.7981187105178833,0.602064311504364,0.03128047557742157,0.11604963716337575,3.0875690638861117,0.011023166589438915,-0.04838066175580025,-0.0003612289438024163,0.41354564264416704,0.05385087358765305,-9.775327765345574
32.6,3.4000000953674316,322.0,23.51601600646973,22.0661735534668,-79.78273640922178,40.45899556157672,310.9344181518555,0.006855700630694628,-0.019819801673293117,-0.7996032238006592,0.6001623868942261,0.008702641048726884,0.1171751641059366,3.084926777691732,0.01683706045150757,-0.06890147924423218,0.14456522464752194,0.4209186892211437,0.06010495495051145,-9.722791702151303
32.7,3.299999952316284,321.0,23.54857063293457,21.14376640319824,-79.7827364056913,40.4589955948349,311.24313778686525,0.007963077165186405,-0.01925120875239373,-0.8000466823577881,0.5995759963989258,0.004615896752121256,0.11910208089121788,3.081822149101207,0.07789545506238937,0.012857199646532536,0.12545517086982727,0.4430053403601051,-0.01805903417989612,-9.767170899510383
32.79,3.299999952316284,315.0,23.59489631652832,22.424001693725586,-79.78273627246351,40.458995640503176,311.5692066650392,0.009079907089471815,-0.020382151007652283,-0.8001565933227539,0.5993760824203491,-0.014681490021592547,0.12262516484840975,3.080723040319976,0.008703582920134071,0.041972223669290536,0.04838350787758827,0.41763777997344737,-0.03163054048083723,-9.65014998793602
33.0,3.299999952316284,313.0,23.54731750488281,23.25893783569336,-79.78273613665323,40.458995660092,312.1994404296875,0.010352430865168571,-0.02150268666446209,-0.7997713088989258,0.5998303890228271,-0.016522844470315726,0.14358381049676336,3.0548909720840034,0.016729656606912613,0.0025971289724111557,-0.05045002698898315,0.4121569289267064,0.11454123532399535,-9.543433039784432
33.09,3.2000000476837163,309.0,23.48221015930176,24.714113235473643,-79.78273612783404,40.45899570680053,312.5042080383301,0.010808581486344336,-0.0222848579287529,-0.7993966341018677,0.6002928614616394,-0.026352485643207663,0.12970521323922016,3.0395623061591457,-0.02155071496963501,0.06280142068862915,-0.03249175101518631,0.3379531675949693,0.10156970816664396,-9.606008187532426
33.3,3.2000000476837163,304.0,23.45216178894043,23.09990310668945,-79.78273606485763,40.45899570039903,313.1340984802246,0.014289850369095802,-0.020783189684152603,-0.7991385459899902,0.6006176471710205,-0.029556677310284774,0.1338396755642093,3.0934149652002474,-0.04050113260746002,-0.0817146822810173,-0.012523542158305643,0.4338222516328097,0.06513166006654501,-9.990918699502943
33.49,3.299999952316284,299.0,23.460926055908203,23.457733154296875,-79.78273605077328,40.458995742248725,313.76112789916994,0.012705158442258837,-0.016822369769215584,-0.799503743648529,0.6002911925315857,-0.05130738958255125,0.11031853712884107,3.116727138625022,0.007317945826798677,-0.04754320904612541,0.0690426304936409,0.4151841786503792,-0.13968923276290302,-9.965554647445677
33.6,3.299999952316284,297.0,23.54230880737305,22.6227970123291,-79.78273607236133,40.45899579826912,314.0734981994629,0.012017767876386642,-0.016636550426483154,-0.7994914650917053,0.6003267765045166,-0.0570512641656607,0.09806902789871938,3.1254564994689784,0.015602044761180878,0.003657439956441522,0.04056091979146004,0.4187479835003615,-0.17346247628331185,-9.862976943254473
33.69,3.299999952316284,293.0,23.61492919921875,21.891233444213867,-79.78273608888624,40.45899585683165,314.38541836547853,0.011752454563975334,-0.01764458604156971,-0.7990333437919617,0.6009129285812378,-0.06236145517244796,0.09836549907055316,3.109524865773825,-0.03986352682113648,-0.05396159365773201,-0.02408547885715961,0.4804624941945077,-0.06312855930067597,-9.681511529088018
33.9,3.299999952316284,291.0,23.430877685546875,24.904956817626953,-79.78273611560172,40.458995891036686,315.0014118652344,0.014938786625862122,-0.0220057275146246,-0.7976865768432617,0.6024855375289917,-0.0448306495801354,0.09129938590324918,3.010323996013313,0.1250167042016983,0.046682849526405334,-0.009806833229959013,0.4723433429002762,-0.09010558406822383,-9.306152443885804
33.99,3.299999952316284,288.0,23.370779037475586,23.489540100097656,-79.78273606132294,40.458995839001275,315.3140186767578,0.013777380809187887,-0.019449930638074875,-0.7969096899032593,0.6036282181739807,-0.04894228565728796,0.11056212295761723,2.9772663771100984,-0.02910516038537025,-0.07324238866567613,-0.10922657698392868,0.494528007991612,0.1176050392817706,-9.273474109768868
34.2,3.299999952316284,288.0,23.39957618713379,23.38616752624512,-79.78273614125608,40.45899595001038,315.9036907653809,0.012374179437756537,-0.01084690261632204,-0.7952083349227905,0.6061130166053772,-0.05184408758620008,0.059328689652723275,2.931353452225537,-0.0055819922126829616,-0.03405580297112465,-0.11888016760349275,0.3088728079944849,0.185856746211648,-9.58199718117714
34.39,3.299999952316284,287.0,23.22804450988769,26.169288635253906,-79.78273602465302,40.458995900863854,316.51723141479494,0.010492364875972273,-0.01457551121711731,-0.7932758331298828,0.6085976362228394,-0.07149807609364173,0.036634186295091006,2.9673993058792414,-0.2296222597360611,0.08993073552846909,-0.2180757373571396,0.30459127569571137,-0.08208268342539668,-9.653416242599489
34.49,3.299999952316284,287.0,23.29315185546875,26.853139877319336,-79.78273605692951,40.45899594296368,316.82029766845704,0.009835368022322656,-0.01912888139486313,-0.793130099773407,0.6086723804473877,-0.02053532808926704,0.06554933612408352,3.014704937805155,0.007767165079712869,-0.001546060317195952,0.0656513124704361,0.36725502703338864,0.10671791659668088,-10.060067871809006
34.6,3.4000000953674316,288.0,23.38329887390137,24.268814086914066,-79.78273609707827,40.45899597263733,317.1237835388184,0.007884552702307701,-0.018373096361756325,-0.7933966517448425,0.608376681804657,0.010564380558932107,0.08739946759975617,3.0524111672520937,0.10740701854228972,-0.02206590585410595,0.0019825056660920373,0.4236938508599997,0.2006879528984428,-10.13294873714447
34.8,3.5,288.0,23.33196449279785,25.962541580200195,-79.7827361512555,40.45899602996314,317.72276348876954,0.00442257197573781,-0.0109220826998353,-0.7948781251907349,0.6066547036170961,0.007612982218379694,0.06478085711593541,3.0412975147126526,-0.04463770613074304,-0.08445852249860764,0.0648464486002922,0.3539379202947021,0.053433693023398524,-9.710234221816064
35.0,3.5,293.0,23.258094787597656,25.42977333068848,-79.7827361796916,40.458995977575604,318.32283825683595,0.004672139883041382,-0.014894391410052775,-0.7962266206741333,0.6047971844673157,0.037575111201145206,0.05978998406494763,3.0736973723881267,0.058112796396017075,0.11941958218812945,0.16155734658241272,0.4395970349013806,0.033350837007164964,-10.126770569086077
35.11,3.5,293.0,23.40959167480469,23.219179153442386,-79.78273618702488,40.45899596876185,318.632538269043,0.00619580363854766,-0.01712447963654995,-0.7972666025161743,0.6033526062965393,0.05512521167112746,0.08854038831950566,3.1153226911379623,0.04969095438718797,0.011388198472559452,0.0861908495426178,0.4116086062788963,0.1509229034744203,-10.175192531347276
35.19,3.5,299.0,23.54481315612793,22.47171401977539,-79.78273619676288,40.458995943815,318.94559902954103,0.01077560056000948,-0.018673252314329147,-0.798934817314148,0.6010311245918274,0.06288368443321621,0.10531930067459183,3.1361109887629173,0.028962859883904457,0.13201989233493805,-0.003322435542941093,0.3444861885532737,0.42952699664980176,-9.974859906435011
35.4,3.5,301.0,23.45466613769531,23.147613525390625,-79.7827363453522,40.45899579673826,319.53950161743165,0.00858399923890829,-0.021707287058234208,-0.8023679256439209,0.5963732004165649,0.06982653431050555,0.1228614813692914,3.0646602362899245,0.040908318012952805,0.013634531758725643,0.08634468168020247,0.3748250882327557,0.02509025390027091,-9.63266155064106
35.5,3.4000000953674316,311.0,23.43588447570801,23.42592620849609,-79.78273639829618,40.458995681142994,319.83385891723634,0.0015916026895865796,-0.021517766639590263,-0.8030441403388977,0.5955289006233215,0.06648876622679094,0.11596566401579556,3.025992503272708,-0.18553458154201508,-0.07690726965665817,-0.059573616832494736,0.36298469580709936,0.2790892658941448,-9.53623102426529
35.69,3.4000000953674316,313.0,23.315689086914066,24.45965576171875,-79.78273648407917,40.458995643339456,320.4366688232422,-0.003825580701231957,-0.021066568791866302,-0.8018425107002258,0.5971518158912659,0.11991716867285608,0.05630910367501904,3.0074996365028586,0.1238744705915451,-0.021075595170259483,0.015306802466511725,0.3782576230913401,0.13549213791266085,-9.809063276052477
35.79,3.299999952316284,319.0,23.43964195251465,24.57893371582031,-79.78273651917989,40.45899554168085,320.73145336914064,-0.0009212128934450448,-0.018382638692855842,-0.8006031513214111,0.598912239074707,0.1177268579751707,0.05587406296512619,3.0252597962675853,0.11426861584186555,0.055988945066928864,0.00421972991898656,0.2364818845130504,0.18067700849846005,-9.877300282716753
35.99,3.299999952316284,321.0,23.38204765319824,22.17749786376953,-79.78273651401697,40.45899542062021,321.32902951049806,0.0020700234454125166,-0.016298744827508926,-0.7976142764091492,0.6029441356658936,0.09093400693676827,0.06915146237714584,3.0440602689234675,0.1431819200515747,0.012469726614654064,-0.018007652834057808,0.3604114458337426,-0.035266197561286385,-9.987008081674576
36.09,3.2000000476837163,325.0,23.310680389404297,24.594837188720703,-79.78273653925426,40.4589954063937,321.63471646118165,0.0015164746437221766,-0.015808863565325737,-0.7967705726623535,0.6040732860565186,0.06071363545156184,0.07549623110003448,3.059067840434874,-0.07044763118028641,-0.04192148149013519,-0.08366125077009201,0.3176426082104445,0.2730944994091988,-9.881166461706163
36.29,3.0999999046325684,327.0,23.40834045410156,23.05219268798828,-79.78273665220019,40.45899536776783,322.23009533691413,0.0010610444005578756,-0.0137739609926939,-0.7955655455589294,0.605709969997406,0.06627152455400376,0.05404639965258325,3.061259478743388,-0.012522894889116287,0.03174900636076927,-0.0644339993596077,0.2503713605739176,0.2438203959725797,-9.881726624965667
36.39,2.9000000953674316,330.0,23.355754852294922,25.318449020385746,-79.78273668814771,40.45899535822408,322.53696102905275,0.0011386119294911625,-0.014719294384121897,-0.7951300144195557,0.6062594056129456,0.06058591860040949,0.046824180995162085,3.0748332020770137,-0.1442485749721527,-0.0671541765332222,-0.005220763385295868,0.2533052923902869,0.14536327946931124,-9.946868115663527
36.59,2.9000000953674316,329.0,23.310680389404297,25.135557174682607,-79.78273676238281,40.45899523110654,323.14217419433595,-0.000914777221623808,-0.016999436542391774,-0.7956349849700928,0.6055371165275574,0.07627367233751403,0.060582216336706275,3.1058632845237195,-0.028985632583498955,-0.028973070904612538,-0.06528955698013306,0.3504954817146063,0.22502585515379908,-10.025980943441391
36.8,3.0,326.0,23.44464874267578,22.41604995727539,-79.78273693168144,40.45899511137172,323.74232525634767,-0.0038694073446094994,-0.015764128416776657,-0.7965126037597656,0.6044040322303772,0.06389472218024128,0.05289232850994857,3.049509978864922,-0.08342599868774414,-0.0496741458773613,0.010767887346446514,0.2505993837118149,0.019181329566054048,-9.813743387460713
36.89,3.0999999046325684,323.0,23.341981887817386,24.88109970092773,-79.78273694524313,40.458995120287454,324.0446590881348,-0.001046267454512417,-0.013833860866725443,-0.7967870831489563,0.6041009426116943,0.06141162396393567,0.051433779242181135,2.9969308017032223,0.05178368091583252,0.0710342600941658,0.02279937639832497,0.2082310438156128,0.10588358287699524,-9.31384971857071
36.99,3.0999999046325684,319.0,23.348241806030273,25.000377655029297,-79.78273702352419,40.45899504625203,324.34175152587886,0.0023416150361299515,-0.013725466094911098,-0.7968382835388184,0.6040322780609131,0.019818122209585842,0.054533586125842255,2.9738927486411937,-0.09661901742219924,0.0003970220568589866,-0.07450509071350098,0.2865453612059355,0.15917540783062578,-9.46280578315258
37.21,3.2000000476837163,316.0,23.32695770263672,24.642547607421875,-79.78273699798577,40.4589951049584,324.9336056213379,0.005576491355895996,-0.015335490927100182,-0.7973817586898804,0.6032545566558838,-0.006605378560292797,0.09200103847440898,2.9553698085202087,-0.005482535343617201,-0.0214834064245224,-0.04399725049734116,0.3429195732995868,0.1268056422472,-9.762327650785444
37.3,3.299999952316284,311.0,23.37954330444336,23.93483924865723,-79.78273699639708,40.45899503479738,325.2381596069336,0.00715301837772131,-0.015198169276118282,-0.7977771162986755,0.6027184724807739,2.716386718254124e-05,0.11055884084117913,2.988580617039438,0.18700473010540009,0.10060358792543413,0.08926944434642793,0.4097481318935752,-0.05955027345567944,-9.823737448453905
37.5,3.4000000953674316,310.0,23.3494930267334,24.84134101867676,-79.7827368838879,40.458995039294436,325.8340382080078,0.00576063571497798,-0.014447671361267568,-0.7983838319778442,0.6019480228424072,-0.041644793026071394,0.12665832511576905,3.016368258900204,-0.10550307482481004,0.023100728169083595,-0.017399905249476433,0.4460176065936685,-0.005027366924914531,-9.946629549264907
37.7,3.4000000953674316,309.0,23.211767196655273,26.05796241760254,-79.78273675021408,40.458995104852136,326.442108581543,0.007716768886893988,-0.01629878394305706,-0.7982280850410461,0.6020854711532593,-0.01768476801797969,0.14881011057777774,3.056084194418025,-0.0061562564224004745,-0.029060883447527882,0.04126066714525223,0.41271709218621255,-0.11366146691143515,-10.033225643634797
37.8,3.5,307.0,23.417104721069336,23.04424095153809,-79.78273670027461,40.45899508147693,326.73827404785163,0.009533915668725971,-0.01871679909527301,-0.7977256774902344,0.6026546359062195,-0.022439898582756457,0.14204342846303633,3.067457148385785,0.0673857033252716,0.16366738080978396,0.06758085638284682,0.3242786497995257,0.04956536700949074,-9.986789395809174
37.89,3.5999999046325684,303.0,23.261850357055664,25.708086013793945,-79.78273664896871,40.45899511321391,327.0451473693848,0.010889539495110512,-0.021116055548191067,-0.7971963286399841,0.6032525897026062,-0.02925585808301032,0.15559864130513998,3.05807640022359,-0.10603931546211244,-0.012568672187626362,-0.02227345108985901,0.3752445163205266,0.14856625629588965,-9.758642735481263
38.09,3.700000047683716,303.0,23.40583610534668,24.411945343017567,-79.78273653371187,40.45899511806308,327.64397091674806,0.005345892161130904,-0.018605591729283333,-0.7973498106002808,0.6032070517539978,-0.017699399493484154,0.16699666179832856,3.0542677257133444,-0.050052210688591,-0.14886310696601868,-0.051735103130340576,0.4353132185339928,0.12812657394446433,-9.865233968496323
38.2,3.5999999046325684,307.0,23.36451911926269,23.56110572814941,-79.78273648249697,40.45899514599866,327.94986767578126,0.003971274010837078,-0.01687081716954708,-0.7973881363868713,0.6032178997993469,0.0067549976159497855,0.14051721394425326,3.0558836196315067,0.10529661923646927,0.044187065213918686,0.00530971447005868,0.35406842283904555,0.1227082241512835,-9.84826885700226
38.4,3.5,309.0,23.35074615478516,24.141586303710927,-79.78273641592331,40.45899513935776,328.55399746704103,0.008528700098395348,-0.021366922184824944,-0.7967965602874756,0.6038095355033875,0.00026446730555841624,0.14032197402146165,3.0834573228565603,-0.11572384089231492,0.05025643855333328,-0.05688265711069108,0.3372927976772189,0.3786498250812293,-9.979103815555574
38.59,3.5,317.0,23.31694030761719,23.82351493835449,-79.78273635791588,40.458995136360436,329.1602901916504,0.00472641084343195,-0.026200314983725548,-0.7957082986831665,0.6050946712493896,0.033270059326566036,0.15531752756276773,3.0745932012736312,-0.14621862769126892,-0.08799678087234497,-0.04980684071779251,0.3976994324102998,0.1332513021491468,-9.885397506952287
38.69,3.4000000953674316,318.0,23.221784591674805,25.54904937744141,-79.78273635361872,40.45899514287144,329.4676403503418,0.004378456622362137,-0.025171330198645592,-0.7947192192077637,0.6064392924308777,0.08230060691575164,0.1409952435462598,3.063545892128841,0.1860739588737488,-0.02625592052936554,0.11007452756166458,0.3366770858690143,0.08473556516692042,-9.712482476234436
38.79,3.299999952316284,322.0,23.30942726135254,24.06206703186035,-79.78273633828984,40.45899510187843,329.76833004760744,0.005752605386078358,-0.02108677290380001,-0.7941040992736816,0.6073886156082153,0.06507380722497008,0.12881660767354086,3.077643857385308,-0.017170974984765053,-0.11586198210716248,-0.04568909853696823,0.2958296615816653,0.2327384239621461,-9.912332121133804
39.0,3.2000000476837163,324.0,23.294403076171875,23.688335418701172,-79.78273635882658,40.458995041642254,330.3794979553223,0.007450525183230638,-0.019707579165697098,-0.7955636382102966,0.6055036187171936,0.050690761853068256,0.10368387982612357,3.1020768489059414,0.0021477648988366127,0.02523475140333176,0.008484946563839912,0.34075646895915274,0.25479945698753,-9.857999793291093
39.1,3.2000000476837163,326.0,23.36451911926269,24.69820976257324,-79.78273638540328,40.45899503054296,330.68991513061525,0.007523156236857177,-0.019262682646512985,-0.7963249087333679,0.6045156121253967,0.058850319573236234,0.10241521230150384,3.098054698653748,-0.020255347713828087,-0.023025099188089367,0.03409354388713837,0.3786485460028052,0.1477061765547842,-9.814163217544557
39.3,3.2000000476837163,326.0,23.44965744018555,23.942790985107425,-79.7827364716181,40.45899496664281,331.30288739013673,0.004818775691092014,-0.018515633419156075,-0.7967314720153809,0.6040306091308594,0.06756090514687578,0.08920853291787792,3.095814613924229,-0.04469667747616768,0.052853990346193314,-0.06642581522464752,0.28908634185791016,0.2416882453300059,-9.78567324399948
39.49,3.2000000476837163,330.0,23.400827407836914,22.408098220825195,-79.78273659830754,40.45899486921822,331.91701931762697,0.0021437546238303185,-0.02144221030175686,-0.7962334752082825,0.6046056747436523,0.10105364649871144,0.08271178245815436,3.0868790723988897,-0.057271476835012436,0.0064979931339621535,-0.1273476928472519,0.4027300843968988,0.2964240493252874,-9.807873952388764
39.59,3.2000000476837163,331.0,23.407087326049805,23.46568489074707,-79.78273664386622,40.45899483418656,332.22526211547853,-0.0003058609727304429,-0.023197472095489502,-0.7959069013595581,0.6049743890762329,0.12286323939321678,0.08764367443907342,3.0709740994358183,-0.06496886909008026,-0.07273971289396286,0.02397801727056504,0.3243142081797123,0.22571714222431186,-9.663617879748346
39.7,3.2000000476837163,333.0,23.448406219482425,21.891233444213867,-79.78273668965382,40.4589947986031,332.53189892578126,-0.0013021444901823993,-0.024776631966233253,-0.7955862283706665,0.6053321361541748,0.14047885758143935,0.08267258741708228,3.058743845306758,0.04967605322599411,0.008350824937224388,0.1008784994482994,0.2999708241596818,0.16950367374345662,-9.734030050635338
39.89,3.2000000476837163,333.0,23.36451911926269,22.63870048522949,-79.78273676267092,40.45899467458916,333.14708752441413,-0.00041106995195150375,-0.02706228755414486,-0.7941760420799255,0.6070846915245056,0.15419243215165418,0.1035394708891235,3.051170222222047,0.03847411274909973,0.0335710309445858,-0.014807761646807194,0.4199266359955073,0.3019443690776825,-9.638870708942411
40.09,3.299999952316284,334.0,23.42837333679199,23.55315399169922,-79.78273685066344,40.45899457293485,333.7541737060547,-0.0024417624808847904,-0.024035105481743813,-0.7935051321983337,0.608083963394165,0.1576051541208924,0.0922710885435653,3.0069756887701766,0.016896739602088928,-0.04097607731819153,-0.05142555385828018,0.3932515285536647,0.4980028986185789,-9.573074330091476
40.2,3.299999952316284,334.0,23.36076164245605,24.35628318786621,-79.78273689585265,40.45899453348985,334.05329556274415,-0.004167273174971342,-0.02423912845551968,-0.793633759021759,0.607898473739624,0.15154190515432014,0.08143923381861484,2.968318074385551,-0.020467380061745644,-0.013607226312160492,-0.0351027250289917,0.3835732902958989,0.29453656811267137,-9.455028401613237
40.3,3.4000000953674316,334.0,23.30692481994629,23.903032302856445,-79.78273690048627,40.458994395356775,334.3636593322754,-0.005118648521602154,-0.025657225400209427,-0.7936462759971619,0.6078167557716371,0.18086492702709994,0.08279999525683555,2.984840431521576,0.03133392333984375,0.013446062803268431,0.009534194134175776,0.3680495905503631,0.3727262301743031,-9.588078870177268
40.49,3.5,335.0,23.480958938598643,22.479665756225586,-79.78273701329023,40.458994201525336,334.96425289916994,-0.002575750695541501,-0.02399403788149357,-0.7940154671669006,0.607418417930603,0.1738149951598965,0.10353537887431304,3.0195673996619234,-0.07265431433916092,-0.0614403709769249,-0.03106790035963058,0.3789586311578751,0.4635278247669339,-9.884947271347047
40.59,3.5,338.0,23.44464874267578,22.24906349182129,-79.78273704653225,40.45899414503581,335.26692242431636,-0.004026401322335005,-0.026001105085015297,-0.7941957116127014,0.6070922613143921,0.16714002795730348,0.09548477298905546,3.0171952444472496,-0.09400294721126556,-0.01815340667963028,0.0043124412186443814,0.3385071181878448,0.2630902423337102,-9.778973504304886
40.8,3.5,339.0,23.363265991210927,23.43387794494629,-79.7827370591502,40.4589940562092,335.8676151733398,-0.008952462114393711,-0.028613721951842305,-0.7944191098213196,0.606629490852356,0.20751653260570926,0.11302361925057708,3.0255666659717178,0.07356912642717361,-0.055561114102602005,0.14989729225635529,0.3651998769119382,0.18761630130931736,-9.8682207262516
40.99,3.5,342.0,23.42586898803711,22.376291275024414,-79.78273711517947,40.45899391836596,336.470802734375,-0.006978383753448725,-0.02916681580245495,-0.7935501337051392,0.6077654361724854,0.19874044817728928,0.08330719101489897,3.069732483276282,0.037662606686353683,-0.018632035702466958,0.11048009246587752,0.2924174275249243,0.22297253228724004,-10.028187682628634
41.09,3.5,344.0,23.59113883972168,20.78593635559082,-79.7827371438002,40.458993887103475,336.78004498291017,-0.003738795872777701,-0.02936476655304432,-0.7937136888504028,0.6075709462165833,0.18923957248485912,0.10272125116994904,3.092865433966978,0.19591949880123136,0.04189595952630043,0.12122613191604616,0.40886348471045497,0.2300188108719885,-9.989068640470503
41.2,3.5,346.0,23.45216178894043,22.54327964782715,-79.78273717455214,40.45899386309059,337.08953900146486,-0.002834955928847193,-0.02887840196490288,-0.7943932414054871,0.6067103147506714,0.16219892480145404,0.10752103113971387,3.0783349820775032,0.01293971948325634,-0.03046122752130032,0.11542491614818573,0.2896374967508018,0.18687845578417184,-9.698699419498444
41.4,3.5,348.0,23.52853775024414,20.300878524780273,-79.78273735619902,40.45899376934396,337.68189282226564,-0.004286283161491157,-0.02285865508019924,-0.7955930829048157,0.6053847670555115,0.18088093466170346,0.0746218356195352,3.0146361220346227,0.005587674211710692,-0.111921027302742,0.0805899128317833,0.2756638938747347,0.2351205613464117,-9.55468425214291
41.59,3.5,352.0,23.576114654541016,20.261119842529297,-79.78273745611644,40.458993682094366,338.27625317382814,-0.014000303111970423,-0.025393338873982436,-0.7952864170074463,0.6055400967597961,0.1959822838891861,0.030915168414895267,2.9642260565386307,-0.03785090148448944,-0.02504945918917656,-0.012719470076262951,0.1670982936769724,0.3748808925971389,-9.49429537832737
41.7,3.4000000953674316,352.0,23.598651885986328,18.821847915649414,-79.7827375220348,40.45899363946206,338.5729984741211,-0.01701934449374676,-0.026254530996084213,-0.7949295043945312,0.6058944463729858,0.21866006741815305,0.032195902375504334,2.957015797928105,0.00904928706586361,-0.015720248222351074,-0.04666775465011597,0.32508267849683764,0.5543734196573497,-9.717815136909485
41.8,3.299999952316284,353.0,23.58613204956055,20.300878524780273,-79.78273751191837,40.458993685513576,338.8733982543945,-0.018422937020659447,-0.024095691740512848,-0.7945656776428223,0.6064202189445496,0.19907904818733266,0.03335410791626095,2.9851533145302636,-0.02025473490357399,-0.03412865474820137,0.0043234871700406075,0.31422048870474106,0.3755182756483555,-9.794442313313484
42.0,3.299999952316284,353.0,23.68253898620605,17.19968605041504,-79.78273759387555,40.458993572310156,339.4686207275392,-0.013857896439731121,-0.022512830793857568,-0.7939073443412781,0.6074638366699219,0.1882452203063126,0.04116128990281187,3.0107517895260485,0.03601984679698944,0.06477928906679152,-0.05228399112820625,0.4413593126088381,0.4305968909338117,-9.869584296941758
42.09,3.299999952316284,349.0,23.722604751586914,19.08425712585449,-79.78273758576556,40.458993553112094,339.7699970703125,-0.010708700865507126,-0.025149060413241383,-0.7936370968818665,0.6077771782875061,0.16454555541242394,0.08773570304072127,2.995127046801924,-0.037239640951156616,0.06912565976381302,-0.043104283511638634,0.5465584697574377,0.44514436148107056,-9.653344906568528
42.29,3.4000000953674316,351.0,23.68379211425781,19.012691497802734,-79.78273759580294,40.45899347263117,340.3581547241211,-0.010284043848514557,-0.03215557336807251,-0.7932449579238892,0.6079660058021545,0.17151319383091085,0.16141612275278014,2.9444038621221478,0.021340576931834214,0.11991740018129347,-0.02408578060567379,0.5921663863956929,0.5637372238934041,-9.518397016525267
42.39,3.5,348.0,23.71008491516113,20.094133377075195,-79.78273751311389,40.458993440513076,340.6517338256836,-0.008319634944200516,-0.0347190797328949,-0.7928009629249573,0.6084340214729309,0.17607173895512349,0.1996627000079588,2.905412779369968,-0.008637762628495693,0.10197120159864426,-0.05621106177568437,0.7156040324270726,0.5059149122983218,-9.437166911959649
42.6,3.5,346.0,23.46593475341797,22.169546127319336,-79.78273743164581,40.45899343075784,341.22779125976564,-0.001465465989895165,-0.04057308658957482,-0.7928755879402161,0.6080296635627747,0.14751103542111174,0.2478968538021733,2.855573600036645,0.011713447980582714,0.07940442860126495,0.056306641548872,0.6015298982709647,0.34994277365505705,-9.484786051511763
42.8,3.5999999046325684,343.0,23.45216178894043,21.175573348999023,-79.78273720528192,40.45899336159629,341.80101055908204,-0.0022696941159665585,-0.04204236716032028,-0.7941254973411559,0.6062937378883362,0.13045254324382768,0.2975079968158821,2.87153288766373,-0.008046898990869522,-0.08829140663146973,0.1378508061170578,0.5549932610616088,0.2946086898632348,-9.721960228085518
42.89,3.5999999046325684,338.0,23.50975608825684,22.0025577545166,-79.78273707299897,40.458993354340244,342.0902637939453,-0.0020666844211518764,-0.04079413041472435,-0.7947008609771729,0.6056253910064697,0.1283930178027332,0.29478789272811456,2.881858118492005,-0.00027427394525147974,-0.02486778423190117,0.012530440464615822,0.5863317788019776,0.2943743078783155,-9.810005847215653
43.09,3.5999999046325684,335.0,23.459674835205078,23.378215789794922,-79.78273684924834,40.45899336698544,342.66173596191413,0.0062142712995409966,-0.04093620181083679,-0.7940366864204407,0.6064581871032715,0.10198397473543623,0.29374220135417706,2.90588887478387,0.10174737125635147,0.0657748430967331,0.02089238353073597,0.6507087825983763,0.269832356069237,-9.878549247980116
43.3,3.799999952316284,331.0,23.74639320373535,17.183782577514652,-79.7827365826452,40.458993455043405,343.2277836303711,0.003898571943864226,-0.03864166513085365,-0.7927138209342957,0.6083555221557617,0.06939052852470075,0.30889389608843343,2.9366751535303504,-0.005863780155777931,-0.001524955965578556,-0.004806166980415583,0.5761809393391013,0.25007010105997324,-9.98530771136284
43.39,3.9000000953674316,329.0,23.87660789489746,15.736560821533205,-79.78273646792809,40.458993476284405,343.52125592041017,-0.00048417248763144016,-0.04075939208269119,-0.7926085591316223,0.608366847038269,0.0715415643484072,0.2766379701234704,2.8934869086466413,-0.0975540280342102,0.07789809256792067,-0.04646636173129082,0.572606317140162,0.39935788549482826,-9.427528361678123
43.49,3.9000000953674316,327.0,23.85281753540039,17.74835968017578,-79.78273637638873,40.45899356257319,343.78701824951173,-0.0025748037733137608,-0.04509532451629639,-0.7928444743156433,0.6077479124069214,0.06945112403539998,0.2500411745136641,2.7641214515740096,-0.052763540297746665,0.0380219966173172,0.05781348422169685,0.4869666810706258,0.4262889182567597,-8.806406709551812
43.7,4.0,325.0,23.881614685058594,15.959210395812988,-79.78273616705977,40.458993671637046,344.3148884277344,-0.0001230108318850398,-0.04941469058394432,-0.7937353253364563,0.6062528491020203,0.06673159687153148,0.2535898628047869,2.515226045038455,0.04483691230416298,0.06895826011896132,-0.016994994133710858,0.6492099219560623,0.4735212644934654,-8.713093333840371
43.89,4.0,324.0,23.821516036987305,17.438240051269528,-79.78273603478068,40.458993792961785,344.8027348022461,0.006088397931307554,-0.04360170662403107,-0.7948197722434998,0.6052466630935669,0.015629482762419197,0.239061137592426,2.3157508093467642,0.0834629163146019,-0.1023125946521759,0.13437196612358093,0.588570641130209,0.30227957898750896,-8.657893279194832
44.0,4.0,323.0,23.909160614013672,15.593428611755373,-79.7827359422164,40.45899383540729,345.0278095703125,0.008206808939576149,-0.04016074165701866,-0.7949720025062561,0.6052597761154175,-0.011108750936411754,0.23762393026282305,2.2430468313938907,0.050370782613754266,-0.00741225853562355,-0.025422383099794388,0.7253182310611009,0.19771182976663115,-8.792189789414406
44.1,4.099999904632568,323.0,23.81525611877441,17.676794052124023,-79.78273583679298,40.45899391669767,345.2479481201172,0.009151543490588663,-0.04059172421693802,-0.7949119210243225,0.6052963137626648,-0.028955190072308214,0.2283773628127725,2.1376249498974493,0.018462374806404117,0.0726749449968338,-0.08724473416805267,0.7642163215577603,0.2584352008625865,-8.702346736192704
44.3,4.099999904632568,324.0,23.83403778076172,17.016796112060547,-79.78273569341962,40.45899408648617,345.6566853027344,0.01574886590242386,-0.04457293450832367,-0.7947779893875122,0.6050565242767334,-0.02912911939025495,0.22974726157216746,1.9617532237617856,0.013995567336678505,0.05004989355802536,0.02067651785910129,0.7684488286077976,0.3559567080438137,-8.880571038722993
44.39,4.099999904632568,322.0,23.917924880981445,14.599456787109375,-79.78273558618388,40.458994150758826,345.8480915527344,0.015957893803715706,-0.04723898693919182,-0.7948432564735413,0.6047629117965698,-0.04027216279634793,0.2381885718110589,1.8439503075711008,-0.04877010732889176,0.02417479269206524,-0.0625654086470604,0.8407207795232535,0.2441364562511444,-8.674732675552367
44.6,4.099999904632568,320.0,23.88912773132324,17.223543167114258,-79.78273540549903,40.4589943100986,346.1947254638672,0.01804518699645996,-0.04720577970147133,-0.795099139213562,0.6043702960014343,-0.03161417284550324,0.21516968002057546,1.6026237088649415,0.0663786232471466,0.02729612216353416,0.0066239619627594965,0.8500165367871524,0.3650836269557477,-8.45570065498352
44.69,4.199999809265137,317.0,23.70507621765137,20.15774726867676,-79.78273530908206,40.45899437480283,346.3501438598633,0.02056041173636913,-0.04462507739663124,-0.7954331636428833,0.6040464043617249,-0.05322399937268026,0.20087281852653585,1.4872016045088274,0.03162582218647003,-0.03306340426206589,0.06378909945487976,0.7940828758478166,0.26106120368465785,-8.59955970168114
44.9,4.300000190734863,316.0,23.73637771606445,18.360645294189453,-79.7827351609899,40.45899451820056,346.6397785644532,0.022921554744243625,-0.037624385207891464,-0.7956913709640503,0.6040979623794556,-0.06669265179911933,0.17737500315376284,1.383131843715658,0.04663192480802536,-0.005140335764735937,-0.009977012872695923,0.7790347740054131,0.20374462142586708,-9.134547189474107
44.99,4.400000095367432,312.0,23.7927188873291,17.978960037231445,-79.78273509199359,40.45899457561547,346.77820629882814,0.02559213526546955,-0.03664999082684517,-0.7954497933387756,0.6043686866760254,-0.0687011469437774,0.1736487468382896,1.3456416432950753,-0.0030259713530540466,0.019781511276960373,-0.0038008294068276882,0.7507279644906522,0.16339336993172765,-9.085955657958984
45.19,4.5,311.0,23.71759605407715,17.279205322265625,-79.7827349209835,40.45899467378186,347.0359577636719,0.027749784290790558,-0.03639744594693184,-0.7944306135177612,0.6056279540061951,-0.04695743348277563,0.16862888481763472,1.2156665856788882,0.0015358850359916687,-0.05351627990603447,0.08558748662471771,0.7975254240632058,0.19528227511793367,-9.229891303181649
45.29,4.599999904632568,309.0,23.96049499511719,12.651272773742676,-79.78273493504327,40.4589947300964,347.1578602294922,0.02758764661848545,-0.034251071512699134,-0.7942042946815491,0.606057345867157,-0.025937123133500533,0.17288639231648106,1.1905655141209122,0.02694162353873253,0.04484408721327782,-0.08126410096883774,0.8874996741861105,0.3653147016093135,-9.242604904174804
45.5,4.699999809265137,307.0,23.7251091003418,16.778242111206055,-79.78273481002681,40.458994790628864,347.3361362915039,0.010988058522343636,-0.031027507036924362,-0.7913699746131897,0.6104508638381958,-0.015069508234759138,0.19449399534702588,0.7315555529242576,0.1310124397277832,-0.21693086624145508,-0.4889624416828156,0.9969329463690519,-0.009483914268203079,-7.1811696106195475
45.69,4.800000190734863,307.0,23.71759605407715,19.31485939025879,-79.78273446196424,40.45899477018979,347.45254559326173,0.013758053071796894,-0.020464105531573296,-0.7371956110000609,0.6752293109893799,-0.02102728516070143,0.17883293362648378,0.4591689145801005,-0.15061567723751068,0.11492913961410522,-0.996305286884308,0.6953501544892788,-0.07775340495631099,-8.588654059767723
45.79,4.900000095367432,307.0,23.89288330078125,14.535842895507812,-79.7827343789897,40.4589948454104,347.4378590087892,0.011900979094207287,-0.03335342183709145,-0.6974738836288452,0.7157346606254578,0.011539390687949885,0.20319005602529144,0.37385317459217865,-0.18135416507720947,0.1229248195886612,-1.0972703695297241,0.7843767171353102,0.4238523104041815,-8.912840067744256
45.89,5.0,296.0,23.69380760192871,19.887386322021484,-79.78273415371099,40.458994799808686,347.4719471435547,0.012615869753062723,-0.040865756571292884,-0.6564770936965942,0.753132700920105,0.0830476090329008,0.21785946606714385,0.2739354521769418,0.0261289980262518,-0.007675383239984512,-0.9542232155799866,0.6990172357857227,0.5970643796771765,-8.822742075920106
46.1,5.099999904632568,291.0,23.582374572753906,20.937021255493164,-79.78273345582552,40.45899463517746,347.4584278564453,0.014902960509061813,-0.040205638855695724,-0.5582286715507507,0.8285784125328064,0.2299327737260053,0.1975380454538588,0.1946887287336623,-0.054286371916532516,0.04771051183342934,-0.7459357976913452,0.7468288218230009,0.7799157301336527,-9.468497462868687
46.3,5.199999809265137,297.0,23.06527900695801,27.71988296508789,-79.78273318534967,40.458994684498975,347.4039387207032,0.01148304995149374,-0.044484354555606835,-0.538904070854187,0.8411133885383606,0.2393094996176481,0.1783238804388408,0.2328500959633221,-0.2889088988304138,0.10883767157793044,-0.6083309650421143,0.4544719495251775,0.7361169420182705,-10.324587721824651
46.4,5.199999809265137,300.0,23.51852035522461,21.15171813964844,-79.78273289302122,40.45899455029609,347.43751568603517,0.0012096751015633345,-0.05500597506761551,-0.5251204371452332,0.8492476344108582,0.26116403850469483,0.19753436586459355,0.3912093334031849,-0.2784896790981293,-0.16853585839271545,-0.0203919168561697,0.7274994617700578,0.3601365536078811,-11.071449068784714
46.6,5.199999809265137,300.0,23.52853775024414,20.746177673339844,-79.78273176137836,40.45899458578295,347.56519360351564,-0.045442793518304825,-0.0344400554895401,-0.5145842432975769,0.8555418848991394,0.2832482518393945,0.33232184020710825,0.6268675023840491,0.05767875537276267,-0.6830266714096069,-0.0744941234588623,0.6040967163071037,0.9706030073761942,-10.77974551320076
46.69,5.099999904632568,296.0,23.70132064819336,19.537508010864254,-79.78273124657366,40.45899456964661,347.63597149658204,-0.06256591528654099,-0.009102564305067062,-0.5154712200164795,0.8545713424682617,0.2869068319412324,0.40873759170031065,0.739643061143803,0.30406495928764343,-0.4581907689571381,0.17848920822143555,0.3981140730902553,0.6282866840064526,-10.710662999153136
