time,wind_speed,wind_angle,battery_voltage,battery_current,position_x,position_y,position_z,orientation_x,orientation_y,orientation_z,orientation_w,velocity_x,velocity_y,velocity_z,angular_x,angular_y,angular_z,linear_acceleration_x,linear_acceleration_y,linear_acceleration_z
0.0,0.5,74.0,24.412485122680664,0.007951773703098297,-79.78275157259006,40.45899571123051,271.0484463644028,0.005814279429614544,0.002058417536318302,-0.7483837008476257,0.663237452507019,-0.003699523474595843,-0.007124883697848706,0.012981035997963105,0.0010696171084418893,0.003442171262577176,0.003699728287756443,0.04478123454842717,-0.11677756690420213,-9.80633321106434
0.2,0.5,74.0,24.41749382019043,-0.007951773703098297,-79.78275167328697,40.45899579112477,271.03771895885467,0.005815260112285614,0.0020528272725641727,-0.7483839392662048,0.6632372140884399,-0.007800625081631417,-0.009492982447639105,0.011109860356171905,0.002269468270242214,0.0019409764790907504,-0.0068205720745027065,0.04402724065817893,-0.12500327456742527,-9.807594455480578
0.3,0.5,70.0,24.40998077392578,-0.015903547406196594,-79.78275168340848,40.458995799034604,271.03883058547973,0.005815260112285614,0.0020528272725641727,-0.7483839392662048,0.6632372140884399,-0.007611735985027786,-0.00957210993061292,0.010994145158342959,0.003839663462713361,0.0013132004532963035,0.009096828289330006,0.04537786067929119,-0.12504069674760104,-9.807279875278473
0.5,0.6000000238418579,68.0,24.41999626159668,-0.007951773703098297,-79.78275174308527,40.45899586878552,271.02954740047454,0.005818858742713928,0.0020691379904747014,-0.7483801245689392,0.6632413268089294,-0.007601829063006242,-0.004268277917806653,0.012818610148224295,0.00012518138100858778,0.006543660536408424,0.001919109025038779,0.04372573903296143,-0.11769717860966925,-9.806205157041553
0.6,0.6000000238418579,64.0,24.41749382019043,-0.007951773703098297,-79.78275174697713,40.45899587630082,271.03083509922027,0.005804557353258133,0.0020689647644758224,-0.7483742833137512,0.6632480621337891,-0.008357623701362405,-0.0042237162407003145,0.012771374190415644,-0.0005156660918146372,-0.0017030452145263553,0.00677354633808136,0.0444453759631142,-0.1262768255453557,-9.807748237252236
0.8,0.6000000238418579,62.0,24.408727645874023,0.007951773703098297,-79.78275180068039,40.4589959399138,271.0201518011093,0.005813805852085352,0.002055998425930739,-0.7483761310577393,0.6632459759712219,-0.00829875375305132,-0.0013270939331939786,0.013883549272236251,-0.003006217302754521,-0.0006103828782215713,-0.005673700012266636,0.04551275777164847,-0.10890217141248286,-9.804546301960944
0.9,0.6000000238418579,59.0,24.411231994628906,-0.007951773703098297,-79.78275180175255,40.458995955130646,271.0229311656952,0.00578295113518834,0.0020722502376884213,-0.7483729124069214,0.6632498502731323,-0.0096487476117619,-0.0013620535872450375,0.01386536563746456,-0.0018879580311477184,-0.002795861102640629,-0.0038593539502471685,0.043707923297770325,-0.11653055858798325,-9.806127973794936
1.1,0.6000000238418579,57.0,24.41498947143555,-0.039758868515491486,-79.78275190225992,40.458996024998605,271.01168627262115,0.005794491153210402,0.002079067751765251,-0.7483612895011902,0.6632628440856934,-0.006499392830331918,-0.005978304149248918,0.01149366862550699,0.0008917963132262231,0.00046305221621878445,0.0003877500130329281,0.044712241971865296,-0.11411816186271607,-9.806258366703988
1.2,0.699999988079071,55.0,24.41373634338379,0.007951773703098297,-79.78275195419758,40.458996091616406,271.00162274360656,0.005794430151581764,0.0020715354476124053,-0.7483677268028259,0.6632556319236755,-0.0063382766490697705,-0.004761832019029418,0.013408452386254918,-0.0018867847975343466,0.002111316192895174,-0.0042558996938169,0.04394014912191778,-0.10869097729213537,-9.805028697252274
1.4,0.699999988079071,55.0,24.411231994628906,-0.015903547406196594,-79.78275196372795,40.458996104110774,271.004308052063,0.005808671470731497,0.0020637651905417442,-0.7483676075935364,0.6632555723190308,-0.007764053041803914,-0.004784080993901863,0.013363733342595982,-0.005836348049342632,0.0010088287526741624,4.128848377149552e-05,0.04620072380639613,-0.1259060207102448,-9.808280918598177
1.51,0.699999988079071,57.0,24.42124938964844,-0.007951773703098297,-79.78275198769049,40.45899619268349,270.9927564334869,0.0058016180992126465,0.002063947496935725,-0.7483674883842468,0.6632558107376099,-0.010167605497041885,-0.00112932808294618,0.011090867722894748,0.0033625334035605192,0.003269397420808673,0.0015240018256008625,0.04396371157374234,-0.11479614651761948,-9.806178844571114
1.7,0.699999988079071,57.0,24.416240692138672,-0.007951773703098297,-79.78275205947818,40.45899626896583,270.9852776002884,0.005813398864120245,0.002060558646917343,-0.7483687996864319,0.6632542610168457,-0.008218154570716358,-0.00795145325502449,0.013665372280020823,-0.002670182147994637,0.0008067866438068452,-0.005739671643823385,0.045462083425372835,-0.1269270541984588,-9.808069834113118
1.8,0.699999988079071,55.0,24.41749382019043,-0.007951773703098297,-79.78275206774117,40.45899627697871,270.9866450500488,0.005813398864120245,0.002060558646917343,-0.7483687996864319,0.6632542610168457,-0.007946202722108591,-0.008043220611049728,0.013510282470513555,0.007985340431332588,7.693807128816843e-05,0.006507210899144411,0.04474173843394965,-0.12590726324357093,-9.807650004029275
2.0,0.699999988079071,57.0,24.41498947143555,0.0,-79.782752101772,40.4589963520925,270.97949928760534,0.00581496674567461,0.0020647842902690172,-0.7483693361282349,0.6632535457611084,-0.007604337696523066,-0.006189358081786455,0.014690658544622957,0.005593208130449057,0.005121530033648014,0.0016001834301277995,0.043554292274639014,-0.11586650675162675,-9.807168193459507
2.1,0.699999988079071,60.0,24.41749382019043,-0.02385532110929489,-79.78275210787922,40.45899635989496,270.980979270935,0.005816133692860603,0.0020658867433667183,-0.7483695745468141,0.6632532477378845,-0.008619397080258042,-0.006084912019542792,0.014698958159260898,-0.0009267135174013674,-0.001544696162454784,0.00039682089118286967,0.04350864744745195,-0.12590327069163326,-9.808494926691056
2.3,0.6000000238418579,61.0,24.411231994628906,-0.015903547406196594,-79.78275213038538,40.45899643564751,270.97389060974115,0.005815796554088593,0.002068208297714591,-0.7483696937561035,0.663253128528595,-0.0075367476255727706,-0.004569813530942752,0.015377590928560569,0.004455664660781622,0.002119704615324736,0.004901613108813764,0.045247668768279264,-0.10990199960768224,-9.805468992590905
2.5,0.6000000238418579,65.0,24.41498947143555,-0.02385532110929489,-79.7827521347774,40.45899644327928,270.9754419994354,0.005818251520395279,0.0020701298490166664,-0.7483716011047363,0.6632509827613831,-0.009155887572886308,-0.004625562296234668,0.015490437013227606,-0.005452475510537624,-0.0035859609488397845,-0.007918953895568848,0.04408859530929477,-0.11495985028333965,-9.805714575648306
2.6,0.6000000238418579,66.0,24.416240692138672,-0.02385532110929489,-79.78275214585585,40.45899651224384,270.966968126297,0.005818158388137817,0.0020721782930195327,-0.7483717203140259,0.6632508635520935,-0.007019695856917012,-0.00341064980346644,0.015994202307800298,0.0006160082994028926,0.0006930690724402666,0.002052680356428027,0.04496896214783192,-0.11753856374882166,-9.80581631720066
2.71,0.6000000238418579,71.0,24.41999626159668,-0.02385532110929489,-79.78275214251686,40.45899658992768,270.9591539573669,0.005815968848764896,0.002076492179185152,-0.7483729124069214,0.6632494926452637,-0.008114292079849147,-0.0003713802152744772,0.014044107609750616,-0.003345261327922344,-0.0009353284258395431,-0.006104198750108481,0.04518709070049227,-0.10981850319541993,-9.8057046353817
2.9,0.6000000238418579,73.0,24.41498947143555,-0.007951773703098297,-79.7827521419076,40.458996597036645,270.960562415123,0.005815968848764896,0.002076492179185152,-0.7483729124069214,0.6632494926452637,-0.007817478516685636,-0.00038538234431480505,0.013843639123917484,0.005382679402828217,0.003536835080012679,0.006501419935375452,0.046042716507799925,-0.1250523454975337,-9.807345364093779
3.0,0.6000000238418579,73.0,24.40622520446777,-0.007951773703098297,-79.78275219760326,40.458996647555146,270.9546265077591,0.005833176430314779,0.002076059114187956,-0.7483736872673035,0.6632484793663025,-0.0015451631272063331,-0.00825822661635045,0.015768993189871874,0.0018746956484392285,0.0021303992252796893,-0.002832586178556085,0.044833028088323776,-0.11174020889215172,-9.804277330040932
3.2,0.6000000238418579,72.0,24.41498947143555,-0.007951773703098297,-79.7827522071308,40.45899664988743,270.9561953020096,0.005834436975419521,0.0020775040611624718,-0.7483749389648438,0.6632471084594727,-0.0019509851746717449,-0.008349312810601287,0.015598841547855829,0.0012466665357351305,-0.00036963386810384685,0.006175652612000704,0.045144789749756456,-0.12722260354086756,-9.807534229159355
3.3,0.6000000238418579,72.0,24.41999626159668,-0.007951773703098297,-79.78275220266181,40.458996724818704,270.9502479505539,0.005830550566315651,0.0020792633295059204,-0.7483751773834229,0.6632468700408936,-0.0033716012751449703,-0.005797819279591127,0.016270248961005724,0.003808542853221297,0.004032827448099853,0.002961838152259588,0.04553980114404112,-0.11822204844094815,-9.806387590169908
3.5,0.6000000238418579,72.0,24.41749382019043,-0.015903547406196594,-79.78275219064507,40.45899681912358,270.94457942962646,0.0058250962756574145,0.002077797427773476,-0.7483763694763184,0.6632454991340637,-0.008817447472721875,-0.004078314540959139,0.016951126294050718,-0.00578569620847702,0.0003885464102495461,-0.006527535617351532,0.04420064714737237,-0.12633104933425784,-9.807531890273095
3.6,0.6000000238418579,69.0,24.412485122680664,-0.015903547406196594,-79.78275219441464,40.45899682699206,270.9462797117233,0.005827891640365125,0.002080164849758148,-0.7483782172203064,0.6632434129714966,-0.008617064534426316,-0.0042057104695134425,0.016853178736098838,0.0017382123041898012,0.0035608545877039437,0.006356974598020315,0.046083752084523436,-0.12022483857348562,-9.807841792702677
3.8,0.6000000238418579,69.0,24.40998077392578,0.05566241592168808,-79.78275216178908,40.45899688805165,270.94121379375457,0.005826882086694241,0.0020864808466285467,-0.7483785152435303,0.6632431149482727,-0.00713251685747322,-0.0004985729255941344,0.017189397806359724,-0.0037087085656821728,-0.0014404105022549634,-0.010993941687047482,0.04390185442753136,-0.1239736712537706,-9.807641817927363
3.91,0.6000000238418579,68.0,24.41373634338379,0.05566241592168808,-79.78275216159899,40.45899689418315,270.9429354143142,0.005827313289046288,0.0020868510473519572,-0.7483802437782288,0.6632411479949951,-0.006933685597654334,-0.0006811574238247143,0.01704840515565995,0.0035139690153300762,-0.001532454043626785,0.005629634950309992,0.04446027722675353,-0.12043741227127612,-9.8070506644249
4.1,0.6000000238418579,67.0,24.40998077392578,0.007951773703098297,-79.78275213727751,40.45899696059215,270.93634838581085,0.005827122833579779,0.002087586093693972,-0.7483802437782288,0.6632411479949951,-0.006712847827640038,-0.00030683811499912245,0.01739457696324884,-0.003348312573507428,-0.003804784268140793,0.0002397609932813793,0.04431271268986167,-0.12438388084061446,-9.807552940249444
4.2,0.6000000238418579,65.0,24.40246772766113,0.04771064221858978,-79.78275209081951,40.45899701697863,270.9320120286941,0.005828031804412603,0.002096364041790366,-0.7483810782432556,0.6632401347160339,-0.003322246900190969,0.003497340002063253,0.017496540132820516,0.003498596372082829,0.0014192841481417418,0.0005989704513922334,0.04438365586102009,-0.11003856863826514,-9.805501736998556
4.4,0.6000000238418579,65.0,24.411231994628906,0.07951773703098297,-79.78275208177071,40.4589970233345,270.9355332326889,0.005830315873026848,0.0020983568392694,-0.7483817934989929,0.6632393002510071,-0.0052267891745882145,0.0034141316686599732,0.017526955330131988,-0.002868495415896177,0.00038107074215076864,-0.00391732482239604,0.04439651516731829,-0.12443622255697848,-9.808005514740945
4.53,0.5,62.0,24.398712158203125,0.06361418962478638,-79.7827520435158,40.45899709536671,270.93143326759343,0.005830975249409676,0.002097946126013995,-0.7483826875686646,0.6632382869720459,-0.005508271834526368,0.00236791657462988,0.01779247145124949,0.0014802042860537767,0.001605999656021595,0.0003699957160279155,0.04448808347806335,-0.11998246234841645,-9.807418454289435
4.71,0.5,59.0,24.40372085571289,0.18289080262184146,-79.78275203026244,40.458997153107966,270.92389173030847,0.005835197865962982,0.0020946729928255077,-0.7483819127082825,0.6632391214370728,-0.004842399141869882,-0.0017162197687382082,0.014736090335867131,-0.00543529912829399,-0.0015837032115086913,-0.010959875769913195,0.04350046591367573,-0.11093629896640778,-9.805514600872996
4.9,0.5,57.0,24.40372085571289,0.06361418962478638,-79.78275203337391,40.45899716212247,270.92681819915765,0.005837941076606512,0.002088493900373578,-0.7483915686607361,0.6632282137870789,-0.005559752914522479,-0.001858358255425564,0.014509026936278747,0.0018926283810287714,0.0010528776329010725,-0.00019411760149523616,0.04538119085133077,-0.11918569698929787,-9.806684628725053
5.0,0.4000000059604645,53.0,24.398712158203125,0.07156596332788467,-79.78275197462526,40.458997214218,270.92135400295257,0.005830010864883661,0.002091087168082595,-0.7483913898468018,0.663228452205658,-0.003715338964738881,0.0018697030704393227,0.015514207393544447,-0.004780243616551161,-0.0013443632051348686,-0.0041284337639808655,0.04562007701955737,-0.12575316170230508,-9.8088054138422
5.2,0.4000000059604645,53.0,24.398712158203125,0.039758868515491486,-79.78275195583844,40.458997295199204,270.9150618982315,0.005826000589877367,0.002071739174425602,-0.7483791708946228,0.6632423400878906,-0.007503907582981106,-0.003702206157201521,0.01243681422705458,-0.00015690829604864118,-0.0017223958857357502,-0.0008950376068241894,0.04480366410221905,-0.11915032133460045,-9.807002717256546
5.3,0.4000000059604645,52.0,24.40622520446777,0.04771064221858978,-79.78275195921591,40.45899730241821,270.91631645679473,0.005822598934173584,0.0020577816758304834,-0.74839186668396,0.6632281541824341,-0.008435025467066036,-0.003765617081582104,0.012564242563264034,-0.002547015203163028,0.0024036432150751352,-0.006212611217051745,0.044266734388656914,-0.109764224588871,-9.80612271130085
5.5,0.4000000059604645,52.0,24.39495658874512,0.02385532110929489,-79.78275196256351,40.45899731015518,270.9175731611252,0.005815642420202494,0.0020423242822289467,-0.7483850121498108,0.6632359623908997,-0.008260004331052392,-0.003892668536600383,0.012377428403071608,0.001065840246155858,0.002776106121018529,0.0024113270919770002,0.045830576783046126,-0.12189132244326174,-9.807441843152047
5.6,0.30000001192092896,53.0,24.4074764251709,0.04771064221858978,-79.78275194810794,40.4589973531976,270.91385204315185,0.005817559082061052,0.002050584414973855,-0.7483661770820618,0.6632571220397949,-0.0035696184775450266,-0.005831848995643355,0.014853337233901009,-0.0027267537079751487,-0.002442839788272977,-0.004517607856541872,0.0440091325622052,-0.10909485544078053,-9.80564674794674
5.8,0.30000001192092896,53.0,24.39370346069336,0.02385532110929489,-79.78275190702931,40.458997419439655,270.90961296081537,0.005799081176519394,0.00204427819699049,-0.7483606338500977,0.6632636785507202,-0.005041459810658304,-0.003712944474494176,0.015827018642595586,-0.0015364484861493108,-0.0006479034200310707,-0.0018790336325764656,0.04508864734321833,-0.12377295644022525,-9.806844842433929
5.91,0.30000001192092896,52.0,24.408727645874023,-0.03180709481239319,-79.78275191097053,40.45899742403226,270.91119629859924,0.005805297754704952,0.002043244894593954,-0.7483662366867065,0.6632572412490845,-0.005522608191233436,-0.003998759952853707,0.01579997895094675,0.0005907807499170302,-0.0005297824391163887,-0.0033435290679335594,0.04359496240038425,-0.10976100862026217,-9.805380114912987
6.11,0.30000001192092896,51.0,24.40622520446777,0.02385532110929489,-79.78275188836001,40.458997465953885,270.90568215370183,0.00580927450209856,0.00204520532861352,-0.7483661770820618,0.6632572412490845,-0.0016778459315590546,-0.005156229219694622,0.016371013296742426,0.002421762328594923,-0.0005258782766759397,0.004626523703336716,0.04475126756820828,-0.1259766715206206,-9.807182811498645
6.21,0.30000001192092896,50.0,24.41373634338379,0.06361418962478638,-79.78275183433738,40.458997551894825,270.9017790031433,0.00579721899703145,0.0020437047351151705,-0.7483675479888916,0.6632557511329651,-0.010195877395276394,-0.0009167057732611687,0.016883368690387354,0.0007742583402432501,0.0014157177647575734,-0.0010869349353015423,0.04458755009807647,-0.11267577253282073,-9.805027527809145
6.4,0.20000000298023224,49.0,24.411231994628906,0.06361418962478638,-79.78275183400761,40.458997561374154,270.90347761631006,0.00579721899703145,0.0020437047351151705,-0.7483675479888916,0.6632557511329651,-0.010697762998818037,-0.0009350077500823157,0.01676500265667874,0.002156586851924658,-0.00023891760793048886,0.0038379533216357227,0.046127848313190035,-0.1267022287566215,-9.808256945014
6.51,0.20000000298023224,47.0,24.412485122680664,0.06361418962478638,-79.78275179290492,40.45899758681377,270.89968318462365,0.00580750685185194,0.0020561579149216413,-0.7483684420585632,0.6632546186447144,-0.0024894321547564344,0.0002804208357857147,0.01701394109091874,0.004861279856413603,0.002388251246884465,0.004064009990543127,0.04369575378019363,-0.11146659574471417,-9.805107049942015
6.7,0.20000000298023224,46.0,24.39996337890625,0.05566241592168808,-79.78275179216391,40.45899758946863,270.90138930797576,0.005804683547466993,0.0020573129877448078,-0.7483667135238647,0.6632567048072815,-0.003571487183220833,0.00033076454194821405,0.017005079516066026,0.002555446233600378,-0.002717369701713324,0.0025295293889939785,0.04516361504327506,-0.12511319308541716,-9.808198472857477
6.8,0.30000001192092896,45.0,24.4074764251709,0.07156596332788467,-79.78275172378177,40.45899764184651,270.8978067111969,0.005768122617155314,0.002064992440864444,-0.7483557462692261,0.6632694005966187,-0.0044843310838683795,0.003791571237486161,0.01725304143281984,0.006172413006424904,0.004214959684759378,0.005472803022712469,0.0438357808906585,-0.1232201022002846,-9.807661113739014
7.0,0.30000001192092896,42.0,24.41373634338379,0.015903547406196594,-79.78275171865539,40.45899764591092,270.89953691482543,0.005759637337177992,0.002053831471130252,-0.7483448386192322,0.6632816791534424,-0.005979377719624163,0.0039278630638862645,0.017179732109940116,-0.002639412647113204,-0.00334259239025414,0.0007474847952835263,0.04291698231361807,-0.12270567513071001,-9.80691500902176
7.1,0.30000001192092896,37.0,24.40998077392578,-0.02385532110929489,-79.78275170265366,40.458997716384346,270.8962306451797,0.0057425471022725105,0.0020319456234574322,-0.7483325600624084,0.6632958054542542,-0.008515032534455229,-0.000759918365419221,0.017348211496409534,0.0042273662984371185,0.0003492265532258898,0.0041061178781092176,0.045343590513803066,-0.12592813963070512,-9.807507331967354
7.3,0.30000001192092896,33.0,24.41373634338379,0.0,-79.78275166459706,40.458997765738076,270.8905691576004,0.005735343787819147,0.002036679070442915,-0.748322069644928,0.6633076667785645,-0.008085564949505877,-0.0002750772233962419,0.01425888052870753,0.0011748881079256535,0.0007612423505634067,-0.005602292716503143,0.04309307943563909,-0.11883028677664698,-9.806569438576695
7.41,0.30000001192092896,27.0,24.411231994628906,0.0,-79.78275166381863,40.458997773222784,270.8919968080521,0.005720515735447407,0.0020457587670534854,-0.7483124136924744,0.6633186340332031,-0.008583821677398957,-0.0003123649467620401,0.014050348504377192,0.006171192042529583,0.0017757292371243238,0.003939644433557986,0.04593451104126872,-0.12669211490079765,-9.807792091369633
7.6,0.30000001192092896,25.0,24.41373634338379,-0.015903547406196594,-79.78275162928571,40.4589978009619,270.8846140575409,0.005710657220333815,0.0020506023429334164,-0.748310923576355,0.6633204221725464,-0.0051278276630381215,0.0005935471891603773,0.01210944368330766,-0.0055399606935679895,-0.0017975172959268093,-0.006950151640921831,0.043139231326058514,-0.1132153883110732,-9.804180266261099
7.7,0.30000001192092896,21.0,24.416240692138672,-0.007951773703098297,-79.78275157522616,40.458997832275905,270.877990193367,0.005701474845409393,0.002070325426757336,-0.7483124136924744,0.6633188128471375,-0.002219262598519495,0.004696991902626524,0.010458823460363798,-0.003045834600925445,0.001159735256806016,-0.001937135239131749,0.04532022906001657,-0.11716058693826198,-9.806528508067132
7.9,0.30000001192092896,19.0,24.40246772766113,-0.015903547406196594,-79.7827515694821,40.45899783399893,270.87904352664947,0.005701474845409393,0.002070325426757336,-0.7483124136924744,0.6633188128471375,-0.0033870027340701034,0.004650997417799903,0.010593705535781636,-0.004183663520962,0.0023900254163891077,-0.009047871455550194,0.043388368394225836,-0.10919908205978572,-9.805578335523606
8.0,0.4000000059604645,18.0,24.40246772766113,-0.015903547406196594,-79.78275154105391,40.458997871580245,270.87223155021667,0.005703163798898458,0.002069747308269143,-0.7483143806457521,0.6633166074752808,-0.004706602057765048,0.003780154552970972,0.009832399755229959,-0.005435152444988489,-0.002310824347659945,-0.00674599874764681,0.04426653339061886,-0.11778320576995613,-9.806950092315674
8.2,0.4000000059604645,18.0,24.41749382019043,0.0,-79.78275156872876,40.45899792760708,270.86499292373657,0.005713780876249075,0.0020586107857525357,-0.7483139038085938,0.663317084312439,-0.007296200098051645,-0.0070069268396669325,0.009202275924419228,0.002116921590641141,0.0004340631130617112,0.004544248338788748,0.04556776728015393,-0.11274544576182965,-9.806103415489195
8.3,0.4000000059604645,16.0,24.416240692138672,-0.007951773703098297,-79.78275157590639,40.458997935340854,270.86592072963714,0.005713780876249075,0.0020586107857525357,-0.7483139038085938,0.663317084312439,-0.008832415865772554,-0.0069659101579808355,0.009262114857043915,-0.002819283166900277,-0.0017821957590058446,-0.007440653163939714,0.044422845910303294,-0.11049918305128813,-9.805346785783767
8.5,0.30000001192092896,14.0,24.412485122680664,-0.015903547406196594,-79.78275158286391,40.45899794379602,270.86683971405034,0.0057151434011757365,0.0020594256930053234,-0.7483159303665161,0.6633147597312927,-0.008748843754626211,-0.0069693014256372605,0.008926300574684114,0.0037295047659426928,0.0044345585629344,0.002283258130773902,0.045661395820789034,-0.12210641775280234,-9.806924364566804
8.61,0.30000001192092896,11.0,24.40372085571289,-0.02385532110929489,-79.78275154176505,40.45899794641439,270.861090965271,0.005719784647226335,0.002074140124022961,-0.7483188509941101,0.6633113622665405,-0.003006706062408826,-0.0006600313423411322,0.011485502610389641,-0.0011168470373377204,-0.0004912056028842926,-0.0018314326880499718,0.04389607573393733,-0.11029739929363133,-9.804492507576944
8.8,0.30000001192092896,12.0,24.416240692138672,-0.007951773703098297,-79.78275152236827,40.4589979788717,270.8524779748917,0.0057192575186491,0.002074707299470901,-0.7483186125755309,0.6633116006851196,-0.004555071126250066,-9.808490422484476e-05,0.010081559562766972,-0.005098946392536163,-1.2225012142152993e-05,-0.00851366762071848,0.04614208262879402,-0.12748994920402765,-9.808510714173318
8.9,0.30000001192092896,15.0,24.41498947143555,-0.007951773703098297,-79.78275152194594,40.45899798265592,270.85348124027246,0.00572114996612072,0.0020759922917932268,-0.7483206391334534,0.6633093357086182,-0.0045175247394028395,-7.896067169797143e-05,0.009872686627278693,0.003562880679965019,0.0047713774256408215,0.0016508190892636776,0.045251939976587885,-0.1195031733904034,-9.805981208682061
9.1,0.30000001192092896,18.0,24.408727645874023,-0.03180709481239319,-79.7827515041489,40.45899801380675,270.84501320838933,0.005727719981223346,0.002082725521177053,-0.7483264803886414,0.6633026599884033,-0.005951134964407558,0.00022862845010170616,0.009169419759064913,-0.0038185145240277048,-0.0005288246320560577,-0.0040756533853709715,0.04419581862632185,-0.12437013074755668,-9.807346533536911
9.21,0.30000001192092896,22.0,24.416240692138672,-0.015903547406196594,-79.7827514887805,40.45899804346321,270.83524662971496,0.005712010432034731,0.0020674695260822773,-0.7483315467834473,0.6632971167564392,-0.004730171347771226,0.000334067568120783,0.008608622387289721,0.0025168848223984237,0.000745990255381912,0.0038635327946394678,0.044671576414257286,-0.1265583324339241,-9.808266300559042
9.4,0.30000001192092896,24.0,24.411231994628906,-0.015903547406196594,-79.78275148762188,40.45899804837679,270.8361191225052,0.005696405656635761,0.0020701177418231964,-0.7483295202255249,0.663299560546875,-0.0065447151044074605,0.0004006259258501344,0.008766946091720438,-0.0036689108237624173,-0.0019313681405037642,-0.004175305832177401,0.04398957179859282,-0.11596567187458275,-9.807002717256546
9.5,0.20000000298023224,30.0,24.4074764251709,-0.007951773703098297,-79.78275147698228,40.4589980793011,270.8267821741104,0.0056675500236451634,0.0020626697223633528,-0.7483244538307191,0.6633055210113525,-0.005843037921969672,0.000541145514828758,0.008010550037785627,-0.0020443759858608246,-0.002964656800031662,0.002404804807156325,0.04400864833965898,-0.11638177435845135,-9.805298838615418
9.7,0.20000000298023224,33.0,24.41373634338379,-0.015903547406196594,-79.78275147559773,40.458998084652684,270.82758183002466,0.005664392374455929,0.0020635752007365227,-0.7483334541320801,0.6632953286170961,-0.0070716202771684816,0.0005654993607453843,0.007955116849401684,-0.004970590118318796,-0.00346646667458117,-0.002851397264748812,0.04385880887042731,-0.10944183287210764,-9.805013494491575
9.8,0.20000000298023224,41.0,24.40372085571289,-0.007951773703098297,-79.78275146612273,40.45899811526567,270.82009536743163,0.00565494643524289,0.0020679726731032133,-0.7483118176460266,0.6633198261260986,-0.007138436362700277,0.0008194616408869848,0.011202657720769279,-0.0034218828659504648,-0.000286996946670115,-0.004539335146546364,0.044107023174874485,-0.11788908605463805,-9.806613877415655
10.0,0.30000001192092896,45.0,24.41373634338379,-0.015903547406196594,-79.7827514642714,40.45899812123346,270.8212128353119,0.005662639159709215,0.002071172697469592,-0.7483170628547668,0.6633139252662659,-0.007434633315590048,0.0008456995814386946,0.01101470791962917,0.0008225630735978482,0.0025651135947555304,-0.0003520855098031461,0.044291448011063037,-0.11407082682475447,-9.805823333859443
10.1,0.30000001192092896,55.0,24.411231994628906,-0.03180709481239319,-79.78275145353871,40.458998151566256,270.8114656877517,0.005655725952237845,0.0020577616523951288,-0.7483086585998535,0.6633234620094299,-0.008419245497652725,0.0010820218665522504,0.0101035470286761,-0.0014993286458775401,-0.0014674946432933213,-0.0070722936652600765,0.04402466422878206,-0.11007161454297602,-9.806624987125398
10.3,0.30000001192092896,58.0,24.416240692138672,0.05566241592168808,-79.78275144696242,40.45899817290174,270.80015797138213,0.005657707806676626,0.002059107180684805,-0.7483084201812744,0.6633237600326538,-0.0062689501620375844,0.000867641194003504,0.008984559872162167,0.0026257492136210203,0.0038411805871874094,0.004377042874693871,0.0447194093791768,-0.12359460722655058,-9.808049953579904
10.41,0.30000001192092896,65.0,24.408727645874023,-0.015903547406196594,-79.782751442634,40.45899818594844,270.80198199272155,0.005661355331540108,0.0020614464301615953,-0.7483091354370117,0.6633228659629822,-0.008581935754359518,0.0010928084751937453,0.00901805959503492,0.003056609071791172,0.0010554862674325702,-0.0003944698255509138,0.044262257614172996,-0.1115848922263831,-9.805892331004143
10.61,0.30000001192092896,66.0,24.411231994628906,-0.03180709481239319,-79.78275141516589,40.458998210225396,270.79051632404327,0.005661469884216785,0.0020664390176534653,-0.7483105659484863,0.6633212566375732,-0.008746428824703577,0.004579089033798725,0.008165390488060958,-0.006266877986490727,-0.0006332555203698575,-0.0025318546686321497,0.046050057504326114,-0.1263170434255153,-9.808423590660095
10.71,0.30000001192092896,68.0,24.416240692138672,-0.007951773703098297,-79.78275144774754,40.45899823166716,270.7774248790741,0.0056692971847951395,0.002063108840957284,-0.7483097910881042,0.6633220911026001,-0.005593271533249687,-0.0011936505126098973,0.007529659222621719,0.004083447158336639,0.002287970623001457,0.004186552017927171,0.04492570188827813,-0.12020042644813655,-9.807206200361252
10.9,0.30000001192092896,69.0,24.41749382019043,-0.02385532110929489,-79.7827514483227,40.458998243999964,270.77893144607543,0.005672947969287635,0.0020655784755945206,-0.7483108639717102,0.6633208394050598,-0.008226364534908834,-0.0008865948709087875,0.00745672126609187,-0.002981645520776511,-0.001342322095297277,-0.0034915257710963488,0.0432623608969152,-0.12473007255233826,-9.807374015450476
11.01,0.30000001192092896,73.0,24.41373634338379,-0.007951773703098297,-79.78275145092455,40.458998267188356,270.76712805747985,0.005674020387232304,0.0020667121279984717,-0.748310923576355,0.663320779800415,-0.006944824674465933,-0.0005280146727092514,0.009306067054045072,0.0031897400040179487,0.004769855178892613,0.007435910869389771,0.0458840468293056,-0.12758214334957302,-9.808327696323396
11.2,0.30000001192092896,74.0,24.412485122680664,-0.015903547406196594,-79.7827514504771,40.45899827403753,270.76807279109954,0.005675357300788164,0.0020670858211815357,-0.7483115196228027,0.6633200645446777,-0.008730120542530329,-0.0003507955065520799,0.009406671377617795,-0.0034471158869564533,-0.0009118071757256985,-0.004235788714140654,0.043938997951336205,-0.11497882632538675,-9.806501026153564
11.3,0.30000001192092896,77.0,24.41373634338379,0.0,-79.78275145869317,40.45899829455605,270.7547634315491,0.005677519831806421,0.002068890491500497,-0.7483112215995789,0.6633203625679016,-0.007544820472219058,-0.00011881074119977604,0.008190536193029826,-0.00022385988268069923,-0.00041529079317115247,0.00023128281463868921,0.043743084250018,-0.1252621600404382,-9.807751745581626
11.5,0.30000001192092896,78.0,24.416240692138672,0.0,-79.78275145784147,40.45899830143098,270.75558299541467,0.005680165719240904,0.002070407383143902,-0.7483116388320923,0.6633198857307434,-0.00884838584803389,-7.572227268639285e-05,0.008107059136795592,-0.001771306968294084,0.003349010366946459,-0.006847180891782045,0.04354972870554776,-0.1099295089300722,-9.804606528282166
11.61,0.30000001192092896,80.0,24.40121650695801,-0.02385532110929489,-79.7827514707925,40.4589983191948,270.74125523090356,0.005685041658580303,0.0020734427962452173,-0.7483121752738953,0.6633192300796509,-0.008172816822802673,5.2101912220947795e-05,0.007000509529498953,-0.003929984290152788,-0.004817149601876736,-0.0012310235761106016,0.04270634093787521,-0.1193518035952002,-9.805629791021348
11.8,0.30000001192092896,79.0,24.41498947143555,-0.015903547406196594,-79.78275154834536,40.45899831044654,270.72908336639404,0.0057001858949661255,0.002072289353236556,-0.7483115196228027,0.6633198261260986,-0.0009350554223357117,-0.00783462830971527,0.010894844497408572,0.0002630721137393266,-0.0004721929435618222,0.004278826527297497,0.04467456854414195,-0.11236903125420214,-9.805480102300645
11.9,0.30000001192092896,79.0,24.398712158203125,-0.015903547406196594,-79.78275155737484,40.45899831237569,270.7301755619049,0.005703717470169067,0.002074539428576827,-0.7483128309249878,0.6633182764053345,-0.0025158015824212425,-0.0076657055475359845,0.011027227675479732,-0.0024523241445422173,0.0014434513868764045,-0.006925140041857958,0.043178151855245234,-0.11108232404105366,-9.806412148475648
12.1,0.30000001192092896,80.0,24.398712158203125,-0.05566241592168808,-79.78275155986793,40.45899831131396,270.7157302570343,0.005702400114387274,0.0020803466904908427,-0.7483131885528564,0.663317859172821,-7.002025454256918e-05,-0.003355587959810813,0.011864455619454274,0.005158565938472748,0.0027593981940299273,0.003496086923405528,0.04615591951645912,-0.12003033642657104,-9.808169821500776
12.2,0.30000001192092896,83.0,24.404972076416016,-0.02385532110929489,-79.78275158600525,40.45899830855497,270.70174939155584,0.005706158000975847,0.0020847611594945192,-0.7483137249946594,0.6633172035217285,0.001178464673365732,-0.0019106703290426312,0.013110911286462155,-0.0002822598908096552,-0.002836802508682013,-0.005206846166402102,0.04391938237007706,-0.10948482817970216,-9.804519404768945
12.4,0.30000001192092896,85.0,24.412485122680664,-0.015903547406196594,-79.78275158839784,40.458998307716534,270.7030493688584,0.005706158000975847,0.0020847611594945192,-0.7483137249946594,0.6633172035217285,0.0011607922027854962,-0.001858399703834572,0.012890668727710686,0.004849397111684085,0.0029118729289621115,0.0055288225412368774,0.04550087147857994,-0.1254435973148793,-9.807847055196763
12.51,0.20000000298023224,89.0,24.411231994628906,-0.02385532110929489,-79.78275161308738,40.45899829769507,270.6887394857406,0.00571079459041357,0.002088933950290084,-0.74831622838974,0.6633142828941345,0.0023313170333426995,-0.0010200735717278836,0.013669595032927744,0.0038503422401845455,0.002911935327574611,-0.0005716230953112245,0.04440196495503188,-0.11214017671532928,-9.805870696306233
12.7,0.20000000298023224,88.0,24.408727645874023,-0.02385532110929489,-79.78275161459946,40.45899829583893,270.69010526657104,0.0057135862298309786,0.002090938622131944,-0.7483170628547668,0.6633133292198181,0.00180803343018658,-0.0009342153333011721,0.013560970312435744,0.0039417287334799775,-0.0002058999525615945,0.0036010029725730423,0.04490871298592538,-0.1268840040732175,-9.808913587331773
12.8,0.20000000298023224,84.0,24.39996337890625,-0.015903547406196594,-79.78275164213079,40.45899832322485,270.67552275180816,0.005709774792194367,0.0020863106474280357,-0.7483167052268982,0.6633138060569763,-0.004203125116718306,-0.0011412802555539785,0.014207495408331253,0.0033766140695661306,0.00024158206360880288,0.006264863070100546,0.04564821217674762,-0.11896571377292275,-9.807497391700744
13.0,0.20000000298023224,82.0,24.40998077392578,-0.015903547406196594,-79.78275164283792,40.45899832759845,270.6769451570511,0.005711349193006754,0.0020868803840130568,-0.7483186721801758,0.6633115410804749,-0.005432229079944523,-0.0010169723518803474,0.014090443019375313,-0.0009030959336087108,-0.002136227209120989,-0.00012106441135983914,0.043952857679687436,-0.12498468224890533,-9.807818988561632
13.1,0.30000001192092896,77.0,24.408727645874023,-0.039758868515491486,-79.78275165162638,40.458998316399295,270.66257304668426,0.00571546470746398,0.0020941360853612427,-0.7483204007148743,0.6633095145225525,-0.003228647537634834,0.001773798450222682,0.013999257189242022,0.004663734696805477,0.0024362041149288416,0.006928951479494572,0.04601672837510705,-0.1237846051901579,-9.807455876469612
13.3,0.30000001192092896,77.0,24.404972076416016,0.2862638533115387,-79.78275168191203,40.458998301484655,270.64607102394103,0.0057205227203667155,0.002097235294058919,-0.7483198046684265,0.6633101105690002,-0.0009041563035266679,0.0015338934842010505,0.011224656334114524,-0.0018503849860280754,0.003832281334325671,-0.005891072563827039,0.043620630763471134,-0.12060259611345828,-9.806474713683127
13.41,0.30000001192092896,77.0,24.354890823364247,1.0416823625564575,-79.7827516800398,40.458998302267254,270.64718408107757,0.0057172090746462345,0.002085275948047638,-0.7482463717460632,0.6633930206298828,0.0012105426941420065,0.001360368782704271,0.011002257550288231,0.0019696170929819345,0.0019618042279034853,0.02964354120194912,0.0415437363088131,-0.09664429692551496,-9.807379277944566
13.6,0.30000001192092896,76.0,24.392452239990234,0.278312087059021,-79.7827517093492,40.45899830013843,270.63225800514215,0.005717867985367775,0.0020650380756706,-0.7483492493629456,0.6632770299911499,-0.0030758251682792143,0.0011167087837898042,0.012510751519750429,-0.008191038854420185,0.004928235895931721,0.00526647362858057,0.030645026543643324,-0.12304880619049073,-9.798127813339232
13.71,0.30000001192092896,75.0,24.392452239990234,0.2942156493663788,-79.78275174525984,40.458998256231844,270.61597616195684,0.005723171401768923,0.0020973584614694123,-0.7482345700263977,0.663406252861023,0.004679395529177757,0.0013215484311015536,0.013332831030231349,0.002251646481454373,0.0011119197588413954,0.0011684464989230035,0.04763738012406976,-0.1220138855651021,-9.810622143745423
13.9,0.30000001192092896,74.0,24.39495658874512,0.2862638533115387,-79.78275174456292,40.45899825229088,270.61730761051183,0.00572458328679204,0.002088463166728616,-0.7483157515525818,0.663314700126648,0.0030368651907247504,0.0012154682168866206,0.01345237946353898,-0.005305299069732429,-0.002568203955888748,-0.012085764668881891,0.04531113846693188,-0.12339866154827178,-9.809505325555802
14.01,0.4000000059604645,73.0,24.39495658874512,0.278312087059021,-79.7827517648402,40.45899825603431,270.6007140350342,0.005714620463550091,0.0020914056804031134,-0.7482665777206421,0.6633703708648682,-0.002636270888731489,0.0036285674286638345,0.010891112440202905,-0.0048275189474225036,-0.0027089500799775124,-0.010518174618482591,0.045603645429946486,-0.12592004489153624,-9.803634136319161
14.2,0.4000000059604645,74.0,24.39119911193848,0.3578298389911652,-79.78275182056187,40.458998233374096,270.5841035318374,0.0057094506919384,0.0020944017451256514,-0.7482595443725586,0.6633782982826233,0.0017932170593566914,-0.00118493068716146,0.009135222084106463,-0.0018318961374461649,0.00026363084907643497,0.006463923957198857,0.041055507506243885,-0.1134872747026384,-9.805098863840103
14.3,0.4000000059604645,74.0,24.37993049621582,0.3975887000560761,-79.78275182221046,40.458998232459436,270.5850010585785,0.005715756677091122,0.0020688199438154697,-0.7482838630676271,0.6633509397506714,1.5360883983247664e-05,-0.0010780790879670174,0.00895162500340372,-0.006045417860150336,-0.00013940130884293467,-0.008957775309681892,0.04318703688215465,-0.13069827075116336,-9.807270519733427
14.5,0.4000000059604645,74.0,23.03898429870605,18.957029342651367,-79.78275182401646,40.458998231970966,270.5858828496933,0.00572894001379609,0.0020723240450024605,-0.7482829689979553,0.6633517742156982,-0.0003380772642195618,-0.0008781599260053566,0.008758723563195582,-0.004820139613002539,-0.0008140947320498526,0.003494322067126632,0.042041142499074334,-0.10962401932105424,-9.804849187731744
14.6,0.4000000059604645,75.0,24.31732940673828,1.3279461860656738,-79.78275184485489,40.458998243001574,270.5686172914505,0.005959794390946628,0.0023922908585518607,-0.748346209526062,0.663277268409729,-0.0034643715145025217,-0.0003251834006857788,0.008639768493562065,-0.0020132979843765497,0.008560520596802235,0.007266862317919731,0.012994765271432698,-0.12512332521378994,-9.794730581045153
14.8,0.4000000059604645,75.0,24.38744354248047,0.2306014448404312,-79.78275189342385,40.458998212725675,270.55302257061004,0.0059226155281066895,0.0024456309620290995,-0.7483621835708618,0.6632593274116516,-0.003346472321833914,0.00015538324761420912,0.009641399110186214,-0.006760692689567804,0.009664233773946762,0.0046999864280223855,0.012841018902836369,-0.14942523054778575,-9.788581649065016
14.9,0.4000000059604645,74.0,23.78019905090332,7.41105318069458,-79.78275189119428,40.45899821374446,270.55399591445916,0.005983955692499876,0.002434608992189169,-0.7483524084091187,0.6632699370384216,-0.003147305209766248,0.0024605954997573877,0.01083981904274033,-0.004115436226129532,-0.0016219130484387279,-0.016297291964292526,0.027192387313116344,-0.097011885792017,-9.800856124162674
15.1,0.4000000059604645,74.0,24.37617492675781,0.2465049922466278,-79.78275195462095,40.45899818030807,270.53775138378137,0.006169939413666725,0.0025999920908361678,-0.748360276222229,0.6632586717605591,-0.0012876367349765735,-0.0010627075944754508,0.012089145631651626,-0.00958780013024807,0.006976690609008074,-0.00303317466750741,0.04321676175110042,-0.09721557903103532,-9.788962302803991
15.2,0.5,73.0,24.37867927551269,0.2465049922466278,-79.7827519912352,40.4589981780107,270.52073091983794,0.006133146584033965,0.0025459639728069305,-0.7483651041984558,0.6632537841796875,-0.003734140207922221,0.002129549319939365,0.008216740234116147,0.019817756488919255,-0.019144300371408463,-0.011371410451829432,0.05371240421198309,-0.11868083559907973,-9.814546794891358
15.4,0.5,72.0,24.260986328125,2.266255617141724,-79.78275198842957,40.4589981827654,270.5215631198883,0.005959558300673962,0.002456982154399157,-0.7483464479446411,0.663276731967926,-0.0061612976048373855,0.001138036539603332,0.008612806606208742,-0.0034172411542385817,0.015845904126763344,0.008151459507644176,0.0453654992999509,-0.0949038275051862,-9.811190493106842
15.51,0.5,73.0,24.170839309692386,4.612029075622559,-79.78275203715913,40.45899816513255,270.5046112012863,0.005887893494218588,0.0023684555198997263,-0.748352587223053,0.6632707715034485,-0.0036039721866170157,0.00044665770572515246,0.007085308036102644,0.0004002023197244853,-0.0013700354611501098,0.004376846365630628,0.058151943809352825,-0.12573359180241825,-9.804849772453313
15.7,0.5,73.0,24.0468864440918,5.772987842559815,-79.78275203510718,40.45899816932256,270.50535566329955,0.005883395206183195,0.002408696571364999,-0.7483661770820618,0.6632553935050964,-0.004961092479791536,0.0007521875947824087,0.0069386560071942535,-0.00612288573756814,-0.006928989663720131,0.014208875596523285,0.023519990989007058,-0.1319546638056636,-9.801325655579568
15.8,0.5,71.0,23.97802352905273,6.9339470863342285,-79.78275212489024,40.458998115004796,270.489059753418,0.006378002930432558,0.0028289465699344873,-0.7483806610107422,0.6632328033447266,0.0034828315780777927,-0.00364127389796109,0.01063100162625762,-0.01477848645299673,-0.05500194057822228,0.06215016171336174,0.025554646162781858,-0.017837397297844292,-9.792447243332862
16.0,0.5,71.0,23.84154891967773,9.494418144226074,-79.78275212887979,40.458998112992994,270.4900110435486,0.006763805169612168,0.0031523376237601037,-0.748416543006897,0.6631870865821838,-0.0009806500068458158,-0.0036673118508145507,0.011183528418210437,-0.0279287789016962,0.04596255347132683,0.02626635134220124,0.05008891208097339,0.04802849946543575,-9.806823207736015
16.1,0.5,69.0,23.755157470703125,10.91778564453125,-79.78275218080427,40.45899806959847,270.47393149852746,0.007843323051929474,0.004347067326307297,-0.7484549283981323,0.6631250381469727,0.009669746797732508,0.0012759747431899304,0.013842885253150809,0.018612412735819817,0.10951488465070723,-0.025025667622685432,0.028929044622927905,-0.17232807990163565,-9.871941894292833
16.3,0.6000000238418579,69.0,23.579870223999023,14.154157638549805,-79.78275226678542,40.45899802535157,270.4575546455383,0.010247997939586641,0.005153008736670017,-0.7484192252159119,0.6631267666816711,0.004896018308757202,-0.00769645738138353,0.01842058698911083,0.04689132422208786,0.03783150389790535,-0.0436536967754364,-0.05082135806791485,0.025869214944541457,-9.804148106575012
16.5,0.6000000238418579,71.0,23.384552001953125,17.581371307373047,-79.78275227964774,40.458998019743404,270.45966405391687,0.011949654668569565,0.005010184831917286,-0.7485948801040649,0.6629010438919067,0.011309521975015141,-0.01163282753454424,0.024205679440673658,0.03217623010277748,0.10499086230993272,-0.05164593458175658,0.05779831060208381,-0.053829302843660116,-9.871588722467424
16.6,0.6000000238418579,68.0,23.29064750671387,19.131967544555664,-79.78275235118177,40.45899795878797,270.44172079086303,0.01443247124552727,0.005284863989800215,-0.7489871382713318,0.6624062657356262,0.020062513970455675,-0.009619023863602132,0.017352210129986438,0.04756533727049828,0.03227512910962105,0.015018577687442303,0.09005898906849323,-0.1835070060566068,-9.795859093666078
16.7,0.6000000238418579,65.0,23.18297004699707,21.104007720947266,-79.78275239659692,40.45899789482233,270.4288925600052,0.009176619350910187,0.0031393792014569053,-0.7507890462875366,0.6604709625244141,0.03462664212421418,0.0002819244620159457,0.0586158146494669,-0.00912743154913187,-0.05129564553499222,-0.09676225483417512,0.09399426570162177,-0.03610070030204952,-10.203164441585539
16.9,0.6000000238418579,62.0,23.38705444335937,17.008844375610348,-79.78275240378386,40.45899786158347,270.4387171936035,0.0055968277156353,-2.877523002098314e-05,-0.750916600227356,0.660373330116272,0.04162007063933506,0.0008555420424239575,0.14777677567590422,-0.1314019113779068,-0.022757608443498608,-0.08510084450244904,-0.011637079484062273,0.05661690808832647,-10.623119655847553
17.0,0.699999988079071,57.0,23.37703895568848,17.470046997070312,-79.78275234175612,40.45899759960175,270.45851153850555,-0.0016259356634691358,-0.008168145082890987,-0.7494216561317444,0.6620407104492188,0.054197030275799515,0.006351817794834559,0.3075392541622468,-0.012435584329068659,-0.1450388729572296,-0.03836793452501297,0.14818540155887605,0.15202530462294814,-10.47451267004013
17.1,0.699999988079071,60.0,23.35074615478516,17.93920135498047,-79.78275235231789,40.45899756051856,270.48949582099914,-0.006515196990221739,-0.007382725831121206,-0.7487325668334961,0.662799060344696,0.049466436556658194,-0.0035882051667054,0.2996223546934357,-0.01516558136790991,-0.015491650439798832,-0.028397522866725918,0.03034537729807198,0.1815066370368004,-9.828999942541124
17.3,0.8000000119209291,64.0,23.27186584472656,18.82980155944824,-79.78275256688902,40.458997474084846,270.504376835823,-0.003980298526585102,-0.0006855427636764944,-0.7483739852905273,0.6632646918296814,0.04355253200230694,-0.004777491354437086,0.19388354274014508,0.1470583826303482,0.028712343424558636,-0.02826640382409096,0.0919655011408031,0.17843149496242405,-9.486257210969926
17.5,0.8000000119209291,70.0,23.344486236572266,17.430288314819336,-79.78275255056104,40.45899748028346,270.50460035324096,-0.0033531805966049433,0.002682950580492616,-0.7494317293167114,0.662067711353302,0.023943458640304213,0.033044179696753884,0.11874018257882915,-0.10340724885463716,0.02448849193751812,0.03704063221812248,0.11741533367894592,-0.14810894921422005,-9.520126038193702
17.6,0.8000000119209291,68.0,23.177963256835927,20.18955421447754,-79.78275251038716,40.4589974496576,270.5152064037323,-0.004709992092102766,-0.0005413547623902558,-0.7500540018081665,0.6613596081733704,0.03682266285879677,0.044370393300096636,0.0985477241535778,0.005526006687432528,0.04014401510357857,0.036336004734039314,0.0336040648422204,0.014834267338737847,-9.622683277130127
17.8,0.8999999761581421,66.0,23.16043472290039,20.475818634033203,-79.78275232841717,40.45899763227271,270.5366954278946,0.00034243572736158967,-0.00466270511969924,-0.7513266801834106,0.6599138379096985,-0.00215751868755113,0.07968108762391365,0.1275174509060162,-0.028484134003520005,-0.012542509473860264,0.024111181497573853,0.012900876346975563,0.13186754029244185,-9.833720984458923
17.91,0.8999999761581421,65.0,23.112855911254893,21.0483455657959,-79.7827522388307,40.458997624373616,270.5491328907013,0.0009437808766961098,-0.006257015280425549,-0.7518210411071777,0.6593368053436279,-0.0028879969268957627,0.0801271919542737,0.1241145847440792,-0.07442468404769897,0.06206495314836503,0.011029223911464214,0.10147317429073156,0.06706306848675013,-9.781246317029
18.1,1.0,67.0,23.12287330627441,20.53148078918457,-79.7827523150603,40.458997537359146,270.54972631454467,8.788373088464141e-05,-0.008881033398211002,-0.7521157264709473,0.6589712500572205,0.01633924958603053,0.06924268105095936,0.13615932143673085,-0.06271892786026001,0.06265870481729507,0.030387494713068005,0.16833552796393633,0.04533377358689904,-9.89408296108246
18.21,1.0,80.0,23.12287330627441,20.595094680786133,-79.78275209544363,40.45899754649279,270.5692936849594,-0.0031900673639029264,-0.010147035121917723,-0.7518244385719299,0.659277617931366,0.0027340699440666113,0.08869207066973445,0.16212381301692705,-0.009533558972179891,-0.05279502272605896,0.015198176726698875,0.2246683161891997,0.00442454697098583,-9.926317491531373
18.4,1.0,85.0,23.12287330627441,20.467866897583008,-79.78275188463769,40.458997536841686,270.6064706516266,-0.003250918118283153,-0.0081230653449893,-0.7507964372634888,0.6604756712913513,-0.014057708729810478,0.09287587985094098,0.2095413838174505,-6.758922609151341e-06,-0.02512546069920063,-0.04462974518537522,0.0722997525986284,0.0882144026644528,-9.998576213121417
18.51,1.0,98.0,23.03022003173828,21.278947830200195,-79.7827520115413,40.45899746239726,270.61943668842315,-0.002046085195615888,-0.0072611686773598185,-0.7503293752670288,0.6610212326049805,0.0006935960560384108,0.06815703099465127,0.2368884632036853,-0.012333128601312636,-3.325237116769131e-07,-0.040196698158979416,0.0987449274212122,0.12817101278342308,-10.051542631387713
18.7,1.0,103.0,23.147912979125977,19.79196548461914,-79.78275155323526,40.45899754293294,270.6473003101349,0.001887552090920508,-0.007398603018373252,-0.7503186464309692,0.6610322594642639,-0.016392441867311643,0.11490312518619974,0.29007296212774697,0.05937428027391434,0.02400955185294152,0.05728933587670326,0.14565980639308693,0.028855707747861743,-10.109197347164157
18.8,0.8999999761581421,101.0,23.11911582946777,20.674612045288086,-79.7827514151355,40.45899755096622,270.6777321767807,0.002891812240704894,-0.006524413358420135,-0.7505241632461548,0.6608044505119324,-0.01920798918593301,0.11859168691412593,0.3058524731272008,0.04052145406603813,-0.012094801291823387,0.01285997312515974,0.20236641442403197,0.0229790961323306,-10.000689396858217
19.0,0.8999999761581421,100.0,23.10158729553223,20.467866897583008,-79.78275127419127,40.45899755708753,270.70911175727844,0.0028128172270953647,-0.005174417048692703,-0.7509741187095642,0.6603055000305176,-0.02073969745635701,0.12555950451913508,0.3178022931879925,0.005589433945715427,-0.04590815305709839,-0.002378921722993255,0.12497997706755995,0.09909588826820256,-9.921888810396196
19.1,0.8999999761581421,109.0,23.67502593994141,5.478772163391113,-79.7827513578638,40.45899758557061,270.7379660081864,0.0038965689018368717,-0.006448425818234682,-0.7524851560592651,0.6585662364959717,-0.009258132455708905,0.07941813945619047,0.2711094886908344,0.019970674067735672,0.0606241300702095,0.02154979109764099,0.09303150337189436,-0.03404774517053739,-9.580961639285087
19.3,0.8999999761581421,113.0,22.841161727905273,23.69628715515137,-79.78275145650173,40.45899765160926,270.7429695796966,0.003813419956713915,-0.0105448504909873,-0.7538438439369202,0.6569579839706421,-0.020684330490488657,0.045610582167262034,0.033522386813069564,-0.08365161716938019,-0.0046145026572048655,0.0012281613890081644,0.19007779637351632,-0.05229807694908232,-8.569752350449562
19.4,0.8000000119209291,121.0,22.92129325866699,22.7977352142334,-79.7827514041305,40.458997664093424,270.74815577983856,0.0011164492461830378,-0.010908535681664944,-0.7545700669288635,0.6561279892921448,-0.024599827245243813,0.041567362446281265,0.08060783792414739,-0.05710349604487418,0.0007745065959170461,-0.0009363964200019836,0.141582013014704,0.06783801642246545,-10.008592493534088
19.6,0.8000000119209291,122.0,22.66963005065918,27.59265518188477,-79.78275109281851,40.45899771528182,270.7964031171798,-0.0016281798016279936,-0.00853778887540102,-0.7555205225944519,0.6550674438476562,-0.037086839977127264,0.06345773670530053,0.3510862596463138,-0.037321239709854126,-0.061185155063867576,-0.010267185047268871,0.1102590543497354,0.13106500080786646,-10.518076765537263
19.7,0.8999999761581421,122.0,22.761030197143555,26.61458778381348,-79.7827509688718,40.458997851275356,270.8080759716034,0.003056964837014675,-0.005417358130216599,-0.7556206583976746,0.6549798846244812,-0.018066599948069584,0.06557334198526574,0.5070202759582776,0.27856478095054626,0.05922556668519974,0.11597388237714767,0.1456049339286983,-0.13396448886953294,-11.543575479984286
19.9,0.8999999761581421,119.0,22.44300842285156,30.96420669555664,-79.78275088716364,40.45899787788513,270.868481464386,0.007538181263953446,-0.003424433758482337,-0.7553296089172363,0.655292809009552,-0.04754196930248687,0.07401189513586777,0.7063729982417054,-0.07873997092247009,-0.03781268373131752,-0.04412667080760002,0.11710259900428355,0.06636604383587838,-11.788600713014604
20.0,1.100000023841858,114.0,22.645841598510746,27.401813507080078,-79.78275077712198,40.458997966882436,271.0320012044906,0.0052101733162999144,-0.002760305302217603,-0.7533688545227051,0.6575718522071838,-0.02134897901188788,0.07743477986885364,1.1418680632412619,0.03783797472715378,-0.0014994115335866807,0.08560247719287872,0.16756493803113698,-0.020595812145620587,-12.042155864238742
20.2,1.100000023841858,110.0,22.581987380981445,28.87289047241211,-79.78275070250406,40.458997975143305,271.15649611473077,0.0035989510361105204,-0.003334529930725693,-0.7520429491996765,0.6590959429740906,-0.01833089673154862,0.0740862480370397,1.350908913151662,-0.05300126597285272,-0.03508706018328667,-0.12451987713575365,0.12970218842849135,-0.016535121873021127,-12.002119978666306
20.3,1.2999999523162842,111.0,22.44050407409668,31.28227806091309,-79.78275065889456,40.45899801934942,271.44207573652267,0.0014708770904690027,-0.0069342958740890035,-0.7485963702201843,0.6629881858825684,-0.015419419242316513,0.07221795224921898,1.7605042268028883,-0.07047450542449951,0.033594869077205665,-0.11022023111581802,0.11271964492276312,0.05512309980578721,-11.899646354913713
20.5,1.399999976158142,114.0,22.339088439941406,32.538658142089844,-79.78275058986567,40.45899803162639,271.62933612585067,0.002069547539576888,-0.0059233782812953,-0.7471656203269958,0.6646082997322083,-0.00022885085081897181,0.08385619600477208,1.9892059753955242,0.0748109295964241,-0.08172372728586197,-0.018978854641318318,0.1559857516922057,-0.10008364744484426,-12.083468781709671
20.6,1.600000023841858,111.0,22.53190422058105,27.83916091918945,-79.78275059620047,40.45899810455821,272.025932021141,0.00513868173584342,0.0021684749517589808,-0.7464903593063354,0.6653729081153871,-0.031241315535141118,0.08868624639764203,2.445666740000056,0.039229515939950936,-0.09838413447141647,-0.039696019142866135,0.2080426172912121,-0.11149457101710142,-12.159587835073474
20.7,1.7000000476837158,110.0,22.53691291809082,28.363977432250977,-79.78275077300077,40.45899815622219,272.2040339947492,0.0050994567573070535,0.0052201300859451285,-0.7468958497047424,0.6649010181427002,-0.04227083757656812,0.07624618788639091,2.5788682412969783,0.06812852621078491,-0.01895357482135296,0.0872318297624588,0.179040135294199,-0.12651896422728898,-11.801380387544633
20.9,1.8999999761581416,120.0,22.63457298278809,26.376033782958984,-79.78275057798174,40.45899814825117,272.75049031496053,0.005104412790387869,0.007968660444021225,-0.7477343082427979,0.6639305949211121,-0.042256889184012436,0.08820357109519758,2.8646166872940086,-0.002596806501969695,-0.014335161074995996,-0.05408503487706184,0.1923855279386044,0.07151734032668174,-11.178649581670758
21.0,2.0,129.0,22.5932559967041,27.51313781738281,-79.78275063354387,40.45899814428875,272.96910262823104,0.005786978639662266,0.006810160353779793,-0.7483998537063599,0.6631876826286316,-0.03902091910006991,0.09349889958121944,2.8895129442237133,-0.04129061102867127,0.09630658477544783,-0.06476225703954698,0.12828971126116812,0.23480543296784165,-10.746508769989012
21.21,2.0999999046325684,142.0,22.76478576660156,23.36231231689453,-79.78275062570937,40.45899817003754,273.47423893928527,0.006834351923316717,0.001013571280054748,-0.7495939135551453,0.6618619561195374,0.00048174680698754695,0.1216146292337168,2.9599528037421945,0.09847807884216307,0.08658475428819656,0.10510744899511336,0.1352114898338914,-0.2124373845756054,-10.447214359045027
21.4,2.0999999046325684,149.0,22.777305603027344,23.664478302001953,-79.78275049108345,40.45899812704667,273.77192742347717,0.006760826800018549,-0.002120831748470664,-0.7499487996101379,0.6614580154418945,-0.01021364076091967,0.14403822776883252,2.9867332742279804,-0.19798538088798529,-0.013662192039191723,-0.04346488416194917,0.17831369183957574,0.02463645743206144,-10.1672625374794
21.5,2.0999999046325684,156.0,22.71345138549805,24.849292755126953,-79.78275035431892,40.458998079841095,274.07121307373046,0.006243042647838593,-0.0049675884656608105,-0.7502772212028503,0.6610752940177917,0.014261026031845116,0.1621426700398361,2.9991312904330125,-0.06919218599796295,0.06421035528182982,-0.009522606618702412,0.15813432935625316,-0.2481639635749161,-9.915468567609787
21.61,2.0999999046325684,163.0,22.74850845336914,23.8076114654541,-79.78275021897598,40.45899810732579,274.606892414093,0.007439252454787494,-0.005401682108640671,-0.7504293918609619,0.6608867645263672,0.020268810366672114,0.15918115603859753,2.9742193198760267,-0.02968189306557178,-0.0739862322807312,-0.05087777972221375,0.1536083103530109,0.09728732619434596,-9.976132260560991
21.8,2.0,175.0,22.74600601196289,23.95869445800781,-79.78274991240063,40.458998240791146,275.24336511611943,0.005995854269713163,-0.005259829107671976,-0.7501393556594849,0.6612317562103271,0.004842226343126258,0.1445605583465542,2.9631731709402,-0.033952414989471436,-0.04505952447652817,-0.09754522889852524,0.15795005070045592,0.08357840118929744,-9.685363674759863
22.0,1.8999999761581416,177.0,22.781063079833984,23.34640884399414,-79.7827497504041,40.458998254964,275.794707365036,0.008173678070306778,-0.006589661817997694,-0.7496121525764465,0.6617940664291382,0.015774725447641896,0.13028956728184285,2.886074164026585,0.002316736150532961,0.013496171683073044,-0.03832149505615234,0.1876979430578649,-0.14346537376753987,-9.713104035258294
22.1,1.7999999523162842,185.0,22.75602149963379,23.65652656555176,-79.78274965608068,40.45899822633061,276.0823953819275,0.008853008039295673,-0.0077196056954562655,-0.7495551109313965,0.6618377566337585,0.015234342489438838,0.13421674755321078,2.8569223012481286,0.002629104070365429,0.004294914193451405,0.02218036353588104,0.18628024907782675,-0.12513544904999435,-9.56500575721264
22.21,1.7000000476837158,189.0,22.62080001831055,25.27868843078613,-79.78274940027549,40.45899792061728,276.26608497619634,0.009382538497447971,-0.011529800482094288,-0.7497730255126953,0.6615281105041504,0.04273673634291995,0.13567199239004624,2.7451987986078783,0.009665208868682384,0.10397378355264664,0.061543140560388565,0.15219008646905424,-0.06574569080024957,-9.579536672830582
22.41,1.600000023841858,202.0,22.76478576660156,23.24303436279297,-79.78274926747294,40.45899781523887,276.81195432662963,0.009921968914568424,-0.0182318314909935,-0.7503942251205444,0.6606645584106445,0.06947078087083562,0.14960956187179852,2.701577548580408,0.040860362350940704,0.07847480475902557,0.03968166187405586,0.2260055378638208,0.11604707607999445,-9.567076256275175
22.5,1.600000023841858,201.0,22.73849296569824,23.42592620849609,-79.78274885692517,40.45899772711113,277.2309926223755,0.00956927426159382,-0.019298188388347626,-0.7511422038078308,0.6597889065742493,0.07352525504592544,0.13419818496831776,2.723628309063635,-0.05240755155682564,-0.03381422907114029,0.000202967319637537,0.2484547711908817,0.06611281371675433,-9.60674318253994
22.7,1.600000023841858,194.0,22.791078567504893,22.46376037597656,-79.78274797176802,40.458997497115455,277.9285286140442,0.005776165053248406,-0.02133888378739357,-0.7542611956596375,0.6562023162841797,0.05079057254580402,0.1384518061264497,2.725252176211104,-0.18767167627811432,-0.09394902735948564,-0.0023982429411262274,0.1224009803775698,0.08716432495974005,-9.517274935841561
22.9,1.7000000476837158,202.0,22.69091415405273,24.30857276916504,-79.78274796594455,40.45899747763612,278.199909992218,0.005923421122133732,-0.020016834139823917,-0.7546129822731018,0.655838131904602,0.0759850863857365,0.10334634532719944,2.693911536008578,0.12466458976268767,-0.0591975562274456,0.05407712236046791,0.13916590696200729,-0.06605769457295538,-9.521518260240557
23.0,1.7999999523162842,210.0,22.62956428527832,25.3900146484375,-79.78274798424279,40.45899747181647,278.46800357818597,0.008152255788445473,-0.0166204422712326,-0.7543640732765198,0.656195342540741,0.053700962734048285,0.07708502280191283,2.6612220120142336,0.12457296252250673,0.016486827284097668,0.04063974320888519,0.11627232179045678,-0.0741007955186069,-9.48764417052269
23.1,1.8999999761581416,218.0,22.67338562011719,24.435800552368164,-79.78274752462389,40.45899731832213,279.15033561706537,0.011143602430820463,-0.01443440932780504,-0.7530192136764526,0.6577457785606384,0.0122690699332659,0.05656210599395465,2.6896302756833337,0.17626304924488068,0.08901535719633102,0.030813852325081825,0.1500947824213654,-0.012736277226358651,-9.65814079284668
23.31,2.0999999046325684,231.0,22.57948303222656,26.034107208251953,-79.78274728896066,40.458997186444,279.833445854187,0.015103101730346681,-0.009018752723932266,-0.7502105236053467,0.660965085029602,-0.020587310009383082,0.03766564348330805,2.720597786616553,0.06015873700380325,0.012287044897675514,0.008006511256098747,0.2585221781954169,-0.08013230809941889,-9.701087422370913
23.5,2.299999952316284,230.0,22.57948303222656,25.97049331665039,-79.78274735472425,40.458997196329655,280.10509950637817,0.015272454358637331,-0.007832344621419907,-0.7490230202674866,0.6623216271400452,-0.031795063701581534,0.02546639622373547,2.708818850649619,-0.020755179226398468,-0.09408266097307204,0.012954029254615309,0.25455060314387085,-0.25158982895314697,-9.704999794363976
23.6,2.4000000953674316,236.0,22.688411712646484,24.87314796447754,-79.78274700683944,40.458996996685016,280.53055603027343,0.015216274186968803,-0.00966189056634903,-0.7481606006622314,0.6632729172706604,-0.018910922985311468,0.02641141572911371,2.7625306584154323,0.006358301732689142,0.053413335233926766,-0.008777963928878306,0.2695715154334903,-0.0594896908197552,-9.667002248167991
23.8,2.299999952316284,236.0,22.481822967529297,27.33819961547852,-79.78274696705925,40.458996976267954,281.51304752349847,0.01422951463609934,-0.014166681095957756,-0.7468676567077637,0.6646695137023926,0.01903453077938094,0.02236583836556313,2.7931315635209155,0.0026540961116552357,0.03986955061554909,0.007103714626282454,0.27709881886839866,0.19322281267493965,-9.597040897607805
23.91,2.4000000953674316,236.0,22.63707733154297,25.596759796142567,-79.78274709464398,40.45899695347031,281.7926486206054,0.011543363332748413,-0.012767921201884748,-0.7471597194671631,0.6644216775894165,0.044938127499740486,0.0030798646876638107,2.8051291643931915,0.025532806292176247,-0.09812067449092864,0.0443771593272686,0.2355095108225941,-0.22416379284113647,-9.859263961315156
24.0,2.4000000953674316,237.0,22.53190422058105,26.43964767456055,-79.78274692321959,40.45899675739089,282.2137406539917,0.00882696732878685,-0.011538865976035595,-0.7475389242172241,0.6640591025352478,0.04600307632128095,-0.017158743509543332,2.8868024756545765,-0.08639147132635118,-0.09408073872327803,-0.0422004908323288,0.2960501929745078,0.09738946974277496,-9.924115430116654
24.2,2.4000000953674316,250.0,22.54818153381348,26.50326156616211,-79.7827469213783,40.45899658247089,282.9125092697144,0.006917809601873159,-0.01146778929978609,-0.7489486932754517,0.6624926328659058,0.06702077733226419,-0.032803652872610216,2.93318170388704,-0.06033487990498543,-0.014840517193078996,-0.013427985832095146,0.22442848898470397,0.17895480249077084,-9.770138361454011
24.3,2.299999952316284,254.0,22.52439308166504,26.06591415405273,-79.78274706325256,40.45899654853906,283.2050679397583,0.006885473150759935,-0.012934045866131784,-0.7494510412216187,0.6618977189064026,0.05705931309394454,-0.040663473454989205,2.9248154812608504,-0.0793674886226654,-0.03243299946188927,-0.02700581960380077,0.2134954199753702,0.09630130290985107,-9.737253620624543
24.5,2.200000047683716,259.0,22.60076713562012,25.47748374938965,-79.78274716146798,40.45899619843175,283.8804047775268,0.0073309154249727735,-0.014540309086441994,-0.7490708231925964,0.6622898578643799,0.10485457898133044,-0.016179244563201176,2.970487603412797,-0.05120814219117165,-0.0247337743639946,-0.06221019476652145,0.2603581856377423,-0.11300692593678832,-9.785780832767488
24.7,2.200000047683716,262.0,22.509366989135746,26.15338516235352,-79.78274722990491,40.458995738524116,284.5581505966186,0.006069328635931015,-0.010387566871941091,-0.74815434217453,0.6634156703948975,0.12446755374356785,-0.006277731271954397,2.999163103167469,0.1074136644601822,-0.007216945756226778,0.03451811522245407,0.2478781809099019,0.18871979881078005,-9.714734823703767
24.81,1.8999999761581416,264.0,22.52814865112305,27.099645614624023,-79.7827473556009,40.45899566356547,284.858200378418,0.006172375753521918,-0.009835421107709408,-0.7479694485664368,0.6636315584182739,0.12000749506109218,-0.02759411389729941,3.0012154084029405,0.09585872292518616,-0.015719670802354813,0.032986290752887726,0.2391264156997204,-0.17241041600704193,-9.825352449417117
24.9,1.7000000476837158,263.0,22.466798782348643,26.781574249267567,-79.7827474803071,40.458995589606815,285.1588967514038,0.00607477780431509,-0.008656270802021027,-0.7481178641319275,0.6634816527366638,0.09010453354427443,-0.024966708078442944,3.014896254378104,-0.11930906027555464,-0.04375551640987396,-0.034088477492332465,0.226395821236074,0.1600910269841552,-9.928910146951676
25.1,1.600000023841858,268.0,22.52439308166504,26.06591415405273,-79.78274759622835,40.458995389356154,285.8092768859863,0.003498423844575882,-0.008567332290112972,-0.7489052414894104,0.6626124978065491,0.1237303104424696,-0.036464213692725504,3.0521868838179644,0.1324719935655594,0.03104057908058166,0.07469814270734787,0.22138346007093787,-0.22541760032996536,-9.873956844806672
25.3,1.7000000476837158,268.0,22.50060272216797,26.081817626953125,-79.78274733324248,40.45899551784032,286.15451747894286,0.001954598817974329,-0.00953231193125248,-0.7492151856422424,0.6622552871704102,0.06623081600348679,0.0015473109069982904,3.0537083891514736,-0.12227527052164078,-0.027471326291561127,-0.010847305878996849,0.21957575680688024,0.08581347196362914,-9.922006924152377
25.4,1.8999999761581416,264.0,22.55945014953613,25.31049728393555,-79.78274743913937,40.45899544277054,286.76661426544183,-0.0011512571945786474,-0.011073263362050056,-0.7496991157531738,0.6616852283477783,0.08836984725417832,0.016584761079079663,3.0584701416171294,0.06749257445335388,-0.010499984957277777,0.11752280592918395,0.1697173712030053,0.2141724544577301,-9.862883387804034
25.6,1.8999999761581416,263.0,22.479318618774414,26.050010681152344,-79.78274758728249,40.45899542546727,287.3944867324828,-0.0003628441772889346,-0.010984636843204498,-0.7502304315567017,0.6610851883888245,0.07448713468334052,0.01658551646936391,3.021945456298954,0.1578035205602646,0.06819137185811996,0.12448084354400635,0.2877861951850355,0.11214124565944077,-9.730114170312882
25.7,2.0999999046325684,261.0,22.471805572509766,26.495309829711914,-79.78274778442079,40.458995447884334,287.7160723876953,0.002569254254922271,-0.009565232321619987,-0.7501713633537292,0.6611694097518921,0.0546355146274567,0.0001877350796205824,3.0174030036818387,-0.008864359930157661,-0.01654500886797905,-0.008444378152489662,0.2551960626617074,-0.0112767025642097,-9.745176597833632
25.9,2.0999999046325684,260.0,22.41671562194824,27.354103088378906,-79.78274784004951,40.45899544615916,288.0176356506348,0.0052731456235051155,-0.009160981513559818,-0.7501255869865417,0.6612108945846558,0.021976837959414703,0.013779814962267331,3.015976520224981,-0.03545717895030975,0.01393661182373762,-0.049290817230939865,0.19908950686454774,0.05775597310625018,-9.734143486618995
26.0,2.0999999046325684,263.0,22.491838455200195,25.97049331665039,-79.78274777504117,40.458995330245045,288.6544058990478,0.0067903725430369394,-0.010169153101742271,-0.7495703101158142,0.6618117690086365,0.027583375790939776,0.04465045613783914,3.0444223643465587,-0.037318866699934006,-0.025888394564390186,-0.031960874795913696,0.287473277784884,0.06519840055145322,-9.9169455742836
26.2,2.0,266.0,22.54692840576172,24.36423492431641,-79.78274780830974,40.45899537940232,289.2873233032226,0.00824861042201519,-0.009230794385075573,-0.7492109537124634,0.6622157692909241,0.033131397127009146,0.03338351464671498,3.0602800441620612,0.19324275851249686,0.03753090649843216,0.10463763773441316,0.2102865045703948,0.08847948253154755,-9.906744521856307
26.3,2.0999999046325684,272.0,22.525644302368164,25.11965370178223,-79.78274785778856,40.458995368757655,289.5930083465576,0.008201049640774727,-0.008770179003477097,-0.7489708662033081,0.6624941825866699,0.013048903061707029,0.03470430694767708,3.0486529515183016,-0.0667593777179718,-0.04141094908118248,-0.025821907445788383,0.2499617631174624,0.061184003781527274,-9.747331296801569
26.41,2.200000047683716,274.0,22.483074188232425,26.26470947265625,-79.78274790456015,40.458995353371186,289.8970568847656,0.00750692980363965,-0.007484658155590295,-0.7488527894020081,0.6626515984535217,0.022003426317349487,0.040649778124884836,3.0364663716599805,-0.03147507831454277,-0.004766007885336876,-0.04512762650847435,0.2148734990693629,0.14588247567415238,-9.659173411130906
26.6,2.4000000953674316,276.0,22.455530166625977,25.93868637084961,-79.7827479693712,40.45899534591119,290.5259345245361,0.0050444956868886965,-0.0052825617603957644,-0.7484675049781799,0.6631313562393188,0.02421516560571457,0.02311432801253524,3.0465079421957806,-0.04117528721690178,-0.011370064690709114,-0.04455126076936722,0.2265520698018373,0.22068575933575632,-9.858036046028138
26.7,2.4000000953674316,277.0,22.491838455200195,25.60471153259277,-79.78274800034923,40.45899538924183,290.8488791656493,0.002351678675040603,-0.006237966939806938,-0.7480981945991516,0.6635545492172241,0.04259601441757832,0.011267652562247607,3.0540495702958297,-0.03940625488758087,0.011261305771768091,0.0024323256220668554,0.2118179634399712,-0.026082734246738255,-9.87912227511406
26.9,2.299999952316284,280.0,22.501855850219727,25.44567680358887,-79.78274806140774,40.458995329345434,291.46344024658197,0.00021465716417878863,-0.005910741165280342,-0.7470366358757019,0.6647565960884094,0.0647149244466032,0.022405278239060928,3.089313050638777,0.11286786198616028,0.030212899670004845,-0.05181444436311722,0.2626008852012456,0.196552582718432,-9.948334597349168
27.1,2.299999952316284,283.0,22.44426155090332,26.20109558105469,-79.78274813658678,40.45899534349197,292.09841186523437,0.005908311810344458,-0.005608971230685711,-0.7473321557044983,0.6644006967544556,0.029583294014575105,0.02894831240666136,3.1022268754260955,-0.0977158397436142,-0.01460008043795824,-0.03398680314421654,0.271188288833946,-0.11189008947461844,-9.960251222848893
27.21,2.200000047683716,293.0,22.35787010192871,26.94061088562012,-79.78274808014008,40.458995399348105,292.4255927276611,0.005291890818625689,-0.0060614803805947295,-0.7478176951408386,0.6638553738594055,0.035008644722552,0.04801490608826463,3.118862467062314,0.008696041069924831,0.043715275824069984,0.05707590281963349,0.2343322835862637,0.031067334841936824,-10.02685802578926
27.3,2.200000047683716,296.0,22.390422821044922,27.41771697998047,-79.78274808876533,40.45899536457463,292.73929244995117,0.0036068046465516095,-0.005879493430256844,-0.7484084367752075,0.6632022857666016,0.04827608961231214,0.04988171359188704,3.1526882001894063,-0.037192169576883316,-0.0937320813536644,0.06415893137454988,0.2474348888732493,-0.13589917721226813,-10.148704644441603
27.5,2.299999952316284,304.0,22.501855850219727,24.74592018127441,-79.7827480719709,40.45899527622037,293.3807433319092,0.002827892079949379,-0.006897852756083012,-0.7498581409454346,0.6615566611289978,0.06525446025855569,0.048745398992786286,3.161302977599953,-0.060885857790708535,0.030255666002631187,-0.03993862867355347,0.2272158384136856,0.08030893055722117,-9.88583487868309
27.7,2.4000000953674316,307.0,22.57697868347168,23.4179744720459,-79.78274807093317,40.45899522173943,293.6966994476318,0.0032005468383431435,-0.009089415892958641,-0.7500336170196533,0.6613295078277588,0.07680638397639374,0.05702594929287583,3.1575880764601125,-0.031604327261447906,0.049318641424179084,0.06294688582420349,0.16667252501472832,0.015341613795608285,-9.784180449843408
27.8,2.5999999046325684,311.0,22.622053146362305,22.805686950683594,-79.78274796689514,40.45899520149735,294.02661163330083,0.004386756103485823,-0.011725349351763724,-0.749841570854187,0.6614990234375,0.08751802612282547,0.06834382860204903,3.136094176217516,0.0023009732831269503,0.0047327633947134035,-0.05110223218798637,0.3334364127740264,0.04124770274385809,-9.578668361306187
27.9,2.5999999046325684,314.0,22.466798782348643,25.49338722229004,-79.78274794248566,40.4589950862279,294.64795333862304,0.0018227362306788566,-0.016127901151776314,-0.7489117980003357,0.6624709367752075,0.09421877281084824,0.09874251150098884,3.074356595809527,-0.052808467298746116,0.05661233887076377,0.03808111697435379,0.2050737300887704,0.09760271952487527,-9.515171107649804
28.1,2.5999999046325684,318.0,22.505611419677734,24.642547607421875,-79.78274780229984,40.45899498789241,295.2809127044677,0.00119174481369555,-0.017104284837841988,-0.7471692562103271,0.6644126772880554,0.13069999065216692,0.10322452651849373,3.0270263395353605,0.04356482997536658,-0.0017710909014567735,0.0012288048164919019,0.2483619831874967,0.1570760564133525,-9.549967303276064
28.2,2.700000047683716,319.0,22.445512771606445,26.58278083801269,-79.78274762734377,40.45899492118069,295.6140425872802,0.0008171143126673996,-0.014634869992733003,-0.7467250227928162,0.6649714112281799,0.1076705918491342,0.11108039472015853,3.037506451924173,-0.08628158271312714,-0.03721261769533157,-0.09540951251983644,0.2426577685028315,0.3167638447880745,-9.658417950868607
28.4,2.700000047683716,321.0,22.514375686645508,24.467607498168945,-79.78274756832684,40.45899484399444,296.22511131286615,-0.003339957678690553,-0.01560759823769331,-0.7475811243057251,0.6639787554740906,0.09672789494671112,0.09323975849884217,3.073240857032648,0.0538073405623436,0.03772776201367378,0.08680164813995361,0.22134154284372928,0.10954376628622413,-9.97421203494072
28.6,2.799999952316284,320.0,22.538164138793945,24.44375228881836,-79.78274743014082,40.45899483546626,296.5614073944092,-0.0018917069537565114,-0.015483806841075419,-0.7479289174079895,0.6635955572128296,0.11004196165985794,0.10390551768317684,3.0960531700160163,0.04315190389752388,-0.08210550993680954,0.07891866564750671,0.2940048552118242,-0.02898183401674032,-9.938577933311462
28.71,2.9000000953674316,316.0,22.529399871826172,24.35628318786621,-79.78274737339721,40.45899480688816,296.8721240234375,0.0021061000879853964,-0.01274444255977869,-0.7484561204910278,0.6630585193634033,0.1017756877309324,0.12246224376511705,3.1094785252230763,0.2079599946737289,0.05630695819854736,0.11832715570926665,0.27524923492223025,0.034237430216744545,-9.924191443920137
28.8,3.0,314.0,22.62330436706543,22.551231384277344,-79.7827471571645,40.458994807818925,297.517380065918,0.00838205125182867,-0.010408354923129082,-0.7487162947654724,0.6627559661865234,0.04547826674119952,0.14735572676921754,3.137596643110085,0.03766035661101341,0.055941544473171234,0.038421981036663055,0.3979167295619845,0.08398125607520343,-9.913676980733873
29.0,3.0,312.0,22.55319023132324,23.608816146850586,-79.7827469019123,40.458994768290744,298.16122276306146,0.008309601806104183,-0.017485069110989567,-0.7480183243751526,0.6633957028388977,0.061268096572532786,0.1823095058146365,3.1128720085077055,-0.0012677153572440147,0.10264070332050323,-0.009088151156902313,0.4138054051995277,0.1631540543586016,-9.753731074333194
29.1,3.0,313.0,22.56320571899414,23.1873722076416,-79.78274681040403,40.45899471403364,298.47306282043456,0.00876240711659193,-0.021087819710373882,-0.7474517822265625,0.663923442363739,0.08803877406002772,0.2000039529794302,3.1148910643967183,-0.005938807502388954,0.0855153426527977,0.032765068113803864,0.3927717645093799,0.1204972365964204,-9.811346029043198
29.3,3.0,312.0,22.50686264038086,24.34037971496582,-79.7827465231415,40.45899471943192,299.11489898681634,0.008222023025155067,-0.023488478735089302,-0.7462990283966064,0.6651455163955688,0.0985048614990612,0.2218350413624462,3.09427062364576,-0.05943774431943893,-0.031985245645046234,0.030512170866131783,0.41028603918850426,0.11998773397877813,-9.734107233881947
29.5,3.0999999046325684,310.0,22.53315734863281,24.08592414855957,-79.78274643855559,40.45899467015495,299.42488319396966,0.007566964253783227,-0.022763211280107498,-0.7458164095878601,0.6657195091247559,0.1075461289897756,0.21712537641240787,3.0884656680217053,0.0618102177977562,0.03786059841513634,-0.010961844585835934,0.43871165681630375,0.18057146625593307,-9.74743069946766
29.6,3.0999999046325684,308.0,22.40043830871582,25.52519416809082,-79.78274616809979,40.45899462001271,300.0688422393799,0.004980951081961393,-0.02280417270958424,-0.7452476024627686,0.6663792133331299,0.10207647311557808,0.20051616671309092,3.0986984230520123,-0.06722423434257507,-0.02279789745807648,-0.11913347244262695,0.4493720080330968,0.3740823456645012,-9.818569679260257
29.7,3.0999999046325684,304.0,22.515628814697266,24.12568283081055,-79.78274596850072,40.45899468188549,300.3994010162353,0.005858807358890772,-0.0226502176374197,-0.7451531887054443,0.6664829254150391,0.11047278894761813,0.19616481842016634,3.1162468432226365,0.12535680830478668,0.10074645280838013,0.010232219472527504,0.3911456172913313,0.17747708318755032,-9.886075783967973
29.9,3.0999999046325684,306.0,22.48432731628418,24.563030242919922,-79.78274582592563,40.458994622151735,301.02286750793456,0.008310510776937008,-0.02322767861187458,-0.7455642223358154,0.6659770607948303,0.08364633787659242,0.1933963198945529,3.092753992921194,0.0274097379297018,-0.007907403632998466,-0.012903995811939241,0.4017041904106736,0.19278489276766772,-9.631656998991966
30.1,3.0999999046325684,307.0,22.54317283630371,23.537250518798828,-79.78274567014955,40.458994656404016,301.3543952178955,0.0081175547093153,-0.02324697747826576,-0.7460002899169922,0.6654902696609497,0.0867175675778501,0.1890101700493032,3.0741954568816734,0.02445647120475769,-0.06216343492269516,0.12693384289741516,0.3983974803239108,-0.0033118081279098987,-9.5717750787735
30.2,3.0,310.0,22.55694580078125,23.131710052490234,-79.78274538085789,40.45899465393165,301.9912284088135,0.008023097179830073,-0.0208808109164238,-0.7469962835311891,0.6644518375396729,0.09351125440022018,0.17864614393163913,3.0203875313643733,0.03262384980916977,-0.03821512311697006,0.018736453726887703,0.3834548841789365,0.21105007784441115,-9.437468628287316
30.4,3.0,310.0,22.41045570373535,25.80350685119629,-79.78274533974218,40.45899461624674,302.29282981872564,0.006662773434072733,-0.019565330818295482,-0.7475810050964355,0.6638490557670593,0.08184137146992965,0.17067146943768488,3.0083935674229068,-0.0555722638964653,-0.05069585144519806,-0.09940269589424132,0.4156895608082414,0.2607081963121891,-9.600445731282237
30.51,3.0,310.0,22.421724319458008,25.5570011138916,-79.78274529791672,40.458994580487754,302.59380943298333,0.004917391575872897,-0.018936658278107643,-0.7479898929595947,0.6634217500686646,0.07789596472476344,0.15945327912597962,3.0056527520645524,-0.09672904759645462,-0.08166259527206421,-0.09676552563905716,0.4264664908871055,0.29686200577765703,-9.756285722851754
30.6,3.0,310.0,22.419219970703125,25.33435249328613,-79.78274506398922,40.4589945812709,303.23835021972656,0.004042667336761952,-0.02014381624758244,-0.7480454444885254,0.6633294820785522,0.09435632268054442,0.15531554874754194,3.1077139788372534,0.02699299342930317,-0.01717783510684967,0.08178777992725372,0.32058869127184153,0.061544228810817,-10.131842443943023
30.8,3.0,309.0,22.485578536987305,24.3721866607666,-79.78274492264462,40.458994625799605,303.878931350708,0.006367005407810211,-0.020687349140644073,-0.7478274703025818,0.6635401844978333,0.09325149031885804,0.16291172411265364,3.1722487564165336,0.06899477541446686,0.08441521972417831,-0.07846072316169739,0.4928578604757786,0.10236908650025726,-10.218177752494812
31.0,3.0,311.0,22.471805572509766,24.29266929626465,-79.78274487481299,40.458994599188244,304.19798309326166,0.006112582050263882,-0.023671342059969902,-0.7472995519638062,0.6640374660491943,0.0803409391495235,0.16965277935912926,3.1903182732677924,-0.015739979222416878,0.08238235116004944,-0.06842565536499022,0.4677275143191218,0.31314949806779624,-9.975154606103898
31.1,2.9000000953674316,315.0,22.50686264038086,23.720142364501953,-79.78274467733858,40.45899453453875,304.82866317749017,0.007150585297495127,-0.02333803847432136,-0.7452511191368103,0.6663370728492737,0.1254014019337798,0.17001258632036606,3.1474104190805385,0.190152108669281,0.013449637219309809,-0.01302468590438366,0.367477294318378,0.2448161219805479,-9.778071863651276
31.3,2.9000000953674316,315.0,22.47430992126465,24.02230834960937,-79.78274460477282,40.45899460779586,305.1497271728516,0.010959465056657793,-0.019330449402332302,-0.7449794411659241,0.6667172908782959,0.1136827183920758,0.1521663172864258,3.1288590522797257,0.11761566996574402,0.017154624685645103,0.031581174582242966,0.31784473914653066,0.17135300187394026,-9.708573612570763
31.41,2.9000000953674316,313.0,22.52439308166504,23.12375831604004,-79.78274459148042,40.45899452703205,305.7739833068848,0.006110843271017075,-0.0217041615396738,-0.7479483485221863,0.6633738279342651,0.06391082022072586,0.14039991170833127,3.11128803850176,-0.114307202398777,-0.016944963485002518,0.0220540463924408,0.3771498315408826,0.0791547358687967,-9.72803665459156
31.6,3.0,311.0,22.53065299987793,23.77580451965332,-79.7827445211124,40.458994571214006,306.0978587341308,0.001870895037427545,-0.02676066756248474,-0.7493032813072205,0.6616834402084351,0.08983442332215066,0.13870172485591564,3.0943778701068374,-0.06481939554214478,-0.034016706049442284,0.04441579431295395,0.4524292978271842,0.0490905730985105,-9.615592943429947
31.7,3.0999999046325684,307.0,22.44426155090332,24.849292755126953,-79.78274452579642,40.458994609189844,306.7329524230957,0.005738439038395882,-0.02482834830880165,-0.7496620416641235,0.6613301634788513,0.13486722822109068,0.14900615592728314,3.0444974804927742,0.1843501180410385,0.006052125245332718,-0.002538517815992236,0.4971670025959611,0.17765167739242316,-9.5275122410059
31.9,3.2000000476837163,307.0,22.56320571899414,22.90906143188477,-79.78274449012436,40.45899456918502,307.34373123168945,0.018966881558299058,-0.01848544180393219,-0.746567964553833,0.6647818684577942,0.05014762578059778,0.16330112973469152,3.053768825017612,0.07838593423366548,0.044705521315336234,0.03146470710635185,0.4694162998348474,0.07100883356295526,-9.754832689762116
32.0,3.299999952316284,308.0,22.356616973876953,26.081817626953125,-79.78274441900021,40.4589946223906,307.67203552246093,0.01860198937356472,-0.02134765312075615,-0.7454825639724731,0.6659234166145325,0.024649631411964,0.17991232839888086,3.071513249467752,-0.1173560470342636,-0.004740450996905565,-0.00775080779567361,0.5963685244694352,-0.039437747388146815,-9.890644798278807
32.1,3.299999952316284,307.0,22.44050407409668,25.135557174682607,-79.78274440204417,40.45899458315818,307.980587310791,0.012255767360329628,-0.025413431227207184,-0.7446306943893433,0.666880190372467,0.05031345600151235,0.18946111626371626,3.0828823635574105,-0.07749297469854355,-0.04604998230934143,0.018861906602978703,0.5323187454789877,0.15245946038514374,-9.879220508337019
32.3,3.4000000953674316,305.0,22.45052146911621,24.10977935791016,-79.7827443196209,40.458994644662745,308.614979095459,0.005714177619665861,-0.03130118548870087,-0.7442672252655029,0.6671236157417297,0.1309461947391949,0.17198763439154696,3.119054503843398,0.02928314171731472,0.053809169679880135,0.10149199515581132,0.5063512242212892,0.156323976572603,-9.93076839208603
32.4,3.5,305.0,22.491838455200195,23.799659729003906,-79.78274431232312,40.4589946071249,308.927536315918,0.009593592956662178,-0.031143171712756164,-0.7444716095924377,0.6668584942817688,0.13906896784949596,0.1807438231775219,3.111129228278706,0.09488815814256668,0.062297563999891274,-0.013034526258707048,0.4850709041208029,0.29791048463433983,-9.6965213316679
32.61,3.700000047683716,302.0,22.48056983947754,24.39604187011719,-79.78274433660998,40.458994614273045,309.5519259643554,0.016863925382494926,-0.029859676957130432,-0.7448857426643372,0.66631019115448,0.09250508356149093,0.20638727941517954,3.0451314751267002,0.04179674386978149,-0.015919491648674008,0.0503293015062809,0.6434268794953824,0.05765469750389458,-9.5098478025198
32.8,3.799999952316284,300.0,22.41796875,25.20712280273437,-79.78274425278161,40.458994701917156,309.8697131347656,0.01520603522658348,-0.02920564822852612,-0.7450090050697327,0.6662412881851196,0.08317784500754771,0.21610225764372326,3.017453445179084,-0.00035960812238045037,0.0027145158965140572,-0.06829968094825745,0.6463361616432667,0.21054495150223376,-9.392542131543161
32.9,3.9000000953674316,302.0,22.40419578552246,25.294591903686523,-79.78274424342062,40.458994668398105,310.1698840332031,0.013819879852235315,-0.027847768738865845,-0.7456672191619873,0.6655929684638977,0.08702611777173877,0.20768198988435246,2.9709183728464765,-0.012560438364744186,-0.025988796725869186,-0.03300023823976517,0.6377349074184895,0.26670897446572783,-9.327004199624064
33.0,4.0,304.0,22.296518325805664,27.131452560424805,-79.78274410590481,40.45899488497672,310.76627380371093,0.014129794202744959,-0.032191578298807144,-0.7454508543014526,0.6656329035758972,0.07147103068080253,0.17963611369079113,2.918830687313821,-0.0490698367357254,0.03455928713083267,-0.05562196299433708,0.5590529097989202,0.2700979110226035,-9.575283408164976
33.2,3.9000000953674316,307.0,22.2714786529541,27.43362045288086,-79.78274403212261,40.458995221266,311.35573989868163,0.01228127256035805,-0.034454673528671265,-0.7454920411109924,0.6655101180076599,0.07256430268299224,0.1898433536746431,2.8911552037393777,0.03245957940816878,-0.11692521721124648,-0.03140844777226448,0.5947945271059871,0.2638285629451275,-9.549225876331331
33.3,3.9000000953674316,310.0,22.31780433654785,26.42374420166016,-79.78274407133709,40.45899522741039,311.64691192626947,0.00973682012408972,-0.031447891145944595,-0.7453898787498474,0.6658154129981995,0.0729895453745169,0.15520795293690065,2.9200146712442696,0.017445603385567658,-0.0366169810295105,-0.027050664648413655,0.50431069213897,0.34649320878088474,-9.929881954193117
33.51,3.9000000953674316,310.0,22.324064254760746,26.65434646606445,-79.7827441332134,40.458995238398046,311.9409754943848,0.008262821473181248,-0.02991274185478688,-0.7448883056640625,0.6664671301841736,0.07030437682102564,0.11717190767869327,2.9575463598743394,-0.04712177440524101,-0.02512015961110592,-0.09131450206041336,0.5542683890461922,0.3260490770637989,-10.128784350156783
33.7,4.0,310.0,22.41546440124512,23.990501403808594,-79.78274396680962,40.45899620877313,312.5542109680176,0.006977259647101164,-0.027537256479263302,-0.7446215152740479,0.6668822169303894,-0.008335801172275857,0.10327468410922097,3.0944761361902384,0.09953370690345764,-0.0026162292342633013,0.031420163810253136,0.5968991227447987,0.11976252481341362,-10.423086408376694
33.81,4.0,309.0,22.320308685302734,25.10375022888184,-79.78274421162129,40.45899587902545,313.137325592041,0.003286257153376937,-0.024056605994701385,-0.7454544901847839,0.6661141514778137,0.036003379306062656,0.10543304358442317,3.07895106144297,-0.1446687877178192,-0.17481431365013125,-0.030029792338609695,0.5998246674612164,0.21454084731638431,-9.892015385627747
34.0,4.0,309.0,22.360374450683594,25.596759796142567,-79.78274424051662,40.45899591900988,313.44603759765624,-0.0022148366551846266,-0.02188647352159024,-0.7457635402679443,0.6658474802970886,0.03521066887020415,0.10539868884922833,3.0917722801223864,-0.054148532450199134,-0.02843000367283821,-0.0706489086151123,0.6453780953586102,0.25855464851483706,-9.944266104698182
34.11,4.0,309.0,22.371641159057614,24.68230628967285,-79.78274460559886,40.45899615486976,313.7345164489746,-0.002991854911670089,-0.021879892796278,-0.7457455992698669,0.6658647656440735,0.06201978090083626,0.05199078936795902,3.0650068124597203,0.052662581205368035,0.11984943598508835,0.03549925237894058,0.3610606694966555,0.23054412838071586,-9.842984143495562
34.3,3.9000000953674316,310.0,22.50060272216797,23.306650161743164,-79.78274469943544,40.45899633903775,314.3553355407715,0.009392557665705679,-0.023928551003336903,-0.7447850704193115,0.6668092608451843,0.055020228759789014,0.11089200777921614,3.0757087414816886,0.04816872254014015,0.09165185689926147,-0.05110080540180206,0.5177398826926947,0.3235432527959347,-9.91198947429657
34.4,3.9000000953674316,310.0,22.499351501464844,22.69436264038086,-79.78274468553026,40.458996383190176,314.97142059326166,0.015539184212684631,-0.029390545561909683,-0.7448001503944397,0.6664589047431946,0.026704439278912973,0.17786855066533228,3.066134391016147,0.02385682985186577,0.12859869003295898,0.013635463081300259,0.6148421810567379,0.16936195185407998,-9.707137536406515
34.5,3.9000000953674316,311.0,22.42422866821289,24.563030242919922,-79.78274468249907,40.45899659675162,315.27659255981445,0.01647775061428547,-0.032253872603178024,-0.7448775768280029,0.6662173271179199,0.04023706896760079,0.17248082311464633,3.018697532899888,-0.04090511053800583,0.08526328206062317,-0.012127184309065342,0.5523506850376726,0.21958085484802725,-9.50553957402706
34.7,3.9000000953674316,309.0,22.45052146911621,23.64857482910156,-79.78274464576414,40.45899679900709,315.8919337463379,0.0118287717923522,-0.03419613465666771,-0.744943380355835,0.6661457419395447,0.06235376824757636,0.1807554094124552,3.0012804748904616,-0.09713225811719894,-0.11078150570392607,-0.10007957369089128,0.607167600877583,0.306365010291338,-9.626766387820243
34.8,3.9000000953674316,307.0,22.4279842376709,24.11773109436035,-79.78274469595237,40.458996809489115,316.19175369262695,0.00576012022793293,-0.03333089500665665,-0.7455926537513733,0.6655430197715759,0.06748704122914223,0.14962821640941767,2.9870431162811806,-0.11609990894794465,-0.08216541260480881,-0.05313771218061447,0.5678170455247165,0.3687391600012779,-9.658127928972243
35.0,4.0,304.0,22.22139549255371,27.179162979125977,-79.78274469429499,40.458997018949646,316.80662185668945,-0.0008899969398044051,-0.030270319432020187,-0.7465083003044128,0.6646866202354431,0.0823715642720809,0.11215294084570228,2.958938998529632,0.05983758345246315,0.012651795521378515,-0.02249554358422756,0.5429109035432339,0.22475622542202472,-9.615312861800195
35.2,4.099999904632568,301.0,22.35787010192871,25.262784957885746,-79.78274472532942,40.45899717792923,317.4236033630371,0.006867100950330496,-0.01921150274574757,-0.7461575269699097,0.6654568314552307,0.032635035180658696,0.09193693364610872,2.9864724055099847,0.18846184015274048,0.08806924521923065,-0.04269964247941972,0.5019115064665676,0.13476306321099402,-9.842371355295182
35.4,4.099999904632568,301.0,22.124988555908203,29.206865310668945,-79.7827447350105,40.4589972393173,317.72215301513666,0.01483283285051584,-0.01877412758767605,-0.7460042834281921,0.6655113101005554,-0.023172397134179484,0.09891705987280516,2.976707049104287,0.08155195415019989,0.1418837159872055,-0.039944622665643685,0.4704386124014855,0.061516500217840074,-9.70232878625393
35.51,4.099999904632568,302.0,22.352861404418945,25.159412384033203,-79.78274474892831,40.458997489907716,318.33403427124017,0.019417159259319302,-0.02271580137312413,-0.7441250681877136,0.6673716306686401,-0.04485968099492033,0.17162569816058718,3.006780141561181,-0.0972944274544716,-0.11434812843799592,-0.021278573200106617,0.6346670926362277,0.10571416893973948,-9.967756708860401
35.7,4.099999904632568,302.0,22.243932723999023,27.179162979125977,-79.78274477854569,40.458997702884616,318.94762451171874,0.010548456571996212,-0.025187749415636063,-0.7423549294471741,0.6694501638412476,0.0009400730514080164,0.15368958575265762,3.06165331365964,-0.14225861430168152,-0.07760945707559586,0.010493891313672066,0.5708221123740077,-0.01070934220449999,-10.01748727798462
35.8,4.099999904632568,304.0,22.32781982421875,25.692180633544922,-79.78274478851208,40.458997720545376,319.25564224243163,0.005364565644413233,-0.02671192400157452,-0.7421925067901611,0.6696327328681946,0.033967143231970184,0.15648783984482612,3.085692634942686,-0.0407971478998661,-0.0493369996547699,0.19100521504879,0.5474550671875477,0.22294636599719525,-9.947573289871217
35.9,4.199999809265137,303.0,22.33407974243164,25.14350891113281,-79.78274478299991,40.458997730509964,319.5646594238281,0.0031379142310470343,-0.02431325800716877,-0.7427495718002319,0.6691204309463501,0.07432201432292344,0.1552087365370007,3.0835896562911524,0.019599085673689842,-0.13977906107902527,0.13098719716072085,0.5186491247266531,0.2869059882313013,-9.844843558073043
36.1,4.300000190734863,302.0,22.483074188232425,23.306650161743164,-79.78274489587889,40.45899790438862,320.1708644104004,0.008458965457975864,-0.020845521241426468,-0.7455835342407227,0.6660324335098267,0.06090967408236059,0.14657136226478573,3.037535034319254,-0.032334353774785995,0.030081309378147125,-0.012133344076573849,0.5277292659133673,0.21212702533230188,-9.626740075349806
36.2,4.300000190734863,302.0,22.4279842376709,23.99845314025879,-79.78274486416986,40.45899803573267,320.48136169433593,0.010520033538341522,-0.02439180389046669,-0.7473966479301453,0.6638468503952026,0.050313728864532704,0.16848665784707076,3.0065483476502637,-0.06344905495643616,0.0006770864711143076,0.017301952466368675,0.5899801124632359,0.12514772820286454,-9.493561552762984
36.41,4.300000190734863,303.0,22.32781982421875,26.137481689453125,-79.7827447578754,40.458998013027355,321.0781214904785,0.007915280759334564,-0.03293392062187195,-0.7486355304718018,0.6621160507202148,0.06904535683112976,0.2192701247123353,2.943546758662772,-0.02579669095575809,0.02282484620809555,-0.07171939313411713,0.6186200670897961,0.26794281005859377,-9.438562057614329
36.6,4.300000190734863,303.0,22.40043830871582,24.23700714111328,-79.78274479471608,40.4589981751873,321.3927195739746,0.0065758805721998215,-0.035949740558862686,-0.7478064894676208,0.6629102230072021,0.09722262819801404,0.22075963274412985,2.9514093265906167,-0.041156772524118417,-0.0201299637556076,-0.13666130602359772,0.6732394201308489,0.3462827821075917,-9.602997456192973
36.7,4.400000095367432,303.0,22.356616973876953,25.11170196533203,-79.78274467316828,40.45899826026512,321.9988597106933,0.011009547859430313,-0.03428119793534279,-0.7452970743179321,0.6657596826553345,0.08564327014515495,0.23055886897986635,2.92010560665368,0.12500257790088656,0.036921001970767975,0.07784054428339005,0.5832880106940865,0.2255388204194605,-9.40652107000351
36.8,4.400000095367432,304.0,22.304031372070312,25.66037368774414,-79.78274463144649,40.45899827675896,322.29019195556634,0.015957964584231377,-0.031894560903310776,-0.7443328499794006,0.6668559312820435,0.056070071792059285,0.22127650524917888,2.8903318767235127,0.06681562960147858,-0.0005138959386385976,-0.04302547872066498,0.5476947299391032,0.2649050353467465,-9.43907193481922
37.0,4.400000095367432,302.0,22.33783721923828,25.70013236999512,-79.78274456070599,40.458998285907626,322.8979113769531,0.018301963806152344,-0.03002264350652695,-0.7435977458953857,0.6677020788192749,0.005637247492840961,0.23322298574333425,2.9304374226401917,-0.08381014317274094,-0.02206721901893616,-0.16984017193317413,0.5973632089421154,0.3346438262611628,-9.780614817738533
37.1,4.400000095367432,302.0,22.324064254760746,25.67627716064453,-79.78274453958667,40.4589983082254,323.19139892578124,0.01745346374809742,-0.029114324599504467,-0.7430382370948792,0.6683876514434814,0.016691332960807943,0.2110670386472505,2.9196155142960385,0.031278833746910095,-0.08334866166114807,0.03392016515135765,0.6054501640051604,-0.04126637728884816,-9.735490685105324
37.31,4.400000095367432,300.0,22.24768829345703,26.86109161376953,-79.78274452561863,40.45899850648303,323.7915118408203,0.017231881618499756,-0.027003150433301933,-0.7430819272994995,0.668433427810669,0.016482916887644927,0.19072399075076368,2.9644011565581705,0.07551775127649307,-0.04856283590197563,0.02647184021770954,0.6807959961891175,0.021956406694371253,-9.997565814256667
37.5,4.400000095367432,299.0,22.297771453857425,25.60471153259277,-79.78274452958514,40.458998526982214,324.0903857421875,0.016242224723100662,-0.023810543119907386,-0.7437760233879089,0.6678072810173035,-0.0014885203015037873,0.18391254414539449,3.0046238313839635,-0.08024393022060394,-0.09425970166921616,-0.0722799003124237,0.5254081405699254,0.38388648178428414,-10.06408841729164
37.61,4.400000095367432,297.0,22.167558670043945,27.735788345336914,-79.78274457122474,40.45899866554903,324.6989825439453,0.01083441823720932,-0.0207268726080656,-0.7456842064857483,0.6658890247344971,2.1821094983026643e-07,0.149010060070365,3.0904906665452114,-0.09194161742925644,-0.050578583031892776,-0.09769387543201448,0.5735010507702828,0.26045563314110043,-10.231604129076004
37.7,4.400000095367432,294.0,22.292762756347656,26.002300262451172,-79.7827446311812,40.4589987258335,324.99148590087884,0.00879821740090847,-0.021838439628481858,-0.7463163137435913,0.6651749014854431,0.025047932127177944,0.13349395615507434,3.0874874935601477,0.008773774839937687,0.0801871195435524,0.053806949406862266,0.4619771797209978,0.14288363976404073,-10.103878719806673
37.9,4.400000095367432,291.0,22.319055557250977,25.135557174682607,-79.78274462109219,40.45899876615341,325.6138117980957,0.00895456038415432,-0.023473452776670456,-0.7463588714599609,0.6650694012641907,0.025765181379354973,0.15033906477143302,3.117058371713174,0.06776879727840424,0.009306402876973152,0.08392511308193208,0.5215282571688294,-0.06102678677067161,-9.92333073377609
38.1,4.300000190734863,290.0,22.39417839050293,23.67243003845215,-79.78274458143851,40.4589989600031,325.9078028869629,0.011115172877907751,-0.022673362866044044,-0.7458100318908691,0.665679931640625,0.013185737738155602,0.14552356432086405,3.09076840487175,0.10920964181423187,0.013471939601004124,-0.03758275508880615,0.5331299370154738,0.12529980149120093,-9.921729766130447
38.2,4.199999809265137,290.0,22.380407333374023,24.18929672241211,-79.78274456624172,40.458999031911844,326.52747756958007,0.02072910964488983,-0.015969058498740196,-0.7446185946464539,0.6669771075248718,-0.022644352252720927,0.16483951039765793,3.095998810472945,0.11406459659337995,-0.000864397909026593,0.05531536787748337,0.5988054246827961,0.04363262669183314,-9.84713566660881
38.4,4.199999809265137,291.0,22.45803451538086,22.82954216003418,-79.782744602204,40.45899919265578,327.13885528564447,0.021196424961090088,-0.017122490331530568,-0.7444283962249756,0.6671460866928101,-0.03720600622387922,0.17238046123305115,3.0654015280706424,-0.02644634246826172,0.005682116374373436,-0.05929743126034736,0.5409534019231796,-0.010891339075751605,-9.779959344863892
38.5,4.199999809265137,292.0,22.342844009399414,24.29266929626465,-79.78274466987921,40.45899922179265,327.44423706054687,0.019423255696892745,-0.019361715763807297,-0.7440417408943176,0.6675701141357422,-0.011528499409144084,0.1738441006271183,3.0449319029207387,-0.07578573375940323,0.0350990854203701,-0.10987154394388199,0.6251726762205363,0.2487340853735805,-9.689673072695733
38.6,4.199999809265137,293.0,22.330324172973643,25.06399154663086,-79.7827446584262,40.45899920007285,327.7491915893554,0.016218453645706173,-0.023077262565493584,-0.7436005473136902,0.6680289506912231,0.01734837320541937,0.18758704205617546,3.0415859687523223,-0.09229645878076552,0.009838403202593328,0.14277252554893494,0.6098312634229661,0.03619444761425257,-9.787200536727903
38.8,4.300000190734863,293.0,22.42422866821289,22.91701316833496,-79.78274468735276,40.45899925773361,328.36765701293945,0.012263038195669651,-0.0309173297137022,-0.7422365546226501,0.6693121194839478,0.08882621659493023,0.1995031537604701,3.0185277573181786,-0.014948101714253426,0.02572496607899666,0.0593891404569149,0.6755077012628318,0.16328031767159698,-9.538455889821053
39.0,4.400000095367432,292.0,22.540668487548828,21.39027214050293,-79.78274465804073,40.45899922289088,328.6680110168457,0.015225471928715706,-0.031303271651268005,-0.7420839667320251,0.6694024801254272,0.10826570186162836,0.2191258160169708,2.970921682521257,0.1108350083231926,0.09723260253667833,0.04145299270749092,0.6457484433799983,0.2590658778883517,-9.373235210180283
39.11,4.5,293.0,22.38416290283203,23.65652656555176,-79.7827446666129,40.458999171878546,329.2778475952148,0.01704319752752781,-0.034028638154268265,-0.7422230243682861,0.6690714359283447,0.07935072685157628,0.2366262542843654,2.915344070492361,-0.027887078002095226,0.05814679339528084,-0.13350200653076172,0.7506937582790852,0.2678172959201038,-9.491294587254522
39.31,4.599999904632568,294.0,22.349105834960934,25.19917106628418,-79.78274457968766,40.458999260890884,329.591240234375,0.015556829981505869,-0.03539049252867699,-0.7420896291732788,0.6691850423812866,0.10464197118877863,0.2552365464327772,2.927436841380442,0.07550301402807236,0.030760562047362324,0.08420225977897644,0.6381103717535734,0.19669816011562946,-9.54972639799118
39.4,4.699999809265137,299.0,22.263965606689453,26.01025199890137,-79.78274447767032,40.45899916715821,330.16892654418945,0.012281435541808605,-0.04111357778310777,-0.7423285245895386,0.6686608195304871,0.1279419972906539,0.2613154717105948,2.809229722888925,-0.128078892827034,0.00955818686634302,0.06332412362098694,0.6470176546275616,0.20962366785854106,-9.13425892174244
39.6,4.800000190734863,301.0,22.35787010192871,24.58688545227051,-79.78274450672832,40.45899922657204,330.47877151489257,0.00877130776643753,-0.04411714524030685,-0.7429295182228088,0.6678566932678223,0.14371525070327806,0.2814903137302442,2.796269019537833,-0.16301673650741574,-0.07963920384645462,0.08061674237251283,0.7040676221251488,0.28817669782787564,-9.195843551158903
39.7,4.900000095367432,302.0,22.192598342895508,27.529041290283203,-79.78274436549722,40.45899904486836,331.06658584594726,0.013259908184409142,-0.04258672147989273,-0.7436858415603638,0.6670397520065308,0.18360470357651812,0.2633637032438644,2.804498878543007,0.2462279349565506,0.1355983167886734,0.0008414397016167643,0.7636416864395142,0.3600088650360704,-9.708544376492501
39.9,5.0,302.0,22.13625717163086,28.228797912597656,-79.78274431000834,40.45899901112279,331.3496249389648,0.020057061687111855,-0.04010483622550965,-0.7443894743919373,0.6662384271621704,0.11729172776347427,0.2788267591274705,2.8272443641563187,0.06711620092391968,-8.292088750749825e-05,0.12730318307876587,0.7458495593816042,0.1905127195827663,-9.877207896709443
40.01,5.099999904632568,302.0,22.302780151367188,25.06399154663086,-79.78274425682052,40.45899899420385,331.63594085693364,0.0211821123957634,-0.038070615381002426,-0.744913637638092,0.6657369136810303,0.0709864449209975,0.29514610089643323,2.8730876330054307,-0.08042410761117935,-0.08328887075185776,-0.04351518675684929,0.8506709133088589,0.016620290223509075,-10.166753829717637
40.1,5.099999904632568,304.0,22.26772117614746,25.3900146484375,-79.78274406707894,40.45899880511315,332.25565368652343,0.02196170948445797,-0.0323912650346756,-0.744675874710083,0.6662779450416565,0.06851334979163815,0.2858449719983518,2.9710004102162624,-0.03670911863446237,-0.007497817277908325,-0.01388502586632967,0.6944340419769287,0.23960614319890736,-10.0523705971241
40.3,5.199999809265137,305.0,22.21138000488281,25.962541580200195,-79.78274400704342,40.45899878380451,332.8486750793457,0.02125645242631436,-0.036648452281951904,-0.7437918186187744,0.6670673489570618,0.08329318052682698,0.2633567767757377,2.976816138023515,-0.05707734823226929,0.03682053461670876,0.15587790310382846,0.6155014546215535,0.1579632617533207,-9.85325302362442
40.4,5.199999809265137,306.0,22.299022674560547,25.41386985778809,-79.78274398533837,40.458998726072906,333.1477740478516,0.019503574818372726,-0.035558875650167465,-0.7438615560531616,0.6671020984649658,0.11343174887110813,0.27176923709256506,2.9782988259784373,-0.10924868285655977,-0.05876510962843895,-0.02677141688764096,0.7515661628544331,0.3639764201268554,-9.795253906846046
40.61,5.300000190734863,306.0,22.223899841308594,26.12157821655273,-79.78274407823646,40.45899863825112,333.7348750305176,0.011005857959389688,-0.03731460124254227,-0.7443294525146484,0.6666785478591919,0.1426862485959272,0.2316675208552209,2.9999809492910345,-0.1331961154937744,0.028387704864144325,-0.12266066670417786,0.6589554031938315,0.4824865809828043,-9.98435929298401
40.8,5.300000190734863,304.0,22.243932723999023,26.002300262451172,-79.78274395312759,40.458998455895795,334.3243106079101,0.006682606413960457,-0.04576393589377403,-0.7452253699302673,0.6652069091796875,0.19472271607532,0.26391322158171765,2.950254581885672,0.01370583102107048,0.056439496576786034,-0.015100046992301941,0.7041906329244375,0.169748653806746,-9.830930693149568
40.9,5.300000190734863,302.0,22.435497283935547,23.31460189819336,-79.78274390954495,40.45899842300799,334.62084228515624,0.010932193137705326,-0.047234028577804565,-0.7456048130989075,0.6646223664283752,0.16471267515446458,0.2714755459367415,2.9405847322144543,0.03855912387371063,0.118353009223938,-0.04610524699091911,0.9251212444156408,0.2611684270016849,-9.679939797520637
41.0,5.400000095367432,301.0,22.24894142150879,25.914831161499023,-79.78274406063672,40.4589984643016,334.9097102355957,0.015264872461557388,-0.04907344281673432,-0.7452206015586853,0.6648346781730652,0.12480412554294652,0.2696450004318216,2.8881008855792394,0.0703265517950058,0.10273298621177672,-0.1399197280406952,0.8951676397025585,0.2636513192206621,-9.437423604726792
41.2,5.5,302.0,22.20261573791504,26.717960357666016,-79.78274402528405,40.458998481762684,335.4954264831543,0.019684864208102226,-0.04288441315293312,-0.7448800206184387,0.6655278205871582,0.07418351758704338,0.3026382359865993,2.863118923899046,0.1079021692276001,-0.06872747838497162,-0.19380351901054385,0.9654792384803296,0.4470416367799044,-9.639284107089043
41.4,5.5,301.0,22.326568603515625,24.006404876708984,-79.78274396070928,40.45899854736224,336.0693133544922,0.03003464452922344,-0.03242180123925209,-0.7449055314064026,0.6657045483589172,-0.01985400445159064,0.2707346125405368,2.826350659145365,0.03737998753786087,0.05875875800848007,-0.06395160406827928,0.8458172126859427,0.3940589924901724,-9.590780868530274
41.5,5.599999904632568,301.0,22.26772117614746,25.73989295959473,-79.78274399576891,40.45899861360915,336.35634643554687,0.03196752443909645,-0.03521689027547836,-0.7443003058433533,0.666149377822876,-0.04153270792708605,0.2762478018807437,2.791747775339837,-0.03231028467416763,0.08328331261873245,-0.03320446237921715,0.8970228881388903,0.11894420698285105,-9.393733209371566
41.6,5.699999809265138,300.0,22.3353328704834,24.157489776611328,-79.78274396079185,40.4589986386129,336.6355822753906,0.03160024434328078,-0.039328183978796005,-0.7439228296279907,0.6663584709167479,-0.027971104995333715,0.2939320634391677,2.770819032854005,-0.12747780978679654,0.051638808101415634,-0.16978539526462555,0.8936608122289181,0.2603548234887421,-9.480528693795202
41.8,5.699999809265138,298.0,22.296518325805664,25.06399154663086,-79.78274398022045,40.45899876600312,336.93057281494134,0.02672653645277024,-0.04414117336273194,-0.7436913847923279,0.6665287017822266,-0.01596941564034493,0.3063495134866229,2.784663412425052,-0.1849491894245148,-0.07191076874732971,-0.1307189166545868,0.8496113978326321,0.3187543100863695,-9.696371058225633
41.9,5.699999809265138,296.0,22.1988582611084,26.46350288391113,-79.78274395561455,40.45899882404069,337.4917987060547,0.027975136414170258,-0.04374638944864273,-0.7433463931083679,0.6668882369995117,0.025772794803027257,0.2694303411018897,2.816878909860161,0.08772626519203186,-0.04050181806087494,0.2294518202543259,0.6999867041409016,-0.02821131717413664,-10.000166655778887
42.11,5.699999809265138,294.0,22.266469955444336,25.11965370178223,-79.7827440376998,40.45899891829618,338.0735858154297,0.03290530666708946,-0.032179903239011765,-0.7462074160575867,0.6641207337379456,-0.03444997241837583,0.27360740925786864,2.9070420107232247,-0.0525595024228096,-0.28955841064453125,0.13455329835414884,0.8294078790396452,-0.2084654988907277,-10.1294637966156
42.3,5.599999904632568,294.0,22.360374450683594,23.537250518798828,-79.78274438586324,40.45899900921189,338.34581787109374,0.026218416169285767,-0.030661394819617268,-0.7467376589775085,0.6638941764831543,-0.04167791422233812,0.2384227970583365,2.9256166872726763,-0.06941629201173782,-0.11958448588848115,-0.02084078639745713,0.999709789082408,0.06565877742134035,-10.137585579156877
42.4,5.699999809265138,293.0,22.41045570373535,22.85339736938477,-79.78274442047979,40.458999036061066,338.9365695190429,0.024578116834163662,-0.03583141416311264,-0.7455015778541565,0.665086030960083,0.017805747818587722,0.22843300861594115,2.9507492439368352,-0.07742952555418015,0.11299756169319153,0.009031599387526512,1.0476837084442379,-0.04581583997234703,-9.85488673567772
42.6,5.699999809265138,292.0,22.46053695678711,22.105932235717773,-79.78274455458669,40.45899904376584,339.2112734985352,0.027534140273928642,-0.04247478023171425,-0.7448925375938416,0.6652615070343018,0.020215003163442415,0.2581769484421824,2.8989171712992734,-0.04135333374142647,0.03831801190972328,0.020290110260248184,1.0006404465436936,0.0852750347647816,-9.65523180305958
42.7,5.599999904632568,293.0,22.217639923095703,25.67627716064453,-79.78274469623557,40.45899909500362,339.78168518066406,0.031496375799179084,-0.04484428092837334,-0.7436586022377014,0.6663098931312561,0.03639973639155673,0.29985737499063064,2.8771993057518195,0.06803854554891586,0.025578917935490608,-0.041879478842020035,1.0548818501830102,-0.03022984910756349,-9.66302438735962
42.9,5.599999904632568,292.0,22.431739807128906,22.54327964782715,-79.78274471301734,40.45899911269552,340.07302886962884,0.031827766448259354,-0.042033445090055466,-0.7433601021766663,0.6668103933334351,0.013562011180584643,0.301154195379229,2.9194172234547136,-0.020418681204319,-0.08942374587059021,-0.015739770606160164,1.1135877491533757,-0.048272437993437056,-10.10503646850586
43.01,5.400000095367432,293.0,22.380407333374023,22.479665756225586,-79.78274483508163,40.45899918253877,340.65022308349614,0.02950247749686241,-0.04335867986083032,-0.7405266165733337,0.6699776649475098,0.015396143118390538,0.256980035069239,2.9531815539674646,0.020710485056042668,0.04414327070116997,-0.24753861129283905,0.949969279691577,0.16248745350167154,-10.03174045085907
43.2,5.400000095367432,294.0,22.362876892089844,23.282794952392567,-79.78274495373806,40.45899929195583,341.235153503418,0.027200393378734592,-0.047973960638046265,-0.7317038178443909,0.679388165473938,0.05295157345020261,0.2546393698690142,2.9668882632423546,0.07750936597585678,-0.056265756487846375,-0.021135583519935608,0.983507008329034,0.3464932453259826,-9.843163068294524
43.3,5.300000190734863,296.0,22.304031372070312,24.69820976257324,-79.78274505648271,40.458999299297744,341.53421051025384,0.02662147581577301,-0.04214848577976227,-0.7285524010658264,0.6831737160682678,0.08162003072228878,0.2251180468238868,2.9938830557199214,0.027056613937020302,-0.22520919144153595,0.05198153108358383,0.8171606665849686,0.23154520824551586,-10.019523278474807
43.4,5.300000190734863,297.0,22.350357055664066,23.96664619445801,-79.78274517432611,40.45899929410075,341.8357012939453,0.02419341169297695,-0.03579266741871834,-0.7287193536758423,0.6834483742713928,0.07812554577738805,0.1904329283195397,3.0171587171002656,0.055626749992370605,-0.059053368866443634,0.11564347892999648,0.8182719299197198,0.2698347132280469,-10.018497676849368
43.6,5.300000190734863,297.0,22.3741455078125,23.61676788330078,-79.78274563931575,40.45899945062247,342.4185412597656,0.015758631750941277,-0.036107931286096566,-0.7338567972183228,0.6781607866287231,0.09017098587920397,0.13052746871520396,3.0121275609398657,-0.08252526074647902,-0.026580480858683583,0.0342114195227623,0.8127169288694859,0.4195666302368045,-9.888524597883224
43.7,5.300000190734863,295.0,22.26897430419922,25.24688148498535,-79.78274582513122,40.45899942340079,342.71698791503906,0.01249130629003048,-0.03659810870885849,-0.737136960029602,0.6746359467506409,0.11660439690696785,0.1184285528615668,3.0077051637108587,-0.09167026728391647,-0.07976102083921432,0.22108519077301025,0.7195400125533342,0.1590192323550582,-9.99789910554886
44.0,5.300000190734863,298.0,22.449268341064453,22.32858085632324,-79.78274602839535,40.45899935845072,343.32788116455083,0.008705052547156809,-0.04339706525206567,-0.7418845891952515,0.6690652370452881,0.1567140152312766,0.15683240016113734,3.0989092336058675,-0.08460979163646698,0.17036814987659454,-0.08409377932548523,0.9967752908170224,0.4554559993743897,-10.26268441915512
44.1,5.300000190734863,299.0,22.28900718688965,24.65049934387207,-79.78274620716319,40.45899928869228,343.63324768066406,0.008538207970559597,-0.04878799989819527,-0.7434500455856323,0.6669549345970154,0.17948563783227872,0.16733016972246142,3.0889034482678253,-0.0422745980322361,0.16641126573085785,-0.13910894095897675,1.0187460574507714,0.6030837227404118,-9.912675937414171
44.21,5.300000190734863,302.0,22.33157730102539,22.98857879638672,-79.78274643968594,40.45899925826823,344.25112182617187,0.010196820832788944,-0.05073224753141403,-0.7454559206962585,0.6645433306694031,0.18568249719843696,0.21140449984561493,3.0519456705567016,0.08688560128211975,0.01278606802225113,-0.015283601358532906,0.9066933057457208,0.30341037567704915,-9.727741370201107
44.3,5.300000190734863,304.0,22.402942657470703,22.59099006652832,-79.78274650408994,40.45899925930741,344.5570147705078,0.009718840010464191,-0.05133267492055893,-0.7455517053604126,0.6643968820571899,0.1584946045586078,0.2213579628399973,3.03605490437842,-0.01439113263040781,0.0836564227938652,-0.1799727827310562,1.0709542380273342,0.39379605051130057,-9.656179636716844
44.51,5.300000190734863,306.0,22.32155990600586,24.73796844482422,-79.78274661308497,40.45899935942549,345.1712115478516,0.01593557931482792,-0.052444040775299065,-0.7441109418869019,0.6658037304878235,0.13287805905225492,0.2293994562235236,2.955253361706924,0.13231638073921204,0.07964634150266647,-0.04448278620839119,0.8266843921691179,0.4552419181913138,-9.394940659403801
44.7,5.300000190734863,307.0,22.319055557250977,23.70423889160156,-79.78274668256545,40.4589993510884,345.7934115600586,0.02139510028064251,-0.047999825328588486,-0.7423644661903381,0.6679320931434631,0.10284570319165756,0.235466336817131,2.9645098959368013,0.09525731950998306,-0.1015111654996872,-0.07500923424959183,0.7817888125777245,0.16686096981167794,-9.480583072900773
44.8,5.400000095367432,309.0,22.290258407592773,24.809534072875977,-79.78274675980718,40.45899936763375,346.09059173583984,0.024681197479367256,-0.04258516803383827,-0.7418138384819031,0.6687971353530884,0.0908426210153994,0.2284787134614105,2.9600781429141483,0.11432487517595293,-0.12104557454586028,0.043574292212724686,0.8542780606448651,0.2357033094763756,-9.669127711057664
44.9,5.5,309.0,22.23516845703125,25.73194122314453,-79.78274684007587,40.45899937880928,346.38747436523437,0.024180058389902115,-0.03866104036569595,-0.7418705224990845,0.6689909100532532,0.060633214406124035,0.2171466743894532,2.9603053886402413,0.00996764935553074,-0.05632849782705308,0.08611499518156053,0.8978808939456941,0.11217143191024664,-9.759018711447718
45.1,5.5,309.0,22.087427139282227,27.9345817565918,-79.78274700087259,40.45899916258922,347.021171875,0.01884821988642216,-0.04181565344333649,-0.7416254878044128,0.6692443490028381,0.11778257318509044,0.20684467916869465,3.0068080558431487,0.020339401438832283,0.0013250437332317233,0.11055991798639296,0.9071726312488316,0.33390908706933264,-9.842137466669083
45.21,5.599999904632568,309.0,22.16254997253418,26.12157821655273,-79.7827470477322,40.45899920350925,347.34349853515624,0.0174715518951416,-0.04333318769931793,-0.7414106726646423,0.6694231033325195,0.13414491776599352,0.22915112047256905,3.0480664299689324,-0.07446955144405365,-0.11532346904277806,0.038434114307165146,0.934395513162017,0.3096586006879807,-9.993407274484637
45.4,5.599999904632568,308.0,22.163801193237305,26.86904335021973,-79.78274713701317,40.458999124408884,347.95954162597656,0.014867868274450304,-0.044728271663188934,-0.7410581111907959,0.6697844862937927,0.159339917197061,0.236793274048484,3.0732187225240213,0.0235062874853611,0.01591320149600506,0.05837414041161537,0.9186422371119262,0.3330635065957904,-9.829313353300096
45.6,5.599999904632568,306.0,22.34660148620605,23.56110572814941,-79.78274727720847,40.45899910682218,348.59525329589843,0.015308284200727941,-0.05120307579636574,-0.7408145070075989,0.6695802807807922,0.1608658066357842,0.2469327266604214,3.113730119703365,0.0009637266048230232,-0.017027854919433594,0.11852849274873735,0.8827568513900041,0.28001793164759875,-9.99507490038872
45.7,5.599999904632568,306.0,22.366634368896484,22.98857879638672,-79.7827473207347,40.45899910762627,348.9173129272461,0.018604675307869908,-0.052925363183021545,-0.7402343153953552,0.6700044870376587,0.16808454780076867,0.2591103653446253,3.081261746901005,0.07429509609937668,0.1295449584722519,-0.06646257638931274,0.966174837872386,0.4358102684095502,-9.495484117269516
45.8,5.599999904632568,306.0,22.25520133972168,24.85724449157715,-79.78274737519918,40.458999094711615,349.2242053222656,0.023074740543961525,-0.05264265835285187,-0.7394999265670776,0.670698344707489,0.14554851268178134,0.2651682904042086,3.0276009856799067,0.03858032077550888,0.008587395772337914,-0.03305019810795784,0.9399730259925128,0.29038621444255114,-9.333265398144725
46.0,5.599999904632568,308.0,22.157541275024414,26.837236404418945,-79.78274739328766,40.45899909733213,349.8574069213867,0.023601150140166283,-0.04787323623895645,-0.7395516633987427,0.6709802746772766,0.10599667315290803,0.2727829969474526,3.0559016526439042,0.012368389405310154,-0.05313103273510933,-0.25196519494056696,1.008830933868885,0.618092794418335,-9.86854115366936
46.2,5.599999904632568,307.0,22.330324172973643,24.21315193176269,-79.78274755483542,40.45899909326664,350.4912646484375,0.01772000640630722,-0.044709790498018265,-0.7401996850967407,0.6706650257110596,0.09998656191157457,0.22785938625985244,3.0898365016910088,-0.027423616498708725,0.0039028692990541454,0.02225722745060921,0.8780544474720955,0.22314849693328145,-9.974947614669802
46.3,5.599999904632568,307.0,22.205120086669922,25.692180633544922,-79.78274763718069,40.45899909765096,350.8002322387695,0.013825003989040852,-0.045366786420345306,-0.7408549785614014,0.6699885129928589,0.10684876513113936,0.20723445068323226,3.0771439796819773,0.018026253208518028,-0.011447927914559841,0.05551067367196083,0.8584652517735959,0.2219632297754288,-9.654716078639034
46.4,5.599999904632568,307.0,22.350357055664066,22.948820114135746,-79.78274771689897,40.45899910439492,351.1090701293945,0.013221818022429943,-0.04526177421212197,-0.7419202327728271,0.668828010559082,0.12423076714043282,0.19971444230076008,3.077322691127052,0.04348587989807129,-0.029079623520374295,0.08907511830329895,0.7977126080542803,0.26219887085258964,-9.644452461004258
46.6,5.599999904632568,306.0,22.099946975708008,27.20301818847656,-79.78274790985236,40.458999185261256,351.740654296875,0.010869174264371395,-0.04376429319381714,-0.7439543604850769,0.6667072772979736,0.11076535723709767,0.20329702070157185,3.0601669835881418,-0.013527038507163523,-0.030449287965893745,0.11614593863487245,0.9336920200288296,0.2816466552950442,-9.730818759799003
