time,wind_speed,wind_angle,battery_voltage,battery_current,position_x,position_y,position_z,orientation_x,orientation_y,orientation_z,orientation_w,velocity_x,velocity_y,velocity_z,angular_x,angular_y,angular_z,linear_acceleration_x,linear_acceleration_y,linear_acceleration_z
0.0,1.0,345.0,24.40372085571289,-0.007951773703098297,-79.78278097641268,40.45899557969695,269.1271800994873,-0.014586180448532103,0.003281058510765433,-0.9998793005943298,0.004235956352204084,0.012419866289972523,-0.03945954399806725,-0.01368564613428142,-0.003363685915246606,0.001269008032977581,-0.010348228737711906,-0.12815967466682196,0.2914779626950621,-9.801125680804251
0.1,0.8999999761581421,345.0,24.40622520446777,-0.007951773703098297,-79.78278101114063,40.45899551353572,269.1327275633812,-0.01457954943180084,0.003252028953284025,-0.999879002571106,0.0043563772924244395,0.010351399645602102,-0.034264337494003996,-0.01174900751933306,-0.0033933930099010468,0.0006715761846862732,-0.008027645759284495,-0.12546645627357067,0.27114118220284583,-9.804299549460412
0.3,0.8999999761581421,342.0,24.398712158203125,-0.05566241592168808,-79.78278102436151,40.45899554683785,269.13160943984985,-0.014603063464164734,0.003215952543541789,-0.9998785257339478,0.004408924374729395,0.010766560461629231,-0.0397351811130932,-0.011746505085529407,0.0020232514943927526,0.004930383991450071,0.006754673086106777,-0.12641538628377022,0.2743866061605513,-9.803096777200698
0.4,0.8000000119209291,342.0,24.40121650695801,-0.02385532110929489,-79.78278106206638,40.45899551540347,269.1375390291214,-0.014625159092247488,0.0031541697680950165,-0.9998778700828552,0.004536471329629421,0.009477210358826812,-0.042646294479215585,-0.010433010548437932,0.005506912712007761,0.004045361652970314,0.004762555938214064,-0.13181046598590912,0.2850940274633467,-9.80142739713192
0.6,0.8000000119209291,344.0,24.39620780944824,-0.06361418962478638,-79.78278107327536,40.458995554525536,269.1365671753884,-0.014626458287239075,0.003124384442344308,-0.9998775720596312,0.004606216214597225,0.007626442992063782,-0.047533981578791455,-0.010172893454452207,-0.00570244062691927,-0.0011616986012086274,-0.008818676695227623,-0.12987645372748374,0.2834418235905469,-9.801157840490342
0.7,0.8000000119209291,347.0,24.39370346069336,-0.039758868515491486,-79.78278110409245,40.45899550272377,269.14286005496984,-0.014624023810029032,0.0030702780932188034,-0.9998772740364076,0.004724255762994289,0.006846716410653857,-0.04469870527691055,-0.009140728558585788,-0.0075855259783566,-0.0038742988836020227,-0.006731040775775909,-0.13069592272862793,0.2758093250915408,-9.802675777673722
0.9,0.8000000119209291,350.0,24.40246772766113,-0.03180709481239319,-79.78278111335895,40.458995544289216,269.14199501276016,-0.014635191299021244,0.0030545194167643785,-0.9998769760131836,0.00475939316675067,0.00704956271390631,-0.0502233194217156,-0.009148854673671821,0.007692805025726556,0.0008203507750295103,0.002939373953267932,-0.13042805629782378,0.274803110640496,-9.802892709374428
1.0,0.8000000119209291,352.0,24.40246772766113,-0.015903547406196594,-79.78278120535806,40.45899547292587,269.1484860777855,-0.014607260935008526,0.0030532011296600103,-0.999876856803894,0.004865938797593117,0.014468562953575341,-0.04596525151344075,-0.008546877698154192,0.005178936291486025,0.0029927887953817844,0.0016942420043051245,-0.12687577228993174,0.2758627174794674,-9.803749326467514
1.2,0.8000000119209291,358.0,24.39996337890625,-0.03180709481239319,-79.78278121845,40.458995399533954,269.15564489364624,-0.014632477425038816,0.0030460627749562263,-0.9998762607574464,0.004927047062665224,0.012269263461053774,-0.041753521204632486,-0.008109724852553284,-0.0007344909245148301,-0.0006261484231799841,0.005447879433631897,-0.1280506606400013,0.2709142371453345,-9.804727565646171
1.3,0.8000000119209291,357.0,24.3974609375,-0.07156596332788467,-79.78278126548476,40.45899533302133,269.1622790694237,-0.014616562984883784,0.003019705647602677,-0.9998759627342224,0.0050428789108991606,0.014074638458098563,-0.03352921301564685,-0.008142513983938567,0.0018111374229192734,0.0030508374329656363,0.007607373408973217,-0.13190754803828894,0.28435468358919025,-9.801018676757813
1.5,0.8000000119209291,359.0,24.39620780944824,-0.03180709481239319,-79.78278128240092,40.45899536550507,269.1615344285965,-0.014621743932366371,0.002979573328047991,-0.9998758435249328,0.005075888242572546,0.01323261689814018,-0.038793967944072284,-0.007956312134376873,0.0016804588958621025,-0.0010981557425111532,-0.006968376692384481,-0.12931881207972765,0.29069783449172976,-9.800740934014321
1.6,0.8000000119209291,6.0,24.40372085571289,-0.015903547406196594,-79.7827812989587,40.458995401274606,269.16080832481384,-0.01462895330041647,0.002953778952360153,-0.9998754262924194,0.0051381420344114295,0.013282416452712466,-0.04413711739079449,-0.007960592393143106,0.005301818251609802,0.003163082292303443,0.006925482302904129,-0.1266563372500241,0.2707415250129998,-9.80274243593216
1.8,0.8000000119209291,6.0,24.39370346069336,-0.03180709481239319,-79.78278134063254,40.458995365655625,269.16797173023224,-0.01466476172208786,0.0029122112318873405,-0.9998743534088136,0.005268659442663193,0.014359376315824325,-0.046619569073375014,-0.008038126910303726,0.0032411362044513226,0.00035413375007919967,0.008890273980796337,-0.1259262118767947,0.2740991241484881,-9.801320393085481
1.9,0.8999999761581421,7.0,24.38994789123535,-0.10337305814027786,-79.78278138034737,40.458995264638936,269.1756526231766,-0.014664421789348125,0.002911307150498033,-0.9998738765716552,0.005369307473301888,0.015373107187054612,-0.03518954523957711,-0.008162769798846867,0.007375466637313366,0.0001192741037812084,0.0034914684947580103,-0.1311694558337331,0.288054509293288,-9.800421091318134
2.1,0.8999999761581421,7.0,24.398712158203125,-0.08746951073408127,-79.78278139834714,40.458995297422774,269.17492228746414,-0.014662062749266624,0.0029017969500273466,-0.9998735189437866,0.0054386942647397536,0.013573061706928085,-0.04025217635323181,-0.007848828767908827,-0.006216713227331638,0.00027785409474745393,-0.007099932525306941,-0.12608751280233266,0.2808392279036343,-9.801722681522367
2.2,1.0,6.0,24.38744354248047,-0.10337305814027786,-79.78278140648416,40.458995263549625,269.1827259063721,-0.014668338000774384,0.0028636150527745485,-0.9998728036880492,0.005572299472987653,0.011007615828921392,-0.043913739834758214,-0.007621863455291502,-0.003323397133499384,-0.0020218859426677227,0.000644757179543376,-0.13073376517742874,0.2785079064778984,-9.802107428312302
2.4,0.8999999761581421,3.0,24.40121650695801,-0.015903547406196594,-79.78278141211929,40.45899514631584,269.1935717463493,-0.014657040126621725,0.0028735287487506858,-0.9998726844787598,0.0056302365846931934,0.01479933839080379,-0.02820318887339109,-0.0037089300874675415,0.0035651489160954952,0.002055895747616887,0.00038455103640444577,-0.13007998251356184,0.2820373589359224,-9.801171873807908
2.51,0.8999999761581421,356.0,24.39620780944824,-0.02385532110929489,-79.78278142941258,40.45899517397205,269.1932770013809,-0.014667218551039697,0.002844742964953184,-0.9998721480369568,0.0057054338976740854,0.013815018601523659,-0.03367010888841384,-0.003526624564779797,-0.001003931276500225,-0.0022830688394606113,0.00422275485470891,-0.1273998746741563,0.2702241012454033,-9.803321310281753
2.7,0.8000000119209291,356.0,24.40121650695801,-0.007951773703098297,-79.78278143595143,40.45899511624623,269.2035170197487,-0.014677868224680425,0.0028173984028398986,-0.9998714327812196,0.0058175646699965,0.011227721199802749,-0.032351984052979336,-0.0013029755046637102,0.0009190583368763328,-0.0007441373891197145,0.0057447007857263106,-0.12881160266697408,0.28892477598041305,-9.800320519208908
2.8,0.8999999761581421,346.0,24.39996337890625,-0.039758868515491486,-79.78278146236754,40.45899503414363,269.21378535032267,-0.01467287726700306,0.0027940771542489533,-0.9998708963394164,0.0059340400621294975,0.014535932685155243,-0.02467005507567257,-0.0001251101221101073,0.005324405152350664,0.003716429229825735,0.008714191615581512,-0.13233000023290514,0.2909086814336479,-9.799998337626457
3.0,0.8999999761581421,342.0,24.40246772766113,-0.015903547406196594,-79.78278147898445,40.458995058567936,269.2138482928276,-0.014668860472738745,0.002762176096439361,-0.9998706579208374,0.005999335553497076,0.01289435949678533,-0.02993828900596864,0.00032021058493819654,-0.00503633264452219,-0.0010047147516161203,-0.01287029217928648,-0.1315433761384338,0.2900730960443616,-9.800872496366502
3.11,0.8999999761581421,338.0,24.40372085571289,0.0,-79.78278148310882,40.45899500441063,269.22399306297297,-0.014674230478703976,0.002737497910857201,-0.9998696446418762,0.006162218749523164,0.010444179508481694,-0.029875446073203707,0.000863627491848375,-0.007365063764154911,-0.0003487752110231668,-0.008717692457139492,-0.12771244489587846,0.27207465363666417,-9.803863931894305
3.3,0.8999999761581421,337.0,24.40121650695801,-0.02385532110929489,-79.78278149605467,40.45899503380775,269.2241256833076,-0.014681407250463963,0.002699554665014148,-0.9998693466186525,0.00620318204164505,0.010694325658293804,-0.03573733740759063,0.0008057143932881105,0.0044478997588157645,0.003466399852186441,0.00182281993329525,-0.12927344134077431,0.2770432155020535,-9.801970603466037
3.4,0.8000000119209291,338.0,24.40121650695801,-0.02385532110929489,-79.78278150015515,40.45899499856951,269.23458296060556,-0.01466482225805521,0.00268456875346601,-0.9998689889907836,0.006309653166681528,0.008788733880651404,-0.03763093596284826,0.0013026843100934196,0.004553220700472593,0.0021009726915508517,0.0005229873349890113,-0.13031360618770124,0.2776539571769536,-9.803297921419144
3.6,0.8999999761581421,336.0,24.40372085571289,-0.007951773703098297,-79.78278151057691,40.45899503326214,269.2347732782364,-0.014669546857476234,0.0026718354783952236,-0.9998685121536256,0.0063856495544314384,0.0075802752507244595,-0.04298527188712424,0.0014592278994455992,-0.004066057503223418,0.0016701373970136044,0.00403051869943738,-0.1271191991865635,0.2729092340357602,-9.803255821466447
3.7,0.8999999761581421,334.0,24.40246772766113,-0.015903547406196594,-79.78278151049452,40.45899499285096,269.24532943964005,-0.014669327065348625,0.0026332575362175703,-0.9998677372932434,0.006518391892313957,0.00710699232242885,-0.04209419698309371,0.0016731007735200992,0.0019649777095764875,0.0014640617882832885,0.006061848718672991,-0.12920441678725186,0.2865061117708683,-9.800205329060557
3.9,0.8999999761581421,331.0,24.398712158203125,-0.02385532110929489,-79.78278152390162,40.45899488951175,269.2540140748024,-0.014658963307738302,0.002655029529705644,-0.9998674988746644,0.0065738195553421966,0.011012631129706121,-0.028545780101174208,-0.0024189645219340385,-0.005884828045964241,-0.0015372586203739047,-0.012142734602093695,-0.13223722136579455,0.2892512333393097,-9.80048658013344
4.02,0.8999999761581421,332.0,24.398712158203125,-0.02385532110929489,-79.78278155071374,40.4589949500733,269.2536469101906,-0.01465871185064316,0.002626811852678657,-0.9998666644096376,0.006706046406179666,0.009606980141025071,-0.03994773143111082,-0.002133315479295239,-0.005836022552102804,-0.0022858267184346914,-0.009154803119599821,-0.12603905400261284,0.2753009462356568,-9.802157129645348
4.2,0.8999999761581421,329.0,24.40246772766113,-0.007951773703098297,-79.78278153878101,40.45899488670288,269.26375931501394,-0.014670362696051598,0.0025986500550061464,-0.9998661875724792,0.006758717820048332,0.00951036455019428,-0.03766209002057496,-0.0010082523918530132,0.006790876388549805,0.003213008400052786,0.004200316499918699,-0.1293441195599735,0.274627913441509,-9.801634388566017
4.3,1.100000023841858,325.0,24.40246772766113,-0.02385532110929489,-79.78278153583338,40.458994837623436,269.27246850728994,-0.014668955467641354,0.002585456473752857,-0.9998654127120972,0.006877304054796696,0.008342068507440903,-0.03149785479098829,-0.0036737963740217103,0.00042835104977712035,0.000365001120371744,-0.002022361615672708,-0.12658956935629248,0.27441807148978115,-9.802212093472482
4.5,1.100000023841858,324.0,24.40246772766113,-0.02385532110929489,-79.78278154561889,40.45899486840957,269.2721529006958,-0.014674277044832706,0.002559226006269455,-0.9998648166656494,0.0069657908752560616,0.007353286129168272,-0.037157763376948864,-0.0035223687906102844,-0.0035059058573096986,0.003248423803597689,0.0030454883817583323,-0.1269751749560237,0.2715869775786996,-9.802404466867447
4.6,1.2000000476837158,318.0,24.40121650695801,-0.007951773703098297,-79.78278154282846,40.45899482977863,269.2805761694908,-0.01465785875916481,0.002521050861105323,-0.9998642802238464,0.007092071231454611,0.00711140854935702,-0.036916021917435586,-0.00501054765421257,0.004697666503489018,0.00336026749573648,0.008043162524700165,-0.13100800872780385,0.28957231856882576,-9.799233521819117
4.8,1.2000000476837158,316.0,24.398712158203125,-0.02385532110929489,-79.78278155122445,40.45899486554728,269.2801278233528,-0.014661288820207119,0.002498164540156722,-0.9998638033866882,0.0071573443710803986,0.005620420036872241,-0.042607333417052216,-0.004763379304747686,-0.0033756890334188947,-0.0021704465616494413,-0.011885805986821651,-0.13060007407329974,0.2917459661699832,-9.798782116770745
4.9,1.2999999523162842,312.0,24.39996337890625,-0.02385532110929489,-79.78278154468839,40.458994797048994,269.2904565930366,-0.014670487493276596,0.0025010262615978718,-0.999862790107727,0.007275290321558714,0.005515846253033364,-0.03563036167310146,-0.0017450947544020482,-0.004558735527098179,-0.00010014278086600824,-0.012257406488060951,-0.12605976593680682,0.2707216262072325,-9.803070464730263
5.1,1.2999999523162842,305.0,24.40622520446777,0.007951773703098297,-79.7827815524231,40.45899483048425,269.29032456874853,-0.014668609015643597,0.002479985821992159,-0.999862551689148,0.00732050510123372,0.006104581584933625,-0.04173020503237137,-0.0017430502170141173,0.007538922131061555,0.0028094637673348197,0.008590768091380596,-0.12817436579614874,0.2709834901057184,-9.803262253403664
5.2,1.2999999523162842,302.0,24.408727645874023,0.04771064221858978,-79.78278155548733,40.45899477079126,269.2987374663353,-0.014678959734737871,0.002475952729582786,-0.9998619556427002,0.00738117564469576,0.007986526652979076,-0.03843308114357875,-0.0033168572882191468,-0.0045137861743569365,-0.0023958042729645967,-0.008049051277339458,-0.13334987341426313,0.2833163825422525,-9.801053760051726
5.4,1.2999999523162842,296.0,24.40121650695801,-0.007951773703098297,-79.78278157096749,40.45899475495591,269.3068309426308,-0.014682979322969912,0.002472773194313049,-0.999860942363739,0.007514317519962788,0.010113329026993328,-0.04080301008226355,-0.004642293254521474,-0.009911499917507172,-0.0021980232559144497,-0.008278078399598598,-0.1303587393835187,0.2822964636795223,-9.801908038258553
5.5,1.2999999523162842,289.0,24.398712158203125,-0.03180709481239319,-79.78278159689197,40.458994837066214,269.3060225844383,-0.014682873152196409,0.002463129814714193,-0.9998599290847778,0.007649979554116727,0.008874910515333146,-0.05225761774552004,-0.004342972719972958,-0.009067540057003498,-0.0018771123141050337,-0.005063454154878855,-0.12805299952626228,0.27215019235387444,-9.802284014225007
5.7,1.2999999523162842,292.0,24.40372085571289,0.0,-79.78278158441746,40.45899473147068,269.31405144929886,-0.014676728285849094,0.002463463926687837,-0.9998596906661988,0.0076917014084756374,0.008862513354311662,-0.036063677904994984,-0.0058784786382591395,0.0060697877779603004,0.004379629623144865,0.0016526745166629553,-0.13081108546815814,0.2777757254429162,-9.802699751257897
5.81,1.2000000476837158,300.0,24.3974609375,-0.02385532110929489,-79.7827816049906,40.45899468902657,269.32197505235666,-0.014672491699457169,0.00247876881621778,-0.9998589754104614,0.007793359924107791,0.011813288247883429,-0.03380773866900938,-0.006732449770830046,0.003958936780691147,-0.00222794059664011,-0.002328345086425543,-0.12859373906627294,0.275568894892931,-9.802274073958397
6.0,1.100000023841858,294.0,24.40246772766113,0.0,-79.78278161924703,40.458994722000796,269.3213562965393,-0.0146851921454072,0.002444002777338028,-0.9998583793640136,0.007854093797504902,0.01100466164666395,-0.03974426950359301,-0.0066920633622434035,0.0035202100407332173,0.00010787770588649435,0.00827823393046856,-0.1250749851856381,0.2705181796476245,-9.802844762206078
6.1,1.0,299.0,24.39996337890625,-0.007951773703098297,-79.78278164186396,40.45899465051409,269.3306645751,-0.014688448980450632,0.002470366191118956,-0.999857485294342,0.007949442602694035,0.013906832153071045,-0.029434970545434962,-0.0036081489065301134,0.005326261278241873,0.002639757236465812,0.004734375514090061,-0.13183165300637484,0.28910022899508475,-9.79914932191372
6.3,0.8999999761581421,301.0,24.40121650695801,-0.02385532110929489,-79.7827816580442,40.458994679304816,269.3303698301316,-0.014680340886116028,0.002441437216475606,-0.9998572468757628,0.00800186488777399,0.012230750668724569,-0.034979136998817474,-0.003435689386937805,-0.005610768683254719,0.0010467506945133214,-0.010642014443874359,-0.13229245928116146,0.28532683800905945,-9.799684926867483
6.4,0.8999999761581421,310.0,24.3974609375,-0.007951773703098297,-79.78278165786493,40.458994666061656,269.3384119272232,-0.014725467190146446,0.002429697196930647,-0.9998557567596436,0.00811471790075302,0.010014250039770571,-0.04092046888368089,-0.00485467965829116,-0.002107090782374144,-0.0007756830891594291,0.002693357178941369,-0.1304305413644761,0.2766332343220711,-9.80071637570858
6.6,0.8000000119209291,312.0,24.40246772766113,-0.007951773703098297,-79.78278167051114,40.458994703316215,269.3379864096641,-0.014710209332406519,0.0024334858171641827,-0.9998555183410645,0.008169008418917656,0.009211941344988421,-0.046232141627165185,-0.004689941306006907,-0.001781724626198411,0.002963509410619736,-0.007654713932424785,-0.12892142068594695,0.28851848585531115,-9.800769000649453
6.7,0.699999988079071,320.0,24.40121650695801,0.007951773703098297,-79.78278166715097,40.458994654728265,269.3457384705544,-0.01474159210920334,0.002419276628643275,-0.9998540878295898,0.00829198956489563,0.007063378932725175,-0.04095345665028763,-0.0056406584360232355,-0.004813057370483875,-0.0010002327617257831,-0.008073299191892147,-0.12606806167401374,0.2706912937760353,-9.802333715558053
6.9,0.699999988079071,328.0,24.38368797302246,-0.02385532110929489,-79.78278165254748,40.45899458366561,269.3544515967369,-0.014743204228579996,0.002452787710353732,-0.9998535513877868,0.008344224654138088,0.007848350721714789,-0.034496189132182525,-0.006290656653559132,0.002371851820498705,0.0045957802794873714,0.005097265355288982,-0.1278785789106041,0.2783317042887211,-9.802051879763603
7.0,0.699999988079071,335.0,24.39119911193848,-0.02385532110929489,-79.7827816703662,40.458994654032615,269.35330909490585,-0.014747362583875656,0.002451041480526328,-0.9998525977134703,0.008455293253064156,0.006128484947043617,-0.04570754768198043,-0.006002381569959619,0.003718300722539425,0.0006789056933484973,0.0027586000505834822,-0.1301885579992086,0.27498709693551066,-9.802826051115993
7.2,0.6000000238418579,331.0,24.398712158203125,0.04771064221858978,-79.78278168768459,40.45899459783335,269.36187714338297,-0.01471905596554279,0.0024651410058140755,-0.9998524785041808,0.008504088036715984,0.011380712577186649,-0.04132880149695205,-0.006577733834719131,-0.0053442399948835356,0.00037127689574845135,0.006785651668906212,-0.12720116070471704,0.27080306695774203,-9.802857041358948
7.3,0.699999988079071,332.0,24.392452239990234,0.07951773703098297,-79.78278168993093,40.4589945412845,269.36951559782034,-0.014713218435645103,0.002490654354915023,-0.9998515248298644,0.008622298948466778,0.009501915605580348,-0.02932477789175698,-0.007452432718158956,0.002237700391560793,0.003003354184329509,0.008227321319282055,-0.12896285369060936,0.28672008331865073,-9.800532188415527
7.5,0.699999988079071,330.0,24.39119911193848,0.05566241592168808,-79.78278170132526,40.45899457005289,269.36882066726685,-0.01470162533223629,0.002478227252140641,-0.9998512268066406,0.008677540346980095,0.008289308395314533,-0.034815333326294065,-0.007289792583845312,-0.0016782693564891815,-5.102225986775011e-05,-0.009278764016926287,-0.13334906028583646,0.2884175117500127,-9.798572786450388
7.61,0.8000000119209291,340.0,24.39495658874512,0.09542128443717957,-79.7827816626538,40.45899457861931,269.37522447109217,-0.014731347560882568,0.002469020895659924,-0.9998498558998108,0.008787393569946289,0.0006146520392786429,-0.04503584279405466,-0.009482670822027368,-0.003913965076208115,-0.0010600796667858956,-0.011379782110452652,-0.1272799976170063,0.27003943886607884,-9.802988018989565
7.8,0.8999999761581421,338.0,24.37993049621582,0.16698725521564484,-79.78278166473079,40.45899462189588,269.37429809570307,-0.014745591208338737,0.0024524049367755647,-0.9998493194580078,0.0088330814614892,0.0008806786418771453,-0.05090602307219128,-0.009485736208610712,0.0062487074173986894,0.002860385226085782,0.003105665557086468,-0.12863233068957924,0.2731237354874611,-9.803008484244348
7.91,1.0,348.0,24.386192321777344,0.06361418962478638,-79.78278155043756,40.458994573761686,269.38440680503845,-0.0147836497053504,0.0024469634518027306,-0.9998478293418884,0.008937766775488853,-0.014494924852058147,-0.043326469977761815,-0.003826626826509264,0.002580799628049135,0.004356620833277702,0.0006095836288295686,-0.12781200287863612,0.2795064830034971,-9.803149986863136
8.1,1.100000023841858,349.0,24.39370346069336,0.07156596332788467,-79.78278153395841,40.45899461380402,269.3840193748474,-0.014768998138606547,0.002454009139910341,-0.9998473525047302,0.009006702341139317,-0.015564464828902419,-0.048593420625763065,-0.003628620973540138,-0.0006135774310678244,0.000305293535348028,0.005721729714423418,-0.12650791847147047,0.2707739039696753,-9.803110225796699
8.2,1.100000023841858,351.0,24.39370346069336,0.07156596332788467,-79.78278153299787,40.45899460431744,269.3915432691574,-0.0147815877571702,0.002441865624859929,-0.9998463988304138,0.009106332436203957,-0.007879131284845318,-0.049492736086866544,-0.004627762861032989,0.004355049226433039,0.00028350003412924707,0.009091203100979328,-0.1330970452912152,0.2884457793831825,-9.7993767786026
8.41,1.2000000476837158,349.0,24.392452239990234,0.08746951073408127,-79.78278154377003,40.45899453891105,269.39953601360315,-0.014775554649531841,0.0024873961228877306,-0.9998456835746764,0.009172309190034866,0.0004311486409249362,-0.03893436868978405,-0.005740021945331058,-0.0072971275076270095,0.0004890743875876068,-0.008454084396362305,-0.1301218540593982,0.28631445100530983,-9.799601896405221
8.5,1.2999999523162842,350.0,24.39370346069336,0.04771064221858978,-79.78278154688898,40.45899461685247,269.3984533548355,-0.014758506789803503,0.002463204087689519,-0.9998449683189392,0.009290738962590694,-0.0008022385801415249,-0.04967406990881816,-0.005441839458456191,-0.003948797006160021,0.0014930467586964367,0.0004836133157368749,-0.13122198941186072,0.27732919916510584,-9.801075979471207
8.7,1.399999976158142,352.0,24.3974609375,0.05566241592168808,-79.7827815328568,40.45899454831174,269.4063664674759,-0.014758351258933544,0.00246737664565444,-0.999844253063202,0.009363139048218729,0.001464519757866538,-0.041292209808713,-0.006054777859131483,-3.8398416108975636e-06,0.0039855814538896075,-0.007013417314738035,-0.13068939029239118,0.2866103566624225,-9.800115866661072
8.8,1.399999976158142,353.0,24.392452239990234,0.05566241592168808,-79.78278151857674,40.45899450422151,269.4138836860657,-0.014762040227651596,0.0024961140006780624,-0.9998428225517272,0.009499453008174895,0.002388396484648493,-0.03632490746114463,-0.006400049968085984,-0.009744450449943542,-0.001945302588865161,-0.013823125511407852,-0.1268476325646043,0.27027954015880823,-9.802703259587286
9.0,1.600000023841858,355.0,24.39495658874512,0.07156596332788467,-79.78278152255731,40.45899453945466,269.41327261924744,-0.014781357720494269,0.0024731855373829608,-0.9998420476913452,0.009564715437591076,0.0027139801554447365,-0.04202352128144708,-0.006357608879492199,0.005242646206170321,0.0041745202615857116,0.0052213966846466064,-0.12824414866045114,0.27257515702396634,-9.802769333124159
9.1,1.5,355.0,24.39620780944824,0.09542128443717957,-79.78278150427434,40.45899451974499,269.42004156112665,-0.014775553718209268,0.002489980775862932,-0.9998409748077391,0.009679464623332024,0.0025603922822063038,-0.04274925235688641,-0.006346663313480118,0.004804793745279312,0.0002708344836719334,0.0023065137211233373,-0.12892704863101245,0.2795873390324414,-9.802225542068484
9.3,1.5,352.0,24.39620780944824,0.08746951073408127,-79.78278150757873,40.45899456056751,269.41944766044617,-0.014789706096053125,0.002473690547049045,-0.9998400807380676,0.009749687276780605,0.0012591024357327925,-0.047942692051312526,-0.006109685890694068,-0.0024177872110158205,0.0020592559594661,0.002857107436284423,-0.1247565220668912,0.2731326524913311,-9.803247635364533
9.41,1.399999976158142,350.0,24.39370346069336,0.05566241592168808,-79.78278148917131,40.45899444960765,269.4288147687912,-0.014782218262553215,0.0025402975734323268,-0.9998388290405272,0.009869271889328957,0.004408024469721618,-0.027995573332166318,-0.002299655364238477,0.00377982622012496,0.002269716700538993,0.006833357736468315,-0.13166845173574984,0.2895407253317535,-9.800077859759332
9.6,1.5,345.0,24.39495658874512,0.07951773703098297,-79.7827814944529,40.45899447476317,269.42863476276403,-0.014760919846594334,0.002544456161558628,-0.9998385310173036,0.009929804131388664,0.0027527466552023823,-0.032479910728401194,-0.0019050079664971007,-0.007071946281939745,-0.001305350218899548,-0.012298665009438992,-0.13172274861484767,0.2877827782183885,-9.80009364724159
9.7,1.399999976158142,343.0,24.37867927551269,0.05566241592168808,-79.78278146754259,40.45899441349326,269.435653924942,-0.014764431864023209,0.002542885486036539,-0.9998378753662108,0.009996060281991959,0.004551917150644265,-0.030766347998122525,-0.0037180068754466907,0.008840948343276978,0.0035830168053507805,0.0060391416773200035,-0.128523764340207,0.272178313806653,-9.803028364777566
9.9,1.399999976158142,347.0,24.39370346069336,0.07156596332788467,-79.78278146564294,40.45899436509773,269.442261338234,-0.014761614613234997,0.0025506154634058475,-0.9998365640640259,0.010124756954610348,0.008429897779807955,-0.029996159686696482,-0.005029151804190315,0.0025361087173223487,0.003118211170658469,-0.0014260141178965569,-0.13069447919726376,0.2811864611506462,-9.80178407728672
10.01,1.5,343.0,24.39370346069336,0.06361418962478638,-79.78278148518405,40.45899442633814,269.4413838386536,-0.014761541038751604,0.002532597398385405,-0.99983549118042,0.010240434668958187,0.006430714250788585,-0.04000057899971292,-0.004531922603707988,0.0005013163317926228,0.0014393009478226304,-0.01066834945231676,-0.12795043570920825,0.27235627016052605,-9.80252608895302
10.2,1.399999976158142,347.0,24.398712158203125,0.02385532110929489,-79.78278146853151,40.45899436969636,269.44780433177954,-0.01474939379841089,0.002531581092625857,-0.9998348951339722,0.010311249643564224,0.009113316157553472,-0.03755594935072862,-0.005394701494897357,0.004690108820796013,0.00035421052598394454,0.006303300615400076,-0.12593792458064856,0.2699948721192777,-9.803950470685962
10.31,1.399999976158142,346.0,24.39370346069336,-0.015903547406196594,-79.78278144643099,40.45899434939899,269.45343470573425,-0.01474092062562704,0.002541242865845561,-0.9998337030410768,0.010439797304570677,0.008058703614488764,-0.039273411758774836,-0.006136995187970522,0.0050914660096168535,0.005415708292275667,0.00750785693526268,-0.1310661611147225,0.28986749332398176,-9.799016590118411
10.5,1.399999976158142,348.0,24.398712158203125,-0.015903547406196594,-79.78278145589836,40.45899438679975,269.4528847932816,-0.014756931923329832,0.002513894811272621,-0.9998329281806946,0.010498402640223505,0.006077565141380426,-0.044090621667815806,-0.0057605069126688575,-0.0041178748942911625,-0.003989921417087317,-0.0100964168086648,-0.13011107325553894,0.2817018749378622,-9.802046617269516
10.6,1.2999999523162842,352.0,24.40121650695801,-0.007951773703098297,-79.78278143098376,40.4589942979616,269.45799958705896,-0.014771541580557825,0.002586481161415577,-0.9998310804367064,0.0106306541711092,0.006094719011764825,-0.029428178840403874,-0.006987529581955827,-0.0033243810757994647,-0.0015693134628236296,0.0025489795953035355,-0.12804359829984607,0.2768887211009861,-9.8027535456419
10.8,1.2999999523162842,352.0,24.40246772766113,-0.015903547406196594,-79.78278143909796,40.45899432667329,269.457345366478,-0.014761246740818025,0.0025696174707263712,-0.9998308420181274,0.010673274286091328,0.005719005223906952,-0.0345242056471051,-0.006736157219052254,0.00468675559386611,0.003545874031260609,-0.0052133495919406405,-0.12983616275712848,0.2849092554487288,-9.801866523027421
10.9,1.2999999523162842,353.0,24.39996337890625,-0.007951773703098297,-79.78278143327843,40.45899429163418,269.4632649421692,-0.014706870540976524,0.0025810918305069212,-0.9998303055763244,0.010799326933920385,0.008137926603338641,-0.03783410217373824,-0.0068365422207587465,-0.002866092137992382,0.0021267011761665344,-0.011642335914075376,-0.12795319486409426,0.2710777399130166,-9.803148232698437
11.1,1.2000000476837158,356.0,24.3974609375,-0.007951773703098297,-79.78278144438298,40.458994326048014,269.4626317024231,-0.014716931618750097,0.00260930391959846,-0.999829351902008,0.010864373296499252,0.008253314667089309,-0.042699782051609035,-0.006807224813667153,0.002867767121642828,0.002698538824915886,0.006693792529404163,-0.12508136230520905,0.2704542805440724,-9.8031236743927
11.21,1.100000023841858,357.0,24.40121650695801,-0.007951773703098297,-79.78278144011409,40.45899429030272,269.4679758548737,-0.014685133472084999,0.0026112860068678856,-0.999828577041626,0.01097130123525858,0.009800446432366505,-0.0431893821548616,-0.007057836780595282,0.0027210903353989124,0.0033713884185999628,0.003983436152338982,-0.13244646032340826,0.29043076291680336,-9.799901273846627
11.4,1.0,356.0,24.40121650695801,0.0,-79.78278140231174,40.45899421544276,269.47397434711456,-0.014685297384858131,0.002669785404577852,-0.99982750415802,0.011056381277740002,0.007768596025090976,-0.035896054236424675,-0.007053855947550125,-0.0063371723517775536,0.0006105029606260357,-0.008341285400092602,-0.1311192702781409,0.2870897187106312,-9.80072631597519
11.5,1.0,355.0,24.39495658874512,-0.015903547406196594,-79.78278142330862,40.458994285978505,269.47268450260157,-0.014664834365248682,0.0026768185198307037,-0.9998265504837036,0.011170007288455965,0.006605344745122592,-0.04503509349917998,-0.0065708461172082865,-0.008736096322536469,-0.00012015819083899261,-0.003645037300884724,-0.13027922638691966,0.273489442281425,-9.802030245065687
11.7,0.8999999761581421,355.0,24.3974609375,-0.02385532110929489,-79.78278138359433,40.458994167427136,269.47867143154144,-0.014652551151812075,0.002707482082769275,-0.9998260140419006,0.011225227266550064,0.007047389678684797,-0.030089656484739026,-0.00735070873891595,0.006353932898491621,0.0016695315716788173,0.0020128830801695585,-0.13148955434560775,0.2826193578913808,-9.800921612977982
11.8,0.8000000119209291,353.0,24.39119911193848,-0.015903547406196594,-79.78278136498406,40.45899411793425,269.4840956926346,-0.014634975232183932,0.0027375491335988045,-0.99982488155365,0.01133711077272892,0.0094712245923877,-0.032413540136768955,-0.007314576975540806,-0.0007186655420809982,-0.000971926376223564,-0.007545740809291601,-0.12780907013453546,0.26977116130292417,-9.803432992100717
12.0,0.699999988079071,350.0,24.38368797302246,-0.12722837924957275,-79.78278137728175,40.45899414909713,269.4834260940552,-0.014648891054093838,0.002724247518926859,-0.9998239278793336,0.01140937302261591,0.00956277085499867,-0.03715899497245154,-0.0071522474680830095,0.0020376043394207954,0.0007623444544151424,0.005443590693175793,-0.12695524874143302,0.27038376677781345,-9.80254187643528
12.11,0.6000000238418579,348.0,24.398712158203125,0.0,-79.78278138926794,40.45899418239318,269.4827847480774,-0.014657815918326378,0.002734303940087557,-0.999823033809662,0.011469179764389992,0.008304845376390101,-0.04119133624381408,-0.006682771084208864,-0.0062222410924732685,0.0003452537930570543,-0.011073766276240349,-0.1322991378977895,0.2922893552295864,-9.800279003977776
12.3,0.6000000238418579,345.0,24.40998077392578,0.02385532110929489,-79.78278137562788,40.45899413539989,269.48813593387604,-0.014671208336949347,0.002735738409683109,-0.9998214840888976,0.011589054949581623,0.009516462426900405,-0.04113901733978123,-0.006651022512580839,-0.005379787646234036,-0.002328787464648485,-0.012481353245675564,-0.131981761995703,0.288170466888696,-9.800887699127195
12.4,0.6000000238418579,346.0,24.39370346069336,-0.007951773703098297,-79.78278135540012,40.45899404169956,269.49351906776434,-0.014663689769804478,0.002760611241683364,-0.9998198747634888,0.011729471385478972,0.01226889018315505,-0.03080888588523303,-0.007244017222715422,-0.006782650016248226,-0.002616548677906394,-0.0069135678932070715,-0.12998290959745645,0.27342718770727514,-9.803209628462792
12.6,0.6000000238418579,346.0,24.398712158203125,-0.007951773703098297,-79.78278137137903,40.45899406872545,269.4928606748581,-0.014661773107945919,0.0027839713729918003,-0.9998192787170408,0.011778479442000387,0.012472560310370256,-0.03495908401853856,-0.007085287490250473,0.0025268455501645803,0.0009862631559371948,-0.0002970663190353663,-0.13109132241457702,0.2813446466065944,-9.802393941879274
12.71,0.699999988079071,338.0,24.3974609375,-0.02385532110929489,-79.78278132954566,40.45899394248889,269.5036668777466,-0.01467846892774105,0.0028230145107954736,-0.9998173713684082,0.011909477412700651,0.009479483589794429,-0.02203407769058176,0.0018390275758941848,-0.002115509705618024,3.887355342158117e-05,-0.0061648101545870295,-0.1261200744844973,0.2708542118221521,-9.802551231980324
12.9,0.699999988079071,339.0,24.398712158203125,-0.007951773703098297,-79.78278127824835,40.45899385172051,269.5127273797989,-0.014689947478473188,0.002856244565919041,-0.9998161792755128,0.0119885029271245,0.008864223261024127,-0.0197574872157801,0.005886526849212711,0.0026396950706839557,0.0007402696064673362,0.005234275478869678,-0.12825152163393794,0.2690184053778649,-9.802607365250587
13.0,0.8000000119209291,331.0,24.398712158203125,-0.007951773703098297,-79.78278128847299,40.4589938710631,269.513372540474,-0.01468974631279707,0.002848679665476084,-0.9998155832290648,0.012037955224514008,0.007423799363178431,-0.023727933504229096,0.006332406949456816,-0.0075633847154676906,-0.0013269970659166574,-0.00950560998171568,-0.13177089678123596,0.2894588825851679,-9.799214226007463
13.2,0.8000000119209291,328.0,24.39620780944824,-0.02385532110929489,-79.7827812699223,40.45899379454257,269.52261459827423,-0.014668235555291176,0.002885955385863781,-0.9998141527175904,0.012170637026429176,0.01019845672158654,-0.02273485273606421,0.008360991597757581,-0.007042848505079745,-0.0007887277170084418,-0.008858593180775642,-0.12816687405109406,0.2722210167534649,-9.804020052552225
13.3,0.8999999761581421,324.0,24.3974609375,-0.02385532110929489,-79.78278123516414,40.458993703812716,269.53255093097687,-0.01467686239629984,0.002920452738180757,-0.9998123049736024,0.012303016148507595,0.008892474179739509,-0.015333145686193787,0.009835935363044824,-0.001792717142961919,-0.0017122608842328186,0.003542469581589103,-0.13006415848620234,0.2782247367873788,-9.801496978998182
13.5,1.0,317.0,24.398712158203125,-0.02385532110929489,-79.78278124580496,40.45899371927809,269.53358054161066,-0.014677406288683413,0.0029026821721345178,-0.9998116493225098,0.012362802401185036,0.008588017157815295,-0.01951016678705143,0.010104939859631849,0.00020816813048440963,-0.0012102294713258743,-0.006886939052492379,-0.13093078893609345,0.2867230617441237,-9.801709817647934
13.6,1.0,313.0,24.39996337890625,-0.007951773703098297,-79.7827811885292,40.458993628669134,269.5420216321945,-0.014691413380205631,0.002955868840217591,-0.9998100399971008,0.012467279098927976,0.002807861974755463,-0.016613638710884417,0.006808682016096201,-0.0076477290131151685,-0.002286452800035477,-0.012817750684916971,-0.12749490106478334,0.2716792904958129,-9.803426560163498
13.8,1.0,311.0,24.392452239990234,-0.02385532110929489,-79.78278119244004,40.458993645422616,269.54273283481604,-0.014694217592477797,0.0029575210064649573,-0.9998092651367188,0.012523972429335116,0.003312805825064045,-0.020758201533616502,0.007026770021107562,0.005578558426350354,0.0034844153560698032,0.006083774846047163,-0.12618102257139982,0.26873022900894283,-9.80503045141697
13.9,1.0,306.0,24.38869667053223,-0.015903547406196594,-79.7827811436924,40.45899354783394,269.55047488212585,-0.014695640653371813,0.002993597649037838,-0.9998081922531128,0.01259497832506895,0.004265395586435836,-0.018218793762914718,0.0048022004956350785,-0.002463137730956077,-0.004139894153922796,-0.013035091571509838,-0.13330770950764415,0.2901495849341154,-9.80021585404873
14.1,1.0,300.0,24.39620780944824,-0.04771064221858978,-79.78278115447151,40.45899358595779,269.5515118837357,-0.014705893583595753,0.0030125356279313564,-0.9998064041137696,0.01272293459624052,0.002903618716145745,-0.025568420990194983,0.005217295570073132,-0.008485153317451477,-0.003029125276952982,-0.011511814780533314,-0.1304543413594365,0.2888373783789575,-9.799285562038422
14.21,0.8999999761581421,298.0,24.39620780944824,-0.02385532110929489,-79.78278111294627,40.4589935118891,269.55942749977106,-0.014705945737659931,0.0030445680022239685,-0.9998048543930054,0.012838050723075868,0.003368915451037353,-0.024540736418607427,0.004542372695521861,-0.00659575080499053,0.0011912143090739846,-0.010188558138906956,-0.1270953078288585,0.2711062085442245,-9.804049873352053
14.4,0.8999999761581421,298.0,24.3974609375,-0.03180709481239319,-79.78278106074173,40.45899341157482,269.56710827350616,-0.014697609469294546,0.0031015556305646896,-0.9998040199279784,0.012896171770989895,0.00605710454260291,-0.016834702606792717,0.00305732681267069,0.0035179178230464463,0.0011519615072757006,0.003572013694792986,-0.12701110792346298,0.2759056214243173,-9.803188578486443
14.5,0.8000000119209291,303.0,24.39370346069336,-0.05566241592168808,-79.78278107348143,40.45899344567506,269.5678507089615,-0.014707583934068682,0.003127697855234146,-0.999802589416504,0.01298760250210762,0.004580054090651068,-0.02364378842131492,0.0036965246928476335,0.003140991786494851,0.0009921416640281675,-0.002239323686808348,-0.13114450466819108,0.27978983541950586,-9.802508547306061
14.7,0.8000000119209291,300.0,24.39119911193848,-0.05566241592168808,-79.78278103385286,40.458993375837174,269.5741844177246,-0.014690888114273546,0.003146899864077568,-0.9998022317886353,0.013035505078732969,0.008149250749060732,-0.025556207135133117,-0.00016837854948830412,-0.0007494422025047243,-0.000763914838898927,0.005735930521041155,-0.12702475751750172,0.2726162519864738,-9.804186698198318
14.8,0.8999999761581421,298.0,24.38869667053223,-0.02385532110929489,-79.78278104398808,40.45899340024553,269.5742287635803,-0.014700284227728844,0.003127309959381819,-0.999801516532898,0.013082139194011688,0.007309962205395041,-0.02898643080426141,0.00024231988070895995,-0.005677587352693081,-0.00011981876014033332,-0.007963064126670359,-0.1298333122394979,0.2903087936528027,-9.801043819785116
15.0,0.8999999761581421,294.0,24.3974609375,-0.03180709481239319,-79.78278101376759,40.45899332530336,269.5804979801178,-0.014699156396090984,0.003165876260027289,-0.9997997879981996,0.013202344067394732,0.009912492669077394,-0.026776505522240784,-0.002662524908523295,-0.005219387821853161,-0.0006395767559297383,-0.007916843518614769,-0.1322110916208476,0.28844868471845986,-9.800912842154505
15.1,0.8999999761581421,300.0,24.39996337890625,0.007951773703098297,-79.78278098013502,40.45899326952479,269.58825719356537,-0.014702212996780872,0.0032061855308711533,-0.9997979402542114,0.013332765549421307,0.011088753797231692,-0.02684857546988912,-0.0010356693681387264,-0.006580757442861795,-0.006083490327000618,-0.009482580237090588,-0.12783732863143088,0.2763100112043321,-9.802861134409904
15.3,0.8999999761581421,304.0,24.39620780944824,-0.015903547406196594,-79.78278099434586,40.458993295111604,269.5882173776626,-0.014694380573928356,0.003194585209712386,-0.999797523021698,0.013377659022808077,0.011486083228387914,-0.030492710836763474,-0.0008329021303727169,0.00761418417096138,0.003412888152524829,0.003694489365443587,-0.12992493993602694,0.2747796486876905,-9.802286937832832
15.41,0.8999999761581421,313.0,24.3974609375,-0.007951773703098297,-79.7827809168972,40.45899320542522,269.59627532958984,-0.014707105234265327,0.003251012647524476,-0.999795377254486,0.01350922044366598,0.004414925028457968,-0.021800102851093774,0.0005969443422361202,0.0063990079797804356,0.0018763414118438961,2.1696832845918834e-05,-0.12683428446762265,0.2807202370651066,-9.80191973268986
15.6,1.0,315.0,24.40246772766113,-0.015903547406196594,-79.78278092257608,40.458993224041706,269.5963848829269,-0.01468648109585047,0.003278839169070125,-0.9997946619987488,0.013574236072599888,0.003162795512194207,-0.024442713595216763,0.0010519909776148264,-0.003016668139025569,-0.004644509870558977,-0.003787308931350708,-0.12924890130758288,0.2777216935157776,-9.803400832414628
15.7,1.0,325.0,24.39996337890625,-0.007951773703098297,-79.7827808922702,40.45899316073172,269.60490465164185,-0.014681991189718246,0.0033017985988408327,-0.9997930526733398,0.013689078390598295,0.007789351965907244,-0.02476053359970673,0.001728323005977991,-0.0037378268316388135,-0.001175269833765924,0.002009131945669651,-0.12863910066895187,0.2773925683647394,-9.801922656297684
15.9,1.0,324.0,24.386192321777344,-0.03180709481239319,-79.78278084299778,40.45899306448389,269.61322832107544,-0.014667024835944176,0.0033545128535479307,-0.9997923970222472,0.013738843612372877,0.012419822282612774,-0.019917751746063687,0.0016372055803481546,0.0030844337306916714,-0.002116520889103413,0.0038110034074634322,-0.1305981554556638,0.2816365323029459,-9.80186886191368
16.0,1.100000023841858,323.0,24.39620780944824,-0.02385532110929489,-79.78278087188768,40.45899310342027,269.6137282848358,-0.0146578848361969,0.003356466302648187,-0.9997906684875488,0.01387304812669754,0.011174943066856563,-0.025641068649609484,0.0023988096302236033,0.0012304979609325528,0.0034121526405215268,-0.003926638513803482,-0.12605716209858656,0.2738213996775448,-9.804054551124572
16.2,1.100000023841858,323.0,24.39996337890625,-0.015903547406196594,-79.78278080771663,40.45899301782124,269.6217384338379,-0.014682699926197529,0.003382806666195393,-0.9997892379760742,0.0139475641772151,0.009698076924482766,-0.021198175166055183,0.0025066233049945296,-0.002935226075351239,-0.0016887255478650331,0.003778568934649229,-0.1294074613507837,0.2714680781029165,-9.804266805052755
16.31,1.0,323.0,24.3974609375,-0.015903547406196594,-79.78278073880534,40.45899296149409,269.62910604476934,-0.014694600366055962,0.003413974540308118,-0.9997876286506652,0.014043561182916164,0.004761220665205956,-0.02115122404551888,-0.00029655691390765665,1.5901554434094578e-05,-0.0022791258525103326,0.00739269284531474,-0.13350990439765156,0.2871645996160805,-9.80082981169224
16.5,0.8999999761581421,326.0,24.3974609375,-0.02385532110929489,-79.78278074483876,40.45899298171068,269.6291257143021,-0.014707308262586594,0.003395154606550932,-0.9997867941856384,0.014092712663114073,0.003945858355368726,-0.0239527971589434,0.00010465979559768951,-0.00024534892872907216,0.0006498255534097552,-0.008013153448700905,-0.12877792635932567,0.2889962581917644,-9.801538494229318
16.6,1.0,330.0,24.36115074157715,0.7633702754974365,-79.7827807099803,40.458992919708265,269.63765144348145,-0.014702468179166315,0.003426152281463146,-0.9997854232788086,0.014188080094754698,0.00851166688481843,-0.021931212802974245,0.0012894299881818366,-0.00028480109176598484,-0.0024036073591560125,-0.008215238340198994,-0.12443845180794598,0.27134451912716034,-9.804384918808935
16.8,1.0,331.0,24.37492370605469,0.278312087059021,-79.78278072079294,40.458992940655115,269.63782250881195,-0.014696391299366953,0.0034225729759782553,-0.9997838139533995,0.014308641664683819,0.008543543645925997,-0.024924889754354976,0.0014864074663861148,0.002679251367226243,-0.0028048481326550245,0.003808048088103533,-0.13209965648129582,0.2716185890883208,-9.801405762434008
16.9,1.0,333.0,24.37867927551269,0.2862638533115387,-79.78278069523924,40.45899284987146,269.6463493108749,-0.014664295129477978,0.00347348302602768,-0.9997823238372804,0.014432761818170547,0.011528969040675293,-0.016698616528576148,0.001901106111116746,-0.0020422074012458324,-0.0002584424219094217,-0.0028805178590118885,-0.1309044033754617,0.28111708028241994,-9.802331961393355
17.1,1.0,330.0,24.37993049621582,0.3021674156188965,-79.78278071007374,40.45899286450349,269.6466137170792,-0.014644085429608822,0.003498770296573639,-0.9997825622558594,0.014431434683501719,0.01208470634863567,-0.019344065861149524,0.002363070294755693,0.003314209869131446,-0.0007076257024891675,-0.0002865727001335472,-0.12535791733302176,0.2881686579063535,-9.801351968050005
17.2,1.2999999523162842,328.0,24.369915008544922,0.3021674156188965,-79.78278065565264,40.45899282300189,269.65350341796875,-0.014670321717858316,0.00348453875631094,-0.9997803568840028,0.014559127390384676,0.009243421228194005,-0.0229437138403834,0.0008476400434040334,0.002118170727044344,0.0008995577809400855,-0.008355965837836266,-0.12766764060594146,0.27506433499976995,-9.804879593253137
17.4,1.2999999523162842,328.0,24.372419357299805,0.3498780429363251,-79.78278060372024,40.458992739374146,269.659767985344,-0.014651443809270859,0.003550145775079727,-0.9997789859771729,0.014657014049589634,0.012582705400699196,-0.014994089481379431,-0.0027923801219713602,-0.0011883542174473405,0.00099978840444237,0.011663305573165415,-0.1307348523940891,0.2697806813009083,-9.806280001401902
17.5,1.2999999523162842,320.0,24.3686637878418,0.3896369338035584,-79.78278063392649,40.458992768032495,269.65937900543213,-0.014680415391921997,0.0035315102431923147,-0.9997774362564088,0.014736740849912168,0.011840794779389706,-0.019087343952608717,-0.0019170509776017266,-0.00031389945070259284,0.00398551719263196,0.010847652330994606,-0.1293810026999563,0.2799053910188377,-9.800550899505618
17.7,1.2999999523162842,321.0,24.21466064453125,17.382577896118164,-79.78278056099127,40.45899270529015,269.6660519838333,-0.014668753370642662,0.0035300357267260547,-0.9997771978378296,0.014764354564249516,0.00917496567509159,-0.01802374102207323,-0.0034550508139497824,-0.005587560124695301,-0.0011178584536537528,-0.016740772873163223,-0.12447662316262725,0.28631746597588065,-9.800618727207183
17.8,1.399999976158142,316.0,24.1144962310791,3.4908287525177,-79.7827805233029,40.458992662473456,269.6706315279007,-0.014425291679799557,0.003354207379743457,-0.9997796416282654,0.014879268594086168,0.011357197076050709,-0.018873352150404688,-0.008013254301426737,0.012298770248889923,0.03740989789366722,0.001682746224105358,-0.13027273049578073,0.24417981700971725,-9.815534974336623
18.0,1.399999976158142,320.0,24.372419357299805,0.2306014448404312,-79.78278053644244,40.458992678620255,269.66975498199463,-0.014481635764241219,0.0034060783218592405,-0.9997771382331848,0.01498257461935282,0.013598485652844529,-0.02158543564725304,-0.009414889142489028,0.01800561137497425,-0.009439718909561634,0.0005867965519428253,-0.14656152927316726,0.2823074089363217,-9.803994324803352
18.1,1.399999976158142,322.0,24.26599502563477,19.394376754760746,-79.78278048442853,40.45899264684088,269.6753932237625,-0.014407217502593994,0.0033663210924714804,-0.9997771978378296,0.015057933516800404,0.0128222925936519,-0.022391525895537008,-0.006782962324998419,0.02017294429242611,-0.011340911500155926,-0.0090104965493083,-0.12263573694974185,0.2843506819009781,-9.80172618985176
18.3,1.5,323.0,24.34988212585449,0.5407206416130066,-79.78278049547676,40.45899266742086,269.674661397934,-0.014411119744181631,0.0033162487670779233,-0.999775230884552,0.015195518732070925,0.004090593425284746,-0.023447111002235527,-0.008166480700393984,-0.0499720610678196,0.026271075010299686,0.01100438367575407,-0.1052857416216284,0.31988647721707825,-9.801022185087202
18.4,1.399999976158142,325.0,24.369915008544922,0.2306014448404312,-79.78278047824527,40.45899260724024,269.68241834640503,-0.01436377875506878,0.00341508211567998,-0.9997758865356444,0.015176495537161829,0.016556080775244092,-0.020956821334485932,-0.003119068621267359,0.002632654970511794,0.009103743359446527,-0.00888272561132908,-0.1178837230615318,0.2615615060739219,-9.79560415506363
18.6,1.399999976158142,326.0,24.329849243164066,1.2722837924957275,-79.78278051918757,40.458992644220366,269.6818656921387,-0.014395308680832388,0.0034677500370889893,-0.999773383140564,0.015295300632715225,0.01523156526672484,-0.02328144832221699,-0.0030806456784264013,-0.007973786443471909,-0.0060028526932001105,-0.0002953805378638208,-0.12386595457792282,0.2693872733227909,-9.798880934715273
18.7,1.2000000476837158,329.0,24.17209053039551,3.6657676696777344,-79.78278046583355,40.45899261555371,269.68745470047,-0.014387913048267363,0.0034518910106271505,-0.999771773815155,0.01541370525956154,0.014143650500375676,-0.025134758362303392,-0.003894479616663411,0.012959795072674751,0.009844301268458366,-0.004016963765025139,-0.12826953836716712,0.3087627707049251,-9.805754336714745
18.9,1.100000023841858,323.0,24.05189323425293,5.685518264770508,-79.78278039959369,40.45899256604379,269.6932636499405,-0.014370238408446312,0.0034628384746611127,-0.9997718930244446,0.015418090857565403,0.012379731434813229,-0.02064215743338901,-0.005340619338581792,0.0158504918217659,0.0041167475283145905,-0.014857164584100246,-0.11344213237054647,0.2528312476538122,-9.811438415050509
19.0,1.0,333.0,23.97551918029785,6.7908148765563965,-79.78278042628052,40.45899260441952,269.69243013858795,-0.0140971839427948,0.003351340768858791,-0.99977445602417,0.015526318922638891,0.007275534277039545,-0.02744371421514961,-0.00618505740151377,-0.006419646553695203,-0.03861204907298088,-0.03868173435330391,-0.1240327738132328,0.2958429457247257,-9.819164925813675
19.2,1.0,340.0,23.83403778076172,9.359237670898438,-79.78278037637742,40.458992557410674,269.6981852054596,-0.013847113586962223,0.003418473061174155,-0.9997775554656982,0.015542942099273203,0.008861037166977089,-0.018483760744896324,-0.00035554176456711173,-0.14594106376171112,-0.13012418150901794,0.07748331129550934,-0.19355029329657555,0.17918485388159752,-9.760569977760316
19.3,0.8999999761581421,341.0,23.74138641357422,11.052966117858887,-79.78278035033252,40.45899253389806,269.70416116714483,-0.012777269817888737,0.003412048332393169,-0.9997887015342712,0.015740256756544113,0.015351568974464531,-0.02296951224066092,-0.0041336277810179855,-0.02001705393195153,0.009630323387682438,0.009165956638753414,-0.04950674867257476,0.1754046655073762,-9.873213078975676
19.5,0.8000000119209291,343.0,23.541057586669922,13.573678016662598,-79.78278037477784,40.45899255307626,269.70388972759247,-0.01214108522981405,0.0032926334533840427,-0.9997994303703308,0.015585791319608688,0.01972303150867917,-0.02184646611127275,-0.0014372225072787938,0.03385396674275398,-0.014709888026118282,0.0530272051692009,-0.041678665378130975,0.18437412986531854,-9.842089519500735
19.61,0.8000000119209291,349.0,23.42586898803711,15.458248138427734,-79.78278034840108,40.45899248642249,269.71080565452576,-0.009911463595926763,0.003268506145104766,-0.9998228549957277,0.015665333718061447,0.022144329331671844,-0.007224404994105374,0.00600399502852477,0.03130607306957245,-0.0024507734924554825,0.010357543826103207,-0.1372954192198813,0.2583681771531701,-9.813287304639816
19.8,1.100000023841858,347.0,23.248077392578125,18.853656768798828,-79.78278037338961,40.4589924972416,269.71140432357794,-0.008603009395301342,0.002954526338726282,-0.9998372197151184,0.015584484674036503,0.016764636356242674,-0.01269757521290485,0.0053923459473439435,0.009520662948489193,0.027070702984929085,-0.03411593660712242,-0.10367526311427357,0.2440747315809131,-9.792422100305556
19.9,1.100000023841858,341.0,23.152921676635746,20.37244415283203,-79.78278030384166,40.45899248509775,269.7181346416473,-0.010159745812416077,0.004049283452332021,-0.9998167157173156,0.015717471018433567,-0.011980424713916572,-0.0022691472845414434,0.02397068944186034,-0.08177929371595383,-0.0012894377578049898,-0.0110193295404315,0.00445278262719512,0.18974185556173329,-9.83764563560486
20.1,1.100000023841858,345.0,22.88873863220215,24.563030242919922,-79.7827802800251,40.458992485498975,269.7212886810304,-0.015045643784105778,0.005537259392440319,-0.9997362494468688,0.016446102410554886,-0.031969267000308874,0.00876932177834059,0.03579834294052288,-0.027573203667998314,0.010016189888119698,-0.04361103102564812,-0.021748156738467514,-0.05921298047527671,-9.944317560195923
20.2,1.399999976158142,337.0,22.76854133605957,26.272661209106445,-79.78278028266436,40.458992429659475,269.720800280571,-0.020167769864201542,0.005368039477616549,-0.9995483160018921,0.021626608446240425,-0.03922860078065192,0.027237810805316787,0.044261959676930834,0.015507652424275875,0.06000902131199836,-0.15235535800457,0.03850777971558273,0.12569296278990805,-10.065252013206482
20.41,1.5,340.0,22.51813125610352,28.276508331298828,-79.78278005831041,40.458992187369645,269.74295318126684,-0.018676551058888442,-0.006343889981508255,-0.998791754245758,0.0450131855905056,-0.0893620370140965,0.04578974857532858,0.18914507584749451,0.14567811787128448,0.15835390985012054,-0.2369116544723511,0.10569701101630928,0.07047316465526819,-10.682398728132249
20.51,1.7000000476837158,347.0,22.96887016296387,22.948820114135746,-79.78277992572137,40.45899213115602,269.76690530776983,-0.010393316857516766,-0.005957943852990866,-0.9984732866287231,0.053921833634376526,-0.10296338895787988,0.09005130884392172,0.30443037707280834,0.1078590452671051,-0.0826018899679184,-0.24009433388710025,0.1891709114983678,0.15192899915389718,-10.794764671325684
20.6,1.7000000476837158,348.0,22.96010589599609,22.503520965576172,-79.78277978337749,40.45899205889248,269.7992612123489,-0.000926385633647442,-0.001635338761843741,-0.9982665777206421,0.05882439762353898,-0.1134340090613997,0.09619142928498274,0.3451954379548577,0.059311192482709885,-0.09250012040138243,-0.20792877674102786,0.09680368836969136,0.08958118932321668,-10.316773502826694
20.8,1.7999999523162842,348.0,22.943828582763672,22.48761749267578,-79.78277882755049,40.45899183887049,269.86972308158875,0.008705086074769497,-0.008016285486519337,-0.9984185695648192,0.05495849996805191,-0.07690233819116428,0.08753616909043424,0.11632965074272365,-0.06718585640192032,0.10121344774961473,0.009763695299625395,0.263979658652097,0.14786524822935462,-9.34212860763073
21.0,1.8999999761581416,356.0,22.76478576660156,25.80350685119629,-79.78277874638684,40.45899176700094,269.8783746957779,0.007357396651059389,-0.012345625087618828,-0.9986204504966736,0.050504270941019065,-0.05400211358369406,0.08737718852833276,0.05459429679365134,-0.08249282836914062,0.1081743985414505,0.0762082189321518,0.16413722712546588,0.1700164014659822,-9.135393281579018
21.1,2.0999999046325684,358.0,22.862445831298828,23.736045837402344,-79.78277868757372,40.458991688525636,269.88226056098944,0.004203935619443655,-0.014410894364118574,-0.9987695813179016,0.047266386449337006,-0.032685478728449215,0.09348244306089884,0.026263659189469647,-0.08751627057790756,0.12092689424753188,-0.03914957121014595,0.2276197531074285,0.10408367285504938,-9.470634620189667
21.3,2.0999999046325684,353.0,22.622053146362305,27.57675170898437,-79.78277857441256,40.45899143524547,269.91765832901,-0.005528778303414583,-0.01898645237088204,-0.9988656044006348,0.04331797733902931,-0.02288868080157596,0.09070104688200713,0.032192374239873166,-0.08650481700897218,-0.04826933145523071,0.04155413806438446,0.3407570171356201,-0.1098305722139776,-9.683174477219582
21.4,1.8999999761581416,357.0,22.73348426818848,25.056039810180664,-79.78277820166358,40.45899129232868,269.9549989700317,-0.006864762865006925,-0.017544960603117943,-0.9989299178123474,0.0422387421131134,-0.035545520712666305,0.10042725061819373,0.0774742584900421,0.08584943413734436,0.030719442293047905,0.020267024636268616,0.3360374004766345,0.09554565992206336,-10.008255693912506
21.6,1.8999999761581416,357.0,22.728477478027344,25.461580276489247,-79.78277809050483,40.4589911367074,269.97704410552984,-0.00027446748572401697,-0.017034996300935745,-0.9989580512046814,0.042338680475950234,-0.04274953580674027,0.08682942264014919,0.12485493674946475,0.059378083795309074,0.052240662276744836,-0.01464006770402193,0.1946073602512479,0.2361754538677633,-9.962035793066024
21.72,1.7000000476837158,354.0,22.74475288391113,26.15338516235352,-79.782777958556,40.45899095544252,270.0041753053665,0.0018730337033048274,-0.016725007444620132,-0.9989523887634276,0.04255523905158043,-0.041932786462066184,0.08707123546170402,0.14681125933789255,0.001616323716007173,-0.04100081697106362,-0.06247420981526375,0.235771813262254,-0.08756435673683882,-10.016274565458296
21.91,1.7999999523162842,354.0,22.794836044311523,23.74399757385254,-79.78277774421234,40.45899070161083,270.046592593193,-0.00014974149235058576,-0.018508711829781532,-0.998892605304718,0.043255019932985306,-0.0467420602026723,0.10777772170577077,0.17390885319219182,-0.16025786101818085,-0.08664320409297943,-0.1473267376422882,0.23286108758300544,0.17284524785354735,-9.933041789531707
22.01,1.7000000476837158,351.0,22.6959228515625,25.42182159423828,-79.78277769324583,40.45899061794739,270.06418240070343,-0.001225043903104961,-0.015980012714862823,-0.998896062374115,0.044157724827528,-0.02128261930563861,0.10122381643045987,0.16909418075780694,0.12314321845769882,-0.0377928763628006,0.05116363614797592,0.3691344317793847,-0.03052561772055924,-9.89702294111252
22.2,1.7000000476837158,348.0,23.37328338623047,15.633187294006348,-79.78277736358021,40.458990463326906,270.11275255680084,-0.0017803094815462828,-0.010688746348023416,-0.9989330172538756,0.044893432408571236,-0.04605218946254189,0.09743099096648627,0.16398064491402364,0.11736516654491425,0.07632507383823395,0.13391201198101044,0.2765298665128648,-0.0007149408850818872,-9.728303287625314
22.3,1.7000000476837158,340.0,22.667125701904297,26.471454620361328,-79.78277728877937,40.45899038125714,270.12473058700556,-0.0005892401677556336,-0.010739557445049286,-0.998954176902771,0.04444069042801857,-0.05074242352915321,0.09246434508870917,0.060753785685859325,0.026530731469392776,0.05113106593489647,0.0412626788020134,0.07705997999757529,0.05450983651913703,-9.020032979249956
22.5,1.7999999523162842,341.0,22.446765899658203,29.40566062927246,-79.78277726642429,40.45899019062914,270.15914440155035,0.0040699797682464105,-0.021648630499839783,-0.998946487903595,0.04025710746645928,-0.019576077507713868,0.10405502409019472,0.04541440260199259,0.05128944292664528,0.11363618820905685,0.09114517271518707,0.18410941544920206,-0.028629662613384423,-9.747560507655145
22.61,1.7000000476837158,339.0,22.30778694152832,30.80517196655273,-79.78277722614025,40.45899010290236,270.1663224697113,0.004652596078813076,-0.024275919422507286,-0.9990024566650392,0.0371907576918602,-0.02625486674753129,0.09529575069157643,0.09513495738684412,-0.06652673333883287,-0.07814691960811615,0.08375021070241928,0.3631256137043238,-0.07382054029963911,-10.214096395969392
22.8,1.600000023841858,341.0,22.09243392944336,35.528526306152344,-79.78277714631459,40.45898995551804,270.2025849819184,0.002766895573586225,-0.0229951199144125,-0.9991588592529296,0.03384251892566681,-0.018346605425021683,0.1077822604320475,0.20883688520110125,-0.005455384496599436,-0.006555232685059309,0.05727410688996315,0.3771926258504391,0.12005967300385235,-11.00276533484459
22.9,1.7000000476837158,340.0,21.92340850830078,38.74899291992188,-79.78277701608464,40.4589897596936,270.27286422252655,0.0006470837397500873,-0.018046483397483826,-0.9993869066238404,0.029997222125530243,-0.0090662191659512,0.10144804492281756,0.4823602800347177,0.1370035707950592,-0.023869536817073825,-0.04547789320349693,0.34624627355486154,0.2272162221372128,-11.525356725454333
23.1,1.7000000476837158,339.0,21.81447982788086,39.46465301513672,-79.78277698703576,40.45898963435759,270.4178547859192,0.0057704821228981035,-0.02092454023659229,-0.9993484020233154,0.02884084731340408,-0.01813355451165229,0.09231578340422816,0.9783607607537776,0.02750704623758793,0.04913341999053955,-0.030098050832748413,0.3957531501352787,-0.12582373942248526,-12.357983862161634
23.22,1.7999999523162842,338.0,21.885847091674805,39.401039123535156,-79.782776915192,40.45898950691907,270.5369181632996,0.005430432967841625,-0.022250251844525337,-0.9993225932121276,0.028805656358599663,-0.012351890891773522,0.09539399347084546,1.2270954727555785,-0.04031016677618027,0.04452827572822572,-0.008227580226957798,0.3498177894204855,-0.071904526501894,-12.393078850507735
23.4,1.7999999523162842,339.0,21.690526962280273,40.08489227294922,-79.78277685879766,40.458989379873465,270.8401727676392,0.005132383201271296,-0.02152219228446484,-0.9992328882217408,0.032312262803316116,-0.0059765830623233285,0.09730417533890992,1.7102334243827289,-0.018979886546730995,0.00690539786592126,-0.04033415764570236,0.28948106545954944,-0.1206508173700422,-12.438698827028274
23.51,2.0,341.0,21.72808837890625,41.22994613647461,-79.78277687714791,40.45898935676664,271.02470564842224,0.001658585388213396,-0.01864634081721306,-0.9992102980613708,0.03504794090986252,0.0040824647075069324,0.10410044214631264,1.972429856025348,-0.05726834386587142,-0.03481438383460045,-0.06655444949865341,0.3232145661860705,0.03357752624899149,-12.442895958423614
23.71,2.0999999046325684,344.0,21.809471130371094,38.892127990722656,-79.78277688529387,40.458989303550865,271.4743709564209,-0.004404542036354542,-0.01212513353675604,-0.9991808533668518,0.03835850954055786,0.03710051753181263,0.10198689834549124,2.4490048910407203,-0.04073213413357735,-0.06969466805458069,-0.07137211412191391,0.2932814815454185,0.009275360531173648,-12.377573204040527
23.8,2.200000047683716,342.0,21.376262664794922,33.564437866210945,-79.78277690886186,40.45898927643547,271.73066401481634,-0.006637012120336294,-0.010852228850126266,-0.9991729259490968,0.03862282261252403,0.055592157547336415,0.10256730252814593,2.667924561843046,0.07121986150741577,-0.03439061343669892,-0.062331445515155785,0.39775381151586775,0.2369030850380659,-12.05470048069954
24.0,2.299999952316284,340.0,21.520248413085934,31.73552894592285,-79.78277681945211,40.45898921936194,272.3168561458588,-0.011377746239304544,-0.016064167022705078,-0.9991406798362732,0.03647606447339058,0.053123759121335316,0.1230310295785225,2.9552133839970973,0.06566085666418076,0.019878540188074112,0.09732357412576677,0.4353318199887872,0.1435842915158719,-11.068976866006851
24.1,2.700000047683716,342.0,21.515239715576172,32.27624893188477,-79.7827766784258,40.458989070633024,272.9863977432251,-0.010797899216413498,-0.018861638382077217,-0.9992293715476992,0.03268580511212349,0.04429369900676998,0.18244546713263554,3.1027117164177374,0.023486008867621425,0.019582318142056458,-0.024315426126122475,0.5063449750095607,0.24369329212233426,-10.573838152885436
24.3,2.700000047683716,338.0,21.855796813964844,35.88635635375977,-79.782776613629,40.45898901648434,273.30008792877203,-0.010539964772760868,-0.02269379049539566,-0.9991971254348756,0.03128944337368012,0.009171952255118463,0.17847415107324838,3.1693210034438737,-0.06037053093314172,0.10943824052810668,-0.009831284172832966,0.31866199716925625,0.05280885407701135,-10.443971493244172
24.4,2.799999952316284,342.0,22.13249969482422,31.75143241882324,-79.78277653062948,40.45898894495296,273.6315426826477,-0.013949272222816944,-0.0262218788266182,-0.999086618423462,0.03072155267000198,-0.004678236722934444,0.1994244824345276,3.2567038300354416,-0.06594420969486238,-0.012106183916330338,0.0440383218228817,0.4795170725136996,0.005328407739289105,-10.652331175804141
24.6,2.9000000953674316,346.0,22.172565460205078,31.20276069641113,-79.78277629475505,40.45898886777422,274.2954473495484,-0.01730348728597164,-0.02297741174697876,-0.9990938305854796,0.031373508274555206,0.002060983782292397,0.2114069424252508,3.3551045907515262,0.07465820014476776,-0.01957821473479271,0.0413798987865448,0.5268716986477375,0.0889542490337044,-10.249040526151658
24.71,3.0,350.0,22.299022674560547,27.83916091918945,-79.78277613446218,40.45898888862767,274.62799167633057,-0.016669852659106255,-0.021920934319496155,-0.999101459980011,0.032216355204582214,-0.007689626264248016,0.17868493235559435,3.3633228813383567,0.09663160890340804,0.08245589584112167,0.09517976641654967,0.23096456145867705,0.0470217002928257,-9.992488092184066
24.8,3.0999999046325684,352.0,22.246437072753906,30.336017608642567,-79.78277596886655,40.45898887794169,274.96477222442627,-0.012760373763740064,-0.02529723942279816,-0.999059557914734,0.03282292559742928,-0.02707558284216865,0.15673738425454872,3.359798164110628,0.1080380156636238,0.17803843319416046,-0.021549597382545468,0.3294591366872192,0.13068006215617062,-9.77387297809124
25.0,3.0999999046325684,355.0,22.151281356811523,30.75746154785156,-79.78277543163361,40.458988854601905,275.95086669921875,-0.006806398276239634,-0.031198203563690182,-0.9989189505577089,0.033782247453927994,-0.09968874888237478,0.17992463074937465,3.2757689550409337,0.04845048859715462,-0.072242870926857,-0.030006345361471176,0.3626224607974291,0.10889072366058827,-9.509447268247603
25.2,3.0999999046325684,0.0,22.24768829345703,28.7218074798584,-79.78277538683912,40.458988812796775,276.2527279853821,-0.002907617948949337,-0.02943754568696022,-0.9989992380142212,0.03354978933930397,-0.10379257111483672,0.1527635323543484,3.2446112316811875,0.04661881178617477,-0.13569194078445435,-0.015113582834601402,0.3622112188115716,0.08100685056298973,-9.775045929551123
25.3,3.0,6.0,22.20261573791504,31.26637458801269,-79.78277521085651,40.45898887842746,276.5769100189209,-0.0010873606661334634,-0.028040247038006786,-0.9990530610084534,0.03325159102678299,-0.12852384604188222,0.11521706187398208,3.231446571049853,-0.025632180273532867,-0.0935266762971878,0.02270827628672123,0.3250303459167481,0.08505597431212664,-9.668800266981128
25.5,3.0999999046325684,9.0,22.18508720397949,29.453371047973643,-79.78277520359808,40.45898880778335,277.1757402420044,-0.00279488367959857,-0.024661313742399216,-0.9991444945335388,0.03308172896504402,-0.10437620940874676,0.06605827982811091,3.1282258654442683,-0.04814879596233368,-0.07839476317167282,-0.06388722360134125,0.2738112766854465,0.2334087158739567,-9.482105687856675
25.61,3.0,11.0,22.197607040405273,30.542762756347656,-79.78277508123475,40.45898890682521,277.4869041442871,-0.003606435377150774,-0.023492852225899696,-0.999168574810028,0.033127035945653915,-0.08505967499914521,0.04113312658646795,3.0976227106762053,0.03445500135421753,0.0053116604685783395,0.07613355666399002,0.2325766388140619,0.1231659058202058,-9.489860265254977
25.8,2.9000000953674316,10.0,22.32155990600586,27.68807601928711,-79.78277529761348,40.45898906744247,278.0482587814331,-0.0020631810184568167,-0.023394541814923286,-0.9991700649261476,0.033280733972787864,-0.03277725300150513,-0.00031827732872512227,2.975839157103515,0.0210302509367466,-0.05997893959283829,0.041883405297994614,0.28597808992490176,-0.03648074191063642,-9.4069233584404
25.91,3.0,11.0,22.027328491210934,32.78516387939453,-79.78277514129591,40.458988839017906,278.76151466369635,0.0025675103534013037,-0.024156441912055016,-0.9991752505302428,0.03254079073667526,-0.02372241834260666,0.012599773819624035,2.9632874127101583,-0.018776969984173768,-0.009581604972481728,-0.12589935958385468,0.24243467895314105,0.21790825881063933,-9.357276989221571
26.11,3.0,12.0,22.262714385986328,28.18903923034668,-79.7827751354092,40.45898896140866,279.0579395294189,0.0038178695831447844,-0.02589159272611141,-0.9991349577903748,0.03231623023748398,-0.02106585442983787,0.002966169636603247,2.976872218867169,0.014900870621204374,0.048096656799316406,0.0039682374335825435,0.2370046804100275,0.06025266566779465,-9.852053174972532
26.21,3.0,14.0,22.32781982421875,28.849035263061523,-79.7827750800127,40.458988944761316,279.4559774398804,0.0032367659732699394,-0.026490869000554085,-0.9991245269775392,0.032217413187026984,-0.02777237660421536,0.019185141514571503,3.027590841471957,-0.034853722900152206,0.03436949849128723,-0.03608105331659317,0.3580688685178757,0.21397315576672554,-9.756030199527741
26.31,3.0999999046325684,14.0,22.081167221069336,31.31408500671387,-79.78277509372707,40.4589890731553,279.75630855560297,0.002062305109575391,-0.025248469784855843,-0.9991558194160458,0.032342806458473206,0.004694025968947066,0.00983866509234324,2.98658872555548,0.08882726728916167,-0.019502198323607445,0.019754625856876373,0.3970728301629424,0.032523803170770416,-9.541313424110413
26.51,3.0,13.0,22.180078506469727,29.38975715637207,-79.7827750214603,40.45898925997653,280.72278118133545,-0.0004383400082588196,-0.023663053289055824,-0.9991891384124756,0.03257255628705025,0.026272619930611658,-0.03224605987957349,2.988007072507648,0.0013959923526272178,-0.03398426622152328,0.06426102668046951,0.2795559650659561,-0.06770777426194399,-9.721667282581327
26.7,3.0,11.0,22.123735427856445,30.28035545349121,-79.78277488127236,40.4589892499089,281.0752124786377,-3.5892568121198565e-05,-0.022519368678331368,-0.999203324317932,0.032950259745121,0.03587447131829373,-0.02383415186679789,2.9978640703210138,-0.0035256126429885626,-0.028458718210458755,-0.0015838420949876304,0.3734173710644245,0.0751882086088881,-9.683464499115944
26.81,3.0999999046325684,8.0,22.12248420715332,30.66204071044922,-79.78277493356141,40.45898940332917,281.3745822906494,0.0006654836470261216,-0.020878924056887627,-0.9992283582687378,0.03326110541820526,0.0435143004704947,-0.041730807671564896,2.998161912652506,0.0112665556371212,-0.10718577355146408,0.02518642321228981,0.3544027373939753,0.009156520441174508,-9.752973859906195
27.0,3.0,8.0,21.978498458862305,32.48299789428711,-79.7827749574688,40.458989879981296,282.00002479553217,0.0016616396605968475,-0.019859135150909424,-0.9992405772209167,0.0334843173623085,0.03168998576167985,-0.10450605651614102,3.026679114359564,-0.04246806725859642,0.0014177565462887287,0.0434286892414093,0.3297846073284745,0.11713646717369555,-9.915068618059161
27.1,3.0,8.0,22.043603897094727,32.07745742797852,-79.78277502584811,40.45899007959426,282.3035631179809,0.0012099588057026267,-0.01864487305283546,-0.9992870092391968,0.03280837833881378,0.038812109309164594,-0.10575825023595424,3.0570898239152973,-0.07497458904981613,-0.05907838419079781,-0.00225246069021523,0.3301988094672561,0.1496188099309802,-10.046474264860151
27.3,3.0,8.0,22.21388435363769,27.86301612854004,-79.7827749760418,40.4589905634992,282.9249830245972,-0.003626618534326553,-0.015392236411571503,-0.9993932843208312,0.0310327410697937,0.05305164540992826,-0.13914024674455486,3.0820053505903764,0.02720537967979908,-0.01752532087266445,-0.007410065736621619,0.3041140698082745,0.055448999851942064,-9.925738617181779
27.41,3.0999999046325684,6.0,22.061134338378906,30.8608341217041,-79.78277526533455,40.45899094156813,283.5414667129517,-0.0038264573086053133,-0.015322505496442318,-0.9993991851806641,0.03085445612668991,0.08576549544810633,-0.13024540399394394,3.0220406182139916,-0.06232772395014762,-0.041919752955436713,-0.03972792252898216,0.2330651919543744,-0.04470178093761206,-9.626255341172216
27.6,3.0999999046325684,6.0,22.038597106933594,31.17095375061035,-79.78277535470706,40.45899113649725,283.84151268005365,-0.005024759564548731,-0.014924895949661732,-0.999385952949524,0.0313006229698658,0.08566137193213938,-0.12727130050100474,2.9902850679634163,-0.08020292222499847,-0.12898123264312744,-0.14359016716480255,0.34378719046711925,0.2077194855362177,-9.539032425284386
27.71,3.0999999046325684,8.0,22.03734397888184,31.783241271972656,-79.78277551703431,40.45899117338399,284.1543550491333,-0.005016698036342859,-0.014220534823834896,-0.9993721842765808,0.03206071257591248,0.11654200330935825,-0.10581784730147664,2.986129755698032,-0.0825723186135292,-0.0375187061727047,-0.05784812942147255,0.26628717094659804,0.1818595347739756,-9.60231859445572
27.9,3.0999999046325684,8.0,21.915895462036133,32.23649215698242,-79.78277597179972,40.4589913544932,284.77343368530273,-0.0079538868740201,-0.013457379303872584,-0.9993523955345154,0.032410085201263435,0.14323972766329068,-0.07832274211162774,2.990097881389124,-0.05439157783985138,-0.03567667677998543,-0.025431400164961808,0.2908856580220163,0.2672479781135917,-9.78406818330288
28.0,3.0999999046325684,9.0,22.163801193237305,28.87289047241211,-79.78277624911591,40.458991613101865,285.3738822937012,-0.005131762009114027,-0.015211316756904125,-0.999376118183136,0.031458623707294464,0.14351126933680378,-0.06176653211040292,3.0016277215428167,-0.056910876184701926,0.04612191021442413,-0.09125085175037384,0.3116166139394045,0.2526066780276597,-9.899001638889313
28.2,3.2000000476837163,6.0,22.043603897094727,30.41553497314453,-79.78277687865945,40.45899144544542,285.70708084106445,-0.005133958999067545,-0.017159011214971542,-0.9993470907211304,0.031379468739032745,0.16484782261697078,-0.0011242133306237842,3.02559615001518,-0.05040993541479112,0.0609034113585949,-0.1814072281122208,0.2953235850669444,0.28907322216778997,-9.761055296659473
28.3,3.2000000476837163,8.0,22.022319793701172,30.646137237548828,-79.7827770458661,40.45899152018508,286.00939750671387,-0.0055606882087886325,-0.01887873373925686,-0.9992874264717102,0.032207224518060684,0.16971526679804744,0.009260954430025864,3.017315831915254,-0.007296558935195208,-0.016245650127530098,-0.10059386491775513,0.2688815074414015,0.1608257296308875,-9.705880969762804
28.5,3.2000000476837163,7.0,21.912139892578125,32.69769287109375,-79.78277772303926,40.45899138441965,286.64328384399414,-0.005582790356129408,-0.017393827438354492,-0.9992418885231018,0.03437880054116249,0.1956755947223741,0.05200238959485915,3.0022497156060965,-0.08185833692550659,-0.04334554821252823,-0.07048633694648743,0.25446463080123066,0.16900518033653505,-9.632911811470986
28.6,3.299999952316284,10.0,21.80696678161621,34.62997436523437,-79.78277792585084,40.458991428788686,286.94379806518555,-0.004642462357878685,-0.015718936920166016,-0.9992460012435912,0.03519745171070099,0.19942506003081195,0.039532520871015615,3.009155624995393,-0.056767817586660385,-0.053288880735635764,-0.04922193661332129,0.3117396978288889,0.18845884853973985,-9.863124293088914
28.8,3.4000000953674316,9.0,21.875829696655273,32.75335693359375,-79.78277830734422,40.458991211850964,287.6064357757568,-0.006166060455143453,-0.014000415802001951,-0.9992271065711976,0.03621126711368562,0.19399438167537847,0.0705505394102721,3.1174125764014327,0.016920579597353942,-0.015378937125205994,-0.0046089948154985905,0.32737244814634325,0.12518972765654324,-10.073146923780444
28.9,3.2000000476837163,11.0,22.004791259765625,30.70975112915039,-79.78277877357773,40.45899098565186,287.9355087280273,-0.007709586061537266,-0.01253175176680088,-0.9992239475250244,0.03653997555375098,0.21923107324215402,0.10124026846850964,3.138424200310713,-0.052119459956884384,-0.06597545742988586,-0.03708665072917938,0.3203296596184373,0.245234252717346,-9.99266000032425
29.1,3.2000000476837163,11.0,21.829504013061523,33.747329711914055,-79.7827791954774,40.45899092116717,288.56349945068365,-0.00794632639735937,-0.011730311438441277,-0.9992484450340272,0.03608226403594017,0.23273654797264395,0.1051475597273072,3.1259546682709134,-0.0705525204539299,-0.004016598220914602,-0.1153983399271965,0.2421813483349979,0.2276506702601909,-9.691075235009194
29.2,3.2000000476837163,14.0,21.96597671508789,31.13119506835937,-79.78277920206122,40.45899098721601,288.8799839019776,-0.007543310523033142,-0.01269125659018755,-0.9992603659629822,0.03550988435745238,0.197603474156322,0.07712954210904635,3.129199285706477,-0.05778078734874725,-0.04726729169487953,-0.037006862461566925,0.3140109756588936,0.1561929075792432,-9.931855974197386
29.4,3.2000000476837163,12.0,22.131248474121094,27.79940223693848,-79.78277946979016,40.45899093922673,289.5035877227783,-0.006624818313866854,-0.013984710909426212,-0.999309539794922,0.03377831354737282,0.1874540849122113,0.0944653038958497,3.1329499553324327,0.057940632104873664,-0.01862393133342266,0.0910969078540802,0.3506166287139058,0.11018209950998424,-9.877900207042693
29.5,3.0999999046325684,13.0,22.18759155273437,27.60855865478516,-79.78277962920076,40.45899091813067,289.81663703918457,-0.007193822879344225,-0.013283069245517254,-0.9993433952331544,0.032934341579675674,0.19077600975540696,0.1024605833947714,3.1109681398419906,0.05751963332295418,0.05007659271359444,0.06653059273958206,0.2916971419192851,0.042037323536351326,-9.573300617337226
29.6,3.0999999046325684,15.0,22.243932723999023,26.50326156616211,-79.78277978787386,40.45899089375896,290.1253318786621,-0.008907829411327839,-0.0133803253993392,-0.9993504881858826,0.03225409984588623,0.1804301563988764,0.10165158885213926,3.0550622043364,-0.0949202924966812,0.027774736285209656,-0.004110586829483509,0.2722557894140482,0.13110361070372165,-9.30603725373745
29.81,3.0,21.0,22.253950119018555,26.002300262451172,-79.78278041160044,40.45899063689801,291.0403118133545,-0.01195403281599283,-0.016673747450113297,-0.9992998838424684,0.031286418437957764,0.18237740246195705,0.12547065723651946,2.812687940479815,-0.20335157215595245,-0.023792238906025887,-0.15133072435855865,0.2855558661371469,-0.006576061947271228,-8.84188176691532
30.0,3.0,19.0,22.28274726867676,25.294591903686523,-79.78278055897637,40.458990594246906,291.3164253234863,-0.01344472263008356,-0.01745789311826229,-0.9992560148239136,0.0316535122692585,0.1942567007590178,0.128817165723803,2.6988261803124853,-0.0028392672538757324,0.0009007370099425317,0.0576377883553505,0.2658597394824028,0.02083969585597516,-8.694975151419639
30.11,3.0,23.0,22.37038993835449,23.60086441040039,-79.78278069751781,40.45899055082664,291.58126258850103,-0.014811775647103788,-0.01752760261297226,-0.9992263913154602,0.0319378599524498,0.1929733857776796,0.12891610236056608,2.5844162710214014,-0.002637915313243866,0.017446765676140785,0.0035010469146072865,0.2638540714234114,0.08108478298410772,-8.6643983066082
30.21,2.9000000953674316,23.0,22.486831665039066,22.41604995727539,-79.78278079725463,40.45899043844553,291.8582687377929,-0.01554021518677473,-0.017488297075033188,-0.9991963505744934,0.0325472429394722,0.1851612068442684,0.12786043276540268,2.49042054713283,0.033062510192394264,-0.03836934641003609,0.027252698317170143,0.3104177885502577,0.13459261687472462,-8.569198619127274
30.41,2.799999952316284,26.0,22.344097137451172,25.024232864379893,-79.78278113002477,40.45899027627647,292.56205177307135,-0.013961399905383587,-0.019209766760468483,-0.9991660118103028,0.03321701288223266,0.15451154209861312,0.12172933946045505,2.1406293166730084,0.10521390289068222,0.027649899944663048,0.08267080038785933,0.2463863734714687,0.1436864807456732,-8.546841205358506
30.6,2.799999952316284,26.0,22.3353328704834,24.12568283081055,-79.78278121575259,40.45899023468925,292.772403717041,-0.01356940809637308,-0.01869940012693405,-0.9991831183433532,0.033157963305711746,0.13536347983985622,0.11654931350627964,2.053727372111161,0.011598941870033741,0.0538337305188179,-0.023513667285442352,0.2667097053676844,0.241146482527256,-8.851940732002259
30.7,2.799999952316284,27.0,22.37038993835449,24.26086235046387,-79.78278126521053,40.45899010891417,292.9976463317871,-0.013014661148190498,-0.01957644708454609,-0.9991679191589355,0.0333290658891201,0.11909324704179852,0.11276463369248578,1.997635680724858,0.04777926951646805,0.038347672671079636,0.027864038944244385,0.2579127338714898,0.1609024560637772,-8.892940823435783
30.9,2.700000047683716,26.0,22.292762756347656,24.94471549987793,-79.78278138724883,40.45898999706555,293.41341972351074,-0.010060432367026806,-0.023488977923989296,-0.9991143941879272,0.033430170267820365,0.09741217419249618,0.11175009442286138,1.8486088265108087,0.04592278227210045,0.06103576719760895,0.0007772204698994756,0.27745462194085124,0.18523970050737265,-8.807569136023524
31.0,2.700000047683716,30.0,22.38541412353516,24.42784881591797,-79.78278144451563,40.458989968971075,293.59432792663574,-0.007896071299910545,-0.024420851841568947,-0.9991143345832824,0.033345095813274384,0.08686708923755716,0.10397971709652028,1.762624210215332,0.026588447391986847,0.06651477515697479,0.06763029098510742,0.27717380940914155,0.11972242570482194,-8.911670624613762
31.2,2.5999999046325684,31.0,22.340341567993164,24.41989707946777,-79.78278150564256,40.45898986289596,293.9706020355225,-0.006439757533371449,-0.022902658209204674,-0.9991523623466492,0.03359375149011612,0.06908558998625944,0.09529478729431637,1.6634936427133051,-0.034530989825725555,-0.05667271465063095,-0.06784147024154663,0.3560886358469725,0.2529243097454309,-9.112260527014733
31.3,2.5,32.0,22.297771453857425,24.332427978515625,-79.78278156610384,40.45898985095232,294.1339988708496,-0.006646545603871346,-0.02041579969227314,-0.9991935491561892,0.033930204808712006,0.07548371313891447,0.08002340703811904,1.5995339369770731,-0.05491173639893532,-0.13737274706363678,-0.05318864807486533,0.2930735216662288,0.2598973154090345,-9.125099843144415
31.5,2.5,32.0,23.265605926513672,5.868409156799316,-79.78278161181755,40.45898975497594,294.47650909423834,-0.0051639284938573855,-0.015966804698109627,-0.999258816242218,0.03464539349079132,0.08885720397494515,0.06776700804448041,1.5033531771911794,0.032777756452560425,-0.048690009862184525,0.04446147754788399,0.21621550815179946,0.1499555090535432,-8.960960313677786
31.61,2.299999952316284,32.0,22.633319854736328,20.66666030883789,-79.78278169805355,40.458989734009755,294.6176414489746,-0.003226031083613634,-0.014457499608397484,-0.9992177486419678,0.03666821494698525,0.09181761807191678,0.06059022696656289,1.2716914680301663,0.07558054476976395,-0.0049912896938622,-0.16605037450790405,0.3154925870150328,0.14424655264243486,-7.6805083787441255
31.8,2.299999952316284,32.0,22.483074188232425,22.948820114135746,-79.78278181433902,40.45898962252668,294.8332633972168,0.002339458558708429,-0.012963983230292795,-0.9945738911628724,0.10319553315639496,0.060282565988592426,0.04555130353181218,0.830922080004168,0.035410743206739426,0.07475858181715013,-0.9936057329177856,0.1116045352164656,0.0033528574090451,-7.741599503159523
31.9,2.200000047683716,35.0,22.4279842376709,24.07001876831055,-79.78278190953517,40.45898972015254,294.8602485656738,0.0031155061442404985,-0.01405268721282482,-0.987494170665741,0.1569976657629013,0.06897996468571581,0.026530342862167215,0.6747140149398684,0.01308332197368145,-0.025603285059332848,-1.164731502532959,0.2640319364145398,-0.021457371963188053,-8.281163021922113
32.1,2.200000047683716,37.0,22.300275802612305,24.865196228027344,-79.78278211943996,40.45898967308706,294.9756145477295,0.003517575562000275,-0.015035541728138925,-0.9586207270622252,0.2842671275138855,0.11335699193402984,-0.012512709153453669,0.4983765896305185,0.05901142582297325,0.01964573189616204,-1.378901720046997,0.09176141504198314,0.14414450959302486,-8.962913868427277
32.21,2.200000047683716,27.0,22.325315475463867,25.22302627563477,-79.78278246365433,40.45898985923733,294.97322654724115,0.002655009971931577,-0.014076659455895426,-0.9067991375923156,0.42131951451301575,0.12746255474294474,-0.0861686920000678,0.38143371189988895,-0.0205273237079382,0.016321849077939987,-1.4913595914840698,0.14570906004868447,0.2467903429828585,-9.24749025285244
32.4,2.200000047683716,20.0,22.220144271850586,27.19506645202637,-79.78278252258845,40.458990002334474,294.9225406646728,0.0022909948602318764,-0.011067940853536127,-0.8724480867385864,0.488576203584671,0.12657331764305502,-0.1233308041246418,0.34075860062326746,0.04953417554497719,-0.04885529726743698,-1.4576923847198486,-0.015471138758584857,0.17309015482664108,-9.565373547077181
32.51,2.0999999046325684,30.0,22.310291290283203,24.252910614013672,-79.7827827492289,40.458989992736505,294.9559803009033,0.0020887681748718023,-0.007774314377456902,-0.8327505588531494,0.5535898208618164,0.12430224448823927,-0.16002680913493672,0.3379740540701503,0.06523191928863525,-0.04982553422451018,-1.5280159711837769,0.008280031951144339,0.09977299584075808,-9.740534493327141
32.7,2.0999999046325684,35.0,22.256452560424805,26.535070419311523,-79.78278300723474,40.45899009292974,294.9342632293701,0.002966386731714011,-0.0016061406349763276,-0.7390674948692322,0.6736229062080383,0.08981856270419378,-0.21327300708550528,0.31965425087676025,0.03604336455464363,-0.02282335609197617,-1.541088342666626,-0.10604605324566364,0.2808162958547473,-9.808974398374556
32.8,2.0999999046325684,20.0,22.28274726867676,24.865196228027344,-79.78278329231621,40.45899004762755,294.9662055969238,0.0040795281529426575,0.001943959970958531,-0.6895163655281067,0.7242560982704163,0.09834202655098324,-0.23571617540365064,0.3235844603731259,0.1730036437511444,-0.10143326222896576,-1.1708598136901855,-0.02603967955335975,-0.04204197390004994,-9.897738640308381
32.91,2.0,14.0,22.08993148803711,28.18903923034668,-79.78278358157073,40.4589899697027,294.99853515625,0.004786815494298935,0.007333720568567514,-0.6452885866165161,0.7638887166976929,0.08251452161550027,-0.2427932720750912,0.32836630158743185,-0.036008946597576134,-0.1253848671913147,-1.152780532836914,0.04305690435692668,0.4016938116028905,-9.84597090125084
33.1,2.0,29.0,22.205120086669922,32.45914077758789,-79.78278352786211,40.45898983639622,295.0300464630127,0.0026950237806886435,0.017769094556570053,-0.583666980266571,0.8117942810058594,0.12807367126369112,-0.22454420151697385,0.4009754074145122,0.07097680121660233,0.03369596228003502,-0.3950581848621368,-0.058033450897783036,0.17119748421013356,-10.092571374177929
33.3,2.0,36.0,22.192598342895508,26.82928466796875,-79.78278370233228,40.45898966085733,295.0397644042969,-0.02040175162255764,0.012983553111553192,-0.560050368309021,0.828105628490448,0.14851485757592553,-0.10491475490242548,0.4777664723880548,-0.23206864297389984,-0.5243766903877258,-0.1809742450714112,0.3889909183233977,0.3443036457896233,-10.221197254657747
33.41,2.0,35.0,22.133752822875977,28.87289047241211,-79.78278409960524,40.458989648474066,294.92959785461426,-0.0477670319378376,0.024986941367387768,-0.5572834014892578,0.8285706639289856,0.19129482625763905,-0.059071879239205635,0.43956074947032814,0.002822245238348841,-0.7239090204238892,0.1208111122250557,0.14090297768823806,0.2085514346882701,-10.111123420000077
33.6,2.0999999046325684,32.0,22.15503692626953,26.67820167541504,-79.7827837295509,40.45898938909193,295.0237827301025,-0.0870216116309166,0.058242600411176675,-0.5610743165016174,0.8211156129837036,0.20163730814090927,0.1683660995108468,0.5378011722448828,0.05701915919780731,-0.3313613831996918,0.056434266269207,-0.2479345882683993,0.12056448871269825,-10.213704632520676
33.7,2.0999999046325684,42.0,22.165054321289066,27.25868034362793,-79.78278303941852,40.4589897936952,294.98358917236334,-0.10026165843009947,0.07582730799913406,-0.5697655081748962,0.8121362328529358,0.17214012289373395,0.5297558563172791,0.5969980143827038,0.04333699122071266,-0.1176772490143776,0.09711255878210068,-0.26469195915386085,-0.03387047175318003,-10.113780394792556
33.9,2.200000047683716,46.0,22.05612564086914,28.7218074798584,-79.78278246047445,40.458990187745606,294.9357624053955,-0.10541953146457672,0.07774193584918976,-0.5742171406745911,0.8081569671630859,0.14027907499640407,0.7339457027823486,0.6197641698899761,-0.10925773531198504,-0.1349681317806244,0.09889189153909683,-0.140194011926651,-0.04902111914008856,-10.084472980499267
34.0,2.4000000953674316,43.0,21.90713119506836,31.0914363861084,-79.78278130021076,40.45899036036396,294.9773788452148,-0.1110278144478798,0.07887375354766846,-0.5779763460159302,0.8046086430549622,0.1312516392603538,0.9738718890091924,0.7008599004567053,-0.16499032080173492,-0.1775159388780594,0.06896422058343887,-0.1930553082190454,0.06628055571578444,-10.212842752933502
34.2,2.5,46.0,21.9309196472168,30.39963150024414,-79.78277847559545,40.458991275970135,294.9847335815429,-0.12091852724552155,0.07906517386436462,-0.5823121666908264,0.8000250458717346,0.094879117457144,1.4335135664938163,0.9096851090508982,-0.08646778017282486,-0.12620942294597626,0.14195607602596286,-0.30283113587647675,-0.09171472867950796,-10.458037555217745
34.31,2.799999952316284,49.0,22.253950119018555,25.127605438232425,-79.78277645910548,40.45899169974947,295.03413581848145,-0.12544120848178866,0.07834625989198685,-0.5824845433235168,0.7992736101150513,0.08888085788607722,1.6866949014420791,1.0329133126794798,-0.018173009157180783,-0.07913397997617723,-0.08044421672821045,-0.2709896662272513,0.042518695564940576,-10.4897598695755
34.5,3.0,51.0,22.133752822875977,27.823257446289066,-79.7827718429337,40.45899320622568,295.0609760284424,-0.13507305085659027,0.08006268739700317,-0.5792686939239502,0.7998707294464111,0.03453788796563227,2.1659259063748397,1.1139369760241822,-0.016904488205909732,-0.16462314128875732,0.058840390294790275,-0.5063068219274283,-0.14987732995301487,-9.702683712244037
34.6,3.4000000953674316,50.0,21.902122497558594,30.55866622924805,-79.78276900698606,40.4589939068288,295.0999450683594,-0.13856667280197146,0.08257603645324707,-0.5768912434577942,0.8007354140281677,0.022278879514488027,2.4194037049800268,1.1732254291539637,-0.05963147804141045,-0.1912047863006592,-0.0873953253030777,-0.4956774609535933,0.057417519818991423,-9.7076930218935
34.8,3.5999999046325684,48.0,22.0673942565918,28.1572322845459,-79.78276306575192,40.45899609494603,295.10644149780273,-0.14165015518665314,0.088497094810009,-0.5723104476928711,0.8028475642204285,-0.01846340962566205,2.8837511911057567,1.347453840626362,0.03254600241780281,-0.06941033154726027,0.1931586861610413,-0.6313531831651926,-0.09205246020108462,-10.121948955059052
34.9,4.099999904632568,49.0,22.083669662475586,27.32229423522949,-79.78276015093188,40.458997707772134,295.0768203735352,-0.1438683271408081,0.09139750897884368,-0.5702533721923828,0.8035916686058044,-0.08518479311077108,3.095540750194525,1.403341259713868,-0.007907035760581493,-0.059658780694007874,-0.04940808191895485,-0.6319786890596152,0.013984598382376135,-10.11559069275856
35.0,4.400000095367432,49.0,22.193851470947266,26.43964767456055,-79.78275626448408,40.458998833539574,295.10640525817865,-0.14827308058738708,0.09323469549417496,-0.5682379007339478,0.8040075898170471,-0.08388452334957784,3.3522865634286747,1.495195188660971,-0.07644650340080261,-0.13778585195541382,-0.08044196665287018,-0.7528740388154984,0.07636068498250098,-9.85334657907486
35.2,4.900000095367432,48.0,22.17381858825684,26.41579246520996,-79.78274360973552,40.45900360854172,295.11246871948237,-0.15169747173786166,0.09077576547861099,-0.566017746925354,0.8052153587341309,-0.1401915782656967,4.066681408123411,1.6802857369635855,0.0812695324420929,0.020033515989780426,0.15802009403705594,-0.956782528460026,-0.20168762577697635,-9.777732140421868
35.4,5.099999904632568,47.0,22.05988121032715,26.964466094970703,-79.7827391511392,40.45900590785171,295.08625221252436,-0.14966954290866852,0.0903489962220192,-0.5661498308181763,0.8055498600006104,-0.21830423252339,4.297303509092959,1.703346780960863,0.03313000500202179,0.048767004162073135,0.001940294867381453,-0.8337555762380362,-0.0151682803966105,-9.728529574871065
35.51,5.699999809265138,47.0,22.101198196411133,27.47337913513184,-79.78273399068969,40.45900756620257,295.09493446350103,-0.14734455943107605,0.0907217264175415,-0.5665079951286316,0.8056848049163818,-0.2367602704630504,4.54390262669841,1.7420915203494802,-0.019093390554189682,0.05496572330594063,-0.07043440639972688,-0.9416795358806848,0.12245634620077908,-9.708115190863607
35.7,6.0,47.0,22.151281356811523,26.43964767456055,-79.7827235033967,40.459011969643825,295.0796337127685,-0.1429523527622223,0.0951988846063614,-0.5664736032485962,0.8059836030006409,-0.31494902007809683,4.969049730106414,1.7980253004432278,0.13752737641334534,0.02755080722272396,0.0748666524887085,-1.2339042976498604,0.2224821336194873,-9.463833138942721
35.8,6.5,48.0,22.053621292114254,27.751691818237305,-79.78271764986398,40.45901389408483,295.07720184326166,-0.13981610536575315,0.09669339656829834,-0.566865086555481,0.8060806393623352,-0.3191641815393211,5.18919105699184,1.8184755500197127,0.07403656095266342,0.0836014375090599,-0.1702457219362259,-1.046972687020898,0.2500557571090758,-9.505342522859571
35.9,6.800000190734862,47.0,22.17381858825684,26.58278083801269,-79.78271188606638,40.45901685571413,295.0637512207031,-0.13803362846374512,0.093337282538414,-0.5670276284217834,0.8066688179969788,-0.4002898214280676,5.388933700170231,1.8565268567090447,-0.04035782814025879,0.07691432535648346,-0.07806533575057982,-0.9130063252151012,0.14265201693400742,-9.625298736691477
36.1,7.199999809265138,48.0,22.107460021972656,26.04205894470215,-79.78269910884697,40.45902114466049,295.0441684722901,-0.14254872500896454,0.086993008852005,-0.5661035776138306,0.8072415590286255,-0.3898607285302744,5.807568412070749,1.9033120965896209,-0.06684302538633348,0.05119789764285088,0.11681438237428665,-1.3717126455903057,0.1633105221949518,-9.852131527662275
36.3,7.5,48.0,22.054872512817386,27.425668716430664,-79.78268582841494,40.45902674773447,295.0234088897705,-0.14546288549900055,0.09097924828529358,-0.5644700527191162,0.8074261546134949,-0.4478947473235353,6.195506312989418,2.0206970146002,0.0004425969673320652,-0.139570951461792,0.2052396982908249,-1.337501610070467,-0.1696696798503399,-9.635797412395476
36.41,7.900000095367432,50.0,22.104955673217773,25.61266326904297,-79.78267869290455,40.45902918966225,295.00825881958013,-0.14920033514499664,0.09318862855434418,-0.5639528036117554,0.8068534135818481,-0.4600905504017967,6.373608009229589,2.126875441848748,-0.0015290770679712296,-0.13075438141822815,0.018187927082180973,-1.4558062778413297,0.12283004723489285,-9.682979764938356
36.6,8.100000381469728,50.0,21.756885528564453,34.876480102539055,-79.78266413537462,40.459035205897756,294.9821891784668,-0.15422207117080688,0.10041896253824234,-0.5639669895172119,0.8050297498703003,-0.5247253532215325,6.732860713685246,2.3412332664124067,0.1062847375869751,-0.032809458673000336,0.1357213854789734,-1.7458692508935931,0.04737132724374533,-9.491712078452109
36.71,8.5,49.0,21.924659729003906,30.61433029174805,-79.7826485329213,40.45904164925934,294.94055747985834,-0.15097667276859286,0.09667558968067168,-0.566046416759491,0.8046435713768005,-0.6246963579677114,7.109809626359277,2.5894577159031247,0.03003172017633915,0.17675665020942688,-0.14127734303474426,-1.5619399662315847,0.1481342932395637,-9.983351233005523
36.9,8.699999809265138,49.0,22.04610824584961,28.25265312194824,-79.78264103075738,40.459045664090866,294.9311180114746,-0.14827945828437805,0.09259003400802612,-0.5666130185127258,0.805226743221283,-0.7451137442960908,7.29076979040849,2.628048304317093,-0.034251682460308075,0.06607016921043396,-0.045640163123607635,-1.3813365778326991,0.07654441089369357,-10.11504573225975
37.0,9.100000381469727,48.0,21.870820999145508,31.560590744018555,-79.78263264571275,40.45904870412488,294.9199848175049,-0.14719447493553162,0.08965716511011124,-0.5671228766441345,0.8053987622261047,-0.7592549791916294,7.489586994613657,2.635400200660685,-0.07361821830272675,0.04381994903087616,-0.1089065819978714,-1.4265497343242168,-0.02431771108880639,-9.947952189445495
37.2,9.300000190734863,50.0,22.02482414245605,28.483253479003906,-79.7826157654813,40.459056022453616,294.8746681213379,-0.15015283226966858,0.08163823932409286,-0.5664597749710083,0.8061716556549072,-0.8722822737222541,7.817744314726102,2.7401541734203256,-0.05401776731014252,0.019517835229635242,0.16449031233787534,-1.905343433171511,0.1707721175439656,-10.14850350022316
37.3,9.699999809265137,49.0,22.022319793701172,26.76567077636719,-79.78260684516293,40.459059344763496,294.8686408996582,-0.15183061361312866,0.08293777704238893,-0.5660600662231445,0.8060054779052734,-0.8697260403590367,7.975675852014276,2.8134688123972422,0.023445386439561844,-0.1395476460456848,0.2349396795034409,-1.723804197907448,-0.10907496577128767,-10.082772610187533
37.5,9.800000190734863,50.0,21.991018295288086,29.039878845214844,-79.78258858556745,40.45906710262412,294.796968460083,-0.1574181765317917,0.0934297889471054,-0.5635038018226624,0.8055768013000488,-0.9324852561084276,8.273269755166325,3.012900644213784,0.0405917651951313,-0.0709906592965126,-0.11761535704135895,-1.7121866574883462,0.2542868023552001,-9.792354857325556
37.61,10.199999809265137,49.0,21.96722984313965,28.79337310791016,-79.78256962111111,40.459075258904456,294.7236995697021,-0.15695218741893768,0.09777460247278214,-0.56263267993927,0.8057609796524048,-1.031769887617778,8.558948318300661,3.2503954632796,-0.15486258268356326,0.039765868335962296,-0.1371048241853714,-1.731497818082571,0.4357670355588198,-9.95953084588051
37.8,10.300000190734863,48.0,22.04986572265625,28.10951995849609,-79.78255981971104,40.45907900985196,294.7131977081299,-0.15996915102005005,0.09486864507198334,-0.5614628195762634,0.8063308596611023,-1.017476158032968,8.73282726884779,3.302491914954369,-0.04314612224698067,-0.1842883080244065,-0.07512065023183823,-1.865985532253981,0.2454414634220302,-9.694560760259627
37.91,10.600000381469727,47.0,22.052370071411133,26.495309829711914,-79.78254987128977,40.45908368421321,294.6529731750488,-0.16278955340385434,0.0968586876988411,-0.5608119964599609,0.8059825897216797,-1.048873116618889,8.892614698136613,3.360103357468041,0.039667785167694085,-0.06905489414930344,-0.18351344764232635,-1.8235790392756464,0.2952439350262284,-9.698738011121753
38.1,10.699999809265137,47.0,21.61415100097656,35.282020568847656,-79.78252937039639,40.45909160603303,294.6190776824951,-0.16622233390808105,0.10225412249565123,-0.5618323683738708,0.8039022088050842,-1.0864258848949822,9.199488455957018,3.5660742547509265,0.0005329487612470983,0.031134240329265594,0.11869733035564425,-2.009388057589531,0.1037539538461715,-9.411873026490213
38.2,11.0,47.0,21.6817626953125,32.80106735229492,-79.7825186089059,40.45909639413769,294.5649337768555,-0.15806078910827634,0.09760618954896927,-0.5632205009460449,0.8051537871360779,-1.161661945554349,9.320195651205825,3.6878143155950642,0.07920144498348236,0.28696438670158386,0.0915823131799698,-2.072555966824293,0.05392178021371365,-9.916257941722867
38.4,11.100000381469727,48.0,21.89711570739746,30.45529365539551,-79.78249703155092,40.45910542371046,294.50350761413574,-0.1279139220714569,0.08108694106340407,-0.5660121440887451,0.8103660941123962,-1.2307725660506046,9.744669746678033,3.3595958758491675,0.059770267456769936,0.3410083055496216,-0.1453545093536377,-1.6377114026248456,0.0760897990129888,-10.274457203149797
38.5,11.399999618530273,49.0,21.910886764526367,27.60060691833496,-79.78248608577795,40.45910968965523,294.4977149963379,-0.11559096723794934,0.07711809128522873,-0.5673542022705078,0.811665415763855,-1.2280832521396379,9.920148070095477,3.0965535589015563,0.08373665809631348,0.3560055494308472,0.1601267009973526,-1.8739267820119856,0.05960729751270265,-10.297977043390272
38.7,11.5,49.0,22.071149826049805,26.06591415405273,-79.78246368152412,40.4591189416649,294.43193435668945,-0.09352334588766098,0.06395307183265686,-0.5691770911216736,0.8143714070320129,-1.2946883713212722,10.157507660208664,2.584845944692296,-0.10147177428007126,0.13798493146896362,-0.09106917679309844,-1.8152511423826216,0.1856793197616935,-9.787936701178554
38.8,11.600000381469727,55.0,22.22890853881836,23.52134704589844,-79.78245258971934,40.45912327153237,294.4308567047118,-0.08812083303928375,0.05904685705900192,-0.5691834092140198,0.8153394460678101,-1.275210411467665,10.217039930097982,2.3611174127191665,-0.02220733277499676,0.08876307308673859,0.09126016497612,-2.1066145361959934,-0.06513268789742142,-9.775049437880517
39.0,11.699999809265135,58.0,22.256452560424805,23.529298782348643,-79.7824297278288,40.45913256521247,294.3664093017578,-0.08214415609836577,0.04706928133964538,-0.5689277052879333,0.8169199228286743,-1.2748760642466583,10.306383084267841,2.0246135974631,-6.728838343406096e-05,-0.03638680651783943,0.09950252622365953,-1.9566933886706832,0.1919791099056601,-9.54656890153885
39.11,11.899999618530273,58.0,22.18258285522461,25.35820770263672,-79.78240680117516,40.45914189516096,294.3159503936768,-0.08170469850301743,0.04940461739897728,-0.5688129067420961,0.8169060945510864,-1.293681076442219,10.345375464995822,1.8377302742549844,0.054017510265111916,-0.0206132922321558,0.12115269899368285,-2.1298762218654157,-0.09395916413515806,-9.313491284251214
39.3,11.899999618530273,58.0,22.165054321289066,24.9924259185791,-79.7823957238971,40.45914627876538,294.3014678955078,-0.08099418878555298,0.05362153425812721,-0.5690217018127441,0.8165653944015503,-1.289190233034248,10.317243581373248,1.8470311723074118,0.19054917991161344,0.004266040865331888,-0.3005701005458832,-2.0993809457123285,0.3597869997471571,-9.370077129006386
39.41,12.0,60.0,22.23141288757324,24.66640281677246,-79.78238389455758,40.45915099489152,294.27442932128906,-0.08052513003349304,0.05532128736376762,-0.5697012543678284,0.8160243630409241,-1.3097172086724145,10.346048284066704,1.8735650164029864,-0.01898925378918648,0.039647001773118966,0.0179328192025423,-1.8672863915562632,-0.04632988331839442,-9.35304711341858
39.6,12.0,59.0,22.260210037231445,23.306650161743164,-79.78236179212679,40.45915975490341,294.23497200012207,-0.07844026386737822,0.04660506546497345,-0.5711413025856018,0.8157650828361511,-1.3505663009790625,10.278996963515212,1.8119412368625705,-0.04900319501757622,0.08507754653692245,0.008850959129631521,-2.2999005353450777,-0.06190385998226702,-9.529318445920943
39.7,12.199999809265135,59.0,22.087427139282227,26.16133689880371,-79.78233920347805,40.45916891291417,294.1809711456299,-0.07252450287342073,0.03069280833005905,-0.5712546110153198,0.8169862031936646,-1.3786076479430485,10.257518542923458,1.5935571464802276,-0.10569602251052856,0.12821190059185028,0.02010003849864006,-2.253839824944735,-0.061033730339258914,-9.51206915974617
39.9,12.199999809265135,59.0,22.41421127319336,19.736303329467773,-79.78232768405694,40.45917346751161,294.12827301025385,-0.06547797471284866,0.022354558110237118,-0.5707290172576904,0.8182183504104614,-1.3449317961599612,10.230972749430883,1.4968277253191538,-0.03678730875253677,0.3029077649116516,0.01551292184740305,-1.8058016033470632,0.09198720892891288,-9.896994874477386
40.0,12.100000381469727,64.0,22.36162567138672,21.54135513305664,-79.78231685535225,40.45917782143489,294.1138343811035,-0.05679941549897194,0.012847972102463244,-0.5709323883056641,0.8189291954040527,-1.3571354286009023,10.159407563207683,1.260772658408332,0.04939805343747139,0.282011479139328,-0.1386687010526657,-2.27300831347704,0.16532921858131885,-9.474370990991591
40.2,12.100000381469727,68.0,22.344097137451172,22.2331600189209,-79.78229499214014,40.459186627720534,294.0503807067871,-0.02655436098575592,-0.0014925053110346198,-0.5714027881622314,0.8202387690544128,-1.3863205237009573,10.024823261867807,0.6510600600755245,0.2191666960716248,0.121076300740242,0.22614048421382904,-1.6141192030906677,-0.10052975345402956,-9.749055055975914
40.31,12.0,69.0,22.118728637695312,26.479406356811523,-79.78228454283926,40.45919091870877,294.0358409881592,-0.0096476711332798,-0.0002516770618967712,-0.5719087719917297,0.8202605247497559,-1.409227837069442,9.884378210887485,0.31688144427587994,0.2453660368919373,0.15061411261558533,0.015335238538682459,-1.8373197036981583,-0.04789909327402711,-9.747554660439492
40.5,12.0,69.0,22.39417839050293,20.94497299194336,-79.78226363416327,40.45919957792839,293.98789215087885,0.014841562137007713,-0.0037301522679626937,-0.5727260112762451,0.8196040987968445,-1.411922262379408,9.560064893305716,-0.13505583284525835,-0.06020468100905418,0.11400707066059113,-0.10377621650695801,-1.4004590195417406,-0.026984297242015603,-10.358880472183227
40.61,11.800000190734865,78.0,22.277738571166992,23.974597930908203,-79.782243575323,40.45920803573526,293.923282623291,0.005940640810877085,0.004453730769455433,-0.5706246495246887,0.8211774826049805,-1.330584399383696,9.236326882312868,-0.2317790529747583,0.0819849967956543,-0.3105946183204651,0.1083039715886116,-1.7935240584611891,0.2147908888757229,-9.927436648607257
40.8,11.800000190734865,83.0,22.429235458374023,20.96087646484375,-79.78223397221495,40.45921201051957,293.9223709106445,-0.0060901097021996975,0.01365965511649847,-0.5697841644287109,0.8216583132743835,-1.2835402820018986,9.096197060261547,-0.08766317208573947,0.09247610718011856,-0.4437641501426697,0.18504878878593445,-1.6293725422024727,-0.03584703164175153,-9.653075349926947
40.9,11.600000381469727,83.0,22.37289428710937,21.620872497558594,-79.78222405109311,40.45921626449224,293.8605785369873,-0.022056231275200844,0.0230594165623188,-0.5685630440711975,0.8220206499099731,-1.2194977723554794,9.025723198966002,0.12238489677762313,-0.06382947415113449,-0.4489060938358307,0.13731913268566132,-1.4669944864511493,-0.15619224976748228,-9.464914289116859
41.1,11.5,83.0,22.425479888916016,20.54738426208496,-79.78220537022267,40.459223924308866,293.8285923004151,-0.04656314104795456,0.031218772754073143,-0.5645976066589355,0.8234602808952332,-1.1370184981482976,8.812725761719634,0.5752067864943414,-0.10014000535011293,-0.1217559203505516,0.19513465464115146,-1.546614560186863,-0.2106052326411009,-8.873616360425949
41.2,11.300000190734865,73.0,22.3741455078125,22.0025577545166,-79.78219572420906,40.45922791257679,293.7335014343262,-0.048685889691114426,0.03171669691801071,-0.5630968809127808,0.8243456482887268,-1.0526132169562896,8.748632896934463,0.6304724321313537,-0.010295369662344456,0.06680702418088913,0.09850464016199112,-1.8732435348629952,0.1084921993687749,-8.637770086526869
41.4,11.199999809265137,67.0,22.299022674560547,21.98665428161621,-79.78217746299453,40.45923534506118,293.64665031433105,-0.05244562402367592,0.022542024031281468,-0.5632184147834778,0.8243339657783508,-1.0285481069909093,8.665582694552112,0.5018309774726263,-0.14402911067008972,0.07317718863487244,-0.09704761952161788,-1.704975724965334,0.1526650448329747,-8.965892440080642
41.5,11.0,67.0,22.24768829345703,24.02230834960937,-79.78216825237782,40.45923926144506,293.5457553863525,-0.056570582091808326,0.018243731930851936,-0.5636703372001648,0.8238584995269775,-1.0436349251114698,8.628583479445133,0.4679454200633006,-0.1840709149837494,0.02759035490453244,-0.08913451433181763,-1.524244721084833,0.04734917177818716,-9.245087631940844
41.7,11.0,67.0,22.319055557250977,23.00448226928711,-79.78215017308459,40.45924678644259,293.39333152771,-0.06768524646759032,0.021276133134961128,-0.5642176270484924,0.8225719928741455,-1.0956922474180022,8.546105335900798,0.5494660137158224,0.003586099715903401,-0.08537052571773529,0.034514840692281716,-1.2898982580006124,-0.04148751167580485,-9.48779912173748
41.81,10.699999809265137,68.0,22.08617401123047,26.12157821655273,-79.78214127436517,40.459250497411574,293.33537864685064,-0.07285881787538527,0.023932553827762604,-0.5642817616462708,0.8220127820968628,-1.143953023249962,8.510478836376528,0.6116404792502689,0.007692792452871799,-0.07493185997009277,0.2808218896389008,-1.5457943420112137,0.019164537093602118,-9.4569503813982
42.0,10.600000381469727,67.0,22.272729873657227,23.1953239440918,-79.78212350359615,40.45925792472581,293.1813869476318,-0.07428453862667084,0.03261520341038704,-0.5647313594818115,0.8212774991989136,-1.1825756983939322,8.466148331257905,0.7964515299725696,0.05707603320479392,-0.10416851937770844,0.05738614127039909,-1.5902407823503018,0.037710680882446466,-9.865263204574584
42.1,10.399999618530273,67.0,22.127492904663086,26.511213302612305,-79.7821146614545,40.459261676678146,293.1252059936524,-0.0772065818309784,0.03848349303007127,-0.564954400062561,0.8206001520156859,-1.2153234378353508,8.484161914616983,0.8325111099744362,0.017002606764435768,-0.08991611003875732,-0.1696823686361313,-1.1696162080764771,0.012417096910066905,-9.778547827005386
42.3,10.300000190734863,67.0,22.129995346069336,25.04808807373047,-79.78209679983725,40.4592689628523,292.9894371032715,-0.09091339260339737,0.04764734208583832,-0.5645235180854797,0.8190102577209473,-1.2397698029746556,8.50381838099282,1.106806135644632,-0.05837377905845643,-0.2049463987350464,-0.1531493365764618,-1.4767021800577642,0.2346402856707573,-9.779414969086648
42.4,10.199999809265137,64.0,22.02983283996582,28.03000259399414,-79.78208786648756,40.45927277105799,292.9380893707276,-0.098395936191082,0.05147022008895874,-0.5639486908912659,0.8183097839355469,-1.2548863594352873,8.541398102596931,1.2825313708155122,-0.04997227340936662,-0.11214511096477507,-0.1366322636604309,-1.618661174029112,0.07359785274602472,-9.979487392902373
42.6,10.100000381469727,59.0,21.86330986022949,29.81915283203125,-79.7820699137972,40.459279968291725,292.81351852416987,-0.11083398014307022,0.06248591095209121,-0.5622851848602295,0.8170966506004333,-1.2412135056076128,8.618306252116527,1.6636465955692523,-0.1334451138973236,-0.2498863190412521,0.0022890716791152954,-1.6173022811114788,0.2287828739359975,-10.129480168819427
42.71,10.0,59.0,21.884593963623047,29.707826614379893,-79.7820609310207,40.45928359210667,292.7270622253418,-0.11929456144571304,0.06727614998817444,-0.5609150528907776,0.8164662718772888,-1.212079258874352,8.655994525580319,1.8923971154552344,-0.057647481560707085,0.00025171166635118425,-0.11925487220287324,-1.358117284476757,0.09984394814819098,-10.396382174491883
42.9,9.899999618530273,59.0,21.70805549621582,32.872634887695305,-79.7820425247188,40.45929125379555,292.60100364685064,-0.13238510489463806,0.07887151837348938,-0.5585641860961914,0.815021276473999,-1.1753794472273322,8.803786718664911,2.375505401741276,0.0725501999258995,-0.10373405367136004,-0.08195912837982178,-1.6370759564638138,0.059585685655474674,-10.37311493396759
43.0,9.899999618530273,56.0,21.665485382080078,33.02371597290039,-79.7820231829949,40.45929932068029,292.55515098571783,-0.13582947850227356,0.08424177020788193,-0.5567371845245361,0.8151671886444092,-1.1824874127445382,9.016422029145252,2.7905012545860934,0.09870573878288268,-0.03677121177315712,-0.03108761273324489,-1.7439425933361057,0.07486460633575917,-10.290580315589905
43.2,9.899999618530273,54.0,21.716819763183594,31.62420463562012,-79.78201380934611,40.45930324955156,292.46221160888666,-0.13112886250019073,0.08157659322023393,-0.5571355223655701,0.8159354329109192,-1.160388148227309,9.081925067702553,2.9086178783719667,0.06003489717841149,0.21405914425849915,-0.0404396653175354,-1.9689298568665985,0.1881989763490856,-10.60161125779152
43.3,9.899999618530273,54.0,21.76439666748047,30.98806381225586,-79.7820037842885,40.45930739474486,292.4565315246582,-0.11896485835313796,0.07303688675165176,-0.5580908060073853,0.81795334815979,-1.1798486206727794,9.201023762336273,2.9565921579881933,-0.02057764120399952,0.2867856323719025,-0.1934855878353119,-1.873005114644766,0.2471652956865728,-10.800374490022659
43.5,10.0,54.0,22.052370071411133,26.43169593811035,-79.78198388429773,40.45931584690064,292.38948631286615,-0.09013497829437256,0.05711958557367325,-0.5598509311676025,0.8216934800148009,-1.1784502121482645,9.485863068837759,2.4965714863095574,0.109467975795269,0.2569760680198669,0.04401499405503273,-1.7721020530164242,0.0021663751266896725,-10.345317270755768
43.6,10.100000381469727,58.0,22.05612564086914,26.034107208251953,-79.78197362096589,40.4593200956688,292.40234375,-0.08168137073516846,0.059000693261623376,-0.5598564743995667,0.8224402666091919,-1.1933936169837347,9.600890014564824,2.2263180003278817,0.17316636443138125,0.0037387222982943054,-0.009989280253648758,-1.4238692244887352,-0.1342982917930931,-10.028581784963608
43.7,10.199999809265137,60.0,22.01981544494629,25.57290458679199,-79.78196371859836,40.45932448164361,292.3309230804444,-0.0788385421037674,0.06186392530798913,-0.5602814555168152,0.8222178220748901,-1.232400533621334,9.624990034730931,2.04834555334852,-0.028153786435723305,0.13312198221683502,0.07133526355028152,-1.5568758389353754,0.029667712412774563,-9.844941791296003
43.91,10.399999618530273,61.0,22.14752578735352,24.28471755981445,-79.78194339413945,40.45933316705754,292.2609958648682,-0.07715144753456116,0.06480959802865982,-0.5622871518135071,0.8207805156707764,-1.2561262911079356,9.647162194044377,1.9758864730703016,0.09182866662740707,-0.049793127924203866,0.09375160187482834,-1.6560754604637624,-0.10383024173788727,-9.723101019859314
44.1,10.399999618530273,61.0,21.88709831237793,28.825180053710927,-79.78192278202447,40.45934170609253,292.2653427124024,-0.07774117588996887,0.06397734582424164,-0.5631842017173767,0.8201748728752136,-1.2978103619404322,9.675197584847162,1.95098600555032,-0.03858841583132744,-0.003836286254227162,0.014150099828839304,-2.089432346820832,-0.1137439126521349,-9.453788207173348
44.2,10.600000381469727,60.0,22.09243392944336,25.87507247924805,-79.78191274041627,40.45934608475011,292.23579788208013,-0.07841954380273819,0.06157947331666945,-0.5638255476951599,0.8198531866073608,-1.3014826238523065,9.672400192644687,1.9490209539776748,-0.07400165498256682,-0.0178268663585186,-0.04730264097452164,-1.8682349561154843,-0.09227343927137556,-9.734348723888395
44.4,10.699999809265137,63.0,22.349105834960934,21.223283767700195,-79.7818916605678,40.45935481502932,292.2366981506348,-0.07355057448148727,0.061124593019485474,-0.5650205612182617,0.8195156455039978,-1.3110342080406356,9.713310902718316,1.9466406437777048,0.04716305062174797,0.1448354572057724,-0.10053421556949617,-1.6685044482350349,0.07346906325314194,-9.727523269057274
44.5,10.800000190734863,63.0,22.079914093017575,25.73194122314453,-79.78188128794824,40.4593590818329,292.23733139038086,-0.0700308084487915,0.06286025792360306,-0.5648680925369263,0.819797694683075,-1.3053358397853605,9.735025705445327,1.8465900002781617,0.07330330461263658,0.07814005762338637,-0.20891517400741572,-1.75457970187068,-0.029259633861947805,-9.274715473651888
44.7,10.899999618530273,64.0,22.22640419006348,23.441829681396484,-79.78186036128247,40.45936761928764,292.23629188537603,-0.06790439784526825,0.06274532526731491,-0.5640050172805786,0.8205793499946594,-1.2763258510694062,9.752876710408213,1.779284625361962,-0.10776267200708388,0.12406960129737855,-0.27387598156929016,-1.6417196689546107,-0.3527751649171114,-9.50772935628891
44.8,11.0,64.0,22.243932723999023,23.55315399169922,-79.78184996554606,40.45937185002038,292.23586654663086,-0.07069839537143707,0.05995575338602066,-0.563395619392395,0.8209704756736755,-1.2451210562889503,9.755383722888897,1.7661886504911584,-0.11919321864843367,-0.012060663662850857,-0.11473208665847776,-1.6432645033299924,0.1682228776998818,-9.69471571147442
45.0,11.0,65.0,22.382909774780273,20.762081146240234,-79.7818288921739,40.45938029733236,292.24450874328613,-0.0696164220571518,0.062078624963760376,-0.5617244839668274,0.8220494985580444,-1.1689224112314085,9.760184091138584,1.7571660884799063,-0.0528823547065258,-0.05506868287920952,0.021257415413856503,-1.7984412744641305,-0.3266129679232836,-9.347840752601623
45.11,11.100000381469727,65.0,22.31154441833496,21.946895599365234,-79.78181848033668,40.45938448502055,292.237886428833,-0.07177361845970154,0.0595664344727993,-0.5605380535125732,0.8228593468666077,-1.1359124869525763,9.753599876888916,1.6984260990925462,-0.06518211960792543,0.09678757190704346,0.20172439515590668,-1.8136839424073696,-0.3762137654051185,-9.179209976792336
45.3,11.100000381469727,65.0,22.19635581970215,23.75990104675293,-79.7817974296316,40.45939292786661,292.23674392700195,-0.06963152438402176,0.058714609593153,-0.5597332715988159,0.8236520886421204,-1.043497407765596,9.785804881445003,1.5929909789260406,0.09626199305057526,0.11659765243530272,0.2059593349695205,-1.6104386731982232,-0.17958155091851952,-9.151687717437744
45.42,11.0,64.0,21.91965103149414,29.69987487792969,-79.78178680020838,40.45939711071101,292.2270050048828,-0.07051447033882141,0.057901393622159965,-0.5595753788948059,0.8237418532371521,-1.0390269998003892,9.78863640571271,1.5496337589716789,0.02462315745651722,0.01481611654162407,0.12947700917720795,-1.9528386117517949,-0.4024076835438609,-8.967823190689089
45.6,11.0,65.0,22.22890853881836,23.282794952392567,-79.78176599677238,40.45940539529192,292.1855792999268,-0.0656353086233139,0.044990990310907364,-0.5597080588340759,0.8248604536056519,-1.0250717531672937,9.765523919300724,1.5427777923318984,-0.11307504773139955,0.10927141457796097,-0.1586555242538452,-2.0151583823561667,-0.08782292244024575,-9.497145895957948
45.7,11.0,65.0,22.113719940185547,24.849292755126953,-79.78175541394259,40.459409512418674,292.1848793029785,-0.066941037774086,0.04019040986895561,-0.559325098991394,0.8252630829811096,-1.0077128202623715,9.782776484762168,1.4329471625669297,-0.13646918535232544,0.02106679603457451,-0.1851778030395508,-1.6493653419613838,-0.092890146933496,-9.671198794841764
45.9,11.0,65.0,22.212631225585934,23.82351493835449,-79.78173434191966,40.45941766367485,292.177677154541,-0.07650705426931381,0.044193606823682785,-0.5585064888000488,0.8247812986373901,-0.9638133586254942,9.777340743103984,1.4618810753501454,0.01141006126999855,-0.2117544263601303,-0.049142401665449136,-1.4578244443237782,-0.1002219249587506,-9.330618363618852
46.0,10.899999618530273,69.0,22.02983283996582,26.209047317504893,-79.78171359245293,40.45942592784996,292.1404571533203,-0.08474560081958771,0.05656939372420311,-0.5589044094085693,0.8229483366012573,-1.0176687826627442,9.715323469167402,1.7350075478778646,0.0571238212287426,0.026145519688725468,-0.07114793360233307,-1.7675843480229378,0.10665644774213434,-9.183180236220359
46.2,10.899999618530273,66.0,22.18132972717285,23.974597930908203,-79.78170284231847,40.4594300303766,292.14043235778814,-0.0798264592885971,0.05612899735569954,-0.5591484904289246,0.8233045339584351,-1.0269374344849882,9.726606731327935,1.8125776425208435,-0.04031764715909958,-0.07162199169397354,-0.11036062985658646,-1.9804229977726937,0.007505138833075763,-9.172875688076019
46.3,10.899999618530273,66.0,22.007295608520508,27.7039794921875,-79.78169243039129,40.459434180551106,292.11878776550293,-0.08168721944093704,0.05430324748158455,-0.559508204460144,0.8230000138282776,-1.0360011877493172,9.771575765585057,1.6972452276171208,-0.13573753833770752,-0.11510168761014936,-0.04798911139369011,-1.7283552320301534,-0.2197810123488307,-9.349905989170075
46.5,10.899999618530273,66.0,22.18508720397949,23.8076114654541,-79.78167145713208,40.45944251391357,292.0971584320068,-0.08069508522748947,0.04628064855933189,-0.5594077110290527,0.8236561417579651,-1.0558710463720873,9.75058925219443,1.8187751905390357,-0.12032917886972427,0.13808748126029968,-0.12491145730018614,-1.6829915097355843,0.11446647319011392,-10.051550817489623
