time,wind_speed,wind_angle,battery_voltage,battery_current,position_x,position_y,position_z,orientation_x,orientation_y,orientation_z,orientation_w,velocity_x,velocity_y,velocity_z,angular_x,angular_y,angular_z,linear_acceleration_x,linear_acceleration_y,linear_acceleration_z
0.0,2.299999952316284,43.0,23.5886344909668,-0.015903547406196594,-79.7828020150427,40.45898285139017,267.71271772146224,0.0006828961195424199,-0.0038275127299129963,0.9583006501197816,0.28573551774024963,0.0019442845301645363,-0.019782444638448936,-0.009345624163335077,0.0032797963358461857,0.002608790760859847,0.0003986505907960236,-0.10413140075281263,0.02962523330468685,-9.805298838615418
0.1,2.200000047683716,49.0,23.58487892150879,-0.015903547406196594,-79.78280193819441,40.45898283831958,267.70452008604997,0.0006978380843065679,-0.003810155438259244,0.958331286907196,0.2856329381465912,-0.000418062187721753,-0.02250538964173604,-0.01014455486643525,-0.003173219272866845,-1.0750609362730756e-05,-0.00820061843842268,-0.10088806900195778,0.03887557414826006,-9.804472627043724
0.3,2.200000047683716,47.0,23.587383270263672,-0.007951773703098297,-79.782801911389,40.458982821135066,267.696541736126,0.0006946541834622622,-0.0038027532864362,0.9583612084388732,0.28553271293640137,0.005387895031051879,-0.01847919367278693,-0.01060020319522212,-0.0062410421669483185,-0.0025546122342348107,-0.005052936729043722,-0.09860590073280036,0.01577896382776089,-9.808913002610206
0.4,2.200000047683716,46.0,23.5886344909668,-0.007951773703098297,-79.78280190483294,40.45898283869532,267.69549007177346,0.0006666707340627909,-0.003796831239014864,0.9583715200424194,0.2854982912540436,0.005531440250998681,-0.021960653308983905,-0.010736537464586544,0.005563243757933378,0.005573424976319075,0.0018012385116890075,-0.10482780413702132,0.022445220218505712,-9.80728513777256
0.6,2.299999952316284,50.0,23.589887619018555,-0.007951773703098297,-79.78280182328874,40.45898283317237,267.6877534782886,0.0006896176491864028,-0.0038038070779293776,0.9583979249000548,0.2854093611240387,0.0020692658830067253,-0.02502919276760773,-0.011018483841037223,-0.001106713549233973,0.0017281065229326489,-0.009132555685937405,-0.10259170096367598,0.016704807614441958,-9.80657294690609
0.7,2.200000047683716,44.0,23.59239196777344,0.007951773703098297,-79.78280177130203,40.458982804899826,267.67956156492227,0.0006892867386341095,-0.003830458736047149,0.9584091901779176,0.2853711247444153,0.0048644356766133256,-0.020462506469693262,-0.014621927812233353,0.004736392758786678,0.0020784714724868536,0.002816853346303105,-0.10002829989418388,0.01756916998419911,-9.806721466183664
0.9,2.200000047683716,44.0,23.57486343383789,-0.02385532110929489,-79.78280174916748,40.45898284332576,267.6766726768017,0.0006871222285553813,-0.0038197964895516643,0.9584280848503112,0.2853080034255981,0.003072861956494453,-0.02665658054481189,-0.014736575698730887,0.010219622403383257,2.251560363220051e-05,-0.0008313037687912582,-0.10297672184184194,0.03283487275941298,-9.804667339324954
1.0,2.0999999046325684,40.0,23.58613204956055,-0.007951773703098297,-79.78280170023767,40.45898282523047,267.6679163074493,0.000702735036611557,-0.0038233660161495213,0.9584441781044006,0.28525397181510925,0.00650960901018756,-0.02478007235752724,-0.01738767385694508,-0.0013182511320337653,0.0006693455507047472,0.003905379213392735,-0.1029306293372065,0.017618282027542592,-9.806502195596694
1.21,2.0,40.0,23.59113883972168,0.0,-79.782801689326,40.458982848143116,267.6661996638775,0.0006861750734969974,-0.003795249620452523,0.9584563970565796,0.2852132618427277,0.005136341121128961,-0.027955958377152583,-0.017226709095999774,-0.0016869052778929472,0.0004930932191200552,-0.007025800179690123,-0.1054649131000042,0.04001507313922048,-9.805892915725707
1.3,2.200000047683716,40.0,23.587383270263672,-0.02385532110929489,-79.78280160447808,40.45898285454422,267.65520525932305,0.0006723799160681665,-0.003797002369537949,0.9584815502166748,0.2851284742355347,0.004225176316794875,-0.029907578900531983,-0.019145919121346555,-0.002422331599518657,-0.0011129678459838033,-0.0062976651825010785,-0.10213039219379426,0.028470974662341175,-9.805723346471789
1.5,2.299999952316284,42.0,23.587383270263672,-0.02385532110929489,-79.7828015810483,40.45898282059992,267.64440281152724,0.0006561457994394004,-0.003841268597170711,0.9585050344467164,0.2850491404533386,0.006752176014510781,-0.01749802474815064,-0.019918777842422627,-0.0033717839978635307,-0.0034957483876496553,0.006401943508535624,-0.10170074061490596,0.030326565708965064,-9.806535524725914
1.6,2.299999952316284,46.0,23.58613204956055,-0.015903547406196594,-79.78280157517145,40.458982838557226,267.642418692112,0.0006418617558665575,-0.003812499344348908,0.9585205912590028,0.2849973440170288,0.005935506934899446,-0.020846537076944588,-0.0200077289463456,-0.0020261225290596485,0.002100597368553281,-0.008692396804690361,-0.10211030152626337,0.03909822058863938,-9.804101328849793
1.8,2.4000000953674316,49.0,23.58487892150879,0.007951773703098297,-79.78280148791512,40.45898283410944,267.6329760050773,0.0006543050985783339,-0.003801646176725626,0.9585453271865844,0.28491419553756714,0.0023466463105169693,-0.022674019680365014,-0.01715182415734547,-0.00885006133466959,0.001245182123966515,-0.009673195891082287,-0.10235437709838152,0.016796238881070166,-9.806664748191832
1.9,2.700000047683716,48.0,23.598651885986328,0.039758868515491486,-79.78280147652247,40.45898285325853,267.63126640975474,0.0006509418017230928,-0.0038225254975259295,0.9585503935813904,0.2848966717720032,0.003038203322201589,-0.0259787782534743,-0.017394217470243344,0.0051959496922791,0.00415854062885046,0.006308398675173521,-0.10426392241381108,0.021452940870076414,-9.805970683693888
2.1,2.799999952316284,53.0,23.589887619018555,0.007951773703098297,-79.78280144301179,40.458982845429894,267.61917565226554,0.000642959144897759,-0.003828707616776228,0.9585761427879332,0.2848098874092102,0.00686089672697374,-0.021349727752026468,-0.01915662311630218,-0.0013054159935563805,-0.00014800867938902232,-0.00715719861909747,-0.1038222474977374,0.020070179435424503,-9.806608030200003
2.2,2.9000000953674316,50.0,23.587383270263672,0.0,-79.78280135699819,40.45898281820391,267.6089506840706,0.0006416657124646008,-0.003839508397504687,0.9585914611816406,0.28475844860076904,0.004840793162239415,-0.019735608118182903,-0.020521256564384992,0.00980023667216301,0.003004536498337984,0.0034784500021487474,-0.09773987327702344,0.01843779899412766,-9.806602182984353
2.41,2.9000000953674316,48.0,23.58613204956055,-0.015903547406196594,-79.78280134682264,40.45898283632146,267.6069111472368,0.000621800369117409,-0.003831505309790373,0.9585976004600524,0.2847377359867096,0.002829696620452118,-0.022922574762205824,-0.02056580749291952,-0.007501158397644758,-0.0024603710044175386,-0.0043476689606904975,-0.1022863209899515,0.028919195719063283,-9.805400580167769
2.6,2.9000000953674316,50.0,23.59113883972168,-0.007951773703098297,-79.78280126784287,40.45898284311145,267.59498235046857,0.0006245759432204068,-0.003861424513161183,0.9586211442947388,0.284658282995224,0.003859983417234664,-0.0235730115364544,-0.021121495120317097,-0.0007048618281260133,0.0003390757774468512,0.005286232568323611,-0.1019856370612979,0.013287330478196965,-9.807230173945428
2.71,3.0,55.0,23.587383270263672,-0.015903547406196594,-79.78280121444683,40.45898283080725,267.5844291841984,0.0006078592268750073,-0.003880191361531615,0.9586411118507384,0.28459084033966064,0.007063960064859416,-0.014636022738308262,-0.01752298051576661,0.008830861188471317,0.002149289008229971,0.004594842437654735,-0.10659124215133488,0.040178580475039784,-9.80408203303814
2.8,3.299999952316284,60.0,23.582374572753906,-0.02385532110929489,-79.78280121011805,40.458982846236246,267.58270017266267,0.0006005881587043407,-0.003859963500872255,0.9586551785469056,0.2845434248447418,0.005163881816551338,-0.017613616729565795,-0.017364405196108292,-0.005139119923114778,-9.39505043788813e-05,-0.0066772326827049255,-0.10239321540109814,0.0284998087445274,-9.805550268888474
3.01,3.0,58.0,23.583627700805664,-0.015903547406196594,-79.7828011626607,40.4589828283585,267.57646239757537,0.0005825927364639938,-0.0038817913737148046,0.9586763978004456,0.2844720184803009,0.008759721201222809,-0.009460129860123722,-0.005078038895970566,-0.0041745700873434535,-0.0019026766531169415,0.001812786911614239,-0.10260273758322,0.02766404976602644,-9.806695153713227
3.1,2.700000047683716,52.0,23.58487892150879,-0.007951773703098297,-79.78280116396232,40.458982840948,267.5759551024437,0.0005729978438466787,-0.0038949227891862392,0.9586891531944276,0.28442874550819397,0.007569085510163088,-0.012657287046099345,-0.0052145052157774145,-0.002853868529200554,-0.0006219840724952519,-0.010407861322164536,-0.10437412415631116,0.03917960652150214,-9.802506793141363
3.3,2.5,49.0,23.583627700805664,0.05566241592168808,-79.78280114641123,40.458982798054826,267.58000403106206,0.0005363015225157142,-0.003942964132875204,0.9587156772613524,0.28433874249458313,0.010347684775717606,0.0009054642454920367,0.022092689335431542,-0.007967502810060978,-0.00407287897542119,-0.0016296802787110214,-0.10434004585258663,0.02040024105459452,-9.806971727013588
3.5,2.299999952316284,41.0,23.5886344909668,-0.015903547406196594,-79.78280115738903,40.45898280317157,267.5822103714944,0.0005375354667194189,-0.003925986122339964,0.9587261080741882,0.2843036353588104,0.010220714916293668,-0.0019451608134554601,0.02206117121670425,0.0033181337639689445,0.00024400494294241068,-0.004431806970387697,-0.10127637893892824,0.03176157064503059,-9.805709313154221
3.6,2.0999999046325684,39.0,23.58613204956055,0.0,-79.78280110712149,40.45898278155174,267.58556100189685,0.0005461428081616759,-0.00393726397305727,0.9587503671646118,0.2842215895652771,0.008548017993922278,0.0009934763147346367,0.03734663120645934,-0.003944196738302708,-0.001864535384811461,-0.006515495479106903,-0.10014119683764876,0.01601946140639484,-9.808062817454339
3.71,2.200000047683716,34.0,23.57736778259277,0.04771064221858978,-79.78280098302696,40.458982757324826,267.58326565682887,0.0005598812713287772,-0.003970332909375429,0.9587621092796326,0.2841818034648895,-0.0014324387060410154,0.0007262532749837343,0.047179492270644136,0.006777869537472725,-9.028088243212552e-05,0.004093979950994253,-0.10183514434844257,0.02411437416449189,-9.807464647293092
3.91,2.0999999046325684,35.0,23.576114654541016,0.05566241592168808,-79.7828009764462,40.45898275600223,267.5927233344316,0.0005373016465455294,-0.003974911291152239,0.9587825536727904,0.28411275148391724,-0.0037406995089574757,-0.0042768116520501024,0.047377939602882516,-0.0012642174260690804,-0.0017479176167398693,-0.006767401937395334,-0.10334612882696093,0.014823271832428871,-9.80712901711464
4.0,2.200000047683716,36.0,23.579870223999023,0.06361418962478638,-79.78280088529344,40.458982754915404,267.58707370817655,0.0005433054757304491,-0.003959062974900007,0.9587905406951904,0.28408607840538025,-0.0005395677664869072,-0.00493354060859451,0.04731820806763218,0.006701882928609848,0.002440841170027852,0.006883228197693825,-0.10019118139520287,0.016369759873487055,-9.80779326081276
4.2,2.299999952316284,40.0,23.582374572753906,0.21469789743423465,-79.78280087980524,40.45898275853524,267.59181656897067,0.0005497457459568976,-0.003951314371079207,0.9588024020195008,0.284045934677124,-0.0026909919698622927,-0.007524909141374819,0.04747830746211789,-0.008445986546576023,-0.004376389551907778,-0.007907209917902945,-0.1030453261267394,0.03056082663824782,-9.805217562317848
4.3,2.4000000953674316,34.0,23.579870223999023,0.08746951073408127,-79.7828007537507,40.45898276644292,267.58815051078795,0.0005354888853617013,-0.003946057520806789,0.9588299393653872,0.2839532792568207,-0.004211564788910438,-0.011322086475076105,0.043395795246864016,-0.005995532963424921,0.0007669703336432576,-0.002781593007966876,-0.10273323099128903,0.020635139239020647,-9.805795267224314
4.5,2.299999952316284,33.0,23.57486343383789,0.08746951073408127,-79.78280062766413,40.458982766342395,267.5820044523477,0.0005264140199869871,-0.003950941376388073,0.9588549733161926,0.2838685512542725,-0.00634489593553765,-0.011672753764820158,0.0359694834965027,0.0026067495346069336,0.0034446145873516802,0.004052246455103159,-0.10365112507715822,0.03518649270292372,-9.803837619423868
4.6,2.5999999046325684,30.0,23.57110595703125,0.039758868515491486,-79.78280061243916,40.458982772710094,267.58560734450816,0.0005258945748209953,-0.003937483299523592,0.9588631391525269,0.2838412225246429,-0.007700052215761175,-0.014605642754611929,0.03595509544258869,-0.003711349563673138,-2.6143621653318405e-05,-0.010122304782271385,-0.10399228270165622,0.04190592106897384,-9.803768622279168
4.8,2.700000047683716,29.0,23.582374572753906,0.09542128443717957,-79.78280052100452,40.458982804534564,267.57439308822154,0.0005190749070607126,-0.0039290776476264,0.958879828453064,0.28378474712371826,-0.0007561626010128134,-0.015349890270179769,0.023358586973969583,-0.007148799020797014,-0.0020527597516775127,-0.011752701364457607,-0.10051429487764836,0.017197869506198914,-9.807078146338462
4.9,2.799999952316284,26.0,23.57736778259277,0.04771064221858978,-79.78280051104409,40.45898281651027,267.57673462688916,0.0005153674283064902,-0.0039328858256340036,0.9588897824287416,0.2837512195110321,0.00021079225819116776,-0.01829544470824477,0.02323352645158247,0.0070653059519827375,0.003137624589726329,0.005176028236746788,-0.09981833917088807,0.018061095551820474,-9.808215429782868
5.1,2.799999952316284,26.0,23.583627700805664,0.07951773703098297,-79.78280041258802,40.45898283187581,267.5653270131349,0.0004973694449290633,-0.00396271888166666,0.9589133262634276,0.2836710214614868,0.001685745058310196,-0.014411461586221622,0.016239146706628453,0.006867539137601852,0.0004667210159823299,0.006317098159343004,-0.10302878946997224,0.027443792461417614,-9.806595751047137
5.2,2.700000047683716,28.0,23.579870223999023,0.08746951073408127,-79.7828002913408,40.458982843373256,267.5529237782955,0.0005027811275795101,-0.003991812001913786,0.9589264392852784,0.2836262881755829,-0.0014308542293354827,-0.012858628057170586,0.013053560485479588,-0.0045094480738043785,-0.004109257832169533,-0.0012989328242838385,-0.10305886608548463,0.02298630922101438,-9.806665917634962
5.4,2.5999999046325684,36.0,23.583627700805664,0.07951773703098297,-79.78280026893637,40.458982864779856,267.5555297678709,0.0004989258595742285,-0.004017746541649103,0.9589453935623168,0.28356197476387024,-0.002255801458767025,-0.01824428020111272,0.012918350523682112,0.001065295422449708,-0.0035920923110097647,0.004828857723623514,-0.10363639740273356,0.030173197353724392,-9.80611920297146
5.5,2.5,36.0,23.58487892150879,0.07156596332788467,-79.7828001542825,40.458982905997246,267.5420241898298,0.00048766680993139744,-0.00400505680590868,0.9589493870735168,0.2835487723350525,0.0008924819478651977,-0.02149524497738053,0.007437158364030526,-0.0006640224019065499,0.0013881827471777795,-0.0006973314448259772,-0.09954548433423042,0.035745153045281766,-9.805730947852137
5.71,2.5999999046325684,37.0,23.5786190032959,0.06361418962478638,-79.78280014024118,40.45898292348986,267.5427813625336,0.0004919446655549108,-0.004019961226731539,0.9589694142341614,0.2834808528423309,0.0006017669396275906,-0.024349134482451087,0.00735196981680705,-5.536162279895507e-05,-0.0006354036158882082,0.005046803504228592,-0.10302724543958904,0.013834862838266418,-9.807868105173114
5.8,2.5999999046325684,34.0,23.58112335205078,0.07156596332788467,-79.78280000345798,40.458982968768304,267.52990687847137,0.00046291793114505714,-0.004018992651253939,0.9589856266975404,0.2834258079528809,0.0005565951851094857,-0.02480995902140585,0.003877373688647864,0.0018804532010108235,0.0006807381869293749,0.008511790074408054,-0.09918784487061202,0.017186670717783268,-9.80671211063862
6.0,2.4000000953674316,38.0,23.58112335205078,0.08746951073408127,-79.7827999138116,40.458983014052656,267.51462344288825,0.00044215715024620295,-0.004044607747346164,0.9590077996253968,0.2833506762981415,0.008150255460263892,-0.019191563480709974,-0.0030060697934673484,0.008443737402558327,0.005305576603859663,0.003985491115599871,-0.1029506286419928,0.0378666233830154,-9.805000630617142
6.1,2.299999952316284,37.0,23.58613204956055,0.007951773703098297,-79.78279990772248,40.45898303292544,267.5143494105339,0.00044849448022432636,-0.004046504385769367,0.9590172171592712,0.2833186686038971,0.006060402076376857,-0.0215348410568792,-0.002841143349138357,-0.007880155928432941,-0.003680568188428879,-0.00671417498961091,-0.1015009211562574,0.031058536609634764,-9.805920397639277
6.3,2.200000047683716,36.0,23.58487892150879,0.07951773703098297,-79.78279973985691,40.45898307415477,267.498267481327,0.0004550321900751441,-0.004030787851661444,0.9590465426445008,0.28321972489356995,-9.091072277060828e-05,-0.024669057724803874,-0.007107334570272547,-0.00754497665911913,-0.0013318373821675775,0.0012416538083925845,-0.09989313784986736,0.02200230733724311,-9.807144804596902
6.4,2.0999999046325684,34.0,23.582374572753906,0.06361418962478638,-79.78279972390331,40.458983093563255,267.49756212741136,0.0004381583712529391,-0.0040228888392448425,0.9590535759925842,0.2831958830356598,9.690641527312024e-05,-0.027304682999599903,-0.007374250919251126,0.002524550538510084,6.741828838130459e-05,0.004239524248987436,-0.10187797520309687,0.027699455113615844,-9.806271815299988
6.6,2.0999999046325684,40.0,23.57736778259277,0.02385532110929489,-79.78279957992194,40.458983145896966,267.4825864082575,0.00041440885979682207,-0.004021503031253815,0.9590773582458496,0.2831154763698578,-0.0011272940791186704,-0.029115539094438963,-0.00929530493357512,-0.0030826465226709843,-0.0008297159220091999,-0.0054310280829668045,-0.10112471678294242,0.014967580429511143,-9.806494009494783
6.7,2.200000047683716,37.0,23.5886344909668,0.007951773703098297,-79.78279949221506,40.45898318344515,267.4682823142409,0.000406974577344954,-0.004049110691994429,0.9590891003608704,0.2830754220485687,0.008184769562709466,-0.02396184549459886,-0.010796443772401292,0.003580384887754917,-0.0002446897851768881,0.007121589966118336,-0.09881338552571832,0.014274474098347128,-9.807808463573457
6.9,2.200000047683716,37.0,23.587383270263672,-0.03180709481239319,-79.78279947372816,40.458983230310814,267.46615189522504,0.00041220977436751127,-0.004044348374009132,0.959111750125885,0.2829985320568085,0.007437334954054515,-0.02906854382955829,-0.011176678685604713,0.007813864387571812,-3.5721892345463864e-05,0.005357147660106421,-0.1032903061900288,0.03826359907630831,-9.804624069929122
7.0,2.0999999046325684,29.0,23.587383270263672,0.015903547406196594,-79.78279936315234,40.45898323978732,267.44962021917104,0.0003991649718955159,-0.004059179220348597,0.95912504196167,0.2829533517360687,0.004776191819390325,-0.0204320673068916,-0.01568248531887765,-0.008033961988985537,-0.004148756619542837,-0.010413125157356262,-0.10321513292379678,0.03262877668021247,-9.805531557798384
7.2,2.0999999046325684,28.0,23.58613204956055,0.007951773703098297,-79.78279923356347,40.45898328954404,267.43165210470556,0.0003981748304795474,-0.004057751502841711,0.9591417908668518,0.2828965485095978,0.005668530756699959,-0.01981408155220417,-0.018888249208739192,-0.009071504697203636,-0.004521152935922146,-0.002977033378556371,-0.10231348313391207,0.02110274290200323,-9.807749991416932
7.3,2.0999999046325684,31.0,23.587383270263672,-0.007951773703098297,-79.78279922590886,40.45898330859033,267.4297642840445,0.0003883123572450131,-0.004059287719428539,0.9591507911682128,0.282865971326828,0.005812982733806225,-0.022412274856568302,-0.01911087629691233,0.00568587239831686,-0.000313697470119223,0.002301943488419056,-0.10086587699130176,0.033384079341776667,-9.80511523604393
7.5,2.0,31.0,23.5886344909668,-0.007951773703098297,-79.78279909770663,40.45898335180436,267.41153821744024,0.0003833917144220322,-0.004067199304699898,0.9591639041900636,0.2828214466571808,0.005915399253404075,-0.02075244474118224,-0.021178421041857503,-0.003530683228746057,0.0004010498523712158,-0.00938645750284195,-0.1001648871973157,0.016483479081653058,-9.80706879079342
7.6,2.0,34.0,23.583627700805664,-0.007951773703098297,-79.78279908958875,40.45898337155879,267.40943239092826,0.0003759718965739012,-0.004060384817421436,0.9591728448867798,0.2827914357185364,0.006349877346901245,-0.02327721278318697,-0.02137146302718049,0.006537026725709438,0.0005455538048408926,0.006227859761565925,-0.09911723060533403,0.01540814186213538,-9.807144219875335
7.8,1.8999999761581416,33.0,23.587383270263672,-0.007951773703098297,-79.78279895726364,40.45898341590661,267.39189616287126,0.00034711271291598683,-0.004096481949090958,0.9591895937919616,0.2827338874340057,0.006801943246091787,-0.023558971220117863,-0.022590737921184264,0.007189969066530465,-0.0016648053424432876,0.007274271920323372,-0.1027750477194786,0.0340323870931752,-9.80459015607834
7.9,1.8999999761581416,36.0,23.58112335205078,-0.039758868515491486,-79.78279894775261,40.45898343692485,267.38966669443994,0.00035470048896968365,-0.004105012398213147,0.9592015743255616,0.2826931774616241,0.005188776090869502,-0.025797102557259918,-0.02250949800482645,-0.000206778320716694,-0.0035710800439119343,0.0028582962695509195,-0.10140661653131247,0.01983220917871222,-9.807630123496057
8.1,1.7999999523162842,39.0,23.5886344909668,0.0,-79.78279878454661,40.45898348396296,267.372247467041,0.0003591994172893465,-0.004098138306289911,0.9592174291610718,0.2826394736766815,0.0036057754982634226,-0.026742955151744536,-0.02342569961442999,0.0016693070065230133,0.0009846189059317114,0.0050362395122647285,-0.10246699995361268,0.03656012243125588,-9.805358480215073
8.2,1.7999999523162842,42.0,23.59113883972168,0.02385532110929489,-79.7827986500434,40.458983522139285,267.3569074536115,0.0003326663572806865,-0.004113075323402882,0.9592258334159852,0.28261080384254456,0.006901858453348639,-0.02454577126387025,-0.023727982364316537,-0.0058435499668121355,-0.0004827289958484472,-0.01390786562114954,-0.10399095794185996,0.03829046885948628,-9.804466779828072
8.4,1.7999999523162842,41.0,23.587383270263672,-0.02385532110929489,-79.78279862986432,40.458983569893974,267.352174064368,0.0003367647295817733,-0.004110013600438833,0.9592517614364624,0.2825228571891785,0.0061448740530007035,-0.029514212221701006,-0.023927827758472568,-0.006955669727176428,-0.0016231061890721321,-0.004818005487322807,-0.1027831607311964,0.01651557024568319,-9.807007395029068
8.5,1.7000000476837158,43.0,23.587383270263672,0.0,-79.78279848567476,40.458983589673096,267.33526978105306,0.00033366901334375143,-0.004130356479436159,0.9592601656913756,0.2824939489364624,0.007354700153915731,-0.02431335278921786,-0.02778182539718604,0.006997830234467983,0.003897709073498845,-0.0006080760504119098,-0.10136255227960647,0.02914384757168591,-9.806055468320848
8.7,1.7999999523162842,46.0,23.587383270263672,0.0,-79.78279833157924,40.458983627855055,267.31734622478484,0.00032822773209773004,-0.004148609936237335,0.9592852592468262,0.2824084162712097,0.00498296666472877,-0.02095862876492668,-0.029613705077899236,-0.0037389022763818494,-0.00018899711722042406,-0.010819617658853531,-0.10164276181720196,0.015636957571841782,-9.80693839788437
8.8,1.7000000476837158,54.0,23.587383270263672,-0.015903547406196594,-79.78279832250459,40.458983647370076,267.3143982237577,0.0003333829517941922,-0.004151101224124432,0.9592955112457277,0.2823736071586609,0.005674831403047029,-0.02333864041661302,-0.02975866315670378,0.005680159665644169,0.0039078672416508215,0.002527683973312378,-0.09972268237732353,0.01967913318425417,-9.808158127069474
9.0,1.7999999523162842,58.0,23.589887619018555,0.0,-79.78279815018357,40.458983690845116,267.29786718845367,0.0003633643791545183,-0.004156413488090038,0.9593154788017272,0.2823054790496826,0.003086129176727893,-0.023618358929415696,-0.02782913184144992,0.0063191023655235785,0.0018157161539420483,-0.0003907026548404247,-0.10336595454253256,0.029136022352613512,-9.806537278890607
9.1,1.7999999523162842,58.0,23.5886344909668,0.007951773703098297,-79.78279813688731,40.45898371104372,267.2950917726755,0.00036172877298668016,-0.004157701041549443,0.9593331813812256,0.2822456955909729,0.002344656575320554,-0.026005968011014843,-0.02805364830039175,-0.00044957804493606085,0.0014875902561470866,0.005692611448466778,-0.10196600320748986,0.016821632013889032,-9.806670010685922
9.3,1.7000000476837158,60.0,23.58613204956055,-0.007951773703098297,-79.78279800504427,40.458983770851546,267.2766175290942,0.0003340614784974605,-0.0041582174599170685,0.9593576788902284,0.2821624279022217,0.009952069537069702,-0.024572961405064785,-0.030534652727779426,0.0058894245885312575,-0.0007131338352337482,0.004559252876788378,-0.10472293797880412,0.03863383289426565,-9.804859712719916
9.4,2.0999999046325684,66.0,23.58487892150879,0.007951773703098297,-79.78279799819903,40.458983794488155,267.2735854259133,0.00033665332011878485,-0.0041604433208704,0.9593676328659058,0.2821284532546997,0.008741015237044314,-0.02675214542217071,-0.030592873783983888,-0.0033814304042607546,-0.005060183815658093,-0.00031299024703912437,-0.10279678291641177,0.02147081827512011,-9.806355430483821
9.6,1.8999999761581416,64.0,23.5886344909668,-0.015903547406196594,-79.78279783596105,40.458983838424004,267.2579145824909,0.00032408029073849315,-0.004164520185440779,0.9593899846076964,0.2820523679256439,0.008504429718627355,-0.0243997688702656,-0.02842869846666837,0.0034696063958108425,9.946764293999877e-06,0.003258394077420235,-0.10488383690826596,0.033421588316559794,-9.803920649886132
9.7,2.4000000953674316,68.0,23.58613204956055,0.007951773703098297,-79.78279768010906,40.45898386249459,267.2454926466942,0.00030044998857192684,-0.004180973395705223,0.9594045877456664,0.2820025086402893,0.007446941820044067,-0.021696135858442992,-0.027103702839668,-0.0004906231188215315,-0.002676917472854257,-0.008881538175046444,-0.10357626244425774,0.030351261058822274,-9.804942158460618
9.9,2.700000047683716,67.0,23.58112335205078,-0.03180709481239319,-79.78279766511187,40.45898390627129,267.24006373643874,0.0002777567715384066,-0.004175215493887663,0.9594245553016664,0.2819344401359558,0.007486470919386752,-0.026419525376498783,-0.02763964701613193,0.0026568027678877115,0.0007384524797089398,0.0021111315581947565,-0.10260672099888324,0.02925190228968859,-9.804902982115744
10.0,2.700000047683716,70.0,23.576114654541016,-0.015903547406196594,-79.78279749816177,40.45898393089957,267.22777595579623,0.00028115135501138855,-0.004160789772868156,0.95943421125412,0.2819019556045532,0.004205336114910589,-0.02405512538809174,-0.0262582781556,-0.00589241273701191,-0.0017484897980466485,-0.008565805852413176,-0.1050988865364343,0.034390010568313305,-9.804108345508576
10.2,2.700000047683716,69.0,23.5886344909668,0.007951773703098297,-79.78279731902501,40.458983979064094,267.2145190632343,0.0002699966134969145,-0.004160208627581596,0.959455668926239,0.2818289995193481,0.0026189234053081052,-0.02323070447060101,-0.02167670612190057,-0.00021784563432447607,-0.0008841367671266197,0.002372438786551357,-0.10228600122034552,0.02300565528217703,-9.806060730814934
10.31,2.799999952316284,64.0,23.5886344909668,-0.02385532110929489,-79.78279730583205,40.45898399909334,267.2123542225361,0.00025417882716283197,-0.004168215207755566,0.9594610929489136,0.2818104326725006,0.0020233550166903497,-0.02566441017874499,-0.021953774820001902,-0.0029291885439306498,0.00026508106384426355,-0.005004923325031996,-0.10013598002493382,0.03874353670980781,-9.803120750784872
10.5,2.799999952316284,65.0,23.583627700805664,0.0,-79.78279715191854,40.45898401994036,267.20019570946687,0.00024005648447200653,-0.004204411059617996,0.9594868421554564,0.28172221779823303,0.0023151857627893265,-0.01747744499888145,-0.01815459965987712,-0.002612887183204293,-0.0034551667049527173,-0.00041822763159871096,-0.10239161655306817,0.02027259359601885,-9.805974192023278
10.6,2.5999999046325684,62.0,23.58487892150879,0.02385532110929489,-79.78279714251187,40.458984035525155,267.1983830875158,0.0002313085860805586,-0.004200818482786417,0.959490954875946,0.28170812129974365,0.0022559067092701715,-0.019855669786057968,-0.018353913063570333,-0.0018277580384165046,-0.000565488706342876,-0.003533496521413327,-0.10291279532946647,0.037289763581939035,-9.804907075166703
10.8,2.700000047683716,64.0,23.58613204956055,-0.015903547406196594,-79.7827969619932,40.45898408541432,267.1858643090725,0.0002370776783209294,-0.004208020865917207,0.9595229625701904,0.2815990149974823,0.0005807583757848858,-0.022416256106796827,-0.017342832373591827,-0.007970692589879036,-0.00286981207318604,-0.007455036509782077,-0.10173421592451633,0.015197179574752228,-9.807554694414142
10.9,3.299999952316284,59.0,23.57361030578613,-0.07156596332788467,-79.7827969488027,40.45898410356273,267.18413099110126,0.00022389524383470416,-0.004211811348795891,0.9595258235931396,0.2815891802310944,0.0013218046159866625,-0.024653389862172324,-0.017653409748155387,0.005329307168722153,0.00023109094763640322,0.0005598408170044422,-0.10143260009586813,0.02748734508175403,-9.805679492354393
11.1,3.0999999046325684,55.0,23.583627700805664,-0.015903547406196594,-79.78279679662458,40.45898413771624,267.172198767066,0.00023040521773509684,-0.0042246165685355655,0.9595473408699036,0.2815157175064087,0.001120687009708355,-0.019482134014558047,-0.016150051935279422,-0.002908884780481457,-0.00236735655926168,-0.010692324489355087,-0.100667692925781,0.016827450678683818,-9.805636222958565
11.2,3.5999999046325684,65.0,23.5886344909668,-0.007951773703098297,-79.78279662866642,40.45898417582868,267.161621311903,0.00023594567028339952,-0.004219046328216789,0.9595549702644348,0.2814897894859314,0.0017455123633722933,-0.019196492079171068,-0.015162435768831172,0.007974873296916485,0.0013015144504606724,0.003884604899212718,-0.101344709135592,0.019935771133750682,-9.806851859092712
11.4,3.2000000476837163,61.0,23.583627700805664,-0.015903547406196594,-79.78279660318984,40.45898420887378,267.15861418306827,0.00022183281544130298,-0.0042215147987008095,0.9595792293548584,0.28140705823898315,0.0003641931591069167,-0.023825853843136475,-0.01540392093789075,0.001925539574585855,0.0005295129376463592,0.00016420835163444283,-0.10298784982413052,0.022606304157525303,-9.806380573511122
11.5,2.799999952316284,57.0,23.58487892150879,-0.015903547406196594,-79.78279648673329,40.45898422827957,267.1478167718649,0.00022319606796372682,-0.0042645074427127855,0.9595896005630492,0.28137102723121643,0.005556192890302504,-0.013840377478096041,-0.014445314262749887,0.000965649145655334,-4.733028617920354e-05,0.005512491334229708,-0.09931918795220554,0.01675427597248927,-9.807076976895333
11.71,2.9000000953674316,56.0,23.59113883972168,-0.015903547406196594,-79.78279648225835,40.45898424210163,267.14637647032737,0.0002145361650036648,-0.00426328694447875,0.959598183631897,0.281341552734375,0.004260482426736486,-0.01580726090517537,-0.014519576414787447,-0.00778318103402853,-0.00018425664165988564,-0.009895297698676586,-0.10317678797990083,0.03869923948310317,-9.804423510432244
11.81,2.799999952316284,53.0,23.58112335205078,-0.02385532110929489,-79.78279630070105,40.45898430152997,267.13431424856185,0.00023979974503163248,-0.004260409157723188,0.9596233367919922,0.2812558710575104,0.0004232306597623975,-0.02040878948988192,-0.014399599564560862,-0.005170254036784172,-0.0042408625595271605,-0.0007314459071494639,-0.10192578532733024,0.019471196145750585,-9.806471205353738
12.01,2.700000047683716,57.0,23.58613204956055,-0.007951773703098297,-79.78279628817113,40.458984317922884,267.13287825345986,0.00022723356960341334,-0.004273924976587296,0.9596303701400756,0.2812315821647644,0.00029048297269766834,-0.02267077532517449,-0.014585936265002588,0.0009827265748754144,-0.0018983774352818727,0.0010691192001104355,-0.10294133705087008,0.035579642581287776,-9.805226917862893
12.11,2.799999952316284,54.0,23.58613204956055,-0.015903547406196594,-79.7827961760915,40.45898437954284,267.11852009058,0.00023483736731577667,-0.0042823180556297285,0.9596501588821412,0.2811639904975891,0.005909886771508205,-0.019239135889780764,-0.017679461111417234,-0.0044086435809731475,-0.004107294138520956,-0.01162247359752655,-0.10385545785538852,0.03679012585664168,-9.804993029236794
12.3,2.799999952316284,51.0,23.589887619018555,-0.007951773703098297,-79.78279604097692,40.45898445992098,267.1041536426544,0.00024044430756475776,-0.004289447329938412,0.9596781134605408,0.28106844425201416,0.009064906672572587,-0.021966374704511685,-0.0199846891944812,-0.0009459809516556561,-0.0041591227054595965,0.0013133935863152144,-0.10082247968763114,0.022215040919836608,-9.805567225813864
12.4,2.200000047683716,51.0,23.583627700805664,-0.02385532110929489,-79.78279603572334,40.45898448156108,267.1021649634838,0.00022241484839469194,-0.0042822458781301975,0.9596835374832152,0.2810500562191009,0.008496979376110467,-0.02402619582485431,-0.02017652480388424,-0.003011872060596943,0.0017140853451564908,-0.00586960231885314,-0.10404956714250148,0.03897782276384533,-9.8031388771534
12.6,2.200000047683716,55.0,23.583627700805664,-0.015903547406196594,-79.78279587589851,40.458984525992896,267.08775697112077,0.00025907621602527797,-0.004280595108866693,0.959706723690033,0.28097087144851685,0.002953512187009645,-0.020833630470727692,-0.02153777568030728,-0.007231638301163913,-0.0013883855426684026,-0.0002071026392513886,-0.10063018851913512,0.01926750747486949,-9.806652469038964
12.7,1.7999999523162842,53.0,23.5886344909668,-0.007951773703098297,-79.78279576767754,40.4589846026966,267.0742804503441,0.0002508034522179514,-0.004263249691575766,0.9597107768058776,0.2809573709964752,0.010428636291697569,-0.02256267370722071,-0.024794674234887487,0.00138887541834265,-0.000533315644133836,0.0019835580606013536,-0.10323187057860196,0.03259616246446968,-9.806146684885023
12.9,1.600000023841858,55.0,23.56609916687012,0.2942156493663788,-79.7827957564958,40.45898464951839,267.06933311581605,0.0002617457357700914,-0.0042519299313426035,0.9597261548042296,0.28090521693229675,0.00898559215269475,-0.02663111812297508,-0.025149672201802784,-0.007507241796702146,-0.0019129867432639005,-0.006372670643031597,-0.10058478123508394,0.015220019118860366,-9.807662283182145
13.0,1.600000023841858,52.0,23.517269134521484,1.2404767274856567,-79.7827956421815,40.458984701717526,267.05545450210565,0.0002762743388302624,-0.004254849161952734,0.9597420692443848,0.2808505892753601,0.012891738500193916,-0.023408882155371367,-0.028352612763116368,0.012969997711479664,0.006490917410701513,0.02346261963248253,-0.0959080685209483,0.02434365810826421,-9.807827759385107
13.21,1.5,55.0,23.569854736328125,0.3021674156188965,-79.78279563635944,40.458984724084395,267.052663872242,0.000285154499579221,-0.0042492486536502855,0.9597410559654236,0.28085419535636896,0.008905166261243125,-0.0238222891096705,-0.02805105736097144,-0.006498277187347412,-0.005291647743433714,-0.013377370312809944,-0.10771429128013553,0.013074746502097695,-9.807086917161945
13.3,1.399999976158142,55.0,23.57110595703125,0.3021674156188965,-79.78279560348528,40.45898471793357,267.0446769988537,0.00024133230908773837,-0.00432184524834156,0.9597502946853638,0.2808214724063873,0.014882919217249031,-0.0017636645357681831,-0.011997642903473807,0.003544130595400929,0.0005089315818622708,-0.0059009362012147895,-0.10123067015782,0.018174756516236814,-9.805780649185179
13.5,1.399999976158142,57.0,23.56860160827637,0.2862638533115387,-79.7827956162046,40.45898472572852,267.0434685444832,0.00022975387400947508,-0.004325574729591608,0.959786057472229,0.2806992530822754,0.013768296018010363,-0.003296264662216911,-0.01213352747493543,-0.006816998589783907,-0.004629799630492926,-8.350732969120145e-05,-0.1127725256793201,0.0427464902959764,-9.805328659415244
13.6,1.600000023841858,57.0,23.56735038757324,0.3021674156188965,-79.78279555781593,40.458984747262335,267.0386034345627,0.00026091199833899736,-0.004362651612609625,0.9598175883293152,0.2805905640125275,0.012899431971862413,0.005550418628108416,0.0037577279211000133,0.0004103188693989068,-0.0022006859071552753,0.00186659733299166,-0.10787274168804288,0.013535582469776274,-9.805919228196144
13.8,1.5,58.0,23.56609916687012,0.37373337149620056,-79.78279543737598,40.458984809246495,267.031510720253,0.000305330817354843,-0.004317280370742083,0.9598284363746644,0.2805543839931488,0.0073880736671769216,-0.0004917974380151278,0.011151711138081956,0.003048286074772477,-0.002514468273147941,0.000303957931464538,-0.10325542389415206,0.03693928238935769,-9.800833320021633
13.9,1.600000023841858,57.0,23.56234169006348,0.3816851377487183,-79.78279544398158,40.45898481382728,267.03261915802955,0.00031388833303935826,-0.004314642399549484,0.9598271250724792,0.280558705329895,0.007453620029704645,-0.0033167545509184,0.01108495672679459,-0.002191836480051279,0.002076597884297371,-0.0008764910744503138,-0.1009508808888495,0.022293158350512387,-9.803681498765943
14.1,1.7999999523162842,54.0,22.63958168029785,11.752721786499025,-79.78279534316945,40.45898488461928,267.02367205381387,0.0001141930915764533,-0.004452750086784364,0.9598338603973388,0.28053393959999084,0.0072281625179088736,-0.0038434959252214643,0.012502217660323613,-0.003544694744050503,0.017452895641326904,0.02877851948142052,-0.094433172326535,0.028937070840038364,-9.801971772909164
14.31,1.8999999761581416,58.0,23.54606628417969,0.2942156493663788,-79.78279526154519,40.45898496800654,267.0116798377037,0.00010057137114927171,-0.004436157643795013,0.9598382711410522,0.2805190086364746,0.01846267380347715,-0.007838181842637012,0.009892720211360562,0.027428366243839264,0.017703885212540627,0.015984341502189636,-0.1190269085392356,-0.1153400472085923,-9.804455085396768
14.4,1.7999999523162842,55.0,23.56484603881836,0.22264966368675232,-79.78279527594823,40.45898499176258,267.013654807806,0.00017631138325668871,-0.0044118142686784285,0.9598565101623536,0.2804568111896515,0.009883505363172972,-0.009304398090602631,0.00918499973835978,-0.006859130226075649,-0.014092388562858103,-0.016426652669906616,-0.09171050772070884,0.11954113461077212,-9.809708808660508
14.5,2.0,54.0,23.12287330627441,5.542386531829834,-79.78279513716295,40.458985045509756,266.99881110548966,9.370350016979499e-05,-0.004451610613614321,0.9598686099052428,0.2804148197174072,0.0055803445533263,-0.01052829698712466,0.00474089097010252,-0.011043828912079334,-0.00823262333869934,0.009709636680781841,-0.12066436646506193,0.052702663158997895,-9.810321596860886
14.7,2.0999999046325684,54.0,23.56109046936035,0.3101191818714142,-79.78279503127085,40.458985117475656,266.9841617143154,0.00013886622036807242,-0.004442497156560421,0.9598976969718932,0.2803155183792114,0.0018716755854642558,-0.011759551141839788,0.0016755203123142075,0.022662214934825897,0.037160396575927734,-0.001466949237510562,-0.12349595373496415,0.08040561974979937,-9.801919147968293
14.8,2.4000000953674316,52.0,23.56484603881836,0.2385532110929489,-79.7827950229084,40.45898512654786,266.98435861825936,0.00020802918879780918,-0.004399886820465325,0.9598997235298156,0.2803093492984772,-0.0007173136344149173,-0.016000435310390006,0.0014679297943797998,0.0023974115028977394,0.014984681271016596,0.0021876264363527307,-0.1064167849905789,0.014897734753321856,-9.801532647013664
15.0,2.5999999046325684,47.0,23.45466613769531,2.9819152355194087,-79.78279490951118,40.4589852196289,266.9717371559143,0.00025597953936085105,-0.0043961252085864535,0.9599244594573976,0.2802242934703827,-0.0005274842165596872,-0.016472015101513776,0.0004031911049332416,0.0044787186197936535,0.002948226174339652,0.006246136501431465,-0.09586687305942178,0.008174897414864973,-9.814338634014133
15.1,2.700000047683716,54.0,23.36451911926269,4.5643181800842285,-79.78279489841727,40.458985232679616,266.97178445219987,0.00020173510711174456,-0.004441381897777319,0.9599406123161316,0.2801684439182281,-0.0004082246757650239,-0.017053375607508303,0.0007163423544587443,-0.010605894029140472,-0.013168223202228546,-0.002707039937376976,-0.13256680333055554,0.03540029522962868,-9.81079989910126
15.3,2.700000047683716,58.0,23.27061462402344,6.425033092498777,-79.78279481019301,40.45898530681407,266.9563390111923,9.358706302009524e-05,-0.004505985416471958,0.959949553012848,0.2801368236541748,-0.0011598093800666445,-0.014011201637141743,-0.005086800237030062,-0.011740108951926231,-0.04587118327617645,-0.0006213613087311388,-0.0805405899323523,0.03140442682430148,-9.80288276910782
15.4,2.700000047683716,58.0,23.208011627197266,7.307680130004883,-79.782794802449,40.458985318585945,266.95586005806916,-0.00010899254994001241,-0.004573356360197067,0.9599650502204896,0.2800825536251068,0.0044010913044599574,-0.013654184889178387,-0.003959183036084564,0.004414432216435671,0.028903970494866368,-0.02901381440460682,-0.12358903409913186,0.013808007901534438,-9.781186090707779
15.61,2.799999952316284,63.0,23.069034576416016,9.71706771850586,-79.7827947172282,40.45898541662083,266.9412956929207,-0.000458109425380826,-0.004587121773511171,0.9599830508232116,0.2800203263759613,0.004063082058314946,-0.015477669046617716,-0.007210500980399603,0.023691752925515168,-0.06930617988109589,0.12604102492332458,-0.12519922938197853,0.014327265776228159,-9.796932057738305
15.7,2.700000047683716,65.0,23.001422882080078,11.045014381408693,-79.78279461984816,40.458985469352434,266.92634675860404,-0.000592246069572866,-0.004627990070730448,0.9599975943565368,0.2799693048000336,0.01076434534458412,-0.01094918144582914,-0.008996508053340365,0.06258481740951538,-0.039676539599895484,0.01860317401587963,-0.07283617068082095,0.0864874092489481,-9.822341133356096
15.91,2.799999952316284,57.0,22.831144332885746,14.058735847473145,-79.78279461408442,40.458985503325856,266.9247933423519,-0.0017813090234994886,-0.0045030927285552025,0.960053324699402,0.2797754108905792,0.01117788649570828,-0.025475454432259424,-0.003130276512583319,0.05272355303168297,0.02595841512084008,-0.0018113882979378106,-0.2239901853539049,0.16042894123122098,-9.771889017820357
16.0,2.799999952316284,57.0,22.72972869873047,16.062583923339847,-79.78279450323032,40.45898556249279,266.9123036062717,-0.0026502520777285103,-0.0036003065761178728,0.9600428342819214,0.279817670583725,0.00024605790589641733,-0.01934502980593301,-7.791656409812858e-06,0.0021802347619086504,0.012626546435058115,-0.021150950342416763,-0.06026078324764968,-0.13223189491778614,-9.885960009098053
16.2,2.700000047683716,62.0,22.55694580078125,19.08425712585449,-79.78279443426428,40.45898566550244,266.8999443149566,-0.004966514185070992,-0.0012392394710332155,0.9601338505744934,0.279494047164917,0.0048000715116541855,-0.021346807077260204,-0.009219299937156826,0.004152712877839804,0.04363783076405525,-0.06076135486364365,-0.043581431577913464,-0.02564162349561229,-9.85081239581108
16.3,2.4000000953674316,61.0,22.45803451538086,20.8256950378418,-79.78279442523565,40.45898568509879,266.8993952071666,-0.004826892167329788,0.0002652128168847412,0.9602333307266236,0.2791571617126465,0.015750295735806868,-0.0249500990749976,-0.0014910387798562435,0.06700595468282701,0.052093330770730965,-0.009229758754372595,-0.1508358987327665,-0.11541082592681053,-9.80489011824131
16.5,2.4000000953674316,64.0,22.2526969909668,24.3801383972168,-79.78279442223995,40.458985704363954,266.89976576924323,-0.00383511115796864,0.00090141873806715,0.9606364965438844,0.2777805328369141,0.010858529205212922,-0.016946196879213178,0.016310470826400702,-0.04592343792319298,0.05657992884516716,0.002037567086517811,0.002013374506495893,-0.2340100289136172,-9.962239276170733
16.61,2.0999999046325684,54.0,22.12248420715332,26.050010681152344,-79.78279449662966,40.45898574251103,266.8897968029976,0.0010140597587451339,-0.00940351840108633,0.9615820050239564,0.2743552327156067,0.027398274215959275,0.07718509668170685,0.10748281362393876,-0.14725443720817566,-0.1331915557384491,-0.02494446374475956,0.19069491516798734,-0.08982826159335673,-10.437980436086654
16.8,2.200000047683716,49.0,22.336584091186523,21.01653861999512,-79.7827946647881,40.458986059820155,266.89399702310556,-0.005817785393446685,-0.012491307221353054,0.9617197513580322,0.2736881971359253,0.08869670696083935,0.1336667611893632,0.2805961319445395,0.10193856060504912,0.06931213289499283,0.11523450911045074,0.16258632626384498,0.4485031483322382,-10.755167326927186
16.9,2.0999999046325684,37.0,22.316551208496094,21.477741241455078,-79.78279484026119,40.458985975738585,266.92366055607795,-0.0012585542863234878,-0.006292079109698534,0.962011218070984,0.27293461561203003,0.07012281702510392,0.17650767777702078,0.30956471613090697,-0.13885653018951416,0.07399341464042664,0.08094663172960281,0.3051254736632109,-0.10137879657559096,-10.225492619276046
17.11,2.200000047683716,41.0,22.30778694152832,22.535327911376953,-79.78279535231611,40.45898577690393,266.9565047121048,0.015361560508608818,0.008815553039312363,0.9626118540763856,0.2703050971031189,0.09340130495487156,0.2217935057394416,0.2329163114535677,-0.0322934053838253,0.1669081449508667,-0.11616452038288115,0.21691417733207347,0.061697096955031165,-9.772752651572226
17.2,2.5,33.0,22.299022674560547,23.17942047119141,-79.78279574270202,40.45898562117179,266.95091784954064,0.019516658037900925,0.017272362485527992,0.9626260995864868,0.2695773243904114,0.09036467710774523,0.18941624957892844,0.1248921925833246,0.03799966350197792,0.19388176500797272,-0.00439457967877388,0.3099895896390081,0.13036997700110078,-9.433865574002267
17.41,3.0,31.0,22.22264862060547,22.972675323486328,-79.78279614017525,40.458985417496294,266.97434578299516,0.010627186857163906,0.022140953689813614,0.9625054597854614,0.2701486647129059,0.09078725311822247,0.18365399843440144,0.09919157401936332,0.11553234606981275,-0.03898647055029869,0.0007765776827000082,0.4348910495638848,0.21399842670187355,-9.535846277475358
17.5,3.700000047683716,36.0,22.276485443115234,21.056297302246094,-79.78279635784625,40.45898532941794,266.9836478030681,0.006511347834020853,0.016778569668531418,0.96274334192276,0.2698173224925995,0.08293502687197081,0.17753450220330275,0.1009129004837112,-0.02503191493451596,-0.012255064211785792,0.00865559559315443,0.2584823440387845,0.1340843567904085,-9.722392337322237
17.71,4.099999904632568,36.0,22.217639923095703,23.4179744720459,-79.78279655235089,40.458985234844405,266.9938988184929,0.007797985337674619,0.013081546872854231,0.9628442525863647,0.2696278989315033,0.08856799176295893,0.1706623126493486,0.09446745072255172,-0.06227085366845131,0.02373236790299416,0.036375582218170166,0.2139890711568296,0.1560017401725054,-9.74616243839264
17.8,4.699999809265137,37.0,22.26772117614746,22.185449600219727,-79.78279711171706,40.458985021040355,267.02148054003715,0.014897071756422518,0.011181351728737354,0.96231609582901,0.2712947130203247,0.10706106586424742,0.20837608230183075,0.13563257921355498,-0.11047860980033876,0.11442343145608902,-0.030782859772443768,0.2835233557038009,0.15578875534236433,-9.907601723670961
18.0,4.800000190734863,32.0,22.28900718688965,22.614845275878906,-79.78279747104925,40.458984751833725,267.0473671352863,0.019276387989521027,0.017282405868172646,0.9618126749992372,0.2724814713001251,0.10747675436986556,0.2482056919270933,0.11945936820544215,0.030384385958313945,-0.04671521484851837,0.12378355115652084,0.3999930758401752,0.2331860465928912,-9.883431673049929
18.1,5.0,32.0,22.17632293701172,24.38809013366699,-79.78279771185743,40.458984611680755,267.058564761877,0.018448082730174058,0.016294065862894058,0.9615899920463562,0.2733840644359589,0.09280355281185533,0.2549543987942182,0.08321234990101281,0.021110156551003456,-0.08868966996669769,0.020888756960630417,0.4880018209666014,0.09848904778249562,-9.536827440261842
18.3,5.099999904632568,32.0,22.206371307373047,22.12978744506836,-79.7827981295333,40.45898431021649,267.098520348072,0.015016166493296625,0.022791856899857518,0.961277425289154,0.2742277681827545,0.07758567608754552,0.2440822266928889,0.17387793842095334,0.02627759799361229,0.08171509206295012,-0.04877984523773194,0.3843450131267309,0.21086981914937492,-9.900972150564193
18.4,5.400000095367432,35.0,22.20261573791504,22.90906143188477,-79.78279833921295,40.45898416338827,267.11660165548324,0.016587443649768833,0.024622419849038124,0.9615129828453064,0.27315109968185425,0.07112856815808613,0.2458420081233716,0.15683227646915684,-0.04264339432120323,-0.0016816077986732125,-0.0705103799700737,0.5653968829661608,0.06732893407344819,-9.713588184714318
18.6,5.400000095367432,37.0,22.09619140625,25.747844696044922,-79.78279872765194,40.45898389811374,267.1442212408781,0.016558825969696045,0.019765650853514668,0.9623324275016784,0.2706499993801117,0.06797618462819728,0.2395241849388404,0.15413358971442406,0.03705170750617981,-0.03609520196914673,-0.009994088672101498,0.5041149200499058,0.1899897775053978,-9.654085748791696
18.7,5.5,34.0,22.052370071411133,25.54904937744141,-79.78279886254656,40.45898374400158,267.15996968209737,0.014607042074203491,0.01776873506605625,0.9626491665840148,0.2697731852531433,0.05777665870288436,0.238701154476452,0.2032569511786449,0.05099216848611832,-0.026772504672408104,-0.06832215189933777,0.4813803608715535,0.23510883037000896,-10.140995675325394
18.9,5.199999809265137,34.0,22.283998489379886,22.86134910583496,-79.78279923682076,40.45898344196565,267.1963529533149,0.014158895239233969,0.022174481302499768,0.9630104303359984,0.2681770622730255,0.045073117150544094,0.22053542736572965,0.05753215332686602,-0.023554420098662376,0.16848890483379364,-0.08447286486625671,0.3881904710456729,0.16063536621630192,-9.633773106336594
19.0,4.400000095367432,27.0,22.022319793701172,27.12350082397461,-79.78279955377127,40.458983284679974,267.1861799305677,0.016079997643828392,0.029436966404318813,0.9630554914474488,0.267206072807312,0.06491596217860245,0.24443426108255115,0.005360387135263257,-0.011447684839367868,0.16565321385860446,0.04005815088748932,0.526645849943161,-0.00705188825726509,-9.1767541462183
19.2,4.199999809265137,26.0,21.849536895751953,29.31818962097168,-79.78279975803815,40.45898288459749,267.215670312047,0.017651738598942757,0.0337519571185112,0.9628077745437622,0.2674891948699951,0.04663901192027139,0.2300757568773993,0.1525340823491784,0.025782672688364986,0.023207638412714005,0.02716301754117012,0.5440476022660733,-0.09553415735252202,-9.878952705860137
19.3,3.799999952316284,23.0,21.79444694519043,29.49312973022461,-79.7827999189782,40.45898273789246,267.23820553183555,0.02053575217723846,0.030888842418789864,0.9623384475708008,0.26931178569793696,0.022350053878203102,0.2197251585236416,0.2669681463672904,-0.1923622041940689,-0.012021763250231745,-0.0716782733798027,0.5591940835118294,0.28364336980506777,-10.76063096523285
19.5,3.299999952316284,27.0,21.606639862060547,33.5723876953125,-79.78280005840698,40.4589826028129,267.27298741996293,0.02220539189875126,0.026207538321614262,0.9619628787040708,0.27101215720176697,0.035919544633497905,0.2090657594169001,0.4026981234588263,0.06465959548950195,-0.12967343628406525,0.007170188706368208,0.549254365079105,0.2004442336410284,-11.060490217208862
19.61,3.299999952316284,26.0,21.527759552001953,34.51865005493164,-79.78280019948718,40.45898244206453,267.3512630148232,0.01848563365638256,0.021356428042054176,0.9618048071861268,0.27227506041526794,-0.0014306959877841126,0.20019726394954165,0.7256435976506157,0.0006196043104864657,-0.05566810071468353,-0.07049776613712311,0.4178198841959238,0.3100585867837072,-11.717934772968292
19.81,3.299999952316284,27.0,21.50271797180176,34.60612106323242,-79.7828002936477,40.45898219878832,267.52772756874555,0.018520595505833626,0.029778165742754936,0.961453914642334,0.2727207541465759,0.014725535821338571,0.2012344286018019,1.1673624773180302,0.0886586457490921,0.11753039807081225,0.07224564254283905,0.4877453109249473,0.1261169590149075,-12.114751385450365
19.9,3.0999999046325684,28.0,21.455141067504886,36.20442581176758,-79.78280034912936,40.458982086659844,267.65589390158647,0.020440790802240368,0.029085958376526836,0.9615116119384766,0.2724547684192657,0.0054991526544458545,0.2121102722179491,1.3790463965848432,0.018428651615977287,0.022249167785048485,-0.0050860722549259645,0.7095543569326401,0.03735760498791933,-12.048046349287036
20.11,3.2000000476837163,27.0,21.28360939025879,38.35140609741211,-79.78280040155805,40.458982036095634,267.78318996191024,0.022828860208392143,0.025032499805092808,0.9617668986320496,0.2717659771442413,0.007635974064210652,0.21033658076730888,1.5991146746057563,0.05102251097559929,-0.02365475334227085,0.008191385306417942,0.5560538363456726,0.09829740528948604,-12.216807518005373
20.21,3.2000000476837163,27.0,21.34996795654297,37.29381942749024,-79.78280048783839,40.45898194581781,268.1053069925308,0.018686488270759586,0.01848743110895157,0.9623972773551941,0.27037110924720764,0.007042485653473967,0.1951564325845173,2.086648214903613,-0.013533724471926693,-0.0214936975389719,-0.19797757267951965,0.595328414440155,0.4854388036206365,-12.437697783708575
20.4,3.2000000476837163,28.0,21.33369255065918,37.17454147338867,-79.78280046583241,40.45898175302053,268.574147233963,0.01989303156733513,0.0180622860789299,0.962984561920166,0.26821404695510864,-0.0107987031528804,0.1938040593465428,2.5857054376725177,-0.03549094870686531,0.11293698102235795,0.0922182723879814,0.5349110719934106,0.20615564770996567,-12.349225902557373
20.6,3.2000000476837163,28.0,21.53902816772461,33.58034133911133,-79.78280057091358,40.45898184202346,268.7299031114578,0.023038428276777267,0.0196857750415802,0.9628967046737672,0.26816368103027344,0.010948966434383069,0.19172491038299427,2.6906983881995155,-0.0070883454754948625,0.07710351794958115,0.03249789774417877,0.4177960202470422,0.008799643856473267,-11.841512167453766
20.7,3.0999999046325684,29.0,21.461400985717773,24.761823654174805,-79.78280063767478,40.45898179533781,269.18202126979827,0.02420393377542496,0.017355255782604218,0.9628512859344482,0.2683849930763245,0.03400673642319297,0.20572345135097408,2.8415254624293675,0.09484200179576874,0.04991960898041725,-0.02743048407137394,0.5495052837207913,0.11177186608314514,-11.42068688750267
20.9,3.299999952316284,31.0,20.934288024902344,31.55263900756836,-79.78280058228252,40.458981704815606,269.46864939689635,0.022210393100976944,0.016844533383846283,0.9629065990447998,0.26839134097099304,0.009068863337234155,0.19673749518643424,2.87912218550246,0.009410766884684564,-0.05403947085142136,-0.14396491646766665,0.5001765279471875,0.2018645588681102,-10.378598452806473
21.01,3.299999952316284,28.0,21.30364227294922,35.782981872558594,-79.78280050995768,40.458981604837774,269.75882793426507,0.02239365875720977,0.016987184062600136,0.96271550655365,0.26905182003974915,-0.02317953028370761,0.1921336541431176,2.9193436754614592,-0.00419653533026576,0.06484267115592958,-0.040482331067323685,0.4678344087302685,0.3440266339480877,-10.294661672115328
21.11,3.299999952316284,27.0,21.57909393310547,31.47312164306641,-79.78280054928004,40.45898158085247,270.2363216972351,0.027618216350674636,0.01961304806172848,0.9623326063156128,0.26975655555725103,-0.03156399076892172,0.18730403535611548,2.9822820496460585,-0.11462947726249695,0.034000959247350686,-0.05871019512414932,0.43019134998321534,0.22862514529377226,-10.480882626771928
21.31,3.5,26.0,21.61540412902832,30.908544540405273,-79.78280061779101,40.45898152698809,270.4903562164306,0.028228500857949257,0.018933845683932304,0.962258756160736,0.27000537514686584,-0.032363649864289856,0.20644836289200588,2.9909339058750244,-0.059347260743379586,-0.02456505037844181,-0.15429531037807465,0.5260695702955127,0.3981241229921579,-10.330070071220398
21.4,3.5,24.0,21.739356994628906,27.990243911743164,-79.78280048690674,40.45898141656803,270.79205037117003,0.02402447536587715,0.017337558791041374,0.9625173807144164,0.2695972323417664,-0.029185129110969626,0.20165828358695734,3.0407786735916966,0.16400694847106936,-0.07862664759159088,0.03573469817638397,0.5565428828448058,0.26046400196850306,-10.361068500280382
21.6,3.5,25.0,21.756885528564453,28.07771301269531,-79.78280012505918,40.458981042268206,271.7054660415649,0.01286178920418024,0.027399828657507896,0.9629158973693848,0.2680984437465668,-0.13287288667589198,0.19376797531637246,3.0294911538000173,0.03589452803134918,0.16731952130794525,-0.040031589567661285,0.5150982933863998,0.1215038987249136,-9.865333371162414
21.7,3.5999999046325684,24.0,21.71807098388672,28.98421669006348,-79.78279996512244,40.458980937230976,272.006775150299,0.015542932786047459,0.029883453622460362,0.96248060464859,0.2692520618438721,-0.15255989564991915,0.20239119633344327,2.9885061489615907,-0.11523768305778505,0.027205143123865128,-0.05771956965327262,0.3155836208537221,0.08274773111566902,-9.412855943441393
21.9,3.5999999046325684,23.0,21.82073974609375,27.00422477722168,-79.78279996424824,40.45898084764827,272.24948049545293,0.015490533784031868,0.03086823970079422,0.962010383605957,0.2708198130130768,-0.11818004205436328,0.19227143623481754,2.8892326298606585,0.14460793137550354,0.04109453037381172,0.017942987382411957,0.4832039977982641,0.2305126082338393,-9.466298909783363
22.01,3.5999999046325684,21.0,21.83325958251953,26.94061088562012,-79.78279964329009,40.45898058541246,272.94972873687743,0.007502315565943719,0.030639221891760826,0.9611667394638062,0.2741597294807434,-0.14132232648702214,0.173905746040107,2.8452184859936813,0.09257075190544127,-0.05511942878365517,0.04176244512200356,0.3408564928919077,0.06602955027949066,-9.341892964839936
22.21,3.5999999046325684,24.0,21.74812126159668,26.12952995300293,-79.78279947069994,40.45898053191183,273.23280168533324,0.003856234252452849,0.03194257244467735,0.9605861902236938,0.2761140465736389,-0.1515544356370369,0.1415040410686854,2.8091547795511542,0.11613883823156355,-0.015011623501777647,0.04504570364952088,0.4477907381951809,0.06179366280790419,-9.424429337382318
22.3,3.5999999046325684,23.0,21.815731048583984,27.823257446289066,-79.78279927628525,40.45898011080533,273.6538388824464,0.003494084347039461,0.03300011530518532,0.9598961472511292,0.2783852517604828,-0.1938536634682164,0.1654644857695205,2.859905727468228,-0.05050130560994148,-0.005043285433202982,0.0763431191444397,0.44868331566452985,0.05102520205546171,-9.343292788267137
22.51,3.5999999046325684,23.0,21.799455642700195,27.11554908752441,-79.78279894501586,40.458980012514466,274.217013130188,0.0011396922636777165,0.036110427230596535,0.95902019739151,0.28102484345436096,-0.1424168278574937,0.1401354851292888,2.770357937923885,0.077126145362854,0.007657324895262719,0.039651546627283096,0.4650483201071621,0.16136180967092514,-9.448488290905953
22.6,3.700000047683716,24.0,21.64795684814453,28.268556594848643,-79.78279841890328,40.45897964980679,274.88118053436284,0.007472938857972622,0.03160127252340317,0.9596675038337708,0.27925610542297363,-0.17659854239030626,0.1063752315297986,2.7843118615599693,-0.1970188021659851,0.01619296334683895,-0.01425015926361084,0.4124470604583621,-0.15871144954115154,-9.633005951642993
22.71,3.700000047683716,20.0,21.76815414428711,27.55289649963379,-79.78279792991037,40.45897928236547,275.26202417373656,0.01637670025229454,0.02873418852686882,0.9606213569641112,0.2758857011795044,-0.16351471815820992,0.10100244786187901,2.81358247840489,-0.20504547655582428,-0.03132189065217972,-0.08698511868715286,0.3372845384851098,0.23063481504097585,-9.513154987692834
23.0,3.700000047683716,16.0,21.725584030151367,28.1572322845459,-79.78279752669026,40.45897929881528,275.81867385864257,0.0055744461715221405,0.027520159259438515,0.9632668495178224,0.26707425713539124,-0.09978816007235483,0.05775927567671042,2.76662749155443,0.2192031741142273,-0.09140094369649887,-0.1704460382461548,0.4139510739594697,0.13364856563508512,-9.575573430061342
23.11,3.5,13.0,21.637939453125,29.175058364868164,-79.7827970472393,40.45897916855135,276.47272373199456,-0.014383113011717796,0.03176689147949219,0.9642009735107422,0.2628698945045471,-0.20771205613520072,0.02343934623038332,2.7810767694594865,0.08141997456550598,0.022419305518269542,0.03101089969277382,0.33778875119984153,0.06141359835863114,-9.592427444458007
23.3,3.5,8.0,21.626672744750977,30.407583236694336,-79.78279693900112,40.45897899833732,276.8511636352539,-0.016651181504130363,0.03390807658433913,0.9639735817909241,0.26330235600471497,-0.2384255332011692,0.029791155791474924,2.838146840745259,-0.045807428658008575,-0.04430360347032547,-0.05673938244581224,0.3106993319839239,-0.14001183461397887,-9.666799934506416
23.4,3.5,10.0,21.685518264770508,27.632413864135746,-79.78279676867021,40.458979060798534,277.13456130981444,-0.015329672954976559,0.03422266989946365,0.9635742902755736,0.26479896903038025,-0.21256532159599426,0.013777658052193132,2.8211307667657723,0.00400293106213212,0.05090285837650299,0.08699850738048552,0.3536385428532958,-0.12657235661521554,-9.699740223884582
23.5,3.4000000953674316,7.0,21.61289978027344,30.48710060119629,-79.78279658568042,40.45897884002361,277.804599533081,-0.008917436003685,0.029872843995690342,0.9631189107894896,0.2672640383243561,-0.12261039261417107,0.027946496460976158,2.872167088671908,-0.008244251832365991,-0.06532227993011475,0.00031300692353397613,0.4080198045819998,-0.1710015111230314,-9.649800909161568
23.7,3.4000000953674316,4.0,21.576589584350586,29.779394149780273,-79.78279650492367,40.45897897877761,278.45824600219726,-0.00805392675101757,0.02703901380300522,0.962996244430542,0.2680342495441437,-0.060968985086719524,0.006456783564293092,2.9167594524670863,0.02757168374955654,-0.05763425305485725,0.11170311272144318,0.3589315155521036,0.2310013989172876,-9.624752606749537
23.9,3.4000000953674316,359.0,21.577842712402344,30.69384765625,-79.78279644970569,40.45897910712864,278.7491176223755,-0.007008870132267475,0.02489706128835678,0.9626764059066772,0.2694164216518402,-0.02706666915897483,-0.014792418615773269,2.9021033163884256,0.0986250340938568,0.014428306370973587,0.18530696630477905,0.416701969653368,-0.3426119732111693,-9.683122437000275
24.0,3.4000000953674316,353.0,21.597875595092773,30.789268493652344,-79.78279640967078,40.458979251241615,279.0386340713501,-0.0064437766559422025,0.024070704355835915,0.9623007774353028,0.27084410190582275,-0.021917313101158558,-0.026371900727818587,2.9037871711131875,-0.10696516185998917,0.02896954119205475,-0.14004893600940704,0.2863283015973866,0.1253641117271036,-9.755829640030859
24.11,3.4000000953674316,351.0,21.58159828186035,30.821075439453125,-79.78279632549494,40.458979302157466,279.69147373199456,-0.005299627780914307,0.02542860619723797,0.9617719650268556,0.27261725068092346,0.01247759020160304,-0.013553176411503887,2.9837095971701606,0.052358321845531464,0.06486688554286958,-0.04710268974304199,0.44676254186779263,-0.05656632053665817,-9.886232489347456
24.2,3.299999952316284,350.0,21.669240951538086,27.751691818237305,-79.78279641998644,40.45897952508565,280.0096423721313,-0.007069586776196957,0.025263501331210136,0.9617658257484436,0.2726139724254608,0.0476088044263723,-0.006837709787610349,3.019251986964443,0.12427639216184615,-0.03062221966683865,0.03486127406358719,0.5062727984413505,-0.16733178030699492,-9.972324553728104
24.31,3.299999952316284,350.0,21.76439666748047,26.495309829711914,-79.78279645336372,40.458979691425405,280.311456451416,-0.00940107274800539,0.022756617516279217,0.9618418216705322,0.2724963128566742,0.04034040999238893,-0.002648232673759701,3.0272473822118933,-0.07239785045385361,-0.06682362407445908,-0.09594915807247162,0.3993598954752088,0.02223214174155146,-9.870692929029463
24.5,3.299999952316284,350.0,21.540281295776367,31.20276069641113,-79.7827966357028,40.45897998067685,280.9157416915893,-0.005775733385235071,0.02108881250023842,0.9620322585105896,0.2720586955547333,0.06940251304674945,-0.009176724048359966,3.0109753592223365,-0.05244545266032219,-0.012155985459685327,-0.05369889736175537,0.419091470874846,-0.09284538832493126,-9.757410727143288
24.7,3.299999952316284,350.0,21.500215530395508,31.28227806091309,-79.78279673066089,40.45898014255412,281.21769596099847,-0.002538542728871107,0.019984567537903786,0.9621381163597108,0.27181705832481384,0.0915247567208088,0.009606028034122222,3.044484174071958,-0.11293701082468033,-0.0008932902128435672,-0.04260702803730965,0.3794098900258541,0.06056978575419635,-10.006592745780944
24.8,3.299999952316284,349.0,21.536523818969727,29.707826614379893,-79.78279688480069,40.45898040065472,281.5203979110717,-0.0005281039630062878,0.01908993534743786,0.962319016456604,0.2712519466876984,0.14389586430453874,0.012830163460968866,3.077757363244835,0.07006597518920897,-0.03027096763253212,0.06242357194423676,0.5231624077633024,-0.31587945342063906,-10.157289526462556
25.0,3.4000000953674316,351.0,21.522750854492188,30.39963150024414,-79.78279759026573,40.45898075773829,282.43824745178216,0.0019578065257519484,0.025311224162578583,0.9631052613258362,0.2679252028465271,0.18515067171117933,0.07117983647274706,3.1124463045118254,0.08724186569452286,0.03978191316127777,0.0022339581046253447,0.3769026039540768,-0.0707331373449415,-9.999094276428226
25.11,3.4000000953674316,349.0,21.642948150634766,28.04590606689453,-79.78279775495834,40.45898089892083,282.75023723602294,0.0015572828706353905,0.024017157033085827,0.9631910920143129,0.2677381634712219,0.16228879830137116,0.09313679789712023,3.1259096806399573,-0.057934757322072976,0.012355480343103407,-0.025593765079975128,0.4529834311455488,0.024133770475164056,-9.913571730852127
25.21,3.4000000953674316,347.0,21.629175186157227,29.09554100036621,-79.78279816135338,40.45898109738726,283.048875579834,0.002980418736115098,0.02302326448261737,0.9630537629127502,0.2683068811893463,0.1972611921062016,0.08082597648637208,3.085621150075288,-0.0009141815826296806,-0.009720155969262123,0.11688228696584704,0.3259098036959768,-0.33194789439439776,-9.683961512446405
25.4,3.4000000953674316,340.0,21.619159698486328,27.886871337890625,-79.78279849589308,40.45898140123765,283.66065002441405,0.005287992767989636,0.024369120597839355,0.9622370004653932,0.2710685431957245,0.16647256941414806,0.07323788253632589,3.0343058633706637,-0.0816522091627121,0.02004515938460827,-0.08310256898403168,0.42160390980541707,0.10186509305611254,-9.528524978756906
25.6,3.4000000953674316,339.0,21.55906105041504,29.26252746582031,-79.78279881264788,40.458981813229656,284.26790405273437,0.0012406110763549805,0.020230047404766083,0.961661159992218,0.27349069714546204,0.1697406183931998,0.0369647856366981,2.9642720197339925,0.12395782023668288,0.015472483821213244,0.11463722586631775,0.28192204087972644,-0.13701393974013626,-9.431045461893085
25.8,3.5,337.0,21.47642517089844,31.07553291320801,-79.78279898611153,40.45898186572301,284.57811904907226,0.0006449440843425691,0.015589039772748947,0.961405336856842,0.27469345927238464,0.12759732956881525,0.03682942804170637,2.9528818521149556,-0.07986251264810562,-0.12125172466039658,0.1232602521777153,0.37026860889047386,-0.3970084011554718,-9.424708834290504
25.9,3.5999999046325684,337.0,21.401302337646484,32.85673141479492,-79.78279908828135,40.45898199224044,284.8719384765625,-0.0005159878055565058,0.01145077496767044,0.961282193660736,0.2753273844718933,0.11755912846303025,0.024700741346353576,2.932699430836865,-0.0029159258119761944,-0.10641838610172273,-0.05610773712396622,0.488179649412632,-0.10243848564103246,-9.614759130477903
26.01,3.5999999046325684,338.0,21.560312271118164,30.272403717041016,-79.78279946636253,40.45898224001772,285.4815747833252,-0.003629442071542144,0.013505962677299976,0.9615398049354552,0.2743094861507416,0.11113068539933674,0.03625742520219663,3.012544830319541,0.09018483757972716,0.05944596976041794,0.01823203824460506,0.4586417451873422,-0.3016889371164143,-10.026190273761747
26.2,3.5999999046325684,338.0,21.54904556274414,29.397708892822266,-79.78279959125511,40.45898231273349,285.78375411987304,-0.0037359243724495173,0.017926905304193497,0.9618178009986876,0.27307751774787903,0.0811384078474973,0.0688371688019355,3.0332673513931625,-0.07152701914310455,0.0906386449933052,-0.04391426965594292,0.4145865201205015,-0.21989391842857006,-10.005829099416733
26.3,3.700000047683716,337.0,21.56532096862793,29.80324935913086,-79.78279973243983,40.458982406227314,286.0912015533446,-0.001947779906913638,0.02163582481443882,0.9620848894119264,0.271884024143219,0.06492896279647398,0.098826199826355,3.062602489901477,-0.07067698240280151,0.008212593384087086,-0.11059406399726868,0.44086474779993295,-0.1369632608257234,-10.019543159008027
26.5,3.5999999046325684,336.0,21.455141067504886,32.40348052978516,-79.78279997150247,40.45898251032203,286.7043817138672,0.003938762005418539,0.025881201028823853,0.9626298546791076,0.2695525586605072,0.08434598554623582,0.1435956447606334,3.0564489267618846,0.033551398664712906,0.03849464654922485,0.07823387533426285,0.4136096331104636,-0.2893805664405227,-9.783374118804932
26.6,3.5999999046325684,334.0,21.461400985717773,29.914573669433594,-79.78279992368276,40.45898263855887,287.00479293823236,0.0048919757828116426,0.026979755610227585,0.9627019166946412,0.2691713273525238,0.06915705446263581,0.1263209456603005,3.0263835144176605,0.06395326554775238,0.0034697777591645718,0.07729778438806534,0.4794944510981441,-0.3805423129722476,-9.6736142796278
26.81,3.5999999046325684,333.0,21.566574096679688,29.175058364868164,-79.78280026140142,40.45898275363118,287.61973739624017,0.00395893631502986,0.02060224860906601,0.9624979496002196,0.2704765200614929,0.06294909660619273,0.14081529421546393,3.04907712170678,0.006372986827045679,-0.12275436520576476,-0.07605906575918198,0.5189175850152971,-0.11924694657325745,-9.825975762605669
26.9,3.5999999046325684,337.0,21.490198135375977,30.240596771240234,-79.7828003772285,40.45898283609521,288.22794700622563,0.0012786806328222153,0.01884755678474903,0.9624764919281006,0.2707069516181946,0.032089851145036555,0.10342802728360248,3.0361067803051127,-0.07147848606109619,-0.01002814993262291,-0.043571796268224716,0.4030854854732752,-0.19220689550042155,-9.775510783195495
27.1,3.5999999046325684,339.0,21.6091423034668,27.87891960144043,-79.78280058278523,40.4589828068271,288.52920700073236,0.0016073202714323993,0.01935594715178013,0.96235990524292,0.27108368277549744,0.02394225051446033,0.12862814105350834,3.0314869870789285,-0.06443589925765991,-0.07339637726545334,-0.01136122178286314,0.43515380881726745,-0.10967319075018167,-9.724785017967225
27.2,3.5999999046325684,342.0,21.39629364013672,32.268299102783196,-79.78280064532885,40.45898281973329,288.8316438293457,0.001127170049585402,0.020510107278823853,0.9622769355773926,0.2712956666946411,0.03946267128955784,0.12969055967895438,3.0092780358517803,0.13051220774650574,0.0644722506403923,0.07068626582622528,0.4476611127331853,-0.1241088150255382,-9.620286503434182
27.4,3.5,342.0,21.53026390075684,27.3620548248291,-79.78280084398007,40.458982862144865,289.73758865356444,0.004298821557313204,0.02147926762700081,0.962029755115509,0.2720643281936645,0.022717500243461305,0.1378094389007298,3.0177517329813672,0.12026263028383255,0.026671569794416428,0.11945443600416185,0.4250085972994566,-0.1513262060377747,-9.84616035103798
27.5,3.5,341.0,21.457645416259766,31.918420791625977,-79.7828009918608,40.458982894124865,290.03554512023925,0.004242010880261661,0.02133994735777378,0.961984157562256,0.2722372114658356,0.022929842636299547,0.1409492705742821,2.9991196907823268,-0.050298940390348434,0.038436338305473335,-0.11469832807779312,0.4042251078039408,-0.01385646213311702,-9.638543849587439
27.7,3.5,342.0,21.596622467041016,28.594579696655273,-79.7828010313895,40.458982900969744,290.3359906768799,0.004203029442578554,0.020828660577535636,0.9620214104652404,0.2721458971500397,0.009762737791073691,0.14143161284314626,3.0060530319720145,-0.07978170365095139,-0.0622590072453022,-0.036448542028665536,0.4358384081348777,-0.04303515545558185,-9.827169764041901
27.8,3.4000000953674316,342.0,21.4426212310791,31.4810733795166,-79.78280115739649,40.458982878672366,290.9353120422363,0.005662138108164072,0.019504677504301068,0.9624450206756592,0.2707160711288452,0.0028904282460924906,0.1398264036527336,3.008768214351785,-0.08589472621679306,0.006154575385153294,-0.04897093027830124,0.3503742250800133,-0.10980195740237833,-9.76017587542534
28.0,3.4000000953674316,342.0,21.41632652282715,31.194808959960927,-79.78280117375127,40.45898287258675,291.2366502380371,0.005161710549145937,0.020225271582603455,0.9625255465507508,0.2703866958618164,0.004522490902190136,0.13548572874784742,3.0140969650842284,-0.015520570799708366,-0.036147724837064736,-0.13447852432727814,0.3928763565793634,-0.019502451340667904,-9.813673220872882
28.1,3.4000000953674316,341.0,21.5452880859375,28.554821014404297,-79.78280133001999,40.458982862663376,291.5390832519531,0.004667016677558422,0.020592020824551586,0.962526559829712,0.2703641951084137,-0.0044327285425564905,0.14665402975253194,3.0263630685666385,-0.062492895871400826,0.02565998025238514,-0.049820363521575935,0.3832115303725005,0.10303220643661916,-9.842550280094148
28.3,3.5,343.0,21.334943771362305,34.20058059692383,-79.78280141859034,40.45898282585944,292.43708396911614,0.003271236550062895,0.02162233367562294,0.9625346660614014,0.2702755331993103,-0.00915593372644266,0.1473042951926464,2.9920478799109094,0.04127975553274155,-0.10063407570123672,0.01333895232528448,0.42456764414906506,0.03944783840328455,-9.634203461408617
28.5,3.5,342.0,21.56907844543457,27.71988296508789,-79.78280140863365,40.458982816608774,292.737840423584,0.0004017728206235915,0.019831515848636627,0.9624949097633362,0.2705736756324768,-0.034877021437295035,0.1283531993641054,3.016189259531977,-0.01990381069481373,-0.02902116440236568,0.004074998199939728,0.387057938463986,-0.14384727917611598,-9.980198414325717
28.6,3.4000000953674316,346.0,21.554052352905273,28.24470138549805,-79.78280144649342,40.45898282919076,293.03633476257323,0.00046906963689252734,0.01899081468582153,0.9624770283699036,0.2706976532936096,-0.05715179830801185,0.10919046795489096,3.027376609898776,-0.10194822400808334,-0.06392819434404373,-0.04767371714115143,0.3337956876307726,-0.03771792366402224,-9.827278522253037
28.7,3.4000000953674316,346.0,21.477678298950195,30.733606338500977,-79.78280139089458,40.458982828005034,293.6364915466308,0.003027727361768484,0.022977301850914955,0.9624235033988952,0.2705623209476471,-0.047512395604911065,0.10183166593193124,2.9757888750257484,-0.02043282054364681,0.10941513627767564,0.05502699315547943,0.3892016373574734,-0.1239054598286748,-9.606253185868264
28.9,3.4000000953674316,346.0,21.443872451782227,29.707826614379893,-79.78280144904879,40.45898277558918,293.9312188720703,0.004179696086794138,0.024067701771855358,0.9624032974243164,0.2705238163471222,-0.038462834306167176,0.1276118785163269,2.9771065622896145,0.011004065163433552,-0.05252993851900101,0.07217700034379959,0.4391397460922599,-0.2949548633024097,-9.75372288823128
29.0,3.4000000953674316,348.0,21.49270248413086,29.898670196533203,-79.7828014180417,40.45898277354624,294.2292687988281,0.003827506443485617,0.02369657531380653,0.9623546004295348,0.2707353234291077,-0.047460099630334526,0.12574418074840354,2.9796058171374056,-0.05906391888856888,-0.016378626227378845,-0.05615830048918724,0.405824796371162,0.013438420474994928,-9.841686061620713
29.2,3.4000000953674316,348.0,21.50522232055664,29.874814987182607,-79.78280140170203,40.45898273661468,294.82623268127435,0.002688353881239891,0.021484872326254845,0.9624109268188475,0.2707332968711853,-0.03021076505839035,0.11303703598414673,2.9856780373531717,0.12147201597690582,-0.012370808981359005,0.06485201418399811,0.4487326880916953,-0.13454002847895027,-9.775075165629387
29.3,3.4000000953674316,349.0,21.42634391784668,32.23649215698242,-79.78280142829985,40.45898270272714,295.42153144836425,0.0027168116066604853,0.02035047486424446,0.9623936414718628,0.2708817720413208,-0.03749531980359881,0.10647119856517626,3.0034198338048794,-0.042278651148080826,-0.05988944694399834,-0.00654529919847846,0.3483124237507582,-0.18622563242912293,-9.868923561573027
29.51,3.4000000953674316,349.0,21.272340774536133,33.53263092041016,-79.78280139589367,40.45898270946414,295.7231996154785,0.003534425282850861,0.021517759189009663,0.962253749370575,0.2712790668010712,-0.04419242499359628,0.0990677722852961,3.026477660750692,-0.05272965505719185,0.044642351567745216,-0.07693436741828917,0.3856403906643391,0.05999416848644615,-9.996747204065324
29.6,3.299999952316284,350.0,21.410066604614254,30.98806381225586,-79.78280150878554,40.45898276126403,296.02634216308587,0.004892687778919935,0.02199051342904568,0.96212500333786,0.2716764509677887,-0.027979686292381442,0.11010688657393083,3.0699632415397726,-0.09263698011636734,-0.04450484737753868,-0.019857162609696388,0.3681942725926638,0.05223870486952365,-10.141097416877749
29.8,3.299999952316284,349.0,21.493953704833984,28.95240974426269,-79.78280131686041,40.45898268481356,296.9493768310547,0.006081435363739729,0.021161461248993874,0.96176677942276,0.2729836106300354,-0.05611953466128699,0.0976929824867992,3.1643713836779637,-0.016839483752846718,0.06528373807668686,0.03583194315433502,0.4356726030260325,-0.0013846206665039064,-10.238457065820695
30.0,3.299999952316284,348.0,21.38001823425293,30.75746154785156,-79.7828012358454,40.45898269100599,297.26627708435063,0.006723304279148579,0.021975953131914142,0.9616161584854126,0.27343419194221497,-0.05017747650175359,0.09311378310613626,3.1616564990767784,0.05241646617650986,0.014084757305681704,0.08953898400068283,0.3413014294579625,-0.25531843392178416,-9.805771878361703
30.1,3.2000000476837163,347.0,21.646705627441406,26.11362648010254,-79.78280126273928,40.45898269391729,297.56552291870116,0.005461116321384907,0.02321938425302505,0.9614344239234924,0.2739979028701782,-0.04652885164137312,0.0922434709011606,3.1269100632640296,0.0879625454545021,-0.019002942368388176,0.0024518580175936213,0.3867757737636566,-0.21651574440300467,-9.75326622068882
30.2,3.2000000476837163,347.0,21.376262664794922,31.13914680480957,-79.78280109217691,40.45898270997204,298.18617225646966,-0.0014001771342009304,0.023171640932559967,0.9613938331604004,0.2741953134536743,-0.07449762599091626,0.07436073642605193,3.0988217386422345,0.1127958819270134,-0.02532358840107917,0.06087621673941612,0.3418240974470973,-0.13543823389336468,-9.700148359537128
30.3,3.2000000476837163,350.0,21.45889663696289,29.898670196533203,-79.78280099596594,40.458982742085155,298.4963166809082,-0.003858368610963226,0.021537324413657192,0.9616203308105468,0.2735097408294678,-0.08151912630169747,0.058940165178069076,3.1005222395744085,0.11382097005844115,-0.016787141561508182,0.1370888352394104,0.4129623828828335,-0.3329817552119494,-9.826870386600495
30.5,3.0999999046325684,349.0,21.477678298950195,29.49312973022461,-79.7828009056532,40.45898277974525,298.8065278625488,-0.00387760391458869,0.01970282196998596,0.9617438912391664,0.27321359515190125,-0.11192146868202113,0.048011287477271805,3.0984301212019885,-0.15810184180736542,-0.06585748493671417,-0.06549060344696045,0.2997710138373077,0.02635851725935936,-9.718054288029672
30.71,3.0999999046325684,347.0,21.56532096862793,27.32229423522949,-79.78280093949327,40.45898271593715,299.42652679443364,0.002179194707423449,0.01754818670451641,0.9615101218223572,0.27420029044151306,-0.04636041433625265,0.05262742693210851,3.0799625928493617,0.005349434446543454,0.04401509463787079,0.08452876657247542,0.3719944876804948,-0.1984713099896908,-9.720821775197985
30.8,3.0999999046325684,343.0,21.468914031982425,29.175058364868164,-79.7828009022217,40.458982667364424,299.74032760620116,0.002490015001967549,0.016889393329620358,0.9614588618278505,0.27441850304603577,-0.05482836528050574,0.06718802457865773,3.0911736345783263,-0.1499882936477661,-0.056164152920246124,-0.14763742685317993,0.27449373811483385,0.18591938450932505,-9.68738271832466
30.91,3.0999999046325684,344.0,21.58535385131836,27.44157218933105,-79.78280080454961,40.45898270727733,300.357282409668,-0.0004946357221342623,0.01635635830461979,0.9618179202079772,0.2732005715370178,-0.029179223997840058,0.06388255761233454,3.082746763857497,0.12633773684501648,0.003300707321614027,0.13139285147190094,0.4174151837825775,-0.3174706635251641,-9.81671026468277
31.1,3.0999999046325684,344.0,21.480182647705078,29.78734588623047,-79.78280076945967,40.458982697591736,300.9780099487305,-0.00033060400164686143,0.01993909850716591,0.9622068405151368,0.2715884745121002,-0.055602280573950204,0.08012092333804025,3.0704141778991483,0.0069052609615027905,0.06346249580383301,0.0017840113723650575,0.3916545443236828,-0.20781989319249988,-9.711488449573515
31.3,3.0999999046325684,344.0,21.50397109985352,29.07963752746582,-79.78280081955822,40.458982620900656,301.29019332885736,0.0012202782090753315,0.02005674690008164,0.9624451994895936,0.27073153853416443,-0.04303205574813804,0.11315514902798753,3.0936650048533187,-0.02629250660538673,-0.056744392961263664,-0.0348220095038414,0.4942752255499363,-0.2413075185008347,-9.861257861852646
31.41,3.0999999046325684,342.0,21.52901268005371,27.77554702758789,-79.78280079993262,40.45898262058329,301.5998056030273,0.0033135274425148964,0.0196580421179533,0.9625121951103208,0.27050480246543884,-0.04970868292788545,0.11137310340441207,3.093287558507439,-0.07387962192296982,0.05796996876597405,-0.10438181459903716,0.3460763388499617,0.04173206233419478,-9.767512376904488
31.6,3.0,344.0,21.491451263427734,29.81915283203125,-79.78280072608295,40.45898255362504,302.5317628479004,0.002625405555590987,0.02288741059601307,0.9621917009353638,0.27139732241630554,-0.04695537865411481,0.11439635180745544,3.0634159568802737,0.028526889160275463,-0.04755942896008492,-0.04537321999669075,0.3479932388663292,-0.2722406049259007,-9.647653226852418
31.7,3.0,343.0,21.451385498046875,29.69987487792969,-79.78280073146767,40.458982485877186,302.8434884643554,0.002343078376725316,0.023833531886339188,0.962031364440918,0.2718862593173981,-0.06100983869870881,0.11620923483622562,3.0655543119630337,0.06326160579919815,0.021813416853547096,0.08215268701314926,0.4091205429285765,-0.09980887399055063,-9.697812396883963
31.9,3.0,340.0,21.475173950195312,29.365901947021484,-79.78280067577985,40.45898248538645,303.15035415649413,0.0018218080513179304,0.024170495569705963,0.9619606137275696,0.2721108496189117,-0.06421850461781645,0.11684685264020007,3.061913288984096,0.051376599818468094,0.06614235043525696,-0.03230173513293266,0.3873799373209477,-0.02238661330193281,-9.711629367470742
32.0,3.0,335.0,21.557809829711914,27.44157218933105,-79.78280067400185,40.458982408801106,303.7729318237305,-0.0005001995014026762,0.023568823933601383,0.9620048999786376,0.2720127999782562,-0.06814956449034716,0.10639362958815364,3.0806725785067277,0.02294290810823441,-0.07934374362230301,-0.04292012751102448,0.3795652432367206,-0.16910739697515964,-9.792115706205367
32.2,3.0,336.0,21.4426212310791,29.827104568481445,-79.78280061120746,40.458982424984015,304.08057952880864,-0.0028040525503456593,0.02056227624416352,0.9618775844573976,0.2726920545101166,-0.0879754504430345,0.09192380805119042,3.069823663308831,-0.018929887562990192,-0.08792548626661299,-0.003192612435668707,0.3588442093133927,-0.029590127170085908,-9.725277353525165
32.3,3.0,336.0,21.51774406433105,28.45939826965332,-79.78280080867609,40.458982413942685,304.4013116455078,-0.005933181848376989,0.016986366361379623,0.9616320729255676,0.2737516760826111,-0.06431493457861337,0.0889087487765039,3.0742394220544296,0.0126439668238163,-0.05967411026358605,-0.02563948929309845,0.2548121564090252,0.02921117277815938,-9.779680432677267
32.5,3.0,335.0,21.522750854492188,28.332170486450195,-79.78280077580783,40.458982453872096,305.0191094970703,-0.008305337280035019,0.013737492263317108,0.9611132740974426,0.27568766474723816,-0.07519293688196045,0.05343540640294568,3.1024291151899432,-0.09613418579101562,0.00047220414853654807,-0.0728810578584671,0.2741977593675256,-0.08352106193080545,-9.93783767580986
32.6,3.0,336.0,21.483938217163086,28.46735000610352,-79.78280104698558,40.4589823095526,305.3428781127929,-0.0061657358892261965,0.014382010325789453,0.9609783291816713,0.27618077397346497,-0.04919487559854933,0.08658418884562878,3.1316107052899187,-0.10257454216480257,0.0007788738003000617,-0.038715846836566925,0.19175777452066545,0.01304331543389708,-9.868715400695804
32.8,3.0,334.0,21.46515655517578,29.26252746582031,-79.78280098066561,40.458982245644656,305.9813020324707,-0.0018688529962673785,0.019832942634820938,0.9609934091567992,0.27585312724113464,-0.03534135719191178,0.09938715230560252,3.1191705099028253,-0.09030256420373917,0.08493732661008835,-0.08087464421987534,0.3385545537248254,0.0976595014706254,-9.748039979338646
32.9,3.0,334.0,21.427595138549805,30.137222290039066,-79.78280104314923,40.458982263674585,306.60434509277337,-0.0011561281280592086,0.020089099183678627,0.9608712196350098,0.2762637436389923,-0.0008710929562503468,0.1214220759852585,3.1047713278674083,0.09545969218015672,0.058994438499212265,0.08363781124353409,0.370820293687284,-0.2502051717415452,-9.777988833189012
33.1,2.9000000953674316,334.0,21.50522232055664,28.13337707519531,-79.78280095240176,40.458982169850046,306.92598510742187,-5.514465738087893e-05,0.018743434920907017,0.9607887864112854,0.2766474187374115,-0.03950605985301063,0.11109171527927267,3.1352104282652222,-0.15910880267620087,-0.06430680304765701,-0.09474391490221024,0.2583771672472358,-0.051434922851622114,-9.933517752885821
33.21,3.0,333.0,21.48268699645996,29.1193962097168,-79.78280095750918,40.45898218380255,307.2403695678712,0.0019844037014991045,0.01800910383462906,0.9605523347854614,0.2775087356567383,-0.03198173796759632,0.09859730848251147,3.144155349493281,-0.0605575367808342,0.018939942121505737,0.019147822633385655,0.3210055612027645,-0.008528794432058931,-9.899315049648283
33.4,3.0,334.0,21.471418380737305,29.04783058166504,-79.78280089034865,40.45898214322492,307.8690087890625,0.0007478875922970474,0.01866547390818596,0.9608085751533508,0.2765827476978302,-0.013744433235717198,0.09980260941298652,3.1304798140390373,0.025770287960767743,-0.07533319294452667,-0.06402579694986342,0.4116046959534288,-0.15031125730834902,-9.846393070220948
33.5,3.0,339.0,21.55280113220215,28.8887939453125,-79.7828009516663,40.45898212859388,308.5022256469726,-0.0017989946063607933,0.02000945806503296,0.9616686105728148,0.2734772861003876,-0.019280711023903004,0.09474507743658453,3.1474187353311582,0.013185461051762104,0.0032975557260215282,0.02719822339713573,0.31086517363786703,-0.29227409765124324,-9.83625282883644
33.7,3.0,340.0,21.48644256591797,28.76156616210937,-79.78280095976544,40.458982155010005,308.81712509155267,-0.0017429940635338426,0.02204096131026745,0.9618435502052308,0.27270546555519104,-0.02690076382269657,0.09657437439749728,3.1495360280493694,-0.033421896398067474,-0.01849719882011414,-0.07294265180826187,0.4279421088472009,0.0020612988341599703,-9.835980348587038
33.8,2.9000000953674316,346.0,21.294878005981445,30.94035148620605,-79.78280081514579,40.458982083788726,309.1373384094238,0.00010514791210880504,0.02230388484895229,0.9618097543716432,0.2728087604045868,-0.05349930155100367,0.09506478443232293,3.147572034529041,-0.06066033244132996,0.07988631725311279,-0.05098599568009377,0.36444131031632426,0.023721569180488587,-9.783030887246133
34.0,2.9000000953674316,344.0,21.50522232055664,28.69795227050781,-79.7828007593595,40.458982141957065,309.7705819702148,0.003069418715313077,0.020829452201724042,0.9618772864341736,0.2726699411869049,-0.018848309857058224,0.08935780402610984,3.178255392388835,0.033199042081832886,-0.0685238316655159,-0.02624598890542984,0.3918081068247557,0.012809940723236652,-9.917903348207474
34.1,2.9000000953674316,348.0,21.433856964111328,29.35795021057129,-79.78280058455934,40.45898214441915,310.0966508483886,0.0006776129011996089,0.02051852084696293,0.9619693160057068,0.2723851799964905,-0.03428520468684301,0.07028501112082225,3.1760149005946987,0.04821678623557092,0.07141003012657167,-0.024775231257081032,0.3871166664361954,0.11477464886382226,-9.798336558938027
34.3,2.9000000953674316,349.0,21.481433868408203,28.92060089111328,-79.78280043793194,40.458982147897494,310.7421281433105,0.0014703602064400911,0.01884712092578411,0.9621985554695128,0.2716921865940094,-0.05199950656898876,0.058673300645918726,3.202336455197648,0.0696745365858078,0.03779176995158196,-0.041527055203914635,0.4360586654394865,-0.07127818007022142,-9.921054997444154
34.4,2.9000000953674316,353.0,21.584102630615234,26.320371627807607,-79.7828003209747,40.45898221311226,311.38250900268554,0.004835468716919422,0.02013932727277279,0.9622325301170348,0.2714397609233856,-0.050331640355547234,0.07134565408956775,3.192732851128648,-0.14041408896446228,-0.0005749138654209672,-0.10941367596387863,0.3901590458303689,0.2144048995524645,-9.67897149860859
34.6,2.9000000953674316,351.0,21.4426212310791,28.610483169555664,-79.78280049421542,40.45898220799893,311.7066590881348,0.005204566288739443,0.020997265353798863,0.9623137116432192,0.2710801661014557,0.00871506035331727,0.10064532855349008,3.166688248470391,0.04309612885117532,0.015048540197312832,0.05994967371225358,0.4173805755749345,-0.20103293862193825,-9.632161028981207
34.71,2.9000000953674316,354.0,21.58660697937012,26.84518814086914,-79.78280047722777,40.45898223390204,312.0231568908692,0.005395093932747841,0.02141445316374302,0.962441623210907,0.2705892026424408,-0.003975333947754919,0.10576168449638773,3.1638735739677726,-0.023388059809803963,-0.07304348796606064,-0.0034614608157426123,0.4246769505366683,-0.06464529963210225,-9.75761713385582
34.9,2.9000000953674316,356.0,21.497711181640625,28.849035263061523,-79.78280077272453,40.45898216646511,312.6528680419922,0.0018539679003879426,0.02038506045937538,0.9624781608581544,0.270586371421814,0.02789142152794467,0.12432887557094227,3.1092909946392453,0.008742161095142366,-0.023851975798606883,-0.04978356510400772,0.4996621191501618,-0.03995470063760877,-9.530858017802238
35.0,2.9000000953674316,357.0,21.521499633789066,28.22084617614746,-79.7828009393389,40.458982202466935,313.2765138244629,0.00516789685934782,0.01939050853252411,0.9618291258811952,0.27291423082351685,0.017281208956010197,0.11029581137517314,3.0734224551898777,-0.15238849818706512,-0.014378829859197141,-0.06321544945240021,0.3433584433794022,0.056228895080275836,-9.59411495089531
35.2,2.9000000953674316,358.0,21.48894691467285,28.14132881164551,-79.78280097913112,40.4589822328795,313.5832727050781,0.007772170938551427,0.020055726170539856,0.9614746570587158,0.274050772190094,0.039919399790916084,0.11108273535590713,3.0563878964082782,-0.02940231002867222,0.103322334587574,-0.009865251369774342,0.3877236439660192,0.16027952659875155,-9.612435446977617
35.3,2.9000000953674316,0.0,21.427595138549805,29.98613929748535,-79.78280120128225,40.458982224716394,314.20834899902337,0.007917669601738453,0.023259462788701057,0.9611071944236756,0.27508074045181274,0.058715989638478926,0.1371709394129033,3.0432860232026324,0.06531265377998352,0.011070636101067066,0.01905557513237,0.4021868780627847,-0.04211439714767039,-9.658596875667572
35.5,2.9000000953674316,359.0,21.4138240814209,29.055782318115234,-79.78280124176383,40.45898224938795,314.5124604797363,0.006527434568852186,0.023707620799541473,0.9611198902130128,0.2750346958637237,0.05785806649249357,0.13974580064952208,3.0282996643118025,0.11779993772506715,-0.013232954777777195,0.07547871768474579,0.4556340105459094,-0.2185807251557708,-9.616844247579575
35.6,3.0,358.0,21.45889663696289,28.67409706115723,-79.78280132375534,40.458982225803545,314.8253915405273,0.0045732962898910046,0.022728582844138145,0.9611093997955322,0.2751934230327606,0.01914595841180789,0.1391104622623325,3.03188316050378,-0.06250825524330139,-0.04606024920940399,-0.03550683334469795,0.4365220938250423,0.21251807615160945,-9.671494663953784
35.81,3.0,1.0,21.363740921020508,29.683971405029297,-79.78280146905146,40.45898217518661,315.4391648864746,0.00257218349725008,0.019990535452961918,0.9613505005836488,0.27458882331848145,0.03394777985663941,0.12398333385432868,3.031359408806704,0.024415137246251103,-0.06423129141330719,-0.06373351812362671,0.4417224977910519,-0.14864873858168726,-9.7338674980402
35.9,3.0,3.0,21.50522232055664,28.713855743408203,-79.78280151012234,40.45898219874853,315.7421586608886,0.0017071635229513053,0.02002360299229622,0.9614354968070984,0.2742956280708313,0.031137758794523573,0.11406775540977696,3.0280844216588667,0.09572320431470872,0.10067421197891237,-0.014377398416399956,0.3693788819387555,-0.013959112744778396,-9.78997737944126
36.1,3.0,3.0,21.461400985717773,29.556743621826172,-79.78280163321519,40.458982208775225,316.34889007568364,0.002874914091080427,0.02155048958957196,0.9615059494972228,0.27392300963401794,0.016483181592551032,0.11805504946193575,3.014361045192545,-0.058754190802574165,-0.04509054124355316,0.0056081493385136145,0.39548637092113503,-0.056192313437350094,-9.708387086391447
36.2,3.0,358.0,21.410066604614254,29.739633560180664,-79.78280179306651,40.458982226271075,316.950372467041,0.005487740971148014,0.02147614024579525,0.9615510106086732,0.2737303972244263,0.031128330465326263,0.12997745590339854,2.99318431920568,-0.1043105125427246,-0.014911170117557047,-0.1335001140832901,0.4194829785078764,0.2380629533529281,-9.693350971341133
36.4,3.0,358.0,21.566574096679688,27.10759735107422,-79.78280184293294,40.45898225474907,317.25040603637694,0.004557821433991194,0.020737862214446068,0.9616703987121582,0.2733849883079529,0.04856523183163506,0.12706325185220418,3.006767805844061,0.026639223098754883,-0.0271314550191164,0.07944456487894057,0.3963294663280249,-0.06039028080180287,-9.919738204479216
36.5,3.0,358.0,21.515239715576172,27.163259506225586,-79.78280189086378,40.45898228390593,317.55167556762694,0.003689877223223448,0.02034753933548928,0.961816132068634,0.2729141116142273,0.061995933599059735,0.1187758241771718,3.004722875932055,0.15112653374671936,0.039005205035209656,0.12246839702129365,0.4978399074822665,-0.2556598016805947,-9.817095011472704
36.7,3.0,359.0,21.272340774536133,32.125167846679695,-79.78280210429715,40.4589822838952,318.44745040893554,0.004677727818489075,0.020386036485433585,0.961780607700348,0.2730215787887573,0.025909472951328786,0.11772436281575868,2.966631099940083,-0.10885122418403624,-0.03138572350144386,-0.09495147317647934,0.4066709250211716,0.039106178283691416,-9.579268285632132
36.8,3.0,1.0,21.410066604614254,29.206865310668945,-79.78280214461714,40.458982312546965,318.74521041870116,0.005658908281475306,0.020878981798887253,0.9615864753723145,0.273648738861084,0.041587195956222685,0.11543474940846896,2.9835135125840324,0.05855303630232811,0.011055455543100834,-0.016152063384652138,0.5027508377283811,0.03721680586226285,-9.927140779495241
37.0,3.0999999046325684,358.0,21.39629364013672,30.121318817138672,-79.78280218477354,40.45898234098711,319.0444619750976,0.005123230163007975,0.02139191329479217,0.9614537954330444,0.2740855813026428,0.043513063551987086,0.12078964818927355,2.995824789408505,0.05313481017947197,0.07811575382947923,-0.08798789978027344,0.4394359441101551,0.12407011376693845,-9.920562661886217
37.1,3.0999999046325684,359.0,21.48268699645996,27.24277687072754,-79.78280229943346,40.458982321581715,319.3436486816406,0.004157811403274536,0.02195549942553044,0.9613725543022156,0.2743421792984009,0.03868755768980603,0.12689125667329765,3.0072909167015918,-0.030628005042672164,-0.026050828397274017,0.0169335026293993,0.41861258391290906,-0.2026731191575528,-9.952524712085726
37.31,3.0999999046325684,0.0,21.491451263427734,27.89482307434082,-79.78280240334009,40.458982356226244,319.93934417724614,0.005016875918954611,0.021730987355113036,0.9611642360687256,0.2750746011734009,0.03647137131441787,0.12740992112441504,2.9895658991659038,-0.02430240996181965,0.05428453162312508,-0.026167133823037148,0.4127535276487471,0.043750000409781935,-9.765802651047707
37.4,3.0999999046325684,3.0,21.401302337646484,29.89071846008301,-79.78280244302874,40.458982387152965,320.2378709411621,0.0065838126465678215,0.020818380638957024,0.961178719997406,0.27506136894226074,0.036103753222609385,0.12310248092647512,2.9764938020626466,-0.0847657322883606,-0.1173846796154976,-0.0441570058465004,0.31539998173713685,-0.12004432406276465,-9.656259158849718
37.6,3.0999999046325684,3.0,21.42634391784668,28.05385780334473,-79.78280264820293,40.45898241278286,320.8278367614746,0.00818567257374525,0.019352272152900696,0.9611259698867798,0.27530983090400696,0.06244189912915672,0.11937968372220245,2.96072139290534,-0.0426427498459816,0.01898506097495556,0.02077056281268597,0.4367707832157612,-0.025063231084495784,-9.790406565070152
37.7,3.0999999046325684,4.0,21.48894691467285,28.11747169494629,-79.78280277907851,40.45898245686861,321.4210565185547,0.005673455540090799,0.019568599760532386,0.9610429406166076,0.2756474614143372,0.07656544804316259,0.10191874117031673,2.9560829206650974,0.1565008908510208,0.07272130250930786,0.07158351689577103,0.425857539921999,-0.15018846577964726,-9.770900253653528
37.9,3.0999999046325684,5.0,21.332439422607425,31.14709854125977,-79.7828028178791,40.45898249141288,321.7170236206054,0.005781335290521382,0.01950900815427304,0.9610433578491212,0.2756476700305939,0.032706626898481084,0.10711574433928253,2.9631975080654653,-0.15669046342372894,0.024005085229873657,-0.18495623767375946,0.3496774562448263,0.1819381980970502,-9.81360188484192
38.0,3.0999999046325684,6.0,21.436359405517575,28.5468692779541,-79.7828028511111,40.45898252305177,322.01408935546874,0.007139372639358044,0.01886458322405815,0.9610917568206788,0.2754918932914734,0.04794859228307632,0.10602039837694252,2.9811945396016224,0.03648323565721512,0.003266858169808984,-0.03234366327524185,0.4475806038826704,-0.027277169656008484,-9.968301669359207
38.2,3.0,3.0,21.37375831604004,30.463245391845703,-79.78280298707371,40.458982505341616,322.90768218994134,0.007373441010713576,0.0183090902864933,0.9615476131439208,0.2739283740520477,0.05130675653906155,0.10797869225606284,2.9832085878584365,0.1260124146938324,-0.0001227583416039124,0.04491395130753517,0.25025363054126504,0.02368085794150829,-9.826900792121886
38.3,3.0,2.0,21.461400985717773,29.43746757507324,-79.78280300186209,40.45898251982727,323.2069833374024,0.005225794855505228,0.018159061670303345,0.9618093371391296,0.27306729555130005,0.03117081898467098,0.11187952949245944,2.995041964445058,0.04796738550066948,0.02709952369332313,0.05905799940228462,0.4569357103854418,-0.06286689640022815,-9.88410293340683
38.5,3.0,2.0,21.47266960144043,28.70590400695801,-79.78280301481206,40.4589825299506,323.50746322631835,0.00370630226098001,0.017504066228866574,0.9619923830032348,0.2724897861480713,0.0031609573030152533,0.11689450927455068,3.0125827880812586,-0.1088872253894806,-0.09071541577577592,-0.061452146619558334,0.3017584276199341,0.07710313975811005,-9.866826750040056
38.6,3.0,0.0,21.40631103515625,28.864938735961914,-79.78280304341145,40.45898257999661,324.1016938781738,0.0061623770743608475,0.01839102990925312,0.9619773626327516,0.2724396288394928,0.005006561996193473,0.09056815092019743,2.9983093108160177,-0.033107541501522064,0.04330489411950112,0.08398572355508804,0.3560374727100134,-0.14513615168631078,-9.852684674263001
38.8,3.0,3.0,21.361236572265625,30.009994506835927,-79.78280313600884,40.45898263534094,324.3949258422852,0.0073787160217761985,0.01928285323083401,0.9618035554885864,0.27296122908592224,0.014531422659487987,0.1008147427473654,2.9875967228452014,-0.08751895278692245,-0.0011907588923349974,-0.11923714727163315,0.3761919114366174,0.2004489296860993,-9.736031552553175
38.9,2.9000000953674316,1.0,21.411319732666016,28.642290115356445,-79.78280314366282,40.45898265815133,324.6933038330078,0.006242962088435888,0.01820387691259384,0.961659014225006,0.2735720276832581,0.036008069418929436,0.10450837492115234,2.980303699910131,0.09758441150188446,-0.035910531878471375,0.04248639196157456,0.4239078589528799,-0.1279692016169429,-9.792334976792336
39.1,2.9000000953674316,0.0,21.401302337646484,30.18493461608887,-79.78280320278286,40.45898265606128,325.2914178466797,0.005189470015466213,0.017314771190285683,0.9612808823585508,0.2749769389629364,-0.0013393205976416304,0.09105678414630176,2.970263631486488,-0.0986887514591217,0.025499330833554268,-0.07602273672819138,0.27399723641574386,0.1984178810566664,-9.630788687467577
39.2,2.9000000953674316,356.0,21.53276824951172,27.401813507080078,-79.78280320013228,40.45898266869668,325.89030242919915,0.005708439275622368,0.01762976311147213,0.9611987471580504,0.2752339839935303,0.011808111015214487,0.09713745520036557,2.936710725664609,0.01762785203754902,-0.03531454876065253,-0.034541916102170944,0.43723600231111054,0.019488166775554417,-9.578565450310707
39.4,2.799999952316284,0.0,21.3700008392334,28.77746963500977,-79.78280319783569,40.458982678395145,326.183583984375,0.0046954243443906325,0.01757037453353405,0.961392104625702,0.274580717086792,0.01171176201614788,0.09571273817014886,2.9300708815281737,0.09110520780086516,0.07287463545799255,0.05443253368139267,0.4046473498642445,-0.1986981088668108,-9.74216294288635
39.5,2.799999952316284,359.0,21.430099487304688,29.151203155517567,-79.7828032086067,40.4589826202764,326.7836320495605,0.005725902505218983,0.017207618802785873,0.9617459774017334,0.2733420729637146,-0.002016449243157971,0.1060829549175974,2.956772876288076,0.07577134668827057,-0.01570591330528259,0.06826961040496826,0.3449262646213174,-0.238334172796458,-9.780942261815072
39.7,2.799999952316284,358.0,21.31616401672364,30.8608341217041,-79.78280319092264,40.45898261440415,327.07914138793944,0.006739810109138489,0.016042746603488922,0.9618175625801086,0.2731378972530365,-0.011375910952320588,0.10361465251478907,2.9494816029051,-0.00875883735716343,-0.0408313125371933,-0.03235361725091933,0.3754362319037318,-0.09050132179632783,-9.760551266670227
39.8,2.799999952316284,354.0,21.25731658935547,31.13914680480957,-79.7828031979829,40.45898252586323,327.6789872741698,0.008048162795603275,0.017385508865118027,0.9617348313331604,0.27331143617630005,0.0016400993162553614,0.1184417823411752,2.9922257771565857,0.0723009780049324,0.013592452742159368,0.06965581327676773,0.3242762743681669,-0.1259393589757383,-9.987250156402588
40.0,2.799999952316284,355.0,21.35622978210449,29.84300804138184,-79.78280317250115,40.45898250610115,327.979913482666,0.006659804843366146,0.018221806734800342,0.9614635705947876,0.2742470800876617,-0.008738978274083332,0.1198136619197592,3.021883708591929,0.08542394638061522,0.02103104442358017,0.1481526494026184,0.3858094117417932,-0.2763115643709898,-10.097278382778168
40.1,2.9000000953674316,356.0,21.337448120117188,29.85095977783203,-79.7828031138761,40.458982431577546,328.5880868530273,0.006993047427386046,0.02047821879386902,0.9606688618659972,0.2768523097038269,-0.04479177109439102,0.12212421470477612,3.0494018953087365,0.020599277690052983,0.0019269401673227546,0.04858122393488884,0.3792183937132359,0.0461907287221402,-9.99389493227005
40.3,2.9000000953674316,356.0,21.29988670349121,30.176982879638672,-79.78280306282387,40.458982361919475,328.89298797607415,0.0061299698427319535,0.02039454318583012,0.9604623913764954,0.27759411931037903,-0.031302147452282734,0.12953576099711694,3.045098669696418,0.06324300169944763,0.006722921039909124,0.10843005031347276,0.3059286618232727,-0.09609648590907456,-9.90513887643814
40.4,2.9000000953674316,358.0,21.390033721923828,27.807353973388672,-79.78280301455409,40.458982344945376,329.19809127807616,0.0055228634737432,0.019643273204565048,0.9604640603065492,0.2776555120944977,-0.04286945486738763,0.12054566964371315,3.05462787168698,-0.01295278873294592,-0.02809388749301434,-0.015209146775305271,0.3338897912576795,-0.06772949118632822,-9.907504659891133
40.6,2.9000000953674316,1.0,21.477678298950195,29.556743621826172,-79.78280296589479,40.45898228904804,329.8101327514648,0.004511576145887375,0.018427295610308647,0.9607431888580322,0.2767900228500366,-0.020359924326534308,0.10594907630268856,3.027227099976918,0.12838388979434967,-0.007795631885528563,0.11570565402507782,0.4617543277144433,-0.27700537305325273,-9.696306738853457
40.8,3.0,0.0,21.41883087158203,27.9345817565918,-79.78280286602826,40.458982229954906,330.4220216369629,0.004556597676128149,0.01832414232194424,0.9609821438789368,0.27596527338027954,-0.04138219522577141,0.09786712268961542,2.99670163640294,0.014641452580690384,-0.01446620188653469,0.05393815413117409,0.33067247048020365,-0.1865900966897607,-9.597000551819802
40.9,3.0,1.0,21.324928283691406,29.326141357421875,-79.78280281542244,40.458982223025174,330.7209489440918,0.004845214542001486,0.01853736862540245,0.9610787630081176,0.2756094336509705,-0.049327494294215464,0.0955619718921965,2.9800467091882545,-0.04000224173069,-0.04984797164797783,-0.060390487313270576,0.4002598185092211,0.07399854233488441,-9.638913393616678
41.0,3.0999999046325684,2.0,21.471418380737305,27.3063907623291,-79.78280268873033,40.45898215785294,331.33100296020507,0.0038210400380194187,0.017399510368704796,0.961271584033966,0.275026798248291,-0.04581649071163402,0.09998079837410408,2.9797551571705987,-0.012982676737010479,-0.07923047244548798,-0.021278008818626404,0.2675708723254502,-0.05223644820973277,-9.672104528546333
41.2,3.0999999046325684,6.0,21.35247230529785,30.256500244140625,-79.78280263820518,40.45898214936381,331.62769866943364,0.0017767790704965594,0.01765985228121281,0.9612922072410583,0.27495869994163513,-0.0421752373570906,0.08770957917314925,2.950057077227556,0.09593679010868073,0.012177878059446812,-0.033991534262895584,0.3804566147178412,0.03781041702255607,-9.58185567855835
41.3,3.0999999046325684,8.0,21.475173950195312,27.59265518188477,-79.7828026212009,40.45898212618681,331.9401376342773,0.000720420153811574,0.018270028755068786,0.961338222026825,0.2747628390789032,-0.04402122264004907,0.08495846763333885,2.959802316910526,0.0306754931807518,0.04078735411167145,0.019617121666669846,0.3338751366734505,-0.112881064619869,-9.626611436605453
41.5,3.0999999046325684,9.0,21.34996795654297,29.00012016296387,-79.78280255490743,40.45898213468587,332.52930999755864,0.0023490337189286947,0.019077077507972717,0.961340069770813,0.27469226717948914,-0.02479589064151622,0.08227425792151133,2.925566956463708,0.07753317803144455,0.01094344723969698,0.11711812019348145,0.39386968888342383,-0.2106565785035491,-9.655194380879404
41.6,3.0999999046325684,9.0,21.314910888671875,29.98613929748535,-79.78280250834017,40.45898211151377,332.84209228515624,0.0034584850072860718,0.01936209574341774,0.9613410830497742,0.2746571898460388,-0.03421769223619814,0.09180892918690772,2.9519722260493655,-0.06805319339036943,0.0056704524904489535,-0.045971792191267014,0.30606824582442643,0.049566901903599504,-9.737836003303528
41.8,3.0,8.0,21.256065368652344,31.36179542541504,-79.78280246519715,40.45898208172976,333.4475457763672,0.0031766828615218397,0.018687201663851738,0.96122407913208,0.2751164138317108,-0.0012848234139927733,0.08934131827428474,2.9648283629546714,0.15636371076107025,0.0597812831401825,0.10734132677316666,0.3579286084324121,-0.17422813262790446,-9.790466206669807
41.9,3.0,8.0,21.40005111694336,29.739633560180664,-79.78280242005475,40.458982108595826,334.04125762939447,0.003835595911368728,0.016290146857500076,0.9611101150512696,0.2756580412387848,-0.02601525203440723,0.0872355457372875,2.975838453343448,-0.07228654623031616,-0.11231223493814467,-0.09146364778280258,0.3995625745877624,0.0648390389000997,-9.87978417992592
42.1,3.0,6.0,21.473920822143555,28.523012161254893,-79.78280238199058,40.45898212078182,334.64816833496087,0.006619930732995272,0.013553698547184469,0.9611343145370485,0.275668740272522,0.013914744314566057,0.06588250589362626,3.0011208176821897,0.04955829307436943,-0.03373279795050621,0.07153096050024033,0.33383161146193746,0.1615810619853437,-9.984990792274477
42.3,3.0,6.0,21.288618087768555,31.03577423095703,-79.78280244723692,40.45898214259784,334.9487130737305,0.005751591641455889,0.01444262359291315,0.9611362814903259,0.2756365239620209,0.01104390699859666,0.058803533831196665,2.9901597673114253,-0.04667176306247711,0.0068986741825938225,-0.0911119431257248,0.2561878600716591,0.11424856390804053,-9.810665413141251
42.41,2.9000000953674316,7.0,21.288618087768555,29.683971405029297,-79.78280243230398,40.4589821647256,335.24792266845697,0.004611027427017689,0.015500667504966259,0.9611138701438904,0.27567851543426514,0.0006263294046575161,0.0667099344141344,2.996751870184371,-0.016393823549151417,0.0018940813606604934,-0.012854436412453651,0.2463531357049942,0.1673461242578924,-9.8493634557724
42.5,2.9000000953674316,6.0,21.282358169555664,31.26637458801269,-79.78280240164553,40.45898215818942,335.8568017578125,0.002124293241649866,0.016288423910737038,0.9611899256706238,0.275398313999176,-0.0006448812885320733,0.07750814603868117,3.040374450729208,0.01144969929009676,0.029186755418777462,0.08393195271492004,0.2636281679011881,-0.1263455211929977,-10.04308171033859
42.71,2.9000000953674316,5.0,21.457645416259766,26.55892562866211,-79.78280239349567,40.458982179335216,336.16211486816405,0.00168090988881886,0.01673162914812565,0.9612696170806884,0.2750961780548096,-0.004881365872897326,0.07472976935292322,3.062689911423946,-0.0025524769444018602,-0.017353853210806847,0.006366939749568701,0.326719496883452,-0.1210228556022048,-10.027006545066833
42.8,2.799999952316284,2.0,21.513986587524414,25.962541580200195,-79.78280240298325,40.458982251872655,336.4635598754884,0.0018497477285563946,0.016608674079179764,0.961354672908783,0.2748055458068848,-0.0070606987639419295,0.07160964166316616,3.0417119041117737,-0.12141141295433044,-0.05966830626130104,-0.07041517645120621,0.2459442143328488,0.1219352039694786,-9.825565288066862
43.0,2.799999952316284,0.0,21.789438247680664,21.58906555175781,-79.78280241788873,40.45898232980554,337.06303192138665,0.0009436679538339376,0.01592688262462616,0.9613843560218812,0.27474644780159,0.020551263004839858,0.058703700103254236,2.924569654062278,0.03853095695376396,0.009729561395943165,-0.02343769744038582,0.3072903687134385,-0.07504724959842861,-9.09855114519596
43.1,2.700000047683716,357.0,21.7744140625,20.507625579833984,-79.78280239060955,40.458982401156995,337.6364114379884,0.003299188101664185,0.016303585842251778,0.9611831903457642,0.2754092812538147,0.015842666207664724,0.04442621139529457,2.653596029599809,-0.04095063358545303,0.007939311675727367,0.0006115023861639202,0.2323122898489237,-0.009072514681611207,-8.323612053394317
43.3,2.700000047683716,357.0,21.8132266998291,21.461837768554688,-79.7828023466618,40.45898240595972,337.91361785888665,0.005624077282845974,0.016814667731523514,0.9609692692756652,0.27608659863471985,0.022430206445126367,0.041016535004080236,2.5129552726445503,-0.042001329362392426,0.04076418653130531,-0.0007748360512778162,0.2152509916573763,0.03454390654340386,-8.227218364477158
43.4,2.5999999046325684,353.0,21.670494079589844,23.839418411254893,-79.78280234939162,40.458982451835325,338.15671325683587,0.0073682074435055265,0.017781810835003853,0.9607834815979004,0.2766309976577759,0.025396950641864514,0.03978962936364789,2.3475894536058344,-0.0535133071243763,-0.009636069647967815,-0.0007428903481923044,0.25050506081432106,0.019965820340439682,-8.167584366202355
43.6,2.5,354.0,21.70805549621582,23.06014442443848,-79.78280226904816,40.45898253279023,338.82638336181634,0.008032727055251598,0.017748221755027768,0.9605475664138794,0.2774326205253601,0.015925169790508457,0.02555230343305069,1.990064871937831,0.018053436651825905,-0.05491067096590997,0.009233618155121805,0.3365468391403556,0.1762692128866911,-8.543287852406502
43.8,2.4000000953674316,354.0,21.656721115112305,23.86327362060547,-79.7828021991822,40.45898250833385,339.06316162109374,0.004899013321846724,0.017800578847527504,0.9605634808540344,0.2774474620819092,0.0020147890640737024,0.02460808419213634,1.9314166774547767,0.02597375959157944,-0.035487759858369834,-0.025963036343455315,0.2737864260189236,0.017425136617384852,-8.760751065015793
43.91,2.4000000953674316,354.0,21.70304679870605,22.996530532836914,-79.7828021610485,40.458982547134426,339.25212646484374,0.0015692360466346145,0.018098950386047363,0.9605726003646852,0.2774353623390198,-0.007348519432422738,0.01055526696047508,1.8514296787628617,0.049025420099496834,-0.0005032920744270086,-0.011803380213677885,0.25952084608376025,-0.015662808660417797,-8.959732983112337
44.01,2.299999952316284,357.0,21.61540412902832,24.69025802612305,-79.7828020338536,40.458982572855035,339.66330505371087,-0.002937701065093279,0.019124919548630714,0.9604281187057496,0.2778553664684296,-0.027900665743340214,0.0028997721036369732,1.7570240749922557,0.0066821640357375145,-0.07440683245658875,0.02594141475856304,0.2661128142848611,0.04467701706569642,-9.000118532180787
44.2,2.299999952316284,357.0,21.626672744750977,24.2052001953125,-79.78280200486817,40.4589826235064,339.8355538940429,-0.005395879503339529,0.01933857798576355,0.960318684577942,0.27818167209625244,-0.01349712152477083,-0.0007438427313206442,1.6939132374833472,0.01798482425510883,-0.0704486072063446,-0.024771133437752724,0.2303740474954248,0.048752375626936566,-9.101279456019403
44.3,2.200000047683716,359.0,21.696786880493164,24.42784881591797,-79.78280189742432,40.45898256829828,340.09197021484374,-0.007437610998749733,0.01922320760786533,0.96021169424057,0.27851173281669617,-0.0188384254476811,0.008318362434431629,1.739441505556961,0.01448817364871502,-0.04404798895120621,0.010218382813036442,0.2628453170880675,-0.10597461671568452,-9.292997962832453
44.5,2.200000047683716,0.0,21.622915267944336,23.96664619445801,-79.78280189777148,40.45898268684214,340.42879272460937,-0.006171160377562046,0.01916525140404701,0.9599831104278564,0.27933329343795776,0.00885444206855196,-0.0049011312655500025,1.6264454824994272,-0.07418172806501389,0.007968044839799404,-0.05793052911758422,0.3095682246610522,0.12015608810819685,-9.218023794293405
44.6,2.0999999046325684,0.0,21.67424964904785,22.91701316833496,-79.78280182293706,40.45898261919052,340.88236785888665,-0.0036194457206875095,0.01984197087585926,0.9601115584373474,0.2788890600204468,0.029938452217786408,0.017607975439054024,1.626284704966261,-0.05417333170771599,-0.01422766037285328,-0.054682638496160514,0.2887217862345278,-0.022529650814831256,-9.239123471975327
44.81,2.0999999046325684,0.0,22.6859073638916,3.3954074382781982,-79.7828020295315,40.45898245076112,341.14269805908197,-0.0016504079103469849,0.01844765804708004,0.9604185223579408,0.27794480323791504,0.045135633536344116,0.05175410774745042,1.6470744581671533,-0.04444434493780136,-0.01599700562655926,-0.04225039482116698,0.28800659867003564,-0.041249689883552494,-9.159342307448387
44.91,2.0,359.0,21.93467712402344,20.698467254638672,-79.78280215336575,40.45898254089303,341.43713165283197,0.004930692724883556,0.0180404931306839,0.964531183242798,0.26330557465553284,0.04079780250376246,0.01664030396802426,1.2011457758126485,-0.027106320485472686,0.047505557537078864,-0.5568029284477234,0.14511014984920625,-0.3193297491967678,-7.256933737993243
45.11,1.8999999761581416,0.0,21.81072425842285,20.69051551818848,-79.78280216166776,40.45898255765362,341.5876748657226,0.007227974478155374,0.017749838531017303,0.9741634130477904,0.2250299006700516,0.03106964114433548,0.013550727447378048,1.0060625969574992,0.013029725290834905,-0.07983558624982834,-0.8967669010162354,0.2201849087700248,-0.2583808400295675,-7.426884815096855
45.21,1.7999999523162842,354.0,21.76189422607422,21.533403396606445,-79.78280216937551,40.45898258894065,341.6790292358398,0.004882997367531061,0.01435856707394123,0.9845337867736816,0.17453761398792267,0.028117308658306084,-0.0034783221354360364,0.8332971824129457,0.14206863939762115,-0.07002189755439757,-1.1265695095062256,0.2230321738868952,-0.09986856127157807,-7.9772224134206775
45.4,1.7999999523162842,346.0,21.7844295501709,22.718217849731445,-79.78280217108481,40.458982639939435,341.81352020263665,-0.002542095491662621,0.011095253750681877,0.9988479018211364,0.04662033170461655,-0.01136335644344167,-0.034333800087783584,0.6243521360290464,0.061317946761846535,0.007795431651175022,-1.400186538696289,0.17004740998148918,-0.03425990088377148,-8.767903963923455
45.5,1.7000000476837158,349.0,21.746868133544922,22.90110969543457,-79.78280217233137,40.45898268189932,341.8712289428712,0.00467888917773962,-0.010031547397375109,-0.9996851086616516,0.022520141676068302,-0.01723379757373285,-0.03629701830769449,0.5455818285274877,0.01990143209695816,0.007146991323679686,-1.4388093948364258,0.08265676123090089,-0.07811547551304103,-8.93382513999939
45.6,1.7000000476837158,351.0,21.63919258117676,24.483510971069336,-79.78280218866941,40.45898273094493,341.9517877197265,0.009715762920677662,-0.010720078833401205,-0.9843135476112366,0.17583420872688293,-0.0010856863712327288,-0.040758633153746684,0.4541496123831602,0.02919827960431576,0.028411006554961205,-1.5922584533691406,0.17027216233313086,0.1678667274489999,-9.377239968180657
45.81,1.5,332.0,21.679258346557614,23.72809410095215,-79.78280233697677,40.4589827113624,342.02416778564447,0.013883438892662523,-0.008852224797010422,-0.9439510107040404,0.32967472076416016,0.046840299958636165,-0.04750641677197882,0.4445636865062358,0.02807672321796417,0.014416446909308434,-1.6646857261657717,0.15443393720313908,0.2399862853065133,-9.638583610653876
46.0,1.5,322.0,21.64795684814453,23.688335418701172,-79.78280252296787,40.458982587157784,342.1321084594726,0.017895041033625603,-0.006615119054913521,-0.8803077936172485,0.4740191698074341,0.10784880748243043,-0.07040442306463132,0.4824138479248744,0.08369705826044083,-0.06827498972415924,-1.5139725208282468,0.1781626326777041,0.08912000846117735,-9.731768347620962
46.1,1.399999976158142,332.0,21.564069747924805,26.320371627807607,-79.78280270729563,40.4589825477175,342.18014312744134,0.01911783590912819,-0.003979538567364216,-0.8404961824417114,0.5414655208587646,0.13942559363858756,-0.09522261529947547,0.4933515591200221,0.1154492050409317,-0.08612778037786484,-1.5688068866729736,0.16400391060858965,0.05361519425176085,-9.8884392285347
46.31,1.2999999523162842,339.0,21.649208068847656,23.72809410095215,-79.7828026569435,40.458982365788906,342.20712829589837,0.020241212099790573,-0.001285072648897767,-0.7952569723129272,0.6059331893920898,0.1646750471681763,-0.10896871561913256,0.5492116517586936,0.11647775024175645,0.0167815200984478,-1.55524480342865,0.19645950235426424,0.18554052148014308,-10.096045789718627
46.4,1.2999999523162842,329.0,21.630428314208984,24.451704025268555,-79.7828031383837,40.458982082670644,342.32281280517583,0.020880622789263725,0.005079007241874933,-0.6953609585762024,0.7183393239974976,0.2237183812952911,-0.17844307828093614,0.6136907245692312,0.1018841490149498,-0.09447436034679413,-1.3117482662200928,0.11893508898094295,0.034969912748783825,-10.052008069753649
46.61,1.2999999523162842,319.0,21.679258346557614,23.46568489074707,-79.78280332307857,40.458981928085116,342.2499139404297,0.020795447751879692,0.007621768396347761,-0.6490381956100464,0.7604334354400635,0.257459506441512,-0.2124260064817237,0.5649441237928631,0.08645617216825485,-0.03376612439751625,-1.1126762628555298,0.1243421189300716,0.3285562169551849,-9.920679606199263
