time,wind_speed,wind_angle,battery_voltage,battery_current,position_x,position_y,position_z,orientation_x,orientation_y,orientation_z,orientation_w,velocity_x,velocity_y,velocity_z,angular_x,angular_y,angular_z,linear_acceleration_x,linear_acceleration_y,linear_acceleration_z
0.0,0.8999999761581421,218.0,25.51554107666016,-0.06361418962478638,-79.78279988194096,40.45903091695613,269.09437370538706,0.03271814435720444,-0.02835259959101677,0.9990521073341372,0.004549707751721144,-0.0023957368486813395,-0.01730323230134644,0.0057417717914379045,-0.007141358684748411,-0.0038258759304881096,-0.007023574318736793,-0.5824573406204582,0.6317051855474711,-9.774955882430078
0.1,0.8000000119209291,223.0,25.51804542541504,-0.06361418962478638,-79.78279984209077,40.45903089686434,269.0965867066384,0.032699208706617355,-0.02833792008459568,0.9990532994270324,0.00450293580070138,0.00129853941522853,-0.017908268977914484,0.003969892577577907,0.003656131448224187,0.0018127878429368136,0.0043118721805512905,-0.586899141445756,0.641216485798359,-9.773284748196602
0.3,0.8999999761581421,223.0,25.519296646118164,-0.04771064221858978,-79.78279984218359,40.45903093301114,269.09772289037704,0.03271250054240227,-0.028357801958918568,0.9990528225898744,0.0043851337395608425,-0.00047253049277308165,-0.023748459502619373,0.0049599948824162274,-0.006713477894663811,-0.003020339645445347,-0.013607578352093695,-0.5825996472314,0.630784614533186,-9.775104986429216
0.4,0.8000000119209291,219.0,25.509281158447266,-0.05566241592168808,-79.78279982397541,40.459030907636475,269.09903007984155,0.032710626721382134,-0.02836907096207142,0.9990527629852296,0.004346909467130899,0.00586036904460588,-0.022284499139067344,0.003156980338568592,0.000996281742118299,-0.0003692818572744727,0.0042622718028724185,-0.5853983804583549,0.6455220099538564,-9.772612318396568
0.6,0.8999999761581421,218.0,25.520549774169922,-0.039758868515491486,-79.78279983013786,40.4590309277951,269.09953838825226,0.032718874514102936,-0.028382617980241776,0.999052345752716,0.00428258627653122,0.005344181923630805,-0.02508321628230736,0.0035897908596458595,0.002812821418046952,-0.00025033787824213505,0.001450984040275216,-0.5823397750407457,0.630901631936431,-9.773682943582537
0.7,0.8999999761581421,217.0,25.509281158447266,-0.07156596332788467,-79.78279977623367,40.45903091707206,269.10088855266565,0.032715748995542526,-0.02837078459560871,0.999053120613098,0.004202492535114288,0.0022689677036119684,-0.0239577830821322,0.003468826686715928,0.0027741349767893553,0.0008157072006724776,0.0002967096515931189,-0.5851574751734734,0.6450443655252457,-9.772100687026976
0.9,0.8000000119209291,219.0,25.516794204711914,-0.06361418962478638,-79.78279977802801,40.45903093836353,269.10140949726105,0.03270865976810455,-0.02839733846485615,0.999052882194519,0.004140933509916067,0.0018481635766438586,-0.02665597021446655,0.0038731198001892,0.0025956283789128065,0.0026594647206366053,0.00289544090628624,-0.5815171814337373,0.6307811062037945,-9.774530789852145
1.0,0.8000000119209291,213.0,25.516794204711914,-0.05566241592168808,-79.78279971403046,40.459030902952364,269.101657512188,0.032693836838006966,-0.02843918651342392,0.9990525841712952,0.004042320419102907,-0.000545962846747538,-0.020305696553434213,0.003134397536697855,0.0016008750535547733,-0.0007190117612481117,0.0036768214777112007,-0.5843217253312469,0.6437640445679427,-9.773136228919027
1.2,0.8000000119209291,217.0,25.519296646118164,-0.02385532110929489,-79.78279969044509,40.45903088064346,269.1011454486847,0.03267037123441696,-0.028442325070500374,0.9990535378456116,0.003975515253841877,0.005956541518205236,-0.01931655942458072,0.0017860655359692138,0.0038623665459454064,-0.00030536242411471903,0.00503260362893343,-0.5812551896274089,0.6327092986553907,-9.773086527585985
1.3,0.8000000119209291,202.0,25.52180099487305,-0.04771064221858978,-79.78279970221557,40.459030919371045,269.101904335022,0.03266890719532966,-0.02843242511153221,0.9990542531013488,0.0038748821243643756,0.004812995619833396,-0.0249253045372242,0.002629988689407532,0.00073173240525648,0.003015190828591585,-0.00284583424217999,-0.5855669995397329,0.6405754116922617,-9.773202887177467
1.5,0.8000000119209291,199.0,25.523054122924805,-0.039758868515491486,-79.7827996407347,40.45903089194781,269.1010184907913,0.032691333442926414,-0.028451884165406224,0.999053418636322,0.003755154320970177,0.000912783913540883,-0.021306874786671915,0.002659608650398274,-0.004270207136869431,0.0011480945395305753,-0.002885181689634919,-0.5820548329129815,0.6314045655727387,-9.7740267598629
1.6,0.8000000119209291,197.0,25.51178550720215,-0.02385532110929489,-79.78279960810454,40.45903083990594,269.0992872738838,0.032667994499206536,-0.02846374176442623,0.9990540146827698,0.0037164685782045135,0.003180768240021264,-0.013139390203616706,0.0021299278037994144,-0.003325754078105092,0.0004063807718921453,-0.006034852936863899,-0.5841897975280881,0.6348260638117791,-9.77474421322346
1.8,0.8000000119209291,197.0,25.51804542541504,-0.04771064221858978,-79.78279961147209,40.4590308528265,269.09961569547653,0.03267079591751098,-0.02846370078623295,0.9990541934967041,0.003649831516668201,0.0035915323674479533,-0.01595065048991929,0.002387395115695693,0.0015692719025537376,0.004912033677101135,0.007433428894728422,-0.5819346360862255,0.631885499060154,-9.773881164193154
1.9,0.8000000119209291,193.0,25.50802993774414,-0.015903547406196594,-79.78279955437077,40.45903085739762,269.09584963560104,0.0326855294406414,-0.02844746969640255,0.9990544319152832,0.003561102552339434,0.0003056261853365911,-0.021693609521939338,-0.001309691120157905,0.0005839373334310949,-0.00030268632690422237,-0.0056928638368845,-0.5846147439256311,0.6368938585370779,-9.774191651344301
2.1,0.8000000119209291,191.0,25.523054122924805,-0.02385532110929489,-79.78279955478635,40.45903087690755,269.09585947036743,0.03268516808748245,-0.028456691652536392,0.9990543127059937,0.003515189746394753,0.00048133913982239315,-0.02421098148121056,-0.0011598735491780113,0.0057425242848694324,0.0019877019803971052,0.004499362781643868,-0.5804642806202174,0.6308046412467957,-9.7729836165905
2.2,0.699999988079071,184.0,25.523054122924805,-0.039758868515491486,-79.78279952354706,40.45903082794218,269.0931344056129,0.03264063224196434,-0.028462814167141918,0.999056041240692,0.003401963971555233,0.004135176856955244,-0.01694278723133702,-0.0001873169529136038,0.0026716331485658893,-0.0005152645753696562,0.000882384367287159,-0.5874883580580355,0.6411173754930497,-9.773373041152952
2.4,0.6000000238418579,183.0,25.519296646118164,-0.039758868515491486,-79.78279952799355,40.45903084354497,269.09326255559915,0.032625459134578705,-0.02846968360245228,0.9990564584732056,0.0033624800853431225,0.0040085093633751,-0.0195738333987488,0.00015368456307813516,0.003860514378175139,0.0015799858374521134,0.002555928193032741,-0.5812071693688632,0.6312739533931018,-9.773922679424286
2.5,0.6000000238418579,178.0,25.51804542541504,-0.04771064221858978,-79.78279949270183,40.459030806964996,269.0898159170151,0.03263791650533676,-0.028501132503151894,0.9990554451942444,0.003264135681092739,0.005560430622478575,-0.016870702357288526,0.000587945859731512,0.003498879028484225,0.0006386246532201768,0.0021313019096851358,-0.5861068071797491,0.6455065148323774,-9.773210488557817
2.7,0.6000000238418579,183.0,25.523054122924805,-0.04771064221858978,-79.78279945083304,40.45903079313247,269.08581429958343,0.03265804797410965,-0.028480632230639458,0.9990556240081788,0.003206396708264947,0.005816713817773768,-0.02019347203441916,0.0002889172926139491,0.0018350307364016765,0.0036394938360899687,0.002512967912480235,-0.5828698251396418,0.6306957368552685,-9.77452260375023
2.8,0.6000000238418579,182.0,25.52180099487305,-0.015903547406196594,-79.7827994631937,40.45903083331309,269.08627486467356,0.03266683593392372,-0.028473297134041783,0.9990558028221128,0.0031160146463662386,0.0052704015422009075,-0.02545266104487057,0.0010146249840491902,0.005388032179325819,-0.0016641448019072411,0.0013186607975512745,-0.5856520399823785,0.6454521357268095,-9.772774286270144
3.0,0.6000000238418579,187.0,25.519296646118164,-0.039758868515491486,-79.78279942239753,40.45903075764885,269.0817177915573,0.03265281021595001,-0.028518814593553543,0.9990551471710204,0.0030441053677350287,0.006906388490472613,-0.011607175897959322,0.0008644725569267338,0.003733417019248009,0.0019008972449228168,0.0038101656828075647,-0.5817560401931405,0.6316997768729925,-9.77542190551758
3.1,0.6000000238418579,188.0,25.519296646118164,-0.015903547406196594,-79.78279937080595,40.459030739592215,269.07491374254226,0.032664693892002106,-0.02851705811917782,0.9990551471710204,0.0029378575272858143,0.003287792172335134,-0.014907447118411302,-0.00276146849280312,0.0026029148139059552,0.0018006170867010949,0.003659605281427503,-0.5860763651132584,0.6464409729838372,-9.77317949831486
3.3,0.6000000238418579,188.0,25.51053237915039,-0.039758868515491486,-79.78279937404197,40.459030754245724,269.0747685456276,0.03267626464366913,-0.028517110273242,0.9990549683570862,0.002881283871829509,0.002639263238484697,-0.017450084752930382,-0.002422922846929332,0.0012568639358505607,-0.0021539938170462847,0.004794408567249775,-0.5821033648028969,0.6308290533721447,-9.774081138968466
3.4,0.699999988079071,185.0,25.523054122924805,-0.02385532110929489,-79.7827993134158,40.45903071810832,269.06655490636825,0.03270363807678224,-0.02854027040302753,0.9990536570549012,0.0027885627932846546,0.00023884559889461766,-0.0152516223204282,-0.004958425064709502,0.0028032748959958553,0.0016593296313658354,0.006126716267317534,-0.5858125825971365,0.6490179140120745,-9.772763176560405
3.6,0.6000000238418579,185.0,25.52430534362793,-0.007951773703098297,-79.7827993134952,40.45903073236436,269.0661774897576,0.03273719176650046,-0.028559939935803413,0.9990521669387816,0.002718328963965177,-0.0006377309757925053,-0.017663690155079955,-0.00453385995160561,-0.0009121616021730006,-0.0032115362118929625,0.00238280207850039,-0.5845193612203002,0.631373502239585,-9.774357127547264
3.7,0.6000000238418579,190.0,25.520549774169922,-0.02385532110929489,-79.78279927438837,40.459030715044975,269.0596547150612,0.03271698951721192,-0.028543047606945038,0.9990535974502563,0.0026069560553878546,0.0015758481746464045,-0.020331329837174648,-0.003217419579503893,0.005163705442100763,0.00169532117433846,0.0042840298265218735,-0.5847815722972155,0.6505455721914769,-9.772538643479347
3.91,0.6000000238418579,190.0,25.51804542541504,-0.03180709481239319,-79.7827992754479,40.459030733491566,269.05948490142816,0.03271515667438507,-0.028562735766172413,0.9990532994270324,0.002557579195126891,0.00034021875717380455,-0.02260158113572017,-0.002759731502382037,-0.0026360640767961736,-0.00034990906715393066,0.0008424759726040065,-0.5850924979895353,0.6314128978550434,-9.774239013791084
4.01,0.6000000238418579,190.0,25.51554107666016,-0.04771064221858978,-79.78279924009594,40.45903071576264,269.0524296784401,0.03270447999238968,-0.028568143025040627,0.9990537762641908,0.002437329152598977,0.0025490778730008373,-0.02344562356522408,-0.0021761752383397228,0.004028467461466789,0.004683725070208311,0.006878658197820187,-0.5850668798759581,0.6530715693533421,-9.771656883358956
4.2,0.6000000238418579,190.0,25.520549774169922,-0.039758868515491486,-79.78279923228305,40.459030617311775,269.04756278038025,0.03268617391586304,-0.028621107339859005,0.9990530014038086,0.0023769952822476625,0.010555104614780151,-0.007750961800644077,0.0038065909464182327,-0.004562673158943653,-0.002684014849364757,0.0016297459369525313,-0.5846871032193304,0.6343109972029924,-9.773919755816461
4.3,0.6000000238418579,191.0,25.51554107666016,-0.03180709481239319,-79.78279925664334,40.45903063478789,269.0486427569389,0.032685864716768265,-0.028595404699444767,0.999053955078125,0.0022742198780179024,0.01073609627105552,-0.012704820011246308,0.004527531431700364,0.00599175738170743,-0.00036399115924723446,0.006653021089732647,-0.5856681198254228,0.6484312921017409,-9.772136355042457
4.5,0.6000000238418579,191.0,25.523054122924805,-0.04771064221858978,-79.78279919216658,40.45903059897603,269.0404075407982,0.032695796340703964,-0.028607256710529324,0.9990534782409668,0.0022237440571188927,0.004670079738391944,-0.014098240281907173,0.002589272364165608,-0.0053408630192279824,-0.005397168453782797,-0.0044399681501090535,-0.5862794462218881,0.6388225626200438,-9.773896951675416
4.6,0.6000000238418579,193.0,25.52180099487305,-0.02385532110929489,-79.78279914503025,40.45903056906003,269.03291863441467,0.032720033079385764,-0.028601473197340962,0.9990530610084534,0.0021023431327193967,0.0031922444673431697,-0.014355426413102612,0.002234742428422029,0.004648223984986544,-0.00043826972250826657,0.0036248951219022274,-0.5847176183760167,0.6460800535976887,-9.773660724163056
4.8,0.6000000238418579,193.0,25.51804542541504,-0.02385532110929489,-79.78279914774609,40.45903058292396,269.03326767921453,0.03271983936429024,-0.02860098518431187,0.9990532398223876,0.0020435811020433907,0.0017755916912157407,-0.0166540911984391,0.002650141662269437,-0.003564657643437385,-0.003905636491253972,-0.008250854909420012,-0.5857616387307644,0.6428314136713743,-9.773463672995568
4.9,0.6000000238418579,195.0,25.51178550720215,-0.04771064221858978,-79.78279911586611,40.45903054244357,269.0253366851806,0.03271147608757019,-0.028608465567231182,0.9990534782409668,0.001955608604475856,0.004396093589332849,-0.014285758182772357,0.001595209277966524,-0.00010186163854086773,-0.0002395948104094714,0.002932613017037511,-0.584456540197134,0.6393896694481374,-9.774921383857727
5.11,0.699999988079071,196.0,25.519296646118164,-0.02385532110929489,-79.78279912057401,40.459030555318755,269.0256266617775,0.03271074965596199,-0.028615428134799007,0.9990533590316772,0.0019077350152656442,0.003350279798291118,-0.01647934057367042,0.002039597275532293,-0.005822566337883472,-0.00044339126907289044,-0.00795004889369011,-0.5848446125909686,0.6517093873769045,-9.772317618727683
5.2,0.699999988079071,198.0,25.509281158447266,-0.007951773703098297,-79.78279908858597,40.459030531534815,269.01693630456924,0.03271909058094025,-0.028588414192199707,0.9990540742874146,0.0018122590845450761,0.00405273103820567,-0.018561347490755244,0.0008645151466998183,-0.006244083400815725,-1.2067753232258838e-05,-0.0014320533955469728,-0.5834363107010723,0.6317097902297973,-9.773723289370537
5.4,0.699999988079071,200.0,25.516794204711914,-0.039758868515491486,-79.78279909366897,40.459030548588466,269.0171791338921,0.03271500766277313,-0.02858710661530495,0.9990543127059937,0.0017598978010937574,0.004277929999454929,-0.02101657676407641,0.001196447899165203,0.0015900214202702045,0.0032374132424592967,0.0003113826096523553,-0.5846200064197183,0.6460979606956244,-9.77256437122822
5.51,0.699999988079071,203.0,25.51554107666016,0.08746951073408127,-79.7827990669972,40.45903051972912,269.00807720661163,0.03269781917333603,-0.028582071885466576,0.9990551471710204,0.001652133301831782,0.004679400641300145,-0.02100382897377352,0.00021915435447551312,-0.004519482143223286,0.0005575638497248292,-0.011041317135095595,-0.5826368866860867,0.6304562202841044,-9.774027344584466
5.7,0.699999988079071,203.0,25.520549774169922,0.0,-79.78279901726009,40.45903047590626,268.9975970411301,0.032693274319171906,-0.02857740223407745,0.999055564403534,0.0015951015520840885,0.0029683865533142143,-0.019207849104145042,-0.0036321569386028032,0.006091588642448187,0.0006153499707579613,0.00704266643151641,-0.582953038327396,0.630679072290659,-9.775387991666797
5.8,0.699999988079071,205.0,25.516794204711914,0.03180709481239319,-79.78279902237928,40.45903051402488,268.9972336912155,0.032686978578567505,-0.028571628034114838,0.9990561008453368,0.0014912275364622474,0.001985839131711312,-0.023833012499910263,-0.002866701708394222,0.0010025020455941556,0.0047418205067515365,0.0018974608974531293,-0.5853389581292868,0.6400512088090181,-9.773523314595225
6.01,0.699999988079071,204.0,25.509281158447266,0.04771064221858978,-79.78279899994145,40.45903042536037,268.98853266477585,0.0326823852956295,-0.028597090393304825,0.999055564403534,0.0014426124980673196,0.004958974465064741,-0.0100927675591886,-0.001495556829648018,-0.003481745719909668,-0.0012036572443321347,0.003835663665086032,-0.5838419978320599,0.6307058963924647,-9.775357586145402
6.1,0.699999988079071,200.0,25.51178550720215,0.03180709481239319,-79.78279897368027,40.45903039768727,268.9791145944596,0.032670993357896805,-0.02860355004668236,0.9990558624267578,0.0013901579659432173,0.0062855558564872795,-0.013615029358821563,-0.0014656107161776493,0.004125963430851698,0.0006485398625954988,0.006687727756798267,-0.5855634546652436,0.6528374614566564,-9.772463214397431
6.3,0.699999988079071,199.0,25.50302124023437,0.13518016040325165,-79.78279898024338,40.45903041103616,268.9791121506691,0.03267384320497513,-0.028605598956346512,0.9990557432174684,0.0013297363184392452,0.004815659847153864,-0.015828515215717546,-0.0009553487121322496,-0.005821590311825275,-0.004351410083472729,-0.00805206224322319,-0.5863499417155982,0.6441677948087454,-9.773916832208632
6.4,0.699999988079071,195.0,25.505525588989247,0.02385532110929489,-79.78279895633578,40.4590303850257,268.9691602611542,0.03266255557537079,-0.028615461662411686,0.9990559220314026,0.0012521176831796765,0.005942881418622413,-0.017458699252127192,-0.0012816948964065255,-0.002525336341932416,0.0003661272639874369,-0.0011342986254021525,-0.5850709729269147,0.6356574647873641,-9.774906181097027
6.6,0.699999988079071,196.0,25.51428985595703,0.03180709481239319,-79.78279896332386,40.459030401074,268.96919095754623,0.03265616297721863,-0.02860889956355095,0.9990563988685608,0.001220273319631815,0.0055410455357398644,-0.01966991420631109,-0.0009499122670852368,-0.003390781581401825,0.00012367859017103908,-0.005981993395835161,-0.5839351512864233,0.6513550461083651,-9.771784937381744
6.71,0.6000000238418579,196.0,25.51428985595703,0.02385532110929489,-79.78279894771528,40.45903033492533,268.9596185708046,0.03267382085323334,-0.028645081445574764,0.9990549087524414,0.001118443557061255,0.00623754976709454,-0.011116079283760329,-0.00036337169755959865,-0.006952844560146332,-0.006794718559831381,-0.008893278427422047,-0.5811322884634137,0.6304953235387802,-9.775118435025217
6.9,0.6000000238418579,194.0,25.506776809692386,0.02385532110929489,-79.78279895581295,40.459030345231284,268.9597030901909,0.03266877681016922,-0.028639283031225208,0.9990553259849548,0.0010806064819917085,0.006848248550155882,-0.013333154663244941,-0.00025026506298187954,0.002065582200884819,0.0014093047939240932,0.0018455657409504052,-0.5838001536950469,0.6393865265697242,-9.773201133012774
7.0,0.6000000238418579,194.0,25.49926567077637,-0.007951773703098297,-79.78279890881647,40.459030327248726,268.94966131687164,0.032666146755218506,-0.02864344604313374,0.9990553855895996,0.0009754002676345408,0.002690655137035717,-0.016414847777923118,-0.00015064054611482454,-0.0027442486025393014,0.002979467855766416,-0.009953374043107031,-0.5821129761636258,0.6307787673175336,-9.775021955966947
7.2,0.6000000238418579,192.0,25.509281158447266,0.07951773703098297,-79.78279888037281,40.45903027843312,268.94050002336496,0.032661035656929016,-0.02865314856171608,0.9990553259849548,0.0009324690327048305,0.006170750824863268,-0.011955977691802377,0.0032086786891564203,0.005492979194968939,0.000894408265594393,0.0032076260540634394,-0.5843491341546179,0.6322499267756939,-9.774567627310754
7.4,0.6000000238418579,190.0,25.51053237915039,0.04771064221858978,-79.78279889222601,40.4590303027533,268.941455783844,0.03266496956348418,-0.028643453493714333,0.999055564403534,0.0008468472515232861,0.00503458895664975,-0.016274854418403064,0.0039691575038032795,0.004083565901964903,0.001168226124718785,6.773850327590479e-05,-0.5848436624184251,0.6475488010793925,-9.772704119682311
7.5,0.6000000238418579,187.0,25.501768112182607,0.039758868515491486,-79.78279889763402,40.45903024120017,268.92923254013056,0.032629650086164474,-0.028666127473115918,0.9990561008453368,0.0007946528494358063,0.012658964883277592,-0.01036056293878062,0.0008657080878873044,0.003465226851403713,0.0037596323527395725,0.00372021459043026,-0.5827937747910619,0.6312786311656237,-9.77401097238064
7.6,0.5,186.0,25.509281158447266,0.10337305814027786,-79.78279886725488,40.45903021985502,268.9182573878765,0.032658305019140244,-0.028664022684097287,0.9990552663803101,0.0006749237654730678,0.008851620649603719,-0.013770372636549559,0.0005715490672268879,0.0060329041443765155,-0.0006861765286885202,0.005131067242473364,-0.5853813504427672,0.6450736746937037,-9.773320416212082
7.8,0.5,189.0,25.51428985595703,0.04771064221858978,-79.78279887679136,40.45903023307832,268.91846812009805,0.03267282992601395,-0.02865148894488812,0.9990552067756652,0.0006291242316365242,0.007924248675872847,-0.01584856817228285,0.0008815456252924377,-0.0020598494447767735,-0.0030017916578799486,0.0018762362888082864,-0.5841674319282174,0.6308833593875172,-9.77413025557995
7.9,0.6000000238418579,190.0,25.49926567077637,-0.06361418962478638,-79.78279883131364,40.459030198188096,268.9085703516006,0.032667428255081184,-0.028680089861154563,0.9990545511245728,0.0005447941948659718,0.004814782528917648,-0.013069533635510448,0.004680079778911853,0.005586368497461081,0.0015566510846838355,0.008195783011615276,-0.5858836993575096,0.6523985548317432,-9.771789030432704
8.1,0.699999988079071,191.0,25.51428985595703,0.04771064221858978,-79.78279883597095,40.4590302098086,268.9091647291184,0.032669413834810264,-0.02867765538394451,0.9990546107292176,0.0004914036835543811,0.0034360032511022336,-0.01492103059512119,0.005120306995153587,-0.0032660141587257385,-0.0031412532553076744,-0.009792837314307691,-0.5863526825979353,0.6415559166669846,-9.773362516164779
8.2,0.8000000119209291,186.0,25.51053237915039,0.039758868515491486,-79.78279875885023,40.45903018544789,268.89648229122156,0.032695472240448,-0.028643105179071426,0.999054789543152,0.0004112966416869313,-0.004221138351296015,-0.01655407046606634,0.0026488981204835947,0.002942063147202134,-0.00028507129172794515,0.003238000208511949,-0.5837319605425001,0.6380066567659378,-9.773599328398703
8.4,0.8000000119209291,190.0,25.51554107666016,0.07156596332788467,-79.78279875374916,40.45903020044923,268.8968364322185,0.032692380249500275,-0.02864042483270168,0.999055027961731,0.0003790704649873078,-0.004704507786917721,-0.0187084585700079,0.00300102103184088,-0.005061342846602202,0.0017204047180712225,-0.009999342262744905,-0.5842508643865586,0.6517199854552747,-9.771998945474623
8.5,0.8000000119209291,190.0,25.505525588989247,0.04771064221858978,-79.78279875214587,40.459030179747145,268.8837256455421,0.032688818871974945,-0.028634866699576374,0.9990553259849548,0.00024833943461999297,0.002909797799575314,-0.01980923634692019,0.0012539503036509347,-0.006206703837960959,-0.004791473038494587,-0.008454827591776848,-0.581615999378264,0.6305978690832854,-9.774956467151645
8.7,0.8999999761581421,191.0,25.51053237915039,0.007951773703098297,-79.78279870644822,40.45903014840282,268.8709774935245,0.03269276022911072,-0.028631968423724174,0.9990552663803101,0.0002294771547894925,0.002353712943144907,-0.0192878176091824,0.0005297028671721779,0.0050478363409638405,0.005482359789311886,0.00641784118488431,-0.5837332761660219,0.6392079672217369,-9.775499673485756
8.8,0.8999999761581421,183.0,25.51428985595703,-0.015903547406196594,-79.78279870848506,40.459030166613495,268.8711788380146,0.032695088535547256,-0.028633339330554005,0.9990551471710204,0.00017189397476613524,0.001681885846925017,-0.021363206758048685,0.000885671619716423,0.0029027389828115697,-0.0011542991269379856,0.0034039500169456005,-0.5832326083257795,0.6306684011220932,-9.774948865771297
9.01,0.8999999761581421,184.0,25.51053237915039,-0.04771064221858978,-79.78279868189342,40.45903012758692,268.85817367076874,0.03267553821206093,-0.028676727786660194,0.9990545511245728,0.00010000183101510628,0.005496874444283114,-0.014633555723568515,-3.906295659658618e-05,0.002963296603411436,0.0019358147401362653,0.00698230043053627,-0.5820170087367297,0.6315308654308319,-9.774382855296135
9.1,0.8999999761581421,187.0,25.520549774169922,-0.015903547406196594,-79.78279865280817,40.45903009372568,268.8445787751674,0.0326739102602005,-0.028680425137281418,0.999054491519928,2.328072878299281e-05,0.006420386488009439,-0.011518487502822914,-0.0004604377656904706,0.00475519523024559,0.0024604403879493475,0.0015382979763671756,-0.5853446591645479,0.6400434612482786,-9.774456530213357
9.31,0.8999999761581421,185.0,25.51554107666016,-0.039758868515491486,-79.78279865990288,40.459030104937426,268.84465965867037,-0.03267941251397133,0.028681963682174683,-0.9990542531013488,4.898793486063369e-05,0.006039700354449082,-0.013536152638688471,-0.00015553665080398314,-0.0007173436461016536,-0.0005729677504859865,0.004750874824821949,-0.5831104380637407,0.6303723127394915,-9.774186388850213
9.4,1.0,182.0,25.516794204711914,-0.039758868515491486,-79.78279869494743,40.45903012712208,268.82247549533844,-0.032659724354743964,0.028709568083286282,-0.9990541338920592,0.00014012768224347383,0.00643376352402949,-0.015494489676349163,-0.004195783314603613,0.006188093684613705,0.004474953282624483,0.002891405252739787,-0.5846225645765663,0.6509124849736689,-9.773794625401498
9.6,0.8999999761581421,184.0,25.516794204711914,-0.02385532110929489,-79.78279870160398,40.45903014272084,268.8222094500065,-0.03265469148755073,0.028714518994092938,-0.9990541338920592,0.0002095582894980908,0.005276914549937028,-0.01728660277041904,-0.003781554842838475,-0.003201518440619111,-0.0006490760715678334,5.7136926443490665e-06,-0.5853791942819954,0.6344453369826079,-9.775274555683136
9.7,0.8999999761581421,189.0,25.509281158447266,-0.03180709481239319,-79.78279865087444,40.45903010897608,268.8091211938858,-0.03264538943767548,0.028694005683064464,-0.9990549683570862,0.00028918165480718017,0.003476080510202281,-0.015355964266698722,-0.002732692422450823,0.0014360171044245362,-0.0014287730446085336,0.005616750568151474,-0.5860714680701494,0.6479416608810425,-9.772836851477622
9.9,0.8000000119209291,192.0,25.51804542541504,-0.03180709481239319,-79.78279865463684,40.459030124373285,268.8089771592617,-0.032644737511873245,0.02870047651231289,-0.9990548491477966,0.00033131471718661487,0.00218252791937391,-0.017080664464269632,-0.0023218852958600024,-0.005611799657344818,-0.004172599408775568,-0.00980699434876442,-0.5846283752471209,0.6436164754629136,-9.77335491478443
10.0,1.0,182.0,25.51178550720215,-0.03180709481239319,-79.7827986217291,40.45903012122138,268.7959115827084,-0.032630093395709985,0.028664197772741318,-0.9990562796592712,0.00046039561857469385,0.0042872305268552326,-0.022118237240766662,-0.0022204731888087717,-0.0016777405980974436,0.0018364480929449198,0.0016695423983037472,-0.5848051804304123,0.6363858816772701,-9.775043590664863
10.2,1.100000023841858,180.0,25.513036727905273,-0.039758868515491486,-79.78279860133938,40.45903008139208,268.7826019847393,-0.03260055556893349,0.02866633608937264,-0.9990572333335876,0.0005170796066522597,0.009282066929582444,-0.01899942406489693,-0.002785602055736636,-0.001744690933264792,-0.0016499748453497887,-0.008751616813242434,-0.5849900620803238,0.6518370759487152,-9.774087570905683
10.3,1.2999999523162842,185.0,25.51428985595703,-0.039758868515491486,-79.78279862423554,40.45903011972675,268.78246838092804,-0.03259922191500664,0.028669791296124462,-0.9990570545196532,0.0006317351362667978,0.009091499882253141,-0.022903269588037803,-0.0021520340395313935,-0.0009151510894298552,-0.0008219782030209899,-0.003426059149205685,-0.5838734997063876,0.6313216082006693,-9.774734857678414
10.5,1.2999999523162842,187.0,25.51178550720215,-0.03180709481239319,-79.78279853076961,40.45903005167926,268.7686347985268,-0.03261631354689598,0.028680063784122467,-0.9990561604499816,0.0006743354024365544,-4.700683595662062e-06,-0.014834224958057909,-0.0018091840982130925,0.0018057104898616672,0.0006711972528137268,-0.003766565350815654,-0.5840265505760909,0.6483158826828003,-9.772861409783363
10.6,1.399999976158142,190.0,25.52180099487305,-0.03180709481239319,-79.7827984930491,40.45902999903755,268.7555519068241,-0.03261226415634155,0.028698321431875232,-0.9990557432174684,0.0007741974550299346,0.0029547034301351236,-0.007740116717574378,-0.0013217065729125336,-0.0056233154609799385,-0.0016546963015571234,-0.00859475415199995,-0.5816356971859932,0.6317151258140803,-9.775050022602082
10.8,1.2999999523162842,192.0,25.509281158447266,-0.03180709481239319,-79.78279849723295,40.45903000697019,268.75549483537674,-0.03260717913508415,0.02869265899062157,-0.9990559816360474,0.0008241376490332186,0.0038077953891608213,-0.009756957260467377,-0.0012068657185061186,0.002679767785593868,0.004170048516243696,0.005525931250303985,-0.5834993144497276,0.638900476768613,-9.774729010462762
10.9,1.2999999523162842,189.0,25.51554107666016,-0.03180709481239319,-79.7827984635192,40.459029983609206,268.741021784544,-0.032595522701740265,0.02867514453828335,-0.9990568161010742,0.0009480100707150996,0.004092662956205262,-0.012613317944633586,-0.004262674631301209,-0.005555132869631052,-0.001043108175508678,-0.009904819540679457,-0.5825826537609101,0.6308503957092763,-9.775189771056175
11.1,1.2999999523162842,187.0,25.516794204711914,-0.02385532110929489,-79.78279846922233,40.45902999616343,268.74071258544916,-0.03260432556271553,0.028674772009253505,-0.9990564584732056,0.0009978089947253468,0.005157891725014815,-0.014513572490651553,-0.004080051168232396,0.004966095555573703,0.004478021524846554,0.003705634735524655,-0.5843451872840524,0.632680793479085,-9.774877529740332
11.2,1.2000000476837158,177.0,25.516794204711914,-0.03180709481239319,-79.78279846464022,40.45902995376596,268.72760647773737,-0.03256868198513985,0.02866031602025032,-0.999057948589325,0.0011217629071325064,0.010592833975367193,-0.011717830707459062,-0.0032542971175079077,-0.0015072807436808946,0.0032735364511609077,-0.010780345648527144,-0.5833263099566103,0.6336553050577641,-9.776267412900923
11.4,1.2000000476837158,178.0,25.51053237915039,-0.03180709481239319,-79.78279843750485,40.45902993062183,268.7144538187981,-0.03257620707154274,0.028663773089647293,-0.9990574717521667,0.0012398441322147846,0.009753996992523354,-0.013877278301767592,-0.003093131501921417,-0.003723821835592389,-0.004278244450688362,-0.0051541100256145,-0.5827020831406117,0.6317298169434071,-9.774744797945024
11.5,0.8999999761581421,180.0,25.50802993774414,-0.02385532110929489,-79.78279844995555,40.4590299443301,268.71430331707,-0.032574497163295746,0.028657166287302967,-0.9990575909614564,0.0012791123008355498,0.010265103355436442,-0.01578882406099812,-0.0029046596612632178,0.002437452785670757,0.0017105670413002374,0.0005362239899113773,-0.5857216218486428,0.6381401194632054,-9.774962899088859
11.7,0.8000000119209291,182.0,25.50802993774414,-0.03180709481239319,-79.78279838393945,40.45902990351557,268.7023792886734,-0.03257855400443077,0.02865620702505112,-0.9990574717521667,0.0013281719293445349,0.00455156904314698,-0.012867775896406834,-0.0025100472209827877,0.0008588883210904896,0.003207048401236534,0.002738451585173607,-0.5813277316465975,0.6313505519181489,-9.77462083697319
11.8,0.6000000238418579,175.0,25.51554107666016,-0.039758868515491486,-79.78279839423912,40.45902993022436,268.7021605396271,-0.03256448358297348,0.028651533648371693,-0.999057948589325,0.0014271691907197235,0.004687374228783756,-0.016705392527095096,-0.002018460248187673,0.0030475896783173084,0.003529088571667671,0.004938686266541481,-0.5866842928156257,0.6435283286869526,-9.773292934298516
12.0,0.6000000238418579,170.0,25.51428985595703,-0.04771064221858978,-79.78279835917456,40.45902989847262,268.69005182623863,-0.032561056315898895,0.028656702488660805,-0.9990577697753906,0.001462985179387033,0.00621363082147721,-0.016199155594736992,-0.002400226386903789,-0.0018844915321096774,0.0008646068163216112,0.005065621808171272,-0.5830251418054104,0.6304391902685166,-9.774567627310754
12.2,0.6000000238418579,164.0,25.516794204711914,-0.03180709481239319,-79.78279833307607,40.45902986163848,268.6781185144186,-0.03253388777375221,0.028649153187870983,-0.9990587830543518,0.0015373009955510495,0.00788451966444226,-0.011362647437325287,-0.002304748029643173,0.004742111545056105,-0.0015696684131398795,0.0044671399518847466,-0.5853940681368113,0.6494128203392029,-9.772245697975158
12.3,0.6000000238418579,163.0,25.51554107666016,-0.039758868515491486,-79.78279834199152,40.45902987271953,268.67802369832987,-0.032535701990127563,0.028659187257289886,-0.9990583658218384,0.0015963299665600061,0.007405358542214808,-0.013161441656813835,-0.002062647092553813,-0.0013105293037369847,-0.003884863574057817,0.005121685564517975,-0.5828157749399543,0.6303333556652071,-9.774495121836663
12.4,0.6000000238418579,159.0,25.513036727905273,-0.039758868515491486,-79.78279831861872,40.45902980692029,268.6685567522049,-0.032516960054636,0.02868434973061085,-0.9990580677986144,0.001677385764196515,0.009340120267056922,-0.004850211764940312,0.0031432066287380264,0.0054458798840641975,0.0025077767204493284,0.00631683086976409,-0.5853201374039054,0.6507923246920109,-9.772774286270144
12.6,0.6000000238418579,155.0,25.520549774169922,-0.007951773703098297,-79.78279832880631,40.45902981186353,268.66897732257837,-0.032500308007001884,0.028683962300419807,-0.9990585446357728,0.001759352977387607,0.008906993790440333,-0.006494128576087039,0.003459226803142975,0.0008815131732262672,-0.003472018986940384,0.002068445784971118,-0.5832617347687483,0.6317659965902567,-9.775633574724198
12.7,0.699999988079071,149.0,25.509281158447266,-0.015903547406196594,-79.78279825765856,40.459029797238735,268.657785552144,-0.03252464532852173,0.02864907681941986,-0.9990585446357728,0.0018538578879088163,0.002749583098343044,-0.011195363356329624,0.0021308146515458767,0.006678595207631588,0.0019730734638869762,0.004712321795523168,-0.5848197253793478,0.6518209230154753,-9.772924559712413
12.9,0.8000000119209291,148.0,25.51178550720215,-0.02385532110929489,-79.78279826009808,40.459029807837894,268.6581019484997,-0.03253844380378723,0.028643473982810974,-0.999058187007904,0.0019106897525489328,0.0021045191667148867,-0.01278741923651302,0.0025246890561925178,0.0015996111324056985,-0.0017765781376510859,0.00010663179273251444,-0.5823247550055385,0.6315484070777894,-9.775769230127333
13.01,0.8000000119209291,148.0,25.509281158447266,-0.05566241592168808,-79.78279823872873,40.45902979763419,268.64932427048683,-0.03254982456564903,0.02863527834415436,-0.9990578889846802,0.001994716702029109,0.0059452670884242685,-0.015748032504191448,0.004719202375808277,0.007261089514940976,0.004235023632645607,0.003639576025307178,-0.5853749915957451,0.651656835526228,-9.77265032529831
13.2,0.8000000119209291,147.0,25.51428985595703,-0.06361418962478638,-79.78279820904001,40.45902977831093,268.6382205659151,-0.03254295885562897,0.02863086387515068,-0.9990581274032592,0.0020381140056997533,0.00641512453473351,-0.015383078551586746,0.002262120898869856,-0.004135605413466692,-0.003195736790075898,0.001619161805137992,-0.5842468444257974,0.63217983327806,-9.775150009989739
13.3,1.100000023841858,144.0,25.51053237915039,-0.07951773703098297,-79.78279822505074,40.45902980882421,268.63899955391884,-0.03252902999520302,0.02861163765192032,-0.9990589022636414,0.0021235591266304255,0.0076707865465192185,-0.019141983688389274,0.002599873714816336,0.006363582331687212,0.004136210307478905,0.004833715967833996,-0.5851216975226998,0.6522683081030846,-9.77227142572403
13.5,1.100000023841858,145.0,25.51428985595703,-0.039758868515491486,-79.7827981667221,40.459029765363404,268.6302205348015,-0.032550454139709466,0.028628161177039143,-0.9990575909614564,0.002201787894591689,0.0036206975216029054,-0.012475386870029907,0.005411139391095314,-0.0023514791391789913,-0.0033183330669999127,-0.0016036878805607555,-0.5835092912614346,0.6331313214451075,-9.774475241303444
13.6,1.0,151.0,25.513036727905273,-0.03180709481239319,-79.78279815108348,40.4590297343124,268.6220026934147,-0.03255036100745201,0.02861248143017292,-0.9990578293800354,0.002307033166289329,0.007083405850323781,-0.007323687546945159,0.006993647556325286,0.004627615679055452,0.0030960878357291213,0.004079670179635286,-0.5858015459775925,0.651834590882063,-9.771874984502794
13.8,0.8999999761581421,150.0,25.513036727905273,-0.05566241592168808,-79.78279815820805,40.459029741179684,268.622808727026,-0.03255849704146385,0.02861624583601952,-0.9990572929382324,0.002384483115747571,0.00622868115175724,-0.008849153629702872,0.007446084188536142,-0.0035441224463284016,-0.0021059834398329267,-0.005141521338373423,-0.5841122488304973,0.6336868800222873,-9.776103106141091
13.9,1.0,149.0,25.513036727905273,-0.07156596332788467,-79.78279814205555,40.459029741727726,268.6147527867556,-0.0325687937438488,0.028609078377485275,-0.9990569353103638,0.0024729676079005003,0.008497422050196915,-0.012791771635669618,0.0077365143214239,0.005683142691850661,0.003688919823616743,0.0036861922126263376,-0.5847604126855731,0.6511159680783749,-9.773164295554162
14.11,1.100000023841858,149.0,25.516794204711914,-0.04771064221858978,-79.78279815088374,40.45902975323901,268.61567348480224,-0.032562367618083954,0.028601812198758125,-0.999057114124298,0.002551055978983641,0.007607291001302161,-0.01426263366652164,0.008155822934945238,-0.009346837177872658,-0.0019588922150433072,-0.005061786621809007,-0.585012939311564,0.6371253351867199,-9.774790406227114
14.2,1.100000023841858,145.0,25.50802993774414,-0.04771064221858978,-79.78279814238462,40.45902975525739,268.6078970903158,-0.032567646354436874,0.028583824634552002,-0.9990571737289428,0.0026727120857685804,0.009495727617323792,-0.01639714257597933,0.0082220738006079,0.004700976889580488,0.0026378314942121506,0.0031022115144878626,-0.5841928307712079,0.6480567779392005,-9.773649614453317
14.4,1.0,143.0,25.51428985595703,-0.039758868515491486,-79.78279815223911,40.459029769849714,268.60888830065727,-0.03255508095026016,0.0285858903080225,-0.999057412147522,0.002718745730817318,0.008523711071645323,-0.017920729329427437,0.008618414152013186,-0.001999337458983064,-0.0018008258193731308,-0.004733714275062084,-0.5855466804653406,0.6377606351673604,-9.774968746304513
14.5,1.0,141.0,25.51053237915039,-0.02385532110929489,-79.78279814328762,40.459029754876816,268.6008968824148,-0.032550200819969184,0.028576944023370743,-0.9990575909614564,0.002791363513097167,0.010022211844887684,-0.014596644888563572,0.008588391659088798,0.0018707436975091696,0.003532825037837028,0.003165275324136019,-0.5838068414479495,0.6467298254370689,-9.773954839110377
14.7,1.100000023841858,139.0,25.51554107666016,-0.02385532110929489,-79.78279812524605,40.45902974030637,268.59144270658487,-0.03255453333258629,0.028591806069016457,-0.9990569353103638,0.002848639851436019,0.009084038734939596,-0.011996782723234293,0.005745383030863228,-0.005669152364134789,-0.0016514580929651856,-0.006963393185287714,-0.5862325223162771,0.6413699752092362,-9.774448344111443
14.9,0.8999999761581421,136.0,25.513036727905273,-0.03180709481239319,-79.78279814766069,40.459029764119975,268.5929130488634,-0.032574057579040534,0.028578272089362144,-0.999056339263916,0.002946849912405014,0.010352181873210384,-0.015511743791746272,0.006238714426583228,-0.0006286971038207412,0.0002617421851027757,0.004160430748015642,-0.5819666495919228,0.63092772513628,-9.775898453593255
15.0,0.8999999761581421,136.0,25.51178550720215,0.15903547406196594,-79.7827981096278,40.459029743285974,268.58322376251215,-0.03257537633180618,0.028595143929123882,-0.9990557432174684,0.002992739668115973,0.005293550562244507,-0.011152501450635895,0.0036482951922995133,-0.006592910271137953,-0.0030474737286567692,-0.011757194064557552,-0.5855324278771877,0.6458750355988742,-9.774933663010597
15.1,0.8999999761581421,132.0,25.45544242858887,0.9780681729316713,-79.78279810632607,40.459029753689215,268.5742304944992,-0.032597076147794724,0.02857373841106892,-0.9990551471710204,0.0031413240358233448,0.007822296413085466,-0.013352773920142488,0.0014894364324082596,-0.0005805942346341907,0.005145461764186621,0.009894173592329024,-0.5839742179960012,0.6353673698008061,-9.775116680860519
15.3,0.8999999761581421,132.0,25.49926567077637,0.2624085247516632,-79.78279811496027,40.45902976652416,268.57451440632343,-0.032584093511104584,0.028560519218444824,-0.9990558624267578,0.0031796288676559925,0.006803863300480289,-0.015624636489843297,0.0017065386953035414,-0.0028132183942943807,-0.0005796222249045968,-0.012069107964634895,-0.583357154019177,0.6441118077188731,-9.77588792860508
15.51,0.8999999761581421,133.0,25.4942569732666,0.2703603208065033,-79.78279807167627,40.45902974155021,268.5654014223814,-0.03258373588323593,0.02859385311603546,-0.9990543723106384,0.0033380999229848385,0.0002090196616794002,-0.009357470411852479,0.001095952711299631,0.001070640399120748,0.0019534989260137077,0.000504841620568186,-0.5819536395370961,0.6279574857652188,-9.777233957648278
15.6,0.8999999761581421,136.0,25.49926567077637,0.2703603208065033,-79.78279808172293,40.459029760952774,268.55695262789726,-0.03256367892026901,0.028571061789989468,-0.9990553259849548,0.00342938513495028,0.006667419451179637,-0.015611012565537088,-0.0002933665653938941,0.0024752127937972546,0.003113068174570799,0.007476929575204848,-0.5835760226100684,0.6460719405859711,-9.773594650626183
15.71,0.8999999761581421,140.0,25.49550819396973,0.2624085247516632,-79.78279808894345,40.459029775111524,268.55707550287246,-0.0325639471411705,0.0285684522241354,-0.9990552663803101,0.003484337590634823,0.0058317164598241785,-0.016978137671953168,1.942280704711683e-05,-0.004733877256512642,-0.004028626251965761,0.0017913852352648973,-0.583521095328033,0.6339608220756054,-9.779234290122986
15.9,0.8999999761581421,140.0,25.496761322021484,0.3498780429363251,-79.7827980964273,40.459029790570455,268.5572290146351,-0.03256135433912277,0.02856915816664696,-0.9990550875663756,0.003546606516465545,0.006110097557278922,-0.01854120786245725,0.00022927134328007886,-0.0021914266981184483,0.0028419436421245337,-0.004732836969196796,-0.587019557543099,0.6531914372742177,-9.7740133112669
16.1,0.8999999761581421,143.0,25.48924827575684,0.4214440286159515,-79.78279811423786,40.459029750159566,268.55147866398096,-0.03256827592849732,0.02858245931565762,-0.9990540742874146,0.0036601524334400892,0.008349242080965914,-0.007035509595923087,0.005138537116636653,-0.005203342065215111,-0.008338924497365952,-0.005211186595261097,-0.5814118219166995,0.6328664425760507,-9.777935038805008
16.2,0.8999999761581421,142.0,24.219669342041016,27.79145050048828,-79.78279809457597,40.45902975088944,268.54434763878584,-0.032578106969594955,0.028572218492627144,-0.9990537762641908,0.003738013096153736,0.005419888622811804,-0.010096669588013151,0.006596159536901809,0.006551569793373346,-0.0065647074952721604,0.0014508654130622745,-0.5800019485875965,0.6441579276323319,-9.77305378317833
16.3,0.8999999761581421,142.0,25.381572723388672,2.1151719093322754,-79.78279810812802,40.45902977002631,268.54607866197824,-0.03211304172873497,0.028956966474652287,-0.999057948589325,0.0036703101359307775,0.009389554553392424,-0.016103044177571083,0.005333145511860645,0.005838052369654179,-0.004895953461527824,0.010911460965871813,-0.5719549007713794,0.6565176258981228,-9.764464808106423
16.5,0.8999999761581421,145.0,25.493003845214844,0.198794350028038,-79.7827980895803,40.459029752093954,268.53653797000646,-0.032026540488004684,0.02908745035529137,-0.999057114124298,0.003635719185695052,0.0036129811721690506,-0.010596154827299812,0.004186635869536975,-0.012552426196634771,0.008807451464235783,0.009431724436581137,-0.611782223470509,0.5933117463067175,-9.778519760370255
16.6,0.8999999761581421,146.0,24.40121650695801,16.094390869140625,-79.7827981097209,40.45902976623189,268.5300342613458,-0.03197959065437317,0.029206562787294388,-0.9990550875663756,0.0036448505707085133,0.006543231192969824,-0.009725244284226152,0.006380956280951189,-0.003917630296200514,-0.1030598059296608,-0.01958646811544895,-0.597383674196899,0.6260272467881441,-9.76927355825901
16.8,0.8999999761581421,142.0,25.475475311279297,0.3339745104312897,-79.7827981144803,40.459029778053825,268.53062726795673,-0.03195004165172577,0.029263554140925407,-0.9990537762641908,0.003810554509982466,0.004957448547470838,-0.012060578154934224,0.005483339865046997,-0.03727094456553458,-0.11149034649133682,-0.03698711842298509,-0.6054712870717049,0.6560063599795103,-9.756831268072126
16.9,0.8999999761581421,141.0,25.4942569732666,0.22264966368675232,-79.78279813052842,40.459029746469405,268.52593440800905,-0.03188363462686539,0.029291149228811264,-0.9990545511245728,0.003946206532418728,0.011553836789387505,-0.006847987350247734,0.00651442043212569,0.020547112450003624,-0.02647276967763901,-0.005916772875934839,-0.6242857266962528,0.6930419661104681,-9.755568269491196
17.11,0.8000000119209291,143.0,25.432905197143555,1.9561363458633425,-79.7827981397494,40.459029751836034,268.526710870266,-0.03191929683089256,0.029290707781910893,-0.999053418636322,0.003951204475015403,0.012626521757640459,-0.007372577807363406,0.0072491666203280064,0.017400704324245453,0.006671570707112551,0.023308273404836655,-0.6164487035572529,0.6328209073841572,-9.777025212049487
17.2,0.8000000119209291,148.0,25.29267692565918,3.999742269515991,-79.7827981740494,40.45902976135897,268.51901080697775,-0.031863003969192505,0.029250554740428925,-0.9990561604499816,0.0039988062344491464,0.0068373841842225645,-0.011051817268282577,0.004023535947658463,-0.01781880296766758,-0.006629849784076214,-0.005301219411194325,-0.6146020797640086,0.6414140485972166,-9.777238635420801
17.4,0.8000000119209291,153.0,25.16997528076172,6.377322673797607,-79.78279818623783,40.45902977230463,268.5195850306749,-0.031800299882888794,0.0292500127106905,-0.9990576505661012,0.004123374819755554,0.011265610903954044,-0.014165990676909587,0.004115969217460686,-0.0035095603670924893,-0.035820834338665015,-0.008817246183753014,-0.5944863788411021,0.6151624622941018,-9.772815216779712
17.5,0.699999988079071,161.0,25.09109687805176,7.41105318069458,-79.78279820439869,40.45902976281523,268.5127964788676,-0.03152505308389664,0.0294641237705946,-0.9990603923797609,0.0040499637834727755,0.008985788371843585,-0.009482580912035792,0.005366195604681437,0.016140766441822052,-0.053538013249635696,-0.004068581387400627,-0.6067593555897475,0.6883802734315396,-9.781136389374733
17.7,0.8000000119209291,163.0,24.95462226867676,10.249836921691896,-79.7827982395165,40.45902972697908,268.50538371741766,-0.03112001903355122,0.029789108783006668,-0.9990641474723816,0.003872741479426623,0.02001746242022606,-0.0006565682067818452,0.00790153206451198,0.13123321533203125,0.009197031147778034,-0.1279488354921341,-0.5279797825589776,0.483517883643508,-9.801230930685998
17.9,0.8000000119209291,172.0,24.774328231811523,13.50211238861084,-79.78279826186964,40.459029732613395,268.5078944066167,-0.02978960238397121,0.02977077290415764,-0.9991056323051452,0.0037844816688448186,0.007596858364427841,-0.004565444494474553,0.015001997158092127,-0.007861757650971413,0.0019270527409389613,0.013195795938372612,-0.5761310187354685,0.4909515219926834,-9.785980222821237
18.0,0.8000000119209291,174.0,24.68668365478516,15.672945976257324,-79.78279828484577,40.45902973059301,268.50164672970766,-0.028661170974373817,0.029477003961801525,-0.9991474151611328,0.003767139511182904,0.009551040823317005,-0.006498909687059004,0.01989759970467216,-0.014098708517849444,-0.03594102337956428,0.07726185023784637,-0.6790535990148783,0.6391773424297571,-9.774337247014047
18.11,0.8000000119209291,184.0,24.584014892578125,17.724504470825195,-79.7827983033977,40.45902973775753,268.49643616989255,-0.02628064528107643,0.02510147914290428,-0.999336302280426,0.002501503098756075,-0.013385175012584924,-0.009939586475975664,0.02989470209366632,-0.012482207268476486,0.1320812702178955,-0.05404199659824371,-0.5918336067348718,0.4738294127583504,-9.911960238218306
18.3,0.8999999761581421,188.0,24.38994789123535,21.23123550415039,-79.78279826450925,40.45902973886595,268.50026570126414,-0.02870781347155572,0.02167736366391182,-0.9993395805358888,0.005136930383741857,-0.04319968608784533,0.012319847683562929,0.05231078406314337,-0.04775043576955795,0.019338982179760933,-0.03302622213959694,-0.3020794945769012,0.30521592278033505,-10.055238071680073
18.4,0.8999999761581421,199.0,24.27851486206055,23.21122741699219,-79.78279823521144,40.45902953464818,268.50633834540844,-0.031801145523786545,0.005493125412613154,-0.9992677569389344,0.020554101094603545,-0.1161905858916472,0.02831998544870556,0.21590253390915126,-0.0209138598293066,0.2881307899951935,-0.2670949101448059,-0.2949523051455617,0.20803136140108108,-10.365271478891373
18.6,0.8999999761581421,206.0,24.794361114501953,12.28549098968506,-79.7827980699205,40.459029482321704,268.5337663242221,-0.02618326619267464,-0.002458283444866538,-0.9992188811302184,0.0294967032968998,-0.11638858752902335,0.060633089390269686,0.35026000168170146,0.4119579493999481,0.2757955491542816,-0.16807016730308533,-0.0054328479187097396,0.4055342993885279,-11.014332296848297
18.7,0.8999999761581421,210.0,24.65538215637207,16.332942962646484,-79.78279746938902,40.45902944109546,268.5826097899676,0.006246248725801706,-0.0025722028221935034,-0.9994962215423584,0.031014293432235718,-0.17742972072480925,0.08933042317894163,0.22917951983934146,0.1412850320339203,0.05196096375584602,0.06350837647914886,0.13713988328352572,0.00611351978033781,-9.985975463390352
18.9,0.8999999761581421,215.0,24.57024383544922,17.501853942871097,-79.78279724698115,40.45902936664686,268.6014464074373,0.009867623448371887,-0.004743790719658136,-0.9995534420013428,0.027804160490632057,-0.1802964173395996,0.08568504535428714,0.15168959816300093,0.05957004800438881,0.1699507236480713,0.06219186261296272,0.03714176507201046,-0.1325004739779979,-9.195673397183418
19.0,0.8999999761581421,227.0,24.513900756835927,17.978960037231445,-79.78279679812896,40.45902929773517,268.6060621911288,0.010012999176979063,-0.008583875373005867,-0.9996858835220336,0.02131307311356068,-0.1500681671902913,0.0904321140993621,-0.005995281602518771,-0.016270270571112633,0.014380047097802162,0.05149870365858078,0.05104013529606164,-0.1573931582272053,-9.063734484314919
19.2,0.8999999761581421,232.0,24.31858062744141,21.86737823486328,-79.78279654870131,40.45902914416353,268.6204836243391,0.009690898470580578,-0.008715987205505371,-0.9997191429138184,0.01979592442512512,-0.14885398043406536,0.08963517853211472,-0.004005945056332579,-0.02424946054816246,-0.0042479075491428375,0.013226189650595188,0.05388351749628782,0.022640240848995748,-9.385212646722792
19.4,0.8999999761581421,240.0,24.44378662109375,19.799917221069336,-79.78279621581947,40.45902900374272,268.6227224045992,0.0076637305319309235,-0.010716194286942482,-0.999727427959442,0.019274584949016568,-0.12605234616646027,0.0770757235566104,0.03958283851258386,0.02031191624701023,0.08454424142837524,-0.004155502654612064,0.15560297833755612,-0.05479845599737019,-10.110668506622314
19.51,0.8999999761581421,248.0,24.43001365661621,19.632930755615234,-79.78279587029877,40.45902893534351,268.64789702236646,0.007175690494477749,-0.010545403696596622,-0.9997230768203736,0.019779812544584274,-0.14761459335299407,0.08068134661449691,0.08710953159123044,-0.09212028980255127,-0.10438890010118483,-0.06433453410863876,0.13786428934894504,-0.043142365068197255,-9.958329827785493
19.6,0.8000000119209291,264.0,24.386192321777344,20.348588943481445,-79.78279545827252,40.45902878861608,268.6693256670237,0.006935092154890299,-0.006909349001944065,-0.9997048377990724,0.02223923429846764,-0.13818862482832694,0.08149890582193006,0.13424184517422613,-0.053413450717926025,0.002456004032865167,-0.08401398360729218,0.19794944599270825,-0.10185794848948718,-10.049085631370543
19.8,0.8000000119209291,273.0,24.41373634338379,19.720399856567386,-79.78279530645618,40.459028720734224,268.6842272156477,0.008499224670231342,-0.005989269819110632,-0.9996811151504515,0.023013247177004814,-0.1200346527265739,0.08311537629514308,0.16351274629624615,0.018940085545182228,-0.02052420005202293,-0.002855740720406175,0.16563188508152962,0.009246677197515964,-10.087231696844102
19.9,0.8000000119209291,293.0,24.386192321777344,20.141843795776367,-79.78279491577099,40.4590285839016,268.71207916975015,0.012757683172821999,-0.008933361619710922,-0.9996160268783568,0.02292281575500965,-0.10233177305280076,0.08682532944018262,0.2047216423960302,-0.0624941885471344,0.08596564084291458,-0.0753651037812233,0.05422085158992559,-0.0763052734779194,-10.14668033838272
20.1,0.8000000119209291,309.0,24.45630645751953,18.83775329589844,-79.78279481421811,40.45902850927706,268.7330454015732,0.012197461910545826,-0.011674878187477587,-0.9996039271354676,0.022514838725328445,-0.06922249320710558,0.08985377380651605,0.20590478182057054,0.000325138884363696,0.05106362700462341,-0.02517494186758995,0.2618383900076151,-0.010293374480679629,-9.886089817285539
20.2,0.8999999761581421,338.0,24.36741065979004,19.92714500427246,-79.78279469201003,40.4590283229851,268.765913399458,0.01190780196338892,-0.011688739992678164,-0.9996494650840759,0.020559586584568024,-0.008497403056149494,0.0911133997356121,0.18401264413090004,0.033037878572940826,0.034224264323711395,0.05369728431105614,0.2413460918515921,-0.05720578665845096,-9.725245778560641
20.4,1.0,351.0,24.303556442260746,21.08015251159668,-79.78279469211402,40.45902824878575,268.78512075781816,0.012361373752355577,-0.011549639515578749,-0.9996784329414368,0.01889165863394737,0.01420596801167274,0.08544130292456903,0.1960856211044125,0.034477151930332184,0.0324016846716404,0.02009359933435917,0.2481280214712024,0.0010291327955201269,-9.902111188173297
20.5,1.0,8.0,24.36741065979004,19.83172416687012,-79.78279468330327,40.45902807833472,268.82266423344606,0.007904806174337864,-0.014301047660410402,-0.9997350573539734,0.016217200085520744,0.04845451491390946,0.07742079156049522,0.20889671472731688,0.07108379900455475,-0.020080145448446274,0.12496894598007202,0.22437513314187527,-0.12953718731179836,-9.964235515594485
20.7,1.0,16.0,24.37492370605469,19.89533805847168,-79.78279480571092,40.45902784757775,268.83499947428703,0.007118781562894583,-0.01520577073097229,-0.9997349977493286,0.015754228457808498,0.0648733451433872,0.09286857031412904,0.20490911689773766,0.006268251221626997,0.029172638431191444,0.004635607823729515,0.16782004108652473,-0.03947435187175871,-9.909518440961838
20.8,1.0,27.0,24.30731201171875,20.746177673339844,-79.78279488663742,40.459027778631686,268.8558262014389,0.00687596807256341,-0.018115485087037086,-0.999687910079956,0.015769889578223232,0.07268127425177617,0.07576383279983974,0.21036193993008,-0.04608094319701195,0.04812335595488548,-0.06576681137084961,0.15810900360345842,0.10523799545131624,-9.877935290336607
21.0,0.8999999761581421,33.0,24.289783477783203,21.811716079711914,-79.78279502701446,40.459027568418094,268.900047185421,0.004608817398548125,-0.02013522386550904,-0.999641478061676,0.01703866384923458,0.09450304180152444,0.05307886495207119,0.16339351050898926,-0.02549802698194981,0.04355864226818085,-0.03496783971786499,0.1965697040967644,0.08264390649273992,-9.073813329935074
21.1,0.8999999761581421,34.0,24.08820343017578,24.35628318786621,-79.78279514035555,40.459027520961406,268.9064803445339,0.0016470237169414759,-0.017521996051073074,-0.9997074604034424,0.0165948998183012,0.09925308326609464,0.0449733427998958,-0.009737529457303629,-0.08926288038492203,-0.07449186593294144,-0.016584202647209167,0.2745893766358495,0.037891225086059424,-8.558606387972832
21.3,1.0,32.0,24.16207504272461,23.227130889892567,-79.78279525259197,40.45902728681324,268.9425192499161,-0.0046686469577252865,-0.0079405652359128,-0.9998762011528016,0.012762053869664669,0.09886441592130628,0.047870840521666236,0.1347420427451728,-0.08450143784284593,-0.053511057049036026,0.011466736905276777,0.1254061385896057,0.1327923231292516,-10.422141498327257
21.4,1.100000023841858,23.0,24.13703346252441,23.736045837402344,-79.78279536583995,40.459027244665535,268.96113282680506,-0.0057788752019405365,-0.007229666225612163,-0.9999096989631652,0.009745591320097443,0.09610173344785736,0.049988403631878967,0.24263282746633155,-0.03499582037329674,-0.013044686056673528,0.12545953691005707,0.1404459812399,-0.1264180266670883,-10.836313816308978
21.6,1.100000023841858,16.0,23.99930763244629,26.24880599975586,-79.78279551108862,40.45902700118217,269.05787194013595,-0.006281883921474218,-0.010661564767360687,-0.9999189972877502,0.0029819561168551445,0.06473770791702146,0.08373290950384239,0.5805423290237944,-0.06851272284984589,0.03717620670795442,0.12481909990310668,0.16589932210743427,-0.02093628454953432,-11.538511791229247
21.7,1.2000000476837158,6.0,23.78520774841309,30.75746154785156,-79.7827956616657,40.45902678293676,269.21170461416244,0.0021707152482122183,0.011839247308671473,0.999923825263977,0.002747149672359228,0.06293572361460238,0.0889863063070337,0.9999496761242452,0.14258888363838196,0.0576561763882637,0.09332434087991713,0.25521499302238226,0.2129774845764041,-11.833517854213715
21.9,1.2000000476837158,356.0,23.86408615112305,29.190961837768555,-79.78279571060804,40.45902672218429,269.323122742176,0.001388069475069642,0.012243754230439665,0.999911904335022,0.004932076670229435,0.048719694414304585,0.09103718575646896,1.2182000770274093,0.019569000229239464,-0.008801709860563278,0.10042069107294084,0.2326970000937581,-0.1523200773820281,-11.963060578107836
22.0,1.2000000476837158,341.0,23.748897552490234,30.96420669555664,-79.78279571465784,40.45902660623153,269.45756834983825,0.0007788269431330264,0.012865485623478893,0.9998963475227356,0.006421309895813465,0.035040569769761436,0.0969968678946247,1.4092247521185892,-0.02536139450967312,-0.005782571621239185,-0.10649070143699646,0.24862744677811865,0.11677175623364748,-11.912297390699385
22.2,1.100000023841858,336.0,23.67252349853516,31.512880325317386,-79.78279574866517,40.45902643977013,269.78283339977264,0.0044871196150779715,0.010615812614560127,0.9999091625213624,0.006995934527367354,0.024846629237667773,0.11621690377250787,1.9076156030560445,0.01317630521953106,-0.08613013476133348,0.04739481583237648,0.3615621413290501,-0.20075673077255488,-12.548935214281082
22.3,1.2999999523162842,325.0,23.97927474975586,26.717960357666016,-79.78279575675599,40.459026321128036,270.22217089176183,0.005960781592875719,0.005827522370964289,0.9999500513076782,0.005529675632715225,0.014929340238852291,0.10371788925993004,2.4332919840169365,-0.015007458627223969,-0.033528506755828864,-0.08375944197177887,0.2396991139277816,0.020128446025773884,-12.685121544599536
22.5,1.399999976158142,326.0,23.798980712890625,29.365901947021484,-79.78279566913673,40.459026220541226,270.46508282661443,0.004722704645246267,0.007250643800944091,0.9999541640281676,0.0041198059916496286,0.0035396377496896845,0.11122653941467923,2.6194825390758867,0.020176809281110764,0.014998848550021647,-0.08019880950450897,0.2679560759291053,0.08761071419343353,-12.012770097255707
22.6,1.7000000476837158,322.0,23.957990646362305,26.622539520263672,-79.78279563070856,40.45902614271166,270.7386390590668,0.005158163141459228,0.007772541139274836,0.9999526739120485,0.002765325829386711,-0.011838488486542977,0.1318888566178499,2.8454075701337795,0.0033359501976519823,-0.0022087006364017725,-0.12280648946762085,0.2942393833771348,0.09804360872134567,-12.042470444440848
22.8,1.7000000476837158,323.0,23.96174621582031,25.501338958740234,-79.7827954184909,40.459025921941155,271.34990710258484,0.0061087124049663535,0.012081035412847996,0.9999080896377563,0.0008313924772664907,-0.024964320866956928,0.14967609965115047,3.11735630136213,-0.004145625978708267,0.12778998911380768,-0.047895483672618866,0.21725391883403064,0.19265457294881344,-10.91213583111763
22.9,1.7999999523162842,334.0,24.00932502746582,25.294591903686523,-79.78279533689155,40.45902583525786,271.6652440452576,-0.008607898838818073,-0.01417341735213995,-0.999862551689148,3.196609759470448e-05,-0.033719528214452545,0.17069353516352406,3.1864393459039766,-0.04871160909533501,-0.015366020612418653,0.03467327356338501,0.3111494214087725,-0.215592103600502,-10.632655295133592
23.1,1.8999999761581416,338.0,24.184612274169922,22.034364700317386,-79.78279498779116,40.45902554994858,272.350941362381,-0.01601299270987511,-0.01320803351700306,-0.9997845888137816,0.00019605654233600944,-0.03849484447429003,0.18230898888962813,3.2917783157847613,-0.08006419241428375,0.0469791442155838,-0.002470207866281271,0.1444003526866436,0.05629002132453025,-10.222337461709976
23.2,2.0,343.0,24.006820678710927,25.191219329833984,-79.78279424179314,40.459025188425954,273.1056231880188,0.015278278850018978,0.014578742906451225,0.9997766017913818,0.0009468305506743492,-0.0679102364325668,0.17564846452629265,3.3177606153329022,0.15335696935653687,0.06701137125492096,0.0907423049211502,0.15303234133869412,-0.061401940472424026,-9.865985920429232
23.4,2.200000047683716,344.0,23.97551918029785,24.96061897277832,-79.78279400112882,40.4590251087142,273.4366993331909,0.01395869255065918,0.01571212150156498,0.9997780323028564,0.0014774807495996356,-0.11256065858133353,0.17960653238827445,3.3032398453807796,0.116827555000782,0.04132435843348503,-0.012744151055812836,0.20328824624419206,0.10575489845126868,-9.650520701408386
23.51,2.200000047683716,349.0,24.10823631286621,23.219179153442386,-79.78279326570402,40.45902483377784,273.8466352844238,0.01322627067565918,0.0165333803743124,0.9997740387916564,0.0019300365820527079,-0.1839334012692131,0.1879865087041372,3.3313283302126173,-0.1317162960767746,0.010773452930152416,-0.08067626506090164,0.157692864574492,0.2035944941639901,-9.70550850212574
23.7,2.0999999046325684,349.0,24.09947204589844,23.96664619445801,-79.7827925359495,40.45902451502774,274.51946968078613,0.01332333032041788,0.016281139105558395,0.9997737407684326,0.003140803426504135,-0.21582874146905132,0.18876211834078271,3.2763946684396577,0.00635620253160596,-0.09441455453634262,-0.024188624694943428,0.27789605017751456,-0.02476458454504609,-9.620692884922027
23.8,2.0999999046325684,343.0,23.92543792724609,26.09772109985352,-79.78279216591281,40.45902445274621,274.84510272979736,0.011259964667260649,0.015129077248275282,0.9998170733451844,0.0032071322202682486,-0.2239314915683068,0.16149409055123332,3.2387574060962767,0.245324045419693,0.07879959046840668,0.1049741357564926,0.1933745479211212,-0.18726839197799566,-9.491465325951577
24.0,2.0,344.0,24.09571647644043,22.821590423583984,-79.78279152844716,40.45902403428518,275.4818648719788,0.004270873498171568,0.014432836323976515,0.9998835921287536,0.0024992034304887056,-0.27661840422341744,0.15541938067658148,3.1997696010679,0.13344573974609375,-0.010645894333720207,0.05513681098818779,0.12901363310404124,-0.2004212833195925,-9.687927678823472
24.1,1.7000000476837158,336.0,23.909160614013672,26.034107208251953,-79.78279113104006,40.459023625651305,276.0609807395935,-0.002479502465575933,0.01470089238137007,0.9998880624771118,0.00128172617405653,-0.31594228862574497,0.1489384684938362,3.1070293478045015,-0.0260761957615614,0.04880097508430481,-0.03344644233584404,0.18873463612049812,-0.02616898524574936,-9.551006938219073
24.31,1.600000023841858,339.0,23.9104118347168,25.5570011138916,-79.78279077062088,40.4590235732898,276.37161916732794,-0.003397515043616295,0.01669885218143463,0.999854564666748,0.0007218786631710827,-0.33279471111889564,0.14465488218405884,3.103605605810404,-0.11993855237960815,0.04250872880220413,-0.04387136921286583,0.0914441305026412,0.12089415290392935,-9.754317550063133
24.4,2.0,323.0,24.10197639465332,23.52134704589844,-79.78279041816147,40.459023533718145,276.68330043792724,-0.004098489880561829,0.01880256459116936,0.9998146891593932,0.0006571681005880238,-0.3008918229042686,0.13730854897033432,3.12255886803757,0.15811215341091156,0.03989242389798165,0.08460981398820877,0.2322367876768112,-0.30408466927707195,-9.999944461584093
24.6,1.8999999761581416,318.0,23.94296646118164,25.31049728393555,-79.78279022008229,40.45902305703221,277.1962732696533,-0.010060735046863556,0.01895925588905812,0.9997689127922058,0.001192919909954071,-0.2645018998958182,0.15571629630224604,3.03056018221991,0.02647913247346878,0.016757862642407417,-0.018376929685473442,0.18456844015046955,0.17382586246356369,-9.736507515907288
24.7,1.8999999761581416,321.0,24.03186225891113,23.5849609375,-79.7827894476604,40.459023122775896,277.5326513671875,-0.012406558729708195,0.01705537922680378,0.9997762441635132,0.0016641088295727964,-0.28361466810171737,0.1124266430570105,2.999970570142081,-0.02029502764344216,-0.1131315901875496,-0.011499335058033466,0.18081286489963533,-0.13639423537999393,-9.70013900399208
24.9,2.0,326.0,24.03937339782715,23.664478302001953,-79.78278897337239,40.45902313356682,278.133416595459,-0.015582241117954252,0.0152863385155797,0.9997588992118835,0.0023984787985682487,-0.2739805226383714,0.08170065531031521,2.9895241359328883,-0.038511592894792564,-0.005471125710755587,-0.01954997330904007,0.23460967915132644,-0.06235473055858165,-9.750202279686928
25.0,2.0,316.0,23.99680328369141,24.28471755981445,-79.78278835249104,40.45902306347934,278.7896294021606,-0.014934558421373369,0.017437193542718887,0.99973326921463,0.002509106416255236,-0.2217706759079429,0.07398061161415008,2.95762258612397,0.0423210896551609,-0.05753804370760918,0.029951691627502438,0.18242508843541147,0.10499254943802952,-9.669810081124307
25.2,2.0,317.0,23.931697845458984,25.77169990539551,-79.7827878541902,40.45902275732425,279.123180809021,-0.0139235220849514,0.015864498913288116,0.9997740387916564,0.0025501607451587915,-0.21273197146327927,0.0912273296331129,2.9202409248202015,0.11490945518016815,0.0392959862947464,0.04819011315703392,0.2644351019337773,-0.08999073196202517,-9.415633370876312
25.3,2.299999952316284,311.0,24.09822082519531,22.662555694580078,-79.78278770661797,40.459022764268425,279.4138073348999,-0.012153114192187786,0.01322933379560709,0.9998365044593812,0.002094443654641509,-0.2122624607813249,0.08164020542003793,2.888247868076833,-0.2076346725225449,-0.0669647827744484,-0.0911477580666542,0.2017278802022338,0.1845880100503564,-9.483220167160033
25.5,2.4000000953674316,316.0,24.018089294433594,23.78375625610352,-79.78278709799633,40.459022284228226,280.050592842102,-0.01185669470578432,0.013413453474640845,0.9998388290405272,0.0014178893761709332,-0.1728191952683647,0.1029230920324259,2.89917215139616,-0.0769309252500534,-0.030393676832318306,0.059535980224609375,0.20575383435934785,-0.21606183601543308,-9.783766466975214
25.6,2.700000047683716,319.0,23.907907485961914,26.137481689453125,-79.78278645567906,40.45902169281982,280.6552557373047,-0.013761446811258793,0.017232704907655716,0.9997536540031432,0.002517301356419921,-0.1776272093171097,0.17873169568037536,2.9031314532802304,-0.1137157306075096,-0.03815937042236328,-0.009400788694620129,0.37227237660437823,-0.22337856659665706,-9.79800151348114
25.8,2.799999952316284,323.0,23.937957763671875,25.286640167236328,-79.78278635823501,40.459021614809096,280.94741004943853,-0.013426139019429684,0.01738096959888935,0.99975323677063,0.003337373957037925,-0.15950952687554726,0.1872356631019708,2.926847409121605,-0.0412793830037117,0.06635237485170364,-0.01532592624425888,0.2330528579838574,0.03584421766921878,-9.918105661869047
25.9,2.9000000953674316,316.0,24.050642013549805,22.81363868713379,-79.78278627937945,40.45902154370443,281.24095195770263,-0.012423803098499777,0.01827972382307053,0.99974924325943,0.00361238676123321,-0.13870247905556776,0.1754643338152841,2.9292571726274423,-0.044032022356987,-0.06500402092933655,-0.034451235085725784,0.2552249332889915,-0.2290486664324999,-9.89975242137909
26.11,3.0,315.0,23.88286781311035,24.722064971923828,-79.78278593322841,40.45902121144145,281.8564323806762,-0.011245233938097956,0.018331751227378845,0.999764323234558,0.0029845633544027805,-0.1142700830252362,0.1802471680267717,2.939273214025098,-0.07122255861759186,-0.0254944059997797,-0.11614986509084704,0.3114012171328068,0.1085879292525351,-9.744469669461251
26.2,3.0,311.0,23.87660789489746,25.779651641845703,-79.78278597896455,40.45902129206141,282.1670965576172,-0.012677788734436035,0.014320728369057178,0.9998137950897216,0.002567531308159232,-0.08636529487413203,0.1341530037471118,2.9365763525453423,-0.04604655504226685,-0.11454115062952044,-0.01962866261601448,0.2842064383998513,-0.04108795498497785,-9.713936094045641
26.4,3.0,309.0,23.861581802368164,26.23290252685547,-79.78278597692102,40.45902123565133,282.754208984375,-0.014733050018548962,0.008155660703778267,0.999855637550354,0.0023005532566457987,-0.06537120394341599,0.08486447133494031,2.931870526792244,0.10711836814880372,0.07384596019983293,-0.03847958892583847,0.2487546785362065,-0.04732518905773759,-9.784692081213
26.5,3.0,306.0,23.9104118347168,25.14350891113281,-79.78278594813459,40.45902099653541,283.37697166442865,-0.013713310472667216,0.012936027720570564,0.999821662902832,0.0011702354531735182,-0.055140463700780185,0.1188759982059229,2.9621118596352223,-0.2438749372959137,-0.030723595991730687,-0.11252397298812866,0.2681837701611221,-0.18050111694261434,-9.873696058988573
26.7,3.0,302.0,23.9003963470459,25.23097801208496,-79.78278600224583,40.459020886651366,283.7013906860352,-0.013180955313146114,0.015897441655397415,0.9997867345809937,0.000354552932549268,0.01161705281712693,0.12187348943261996,2.9805740569023067,0.1424582302570343,0.10300768166780473,0.08722452074289322,0.3002096098288894,-0.3216810607910157,-9.914046524763107
26.8,3.0,301.0,23.905405044555664,25.27868843078613,-79.78278610052752,40.45902084561648,283.99992221832275,0.012654715217649937,-0.018609672784805298,-0.999746561050415,0.0006134691648185253,0.008544249782346414,0.1351476572044032,2.9855774054375934,-0.03685437887907028,0.05880579724907875,-0.040774691849946976,0.2825166844390333,-0.07056994521059096,-9.85488556623459
27.0,3.0,300.0,23.86659049987793,25.453628540039066,-79.78278626334469,40.45902065018547,284.6142248535156,0.010665575042366982,-0.01858130097389221,-0.9997699856758118,0.0010655141668394208,0.056212923357235565,0.15200473640008805,2.9714248238099916,0.08863435685634613,-0.03957242146134377,0.09661058336496353,0.30217332411557435,-0.31392169598490005,-9.761716032028199
27.1,3.0999999046325684,295.0,23.931697845458984,25.3900146484375,-79.78278654957296,40.459020540579466,285.22574371337885,-0.0073015368543565265,0.0157318152487278,0.9998496770858764,0.00018676846229936928,0.06401359810111393,0.11963339640823845,2.9849391989812344,-0.12928490340709686,-0.002037760568782687,-0.0406925156712532,0.30735625952482226,-0.19773202093318107,-9.855924031734467
27.3,3.0999999046325684,293.0,23.937957763671875,24.17339324951172,-79.78278670664322,40.4590205279622,285.525111618042,-0.005640106741338968,0.015103778801858425,0.9998696446418762,0.000940503436140716,0.09518420144937044,0.10960998348724477,3.0055299963589595,0.011120923794806005,-0.01635138876736164,0.0615847110748291,0.26953937401995065,-0.2898412539437413,-9.975960352420806
27.4,3.2000000476837163,291.0,23.964250564575195,23.847370147705078,-79.78278686662418,40.45902051818603,285.8264364624024,-0.006364163011312485,0.01480854768306017,0.9998692274093628,0.0013634212082251904,0.10324277297734136,0.09850372901441533,3.0139910096799056,0.02142952010035515,-0.0690586268901825,-0.013231600634753704,0.2511687563359737,-0.1468829525448382,-9.883308881521225
27.6,3.0999999046325684,291.0,23.798980712890625,26.78952598571777,-79.78278729802419,40.45902022797673,286.4598345184326,-0.0066896872594952575,0.015268109738826753,0.99986070394516,0.0008887398289516568,0.09687474408344048,0.1247691567537648,2.9977034025342544,-0.19757893681526184,-0.07209635525941849,-0.10750023275613783,0.2517990679107607,-0.01627355033531785,-9.610470197796824
27.7,3.0,289.0,23.8465576171875,25.779651641845703,-79.78278748658637,40.459020064198974,286.78960365295416,-0.006529618985950947,0.015165034681558609,0.9998634457588196,0.0007243531872518363,0.10990940475960716,0.13255664794973682,3.0099245949723787,0.05296709761023522,-0.0026579867117106915,0.014420540072023869,0.2567472924292088,-0.14758257189765572,-9.697531730532651
27.9,3.0,287.0,23.85657501220703,25.73194122314453,-79.7827878297424,40.45901999947219,287.39255088806146,-0.005342121236026287,0.014716473408043385,0.9998774528503418,0.0002473571512382477,0.0938118151877566,0.12353875267953247,3.0247488622374714,-0.13963687419891355,0.016702471300959587,-0.13991425931453705,0.2828059023432434,0.14104646287858486,-9.849487416744232
28.01,3.0999999046325684,283.0,23.87285041809082,24.89700508117676,-79.78278811679289,40.45901973938419,288.0146955871582,0.0033624167554080486,-0.014776253141462803,-0.9998850226402284,0.0005928695318289101,0.1398029653603798,0.1287138959686583,3.0198269605350334,0.16966862976551056,-0.025376377627253532,0.08702321350574492,0.18521104915067554,-0.1946221244707704,-9.775238302946091
28.2,3.0999999046325684,282.0,23.90665626525879,24.594837188720703,-79.78278846806117,40.45901945138852,288.3392156982422,0.005462029483169317,-0.014733257703483103,-0.999876081943512,0.0009859716519713402,0.1406321729937505,0.1690157131551721,3.040741665182485,0.009559193626046179,0.07345873117446901,-0.10284928232431413,0.2979181591048837,0.13915103310719132,-9.866391717195512
28.3,3.0999999046325684,281.0,24.003063201904297,22.583038330078125,-79.78278866363935,40.45901937867141,288.6438326263428,0.00653138617053628,-0.014197484590113163,-0.9998769164085388,0.0013971654698252678,0.1287612809168089,0.1714011400868638,3.047494886595341,-0.006690755020827055,0.0073994817212224015,0.0484045036137104,0.16335159888491035,-0.1939563824236393,-9.804136412143707
28.5,3.0999999046325684,279.0,23.72135353088379,27.7039794921875,-79.7827889472001,40.45901911830429,289.2666429901123,0.006028713658452034,-0.014567960053682327,-0.999874472618103,0.0016407835064455867,0.11466710201060115,0.1635161340550645,3.0273202042364264,0.08660423010587692,0.050318554043769836,-0.01801231876015663,0.2728607386909425,-0.0925147739611566,-9.693517616987233
28.7,3.0999999046325684,278.0,23.822769165039066,25.87507247924805,-79.78278950864356,40.459018788036474,289.8911203765868,0.00483680609613657,-0.0153753524646163,-0.9998688101768494,0.0016627763397991655,0.13378319029182775,0.1941281201981577,3.0451934669569503,-0.02522355131804943,-0.024818221107125282,-0.03996060788631439,0.1955595062300563,-0.08210184219293297,-9.852144391536713
28.8,3.0999999046325684,278.0,23.909160614013672,24.63459587097168,-79.78278970019585,40.459018696501865,290.19594139099115,0.004879454150795937,-0.015587011352181438,-0.9998652935028076,0.001624555909074843,0.1337131755742195,0.18811453680314646,3.0457952308615237,0.08734460920095444,0.028255144134163857,0.06489459425210953,0.21404226254671813,-0.1310604052618146,-9.846230517625813
28.9,3.0999999046325684,274.0,23.796476364135746,25.827362060546875,-79.78278996635291,40.459018562628025,290.81881088256836,0.004273951519280672,-0.015007457695901394,-0.9998743534088136,0.0028118777554482213,0.11049698125701612,0.1674968689150442,3.0445397707653745,-0.046664297580718994,-0.08051197975873947,0.0030144194606691608,0.2395092438720167,0.0010819633025676012,-9.755190539360047
29.11,3.0999999046325684,273.0,23.7639217376709,25.859169006347656,-79.78279012308025,40.45901850239615,291.1235174560547,0.004236418288201094,-0.01489783264696598,-0.9998741745948792,0.0034258256200701,0.1068127316387368,0.15362097276593986,3.0434354399513137,0.028197653591632843,-0.06747181713581085,-0.027302773669362068,0.2431855710782111,-0.1763738049566746,-9.825594524145128
29.2,3.0999999046325684,270.0,24.01934051513672,22.54327964782715,-79.78279020143408,40.459018424646295,291.4420923614502,0.004650023300200701,-0.014511217363178732,-0.9998775720596312,0.0035631305072456603,0.08876782794727545,0.14497739436834522,3.0535854230768,0.011988978832960129,0.05251209810376167,-0.03977011889219284,0.20707208912819625,0.060170169677585365,-9.86332894563675
29.4,3.2000000476837163,269.0,23.821516036987305,25.350255966186523,-79.78279046956158,40.459018336847045,292.04816764831537,0.0052045732736587524,-0.013393688946962357,-0.9998929500579834,0.0027948548085987572,0.07853230457450705,0.1300670861938242,3.009861828117566,-0.041014812886714935,-0.09460078924894333,-0.03151829540729524,0.19455913899466395,-0.21192525984719396,-9.68918599963188
29.5,3.0999999046325684,268.0,23.89538764953613,24.61869239807129,-79.78279033458568,40.459018325772455,292.3548063659668,0.004572075325995685,-0.01282285898923874,-0.9999045729637146,0.002391140209510923,0.04763224403319554,0.1006043065658638,3.023159711017972,0.1035674586892128,0.03045492805540562,0.07951153814792633,0.2104092230089009,-0.17769626241177322,-9.858651173114778
29.7,3.0999999046325684,268.0,23.901647567749023,24.141586303710927,-79.7827904858107,40.45901819387874,292.9782251739502,0.0041334922425448895,-0.013583496212959293,-0.9998961091041564,0.002486045006662607,0.0508636051861216,0.10828880173646953,3.0352149751695423,-0.05074634402990341,-0.04222600534558296,-0.02613330073654652,0.20894522638991475,-0.1709999396838248,-9.788831325173376
29.9,3.0999999046325684,267.0,23.90665626525879,23.855321884155273,-79.78279064781267,40.459018149155185,293.5837702178955,0.005360395647585392,-0.013844653032720087,-0.9998866319656372,0.0025272262282669553,0.03037083429773449,0.10682948537853072,3.0240261866943823,0.02750593423843384,0.07480039447546005,-0.020414536818861958,0.24974918028339746,-0.09835393141955136,-9.794434127211572
30.0,3.0999999046325684,268.0,23.91667175292969,24.26086235046387,-79.78279062203531,40.459018155979656,293.905669631958,0.004226900171488524,-0.01315328013151884,-0.9999008774757384,0.002746938727796077,0.008193647657419392,0.09581464023161423,3.030634645325493,-0.2275865077972412,-0.07442601025104523,-0.09884169697761536,0.1710351874306798,0.06697941675782204,-9.753446899652479
30.1,3.0999999046325684,269.0,23.81275177001953,25.326400756835927,-79.78279068493762,40.459018149767104,294.2075495147705,0.0038022603839635853,-0.012741217389702795,-0.9999075531959534,0.002875395817682147,0.033922648547926974,0.08346158369938549,3.0051847529460955,0.09278400242328644,0.024846501648426056,0.0659540668129921,0.13390794446691873,-0.2233170794695616,-9.62590216934681
30.3,3.2000000476837163,271.0,23.94922637939453,23.43387794494629,-79.78279064033218,40.459018093367746,294.8228716278076,0.0033777977805584678,-0.011225047521293163,-0.9999266862869264,0.003057027934119105,0.0013839177281061196,0.0846525449245123,3.0357509851721836,0.032465603202581406,0.014501490630209448,-0.014902319759130478,0.2875129109434784,-0.031244870927184826,-9.938866785764695
30.4,3.2000000476837163,272.0,23.89413642883301,23.17146873474121,-79.78279066343285,40.45901808026415,295.1273035430908,0.004173937253654003,-0.01121788565069437,-0.999923050403595,0.003275183262303472,-0.005892456032579172,0.08768525454992412,3.04600904268637,0.023339200764894485,0.07896941155195236,-0.0062959399074316025,0.2404293946176768,-0.024521797187626364,-9.86313832640648
30.6,3.2000000476837163,275.0,23.87911033630371,24.451704025268555,-79.78279064866368,40.45901802262594,295.7472891235352,0.0058992612175643435,-0.014119206927716732,-0.9998763203620912,0.0036352172028273344,-0.01129671744894472,0.09660747910256154,3.0490877943379084,0.09686241298913956,0.07762564718723297,0.03828271105885506,0.2616611462831497,-0.108957034740597,-9.870223982334137
30.7,3.0999999046325684,279.0,23.77393913269043,26.23290252685547,-79.78279055227931,40.459018022623795,296.3688330078125,0.008179811760783195,-0.017783185467123985,-0.9998010993003844,0.003837835974991322,-0.052988522035656224,0.10660787169582152,3.054162171015399,-0.1533699780702591,0.03354642167687416,-0.11873017251491548,0.29041088238358503,-0.3823647073656321,-9.853924283981325
30.9,3.0999999046325684,282.0,23.904151916503906,23.93483924865723,-79.78279056094462,40.45901801787769,296.67423957824707,0.006479695439338684,-0.017308026552200314,-0.9998225569725036,0.0036413006018847227,-0.03805622836559145,0.11152254403539838,3.0437939185763363,0.011678503826260568,-0.0190332680940628,0.02844015508890152,0.2511217958852649,-0.216506114769727,-9.714287511706349
31.0,3.0999999046325684,290.0,23.775190353393555,25.906879425048828,-79.7827904544832,40.45901801792064,296.9840330505371,0.0042609358206391335,-0.015847042202949524,-0.9998583793640136,0.0037529936525970697,-0.029087169279069108,0.10088115054452372,3.0165688331761578,0.026220690459012985,-0.04923186451196671,0.017916487529873848,0.3431322292238474,-0.2660554384812713,-9.666014068722726
31.2,3.2000000476837163,290.0,23.92293357849121,23.282794952392567,-79.78279037310696,40.45901801118311,297.5989431762696,0.0013593777548521755,-0.012873983941972256,-0.9999110102653505,0.003236520336940885,-0.019631028026161068,0.0880849078036686,3.050230533177253,-0.020796503871679303,0.009032134898006916,0.08901547640562057,0.1973017572239041,-0.1956376031041145,-10.055416996479037
31.3,3.299999952316284,293.0,23.77644348144531,25.67627716064453,-79.78279035425075,40.459018012919024,298.2101606750488,0.005948613397777081,-0.016211384907364845,-0.9998468160629272,0.002890111180022359,-0.03132173622269479,0.09193796038128396,3.0461141514755226,0.07313734292984009,0.08231344819068909,-0.029848799109458923,0.2932916593551636,-0.16102574095129968,-9.907749073505403
31.51,3.299999952316284,296.0,23.85031318664551,24.920860290527344,-79.78279024549141,40.45901786233503,298.5144380950928,0.0063254800625145435,-0.014551352709531784,-0.9998696446418762,0.003000285942107439,-0.04542758388553475,0.12323259029513728,3.0304175891351064,-0.05377931520342827,-0.07927849143743515,0.07324085384607315,0.24132566314190626,-0.2111344604752958,-9.839170589447024
31.61,3.4000000953674316,301.0,23.82026481628418,25.382062911987305,-79.78279023443123,40.45901784027706,298.81844467163086,0.0063750846311450005,-0.013822963461279869,-0.9998806118965148,0.002660948783159256,-0.044916888445171325,0.11103390681526552,3.04165396500168,0.020325139164924615,-0.0045088077895343295,-0.04997802898287773,0.3311232177168131,-0.11726283098571005,-9.893922747373582
31.8,3.4000000953674316,302.0,23.849061965942386,24.197248458862305,-79.78279011299685,40.45901775998829,299.4305834197998,0.006605828646570444,-0.01856784336268901,-0.9998014569282532,0.002945845481008291,-0.06581624314440138,0.12372750090378593,3.05124285217143,-0.1904964596033097,0.0012273604515939947,-0.10414374619722366,0.2504771038144827,0.10253696554340423,-9.957832814455033
31.9,3.4000000953674316,304.0,23.82652473449707,23.86327362060547,-79.78279009737106,40.45901773763296,299.73754638671875,0.006668033543974161,-0.019805287942290303,-0.9997758865356444,0.003399963257834316,-0.040425040810529264,0.1380439182002811,3.0798500000346385,0.17452138662338254,0.01109923142939806,0.05718819051980972,0.4221096939593554,-0.2914868066087365,-10.080510907173156
32.1,3.4000000953674316,305.0,23.85907745361328,24.141586303710927,-79.78278999697486,40.45901764284928,300.36407417297363,0.007969955913722515,-0.01823294535279274,-0.9997931122779846,0.004234613850712776,-0.063009705295124,0.1395207843302026,3.09136697257129,-0.16643604636192322,-0.00607579480856657,-0.143690824508667,0.29097289117053154,0.2476109448820353,-9.783143738508224
32.2,3.5,307.0,23.875354766845703,23.799659729003906,-79.78278995767005,40.45901762106399,300.97900146484375,0.006865991279482842,-0.01871166005730629,-0.999789535999298,0.004860512912273407,-0.058937526741634376,0.1300840465181244,3.0342330726240982,-0.1265975385904312,-0.05446181073784828,0.025390109047293663,0.2902271519042552,-0.3045808237977326,-9.703590030670169
32.4,3.5,309.0,23.85031318664551,24.63459587097168,-79.78278995679375,40.45901760546228,301.2811788940429,0.004336131736636162,-0.01818433031439781,-0.999814748764038,0.004579454660415649,-0.04018142293492645,0.13015318609773535,3.0049716246966582,-0.032831277698278434,-0.09453530609607697,0.060649488121271126,0.28761425049975514,-0.2898616461083293,-9.568246284127236
32.5,3.5999999046325684,310.0,23.897891998291016,23.489540100097656,-79.78278983463977,40.459017548096746,301.59904235839844,0.003749863710254431,-0.01837945356965065,-0.9998158812522888,0.0040416354313492775,-0.037063503464874116,0.12538986898659688,3.008282718170725,0.030496487393975258,0.02008906565606594,0.11778762936592102,0.2520668155699968,-0.27714077264070514,-9.658659440875054
32.71,3.5999999046325684,309.0,23.822769165039066,24.24495887756348,-79.7827897197576,40.45901744971994,302.2202276611328,0.006764797028154135,-0.021223034709692,-0.9997383952140808,0.005211358424276114,-0.029700655005679262,0.1446754356234705,2.997419213618564,0.1766008734703064,0.04017356038093567,0.08457615226507187,0.39465493340045216,-0.2672608785331249,-9.657591154575348
32.8,3.5,310.0,23.89664077758789,22.92496490478516,-79.7827896901251,40.45901740700605,302.8189710998535,0.009418739937245846,-0.020397348329424855,-0.9997258186340332,0.006608329247683287,-0.0715994323649871,0.1420035686442711,2.9806120990923213,-0.13092465698719025,0.007706453092396259,-0.09901360422372818,0.2740433563292027,-0.05208089400082827,-9.713912705183027
33.01,3.5,312.0,23.827777862548828,25.31049728393555,-79.78278957811638,40.45901727096742,303.1394934082031,0.008419355377554893,-0.019943727180361748,-0.9997433423995972,0.00668534729629755,-0.07080672013422246,0.1587277866699956,2.9921634261592613,-0.09149381518363953,-0.011354172602295877,-0.10693863779306413,0.3015595126524568,0.14026373997330666,-9.70170254945755
33.1,3.4000000953674316,312.0,23.70632743835449,25.588808059692386,-79.78278953236054,40.4590172004328,303.75577301025385,0.0069730314426124105,-0.020573118701577187,-0.9997483491897584,0.0056110285222530365,-0.036112737874848436,0.14631169628660556,3.0402152023975244,0.14055640995502472,0.07442759722471237,0.02629787288606167,0.30335846336558464,-0.19840837933123112,-9.829843111038207
33.31,3.4000000953674316,312.0,23.81024742126465,22.535327911376953,-79.78278952860448,40.459017178735536,304.06134170532226,0.005509506911039352,-0.02247400768101216,-0.9997207522392272,0.0048026214353740215,-0.060794132040376814,0.14934345046112066,3.063330146149629,-0.1989533603191376,-0.021051134914159768,-0.0980171337723732,0.31424384102225306,0.10141250029206277,-9.9864642906189
33.4,3.5,315.0,23.76141929626465,25.175315856933594,-79.78278952581748,40.459017160538025,304.36925262451166,0.004498317372053862,-0.022907679900527,-0.9997185468673706,0.004242305643856525,-0.029694449845428336,0.15762680729491962,3.082761999375452,0.06630273163318634,0.0011773802107200027,0.036998026072978966,0.3309301134198904,-0.05046175887342543,-9.963961865901947
33.6,3.4000000953674316,315.0,23.75015068054199,25.23892974853516,-79.78278951534547,40.45901692451013,304.993955078125,0.008470796048641205,-0.02099675685167313,-0.9997290372848512,0.005413629114627838,-0.017861604048659156,0.1766872747711286,3.082429540058512,0.05060603097081184,0.06472104042768477,0.01126286294311285,0.43446252174675465,-0.07880387552082539,-9.822219511270523
33.7,3.5,318.0,23.801483154296875,24.09387588500977,-79.78278949988763,40.45901689524121,305.30908721923834,0.007910205982625484,-0.020794995129108432,-0.9997348189353944,0.005954666994512081,-0.044269294045178736,0.1789718084154026,3.0760165248193583,-0.16142544150352478,0.009461909532546995,-0.12948007881641388,0.3861711716651917,0.1549450021237135,-9.825385193824768
33.91,3.4000000953674316,320.0,23.748897552490234,24.3721866607666,-79.78278956708921,40.459016802504784,305.92656845092773,0.00725982990115881,-0.023681391030550003,-0.9996694922447203,0.00688924128189683,0.0032223671240774925,0.1902121687206432,3.0960422513115056,0.09272992610931396,0.04734998941421509,0.17246423661708832,0.4681470520421863,-0.3554564787447453,-9.95469753742218
34.0,3.4000000953674316,326.0,23.96925926208496,21.326658248901367,-79.78278945170881,40.45901673810114,306.55474609375,0.002254193881526589,-0.02804175019264221,-0.9995702505111694,0.008247979916632175,-0.004053414409834109,0.1964898428656172,3.083151396707524,-0.034350577741861336,0.07634206861257553,-0.08284682780504228,0.465188251286745,-0.10335327339358627,-9.950572911500933
34.21,3.4000000953674316,327.0,23.711336135864247,25.54904937744141,-79.78278951521756,40.4590166756771,306.86683029174804,0.002654901240020991,-0.029950987547636032,-0.9995067119598388,0.009070541709661484,0.03190889568562539,0.20006824391528427,3.0554744574389705,0.1454504281282425,0.12561482191085815,-0.037811845541000366,0.5053802575170994,-0.03202875413931906,-9.723112714290618
34.3,3.5999999046325684,329.0,23.67502593994141,26.3521785736084,-79.78278955641483,40.45901664988107,307.17240661621094,0.005117182619869709,-0.03208046406507492,-0.9994271993637084,0.009487917646765707,0.025922252529970626,0.2054938689965668,3.0431790343736718,0.1351664513349533,0.06017132103443145,-0.023120775818824768,0.4526249602809549,0.013133394531905651,-9.694594089388847
34.5,3.700000047683716,331.0,23.81024742126465,23.410022735595703,-79.78278964014098,40.459016482066815,307.80643218994135,0.0005160322180017829,-0.034098614007234566,-0.999374508857727,0.009363447315990923,0.020712743504875626,0.2322453008655316,3.1036441457364643,0.03560576215386392,0.014533477835357191,0.026779655367136,0.5058735432475806,-0.01040090843103826,-10.074312858581543
34.7,3.799999952316284,334.0,23.778947830200195,24.35628318786621,-79.7827897283175,40.4590164008226,308.4369596862793,-0.0002221170871052891,-0.033239200711250305,-0.9994122982025146,0.008381066843867302,0.04901221047150795,0.22315490394865425,3.0949826099079227,0.02919345907866955,0.039213500916957855,-0.0770585909485817,0.4669419774413109,0.20304408844560387,-9.7791600304842
34.8,3.9000000953674316,335.0,23.74138641357422,25.382062911987305,-79.78278978067472,40.4590163993336,308.7475866699219,-0.0017134823137894273,-0.03226390480995178,-0.999441921710968,0.008492468856275082,0.03893914413671809,0.20032195114861406,3.099932756650816,-0.16696465015411374,-0.09891267865896224,-0.06820497661828995,0.4176822553575039,0.12920175813138485,-9.809511172771458
34.9,4.0,338.0,23.92168045043945,21.37436866760254,-79.78278987113228,40.45901635027187,309.3813146972656,-0.0020897334907203913,-0.03216071426868439,-0.9994404315948486,0.008957164362072945,0.060869844151732334,0.17743166417190653,3.0551638498197025,0.0446409247815609,-0.009586607106029987,-0.10993628948926926,0.4874202788248658,-0.32458434954285625,-9.733574552536009
35.11,4.0,339.0,23.72385597229004,26.12952995300293,-79.78278992212482,40.45901637276248,309.6844953918457,-0.002894445788115263,-0.03127693384885788,-0.9994633197784424,0.009297340176999569,0.05593017876450044,0.160149708878366,2.997464820293146,-0.004093952476978302,-0.049288332462310784,-0.05739474669098854,0.5563444064185024,0.06657324540428818,-9.319204013943672
35.2,4.099999904632568,342.0,23.67377471923828,26.050010681152344,-79.78278984761911,40.459016374834405,310.00645965576166,-0.003294192487373948,-0.03062994219362736,-0.9994781613349916,0.009714300744235516,0.0621825058133969,0.1469362062133227,2.987110608212725,0.10778845846652983,0.005463377106934786,0.08104509115219116,0.4535354813933373,-0.02688584931660444,-9.429043959975242
35.41,4.099999904632568,342.0,23.70632743835449,26.09772109985352,-79.78278993399806,40.45901646783064,310.6031774902344,-0.002870477037504316,-0.02734976820647716,-0.999564528465271,0.010708746500313282,0.05955354200664635,0.11683825589882525,2.9838278294409437,0.023941215127706528,-0.07978113740682602,0.09197783470153807,0.4509067559614778,-0.13388651076704264,-9.813468568325042
35.5,4.199999809265137,345.0,23.72010040283203,25.366159439086914,-79.7827900883298,40.45901643945276,311.23936599731445,-0.0016926511889323592,-0.02313460037112236,-0.9996691346168518,0.011120455339550972,0.05042717139831626,0.08960229803947438,3.0353383334280406,0.0714673325419426,0.11076482385396956,0.0330512598156929,0.4980718226730824,0.13168177242390813,-9.858779811859133
35.7,4.199999809265137,345.0,23.7639217376709,24.39604187011719,-79.78279005864741,40.4590164241409,311.5628790283203,-0.002279306994751096,-0.023271320387721055,-0.999664843082428,0.01111386064440012,0.02698600272695226,0.09481659238880266,3.0687300768273778,-0.22421002388000488,-0.057150058448314674,-0.05708995088934898,0.2722981451824308,0.1423263635672629,-9.93477841258049
35.8,4.099999904632568,346.0,23.81400489807129,23.736045837402344,-79.78279009548565,40.459016466047494,311.87050003051763,-0.003296112874522805,-0.024169785901904103,-0.9996453523635864,0.010682420805096626,0.059800760198502986,0.09184126868557316,3.0795825296063537,0.16962675750255585,0.09042779356241226,0.11309514939785005,0.4008329918235541,-0.1176234488748014,-9.913606814146043
36.0,4.0,347.0,23.61868476867676,27.218921661376953,-79.78279013131406,40.45901657550535,312.4901708984375,-0.0034419302828609943,-0.026123901829123497,-0.9996061921119692,0.009650778956711292,0.047545854455644194,0.09511499264250843,3.0480825998231333,-0.0284104160964489,0.12233632057905194,-0.046619333326816566,0.4299856010824442,0.15302130471915007,-9.648837288022042
36.11,4.0,348.0,23.662506103515625,26.216999053955078,-79.78279016140124,40.45901662549353,312.79473251342773,-0.004292704164981842,-0.02848326228559017,-0.999538004398346,0.009704327210783958,0.03699788974855009,0.1023155296171006,3.048020777434483,-0.13435852527618408,-0.036526210606098175,0.010766671039164066,0.4148014418408275,0.040914740357548,-9.773852512836458
36.3,4.0,348.0,23.726360321044922,25.723989486694336,-79.78279013994144,40.459016734210635,313.417970123291,-0.0043432507663965225,-0.02816880121827125,-0.9995420575141908,0.010168162174522877,0.038009734132109625,0.10581020321573366,3.095395199641197,-0.1535540223121643,-0.05885064601898194,-0.17263859510421753,0.42437048334628347,0.4266634689643979,-9.986062002182008
36.4,4.0,349.0,23.78019905090332,24.18929672241211,-79.78279016135346,40.45901681849725,314.0434049987793,-0.0030355399940162893,-0.0240671094506979,-0.9996488690376282,0.010663442313671112,0.04073755429526127,0.08510420599524053,3.099096231133585,-0.04140554741024971,-0.007723181042820215,0.006229222286492586,0.4894133022800088,-0.02164147702977061,-9.958990563154224
36.61,4.0,350.0,23.718849182128906,26.07386589050293,-79.78279019224945,40.45901688589178,314.35234970092773,-0.003108043922111392,-0.022348746657371518,-0.9996883869171144,0.010681861080229279,0.03828097555479352,0.0716884796404094,3.0798584117074013,-0.07787559181451797,-0.015631966292858124,-0.04727334529161453,0.3176125681400299,0.2260045146010816,-9.62338903605938
36.7,4.0,351.0,23.73387336730957,24.3801383972168,-79.78279016915722,40.45901694896853,314.66395706176763,-0.003188609378412366,-0.02231656014919281,-0.9996877908706664,0.010783657431602478,0.05179612415139693,0.058511870579030276,3.0512154243384533,0.04449523612856865,-0.04715116694569589,-0.017687061801552773,0.3712627817317843,-0.02757219823077321,-9.681006914377212
36.9,4.0,352.0,23.796476364135746,23.577009201049805,-79.78279023525765,40.459017087926114,315.27356857299804,-0.002849873621016741,-0.02329392544925213,-0.9996652007102966,0.010896178893744946,0.03204509999732967,0.05681582533741041,3.0451807527325987,-0.1589502990245819,-0.01114882156252861,-0.1361202746629715,0.3676917774975301,0.21471787177026272,-9.728961099386217
37.0,4.0,353.0,23.802736282348643,24.09387588500977,-79.78279028759377,40.459017223055454,315.8864988708496,-0.0045232404954731464,-0.023326782509684563,-0.999657154083252,0.011004528030753136,0.06158260456269645,0.057626264435395876,2.9812632481803236,0.007127962075173855,-0.04069865867495537,-0.12843407690525055,0.3709924941882491,-0.13008490696549416,-9.64263514637947
37.2,4.0,352.0,23.726360321044922,25.18326759338379,-79.78279017491253,40.459017329454795,316.2007498168945,-0.0036136659327894454,-0.0221011620014906,-0.9996915459632874,0.010742204263806343,0.05558611644840421,0.05312132610599175,2.979325080145016,0.04563309252262116,0.07101291418075563,0.035246774554252625,0.3711729538813234,0.17602786906063558,-9.578008210659027
37.3,4.099999904632568,352.0,23.70758056640625,24.82543754577637,-79.78279024774575,40.45901747823524,316.79149002075195,-0.0027755163609981537,-0.02057655714452267,-0.9997231960296632,0.01107044517993927,0.0605579157263239,0.038511317110682085,2.928481735168413,0.06552740186452866,-0.014271448366343975,0.10809988528490068,0.3302666006237269,0.32062589418143034,-9.515467561483383
37.5,4.099999904632568,352.0,23.62744903564453,27.10759735107422,-79.78279040209296,40.45901753394861,317.10557693481445,-0.0018961658934131265,-0.020704954862594604,-0.9997267723083496,0.010685920715332031,0.045123104867249166,0.05292919528741778,2.9601101419715685,0.030281521379947662,0.02836950682103634,0.037748407572507865,0.4384722864255309,0.1067468785867095,-9.759535605311395
37.6,4.099999904632568,353.0,23.59364318847656,27.48133087158203,-79.78279043685677,40.4590175895632,317.4022230529785,-0.0018867267062887552,-0.020327458158135414,-0.9997364282608032,0.010502150282263756,0.04383240679141267,0.06604238548739645,2.9768823910667686,-0.013807767070829868,0.016338299959898,0.12263987213373186,0.3627696279063821,-0.12179183755069972,-9.880988706350328
37.8,4.099999904632568,353.0,23.71384048461914,25.5570011138916,-79.78279048494213,40.459017627181005,318.02447265625,-0.003600326832383871,-0.02305975928902626,-0.9996645450592041,0.011237402446568012,0.0453377225204754,0.0766399242359297,3.045796568693905,-0.01952563412487507,0.12183232605457305,-0.06616053730249405,0.30317009165883063,0.2721875414438546,-9.854999002218246
37.9,4.099999904632568,353.0,23.66501045227051,26.209047317504893,-79.78279052428628,40.4590176705444,318.3275427246094,-0.003039242699742317,-0.0248419176787138,-0.9996126890182496,0.012171800248324871,0.055273518790002335,0.0881500120733053,3.01829631538042,-0.06612236797809601,-0.06625351309776306,-0.009427901357412338,0.3014279685728252,0.06879039080813527,-9.649578714966774
38.11,4.099999904632568,354.0,23.68754768371582,25.24688148498535,-79.78279048076723,40.45901771947837,318.93296188354486,-0.0023069535382092,-0.020577743649482727,-0.9996892213821412,0.013883575797080994,0.021673621984384512,0.09912776894925893,3.0118864471343696,-0.21381323039531708,-0.09631313383579254,-0.09405600279569626,0.3798459461331368,0.18366301707923413,-9.793600314259528
38.2,4.099999904632568,354.0,23.64873313903809,25.652421951293945,-79.78279045880849,40.459017733784314,319.24271530151367,-0.006340569816529751,-0.01657524891197681,-0.9997317790985109,0.014884122647345066,0.03980240016368418,0.10197435798019573,3.027643249978704,-0.04683701694011688,-0.046635959297418594,-0.05614194646477698,0.3951470496878028,0.18901908488944166,-9.935942008495331
38.4,4.099999904632568,350.0,23.778947830200195,23.250986099243164,-79.78279052504803,40.459017768484266,319.85807556152344,-0.0032031110022217035,-0.020307352766394608,-0.9996584057807922,0.016136802732944492,0.07124019053253565,0.09039667671986608,3.1069975143510224,0.10402080416679382,0.08041034638881682,0.05464647710323334,0.4353273614868522,0.07043888535350562,-10.071916669607162
38.5,4.099999904632568,349.0,23.78520774841309,23.50544357299805,-79.78279042898765,40.459017725206756,320.1629194641113,-0.002040783641859889,-0.02465791255235672,-0.9995736479759216,0.015503957867622375,0.03538274653845688,0.128425439066143,3.0774067781847965,-0.06818027049303055,-0.022191436961293217,0.06636805087327957,0.5038209878280759,-0.01137592250481248,-9.876413844823835
38.7,4.099999904632568,348.0,23.827777862548828,22.20135307312012,-79.78279047672585,40.45901769975427,320.77356475830084,-0.005105914082378149,-0.03053489699959755,-0.999444842338562,0.012316188775002956,0.05429644356533287,0.17402801735912665,3.0332049615657226,0.12532824277877808,0.0573405884206295,0.1965201050043106,0.5556890797242523,-0.15051067477092148,-9.66317933857441
38.8,4.0,347.0,23.77393913269043,23.282794952392567,-79.78279049005164,40.45901769619335,321.3772177124024,-0.0053846039809286594,-0.03064307570457458,-0.9994797706604004,0.008505254983901978,0.03296230856960192,0.1874586833572002,2.9898944336508326,0.11495939642190932,-0.08061428368091582,0.04595137014985085,0.5341577678918839,-0.08925908996723593,-9.585239462256432
39.0,4.0,347.0,23.756410598754893,23.147613525390625,-79.7827904525212,40.45901766504681,321.68274444580084,-0.0031761399004608393,-0.028980771079659462,-0.9995462894439696,0.0075683346949517736,0.01947844046783858,0.18733225238611612,2.9930021988644966,0.08361013233661653,-0.059315357357263565,-0.03955099359154701,0.6027083314955235,-0.051137441187165684,-9.758334002494813
39.11,3.9000000953674316,344.0,23.670019149780273,25.30254554748535,-79.7827904277902,40.45901766887505,321.98229736328125,-0.00022776401601731777,-0.028479846194386482,-0.9995629191398621,0.007932151667773724,-0.0010285050926946704,0.1675486635431247,2.984438146474288,0.09838315099477768,-0.01734800636768341,-0.03595022112131119,0.6169947604089976,-0.09999886281788348,-9.755322686433793
39.3,3.9000000953674316,343.0,23.71759605407715,24.47555923461914,-79.78279029770599,40.45901767284498,322.58821624755865,0.003771269228309393,-0.028723074123263363,-0.9995124340057372,0.011647913604974748,-0.03150646175087116,0.15952787681373998,2.983431679320494,0.11102676391601562,-0.02377408929169178,0.0492822527885437,0.44208692550659184,-0.15878715271130206,-9.785258676409722
39.4,3.799999952316284,340.0,23.75265312194824,23.49749183654785,-79.78279026161684,40.459017684558354,322.8870558166504,0.006500161718577146,-0.028782417997717857,-0.9994663596153259,0.01401821617037058,-0.0404065357282631,0.1563766091899551,2.982773091417097,0.15307611227035522,-0.005153569392859936,0.05251757428050041,0.4214143869280815,-0.15968559566885235,-9.773566583991053
39.6,3.799999952316284,340.0,23.85407066345215,21.565210342407227,-79.78279020836085,40.45901762276126,323.49828094482416,0.007816932164132595,-0.029587099328637127,-0.99937242269516,0.017840277403593063,-0.05651431714476062,0.16707831528805073,2.976186922619525,-0.09545502811670303,-0.052284035831689835,-0.029805589467287064,0.4343436770886183,-0.02089054835960269,-9.742070556879042
39.7,3.700000047683716,337.0,23.68253898620605,25.533145904541016,-79.78279006205702,40.45901756847463,323.81245941162115,0.005241117905825377,-0.028930231928825382,-0.999395489692688,0.018552912399172783,-0.0522385837227058,0.19053521915651472,2.996083312540182,-0.00819888524711132,0.01719648949801922,-0.005214821547269821,0.5630837609991431,0.03830783234909177,-9.737062416672707
39.91,3.700000047683716,336.0,23.835289001464844,21.40617561340332,-79.78279004707142,40.459017556994226,324.4136671447754,0.003027557162567973,-0.027681812644004825,-0.9994465708732604,0.018198857083916664,-0.013416787485935463,0.1773775307450514,3.0052025423137647,6.775388465030119e-05,0.03168538212776184,-0.13107439875602722,0.6181597450375558,0.054009639197029176,-9.829098175764084
40.0,3.5999999046325684,334.0,23.849061965942386,21.660633087158203,-79.78278991668152,40.45901759590136,324.72327560424804,0.0048693660646677035,-0.028910472989082336,-0.9994189739227296,0.017385737970471382,-0.016371483786155668,0.1731091819023654,2.9944087260452155,0.09966597706079484,0.03823651745915413,-0.014278268441557884,0.6454637570679188,0.0838314394466579,-9.666078388094904
40.21,3.700000047683716,335.0,23.7251091003418,23.56110572814941,-79.7827898466395,40.45901757838982,325.3302931213379,0.007202226668596269,-0.03058730624616146,-0.9993965029716492,0.014811545610427856,-0.0328732888935264,0.18227188925924007,2.963205922970231,-0.006853050086647272,0.03344547376036644,-0.031247027218341824,0.5198076408728958,0.012976616062223913,-9.595924664139748
40.4,3.5999999046325684,333.0,23.821516036987305,22.2331600189209,-79.78278987000091,40.459017585277635,325.92200225830084,0.006906423717737198,-0.031999684870243066,-0.9993847608566284,0.012589995749294758,-0.024843458978568333,0.18026302146707807,2.9526445763294875,0.027284983545541763,-0.019015125930309296,-0.06894683092832565,0.5993708869814873,0.024571918789297344,-9.785077412724496
40.5,3.5999999046325684,334.0,23.829029083251953,22.47171401977539,-79.78278972812777,40.45901752114346,326.2347654724121,0.0052854148671031,-0.03125554323196411,-0.999424934387207,0.012046262621879578,-0.03368731939004647,0.19183548810177686,2.970250247163036,0.014892016537487509,-0.07797373086214067,0.0501219816505909,0.5358552145957947,-0.19982336897402997,-9.81592673778534
40.6,3.5999999046325684,334.0,23.77143478393555,23.38616752624512,-79.78278973132797,40.45901752737532,326.53302139282226,0.0033940242137759924,-0.031099680811166763,-0.9994416832923888,0.011732314713299273,-0.026935471744796245,0.17513581656721078,2.9793419855789254,-0.05960235372185708,-0.08500128984451294,0.12184744328260425,0.4436550391092897,-0.18748183362185955,-9.84730172753334
40.8,3.5999999046325684,333.0,23.78771209716797,22.81363868713379,-79.78278970152121,40.45901750426208,327.1396726989746,0.0010276774410158396,-0.03274620324373245,-0.9994001984596252,0.011226233094930649,-0.017223565237394236,0.1746021323109543,2.9865217060016374,-0.04070014879107475,-0.012290287762880324,0.0233264472335577,0.4957129096984864,-0.12432853328995408,-9.782002362012863
40.91,3.5,333.0,23.8077449798584,22.14569091796875,-79.78278968675625,40.45901752798296,327.4382147216797,0.000849973235744983,-0.031830765306949615,-0.999428689479828,0.011331070214509964,-0.018852648266476767,0.16724897350584947,2.974215418104732,0.007331734523177147,0.04026037454605103,-0.07979339361190796,0.5545408692955971,0.006203333926387131,-9.695152498483658
41.1,3.5999999046325684,333.0,23.74138641357422,23.219179153442386,-79.78278957296821,40.459017553566426,328.0404638671875,0.008054886944591999,-0.029310768470168117,-0.9994581341743468,0.012628941796720028,-0.045648099543197734,0.14339816231047278,2.9478098160035606,0.018371393904089928,-0.026942173019051552,0.07701581716537476,0.4819741090759635,-0.16754518540576102,-9.716904725432396
41.2,3.5,334.0,23.772686004638672,22.662555694580078,-79.78278948823083,40.459017604455305,328.6466841125488,0.0085071362555027,-0.0270683690905571,-0.9994942545890808,0.01435974519699812,-0.05752016373205927,0.12735121003812108,2.9876778295989785,0.00863315723836422,0.008881598711013794,-0.1058490201830864,0.4805446841195226,-0.08400152946822345,-9.839727244377137
41.4,3.5,334.0,23.74388885498047,23.10785484313965,-79.78278948722804,40.45901764326473,328.94651168823236,0.008727362379431725,-0.026979340240359303,-0.999481737613678,0.015242256224155424,-0.04604786849737531,0.1205889614228956,3.002862045916949,0.021663010120391846,-0.01074320450425148,-0.09696041792631148,0.5617483300343156,0.043416526392102237,-9.912574195861817
41.5,3.5,333.0,23.92293357849121,20.213409423828125,-79.78278939811128,40.4590176973313,329.24958557128906,0.008387302048504353,-0.027676185593009,-0.9994491338729858,0.016288477927446362,-0.0379878130346466,0.11818676929750968,3.007968985319001,0.11084675043821336,0.03108473680913448,0.003506984794512391,0.5298613800108433,-0.20802776170894505,-9.981005330085756
41.7,3.5,334.0,23.726360321044922,23.577009201049805,-79.78278933291176,40.459017763144494,329.8518232727052,0.005826292559504509,-0.029811244457960125,-0.9993951320648192,0.016932876780629158,-0.03332177125572371,0.12970479297545462,2.979569616690388,0.04144759103655815,0.030223412439227108,0.11083676666021347,0.4900392467156053,-0.2325094689242542,-9.739209514260294
41.8,3.5,331.0,23.66751480102539,24.348331451416016,-79.78278933429681,40.45901780255512,330.15015167236334,0.004570683930069208,-0.030712930485606194,-0.9993756413459778,0.016860444098711014,-0.03364579761138405,0.13724955288198587,2.9835201530588162,-0.05662648007273674,0.016533400863409042,-0.0653558224439621,0.6041462714597583,-0.02611511777155101,-9.822585546970368
42.01,3.5999999046325684,331.0,23.795223236083984,21.39027214050293,-79.78278929042149,40.459017889555646,330.7552503967285,0.005278372671455145,-0.02915279194712639,-0.9994132518768308,0.017191313207149506,-0.02585491640085939,0.13120738858693556,2.994037497260801,-0.03393745049834252,0.011846435256302357,-0.016020892187952995,0.5698955479636789,-0.14440938846208154,-9.793352977037433
42.2,3.5999999046325684,330.0,23.66501045227051,24.69820976257324,-79.78278930088295,40.45901795324002,331.35966247558594,0.0077368924394249925,-0.029087102040648464,-0.9993953704833984,0.01740733720362186,-0.03290872286810781,0.13452060034293228,2.9510691169523464,0.038488581776618964,-0.03771850466728209,0.006768320687115192,0.5530394504964352,-0.1814102676138282,-9.598207417130473
42.31,3.5999999046325684,330.0,23.67252349853516,25.47748374938965,-79.78278931185041,40.45901798903604,331.65534729003906,0.00876427348703146,-0.029264954850077636,-0.9993835687637328,0.01730121299624443,-0.030747708940852856,0.1318394706461412,2.9610659333689213,0.012796271592378616,-0.0141908572986722,-0.061876978725194924,0.5150965757668019,0.008380891853012145,-9.776497793197633
42.4,3.5999999046325684,333.0,23.808996200561523,22.46376037597656,-79.78278932786267,40.459018026732224,331.95212692260736,0.009382997639477251,-0.0297551304101944,-0.999368131160736,0.017028745263814926,-0.02632203898305252,0.133436189466418,2.972424287331326,0.01581028290092945,0.056724082678556435,-0.031523551791906364,0.5841394749283791,-0.07020304613281042,-9.89600435614586
42.6,3.700000047683716,330.0,23.686294555664066,24.04616355895996,-79.78278931157209,40.45901813928079,332.55994171142584,0.01035802625119686,-0.030484503135085106,-0.9993511438369752,0.0161468144506216,-0.03995689223640709,0.12638070749093147,2.9958115068645577,-0.046125538647174835,0.04607432335615158,0.08136355131864548,0.4656734240055084,-0.19016415243968368,-9.829291133880618
42.71,3.5999999046325684,329.0,23.86909484863281,21.41412734985352,-79.78278930521526,40.45901821393456,333.16540283203125,0.006954699754714966,-0.03039365075528622,-0.9993865489959716,0.015952490270137787,-0.02198809281658685,0.12606248228418945,3.0074732089433973,-0.0010209224419668317,-0.0019132558954879642,0.05284446477890015,0.4246433655917645,-0.05281770712696016,-9.894763576984406
42.9,3.700000047683716,329.0,23.75015068054199,23.74399757385254,-79.78278934016741,40.45901826842087,333.46610778808594,0.006966219749301672,-0.030560947954654694,-0.9993793368339542,0.01607639156281948,-0.00988013079883288,0.12208953464318915,3.006598329198639,-0.001887375954538584,-0.03037592582404613,-0.014429882168769838,0.615455261617899,-0.06567731492221356,-9.82057644367218
43.0,3.5999999046325684,329.0,23.77143478393555,22.59894180297852,-79.78278931559099,40.4590182635878,333.77201599121094,0.0073452512733638295,-0.030795002356171608,-0.999359667301178,0.0166774969547987,-0.005087665871425189,0.13483428344804005,3.0180177753908377,0.0619184598326683,-0.02224674448370933,-0.015212887898087503,0.6508256538212299,-0.2239564359560609,-9.966991893053057
43.2,3.5999999046325684,328.0,23.75140190124512,22.28087043762207,-79.78278937617429,40.459018341947434,334.3796896362305,0.0072011798620224,-0.03083784505724907,-0.99932461977005,0.01864521391689777,-0.0007098095778056378,0.12871540710412124,3.027128250800384,0.09913282096385956,-0.006259637884795666,0.09080256521701813,0.5247387805581093,-0.2938199918344617,-9.833343254327772
43.3,3.5999999046325684,328.0,23.83779335021973,21.382320404052734,-79.78278941888313,40.459018392442324,334.68256896972656,0.00741115165874362,-0.030015429481863976,-0.9993269443511964,0.019747842103242874,-0.007219578811606725,0.13034421923793307,3.0280697298226604,-0.03675335645675658,-0.022973207756876942,-0.15741322934627533,0.5522444484382868,0.0046278701908886435,-9.790843352079392
43.51,3.5999999046325684,328.0,23.851566314697266,21.485692977905273,-79.78278944712633,40.459018473189495,335.28967803955084,0.007521298713982104,-0.029924245551228527,-0.9993136525154114,0.02050149440765381,-5.386750738769477e-05,0.11852204814639207,2.983947807357753,0.012903851456940174,0.05630352720618247,-0.09855654835700987,0.5684294682741166,0.008973246775567533,-9.628024123907087
43.7,3.5999999046325684,327.0,23.75390625,22.91701316833496,-79.78278955757149,40.459018549305426,335.89783233642584,0.008740248158574104,-0.031019771471619606,-0.9992996454238892,0.01902109012007713,0.003416542283270381,0.13357002686957015,2.9684240616621667,-0.0584009625017643,-0.009805906563997269,-0.024403665214777,0.5522713090851903,-0.07013461086899042,-9.621110376119614
43.81,3.5999999046325684,325.0,23.65749740600586,24.58688545227051,-79.78278962402328,40.45901859653355,336.1941961669922,0.007687707431614398,-0.030651703476905826,-0.9993308186531068,0.01841997541487217,0.0025416838933360955,0.12263174868775367,2.958101455861612,-0.061630778014659875,0.01852768287062645,0.030297273769974712,0.5173629565536976,-0.17259805681183935,-9.728981564641
43.9,3.5,323.0,23.768930435180664,22.614845275878906,-79.78278969096486,40.4590186510569,336.49083465576166,0.005507451482117176,-0.030311927199363712,-0.9993619322776794,0.01807299256324768,0.001192363835764382,0.11368427499832587,2.97729464039289,-0.1432746797800064,0.0039027885068207975,-0.126561239361763,0.4678953659534454,0.020320216426625848,-9.922293437719343
44.1,3.5,323.0,23.772686004638672,23.06014442443848,-79.78278980262013,40.45901868394309,337.1071447753906,0.003284598235040903,-0.028755208477377888,-0.999400794506073,0.018984630703926086,0.024967718795728004,0.11631852910305228,3.0192996534143584,-0.010630497708916664,0.03630357980728149,0.007924762554466723,0.4719821311533451,-0.12653665205463768,-9.934390157461166
44.21,3.5,324.0,23.691303253173828,24.91290855407715,-79.78278983978021,40.45901880049756,337.71870941162115,0.0055777602829039106,-0.029790859669446945,-0.9993332028388976,0.020362311974167824,0.019782904319146567,0.10280065386846436,3.0339736874980865,0.0825815349817276,-0.006617386359721422,-0.03259515017271042,0.5014789586886764,0.09986024726182224,-9.849212597608568
44.4,3.5,323.0,23.755157470703125,23.61676788330078,-79.78278988592815,40.459018869226476,338.0229162597656,0.007100231014192104,-0.029735494405031208,-0.9993109703063964,0.02104882523417473,0.007407366244528315,0.1007231816203279,3.0450463343949234,0.048616137355566025,-0.06692639738321304,0.0513806976377964,0.4400854235887528,-0.21350258281454448,-9.861350247859956
44.5,3.5,323.0,23.76016616821289,22.821590423583984,-79.782789947028,40.45901891999621,338.33104461669916,0.008059452287852764,-0.028644878417253494,-0.9993264079093932,0.02147673070430756,0.015559018490950713,0.10563227830849202,3.0441146994523662,0.09142157435417177,-0.03656279668211937,0.17939086258411407,0.5045222151651979,-0.3339958451315761,-9.89669783592224
44.71,3.5,323.0,23.74764633178711,23.07604789733887,-79.78279000796125,40.45901902380618,338.94572204589844,0.008489807136356829,-0.026096709072589874,-0.9993939399719238,0.02141902595758438,0.00047699237314715714,0.09853072891495776,3.038705582067668,-0.017628053203225136,-0.019569432362914085,0.014387032017111778,0.4796086910739542,-0.10276909086853266,-9.8137199985981
44.81,3.5,325.0,23.662506103515625,24.39604187011719,-79.78279007568356,40.459019081566225,339.2501501464844,0.007080839481204748,-0.025574389845132828,-0.9994264841079712,0.021036222577095032,0.0053584759167011,0.09685240527162284,3.0488171196415754,-0.05712929740548134,-0.024197660386562347,-0.04858176410198212,0.5742952853813768,-0.0162763802963309,-9.840212563276287
45.01,3.5,324.0,23.79772758483887,21.98665428161621,-79.78279010941506,40.4590191896666,339.8686727905273,0.003887727856636048,-0.02608131431043148,-0.9994511008262634,0.020055880770087242,0.025787308705715856,0.099497089754762,3.061940169698933,0.08303529769182205,0.05888289958238601,-0.0281000304967165,0.5232588137313724,-0.16131517812609672,-9.835355865955352
45.1,3.4000000953674316,324.0,23.738882064819336,23.40207099914551,-79.78279016424868,40.459019238583934,340.1739324951172,0.00323390937410295,-0.026927487924695008,-0.9994364976882936,0.01978051476180553,0.02534217334522584,0.10109046294059004,3.0394554164950187,0.03545721247792244,0.0197396632283926,-0.061798658221960075,0.4847801147773862,-0.00645730865187943,-9.623244025111195
45.3,3.4000000953674316,324.0,23.76642608642578,22.7977352142334,-79.78279019654522,40.45901932894356,340.7880224609375,0.004701829049736261,-0.02779839374125004,-0.9994097948074341,0.019627748057246208,0.011066149133088312,0.10997127061211204,3.0100628697861738,-0.004977756179869175,0.049418866634368896,0.12389819324016572,0.4366506594792008,-0.2295533542335033,-9.694225714802744
45.4,3.4000000953674316,323.0,23.7639217376709,22.59099006652832,-79.78279023114808,40.45901937797629,341.08873504638666,0.004282653797417879,-0.02820485457777977,-0.9993921518325806,0.020036868751049042,-0.01303674239178614,0.11003829969165732,2.9979314673383493,-0.09339039027690887,-0.015505271032452585,0.08014724403619766,0.4063663581758738,-0.13932571867480875,-9.607869356274604
45.5,3.299999952316284,324.0,23.74764633178711,23.52134704589844,-79.78279025271824,40.45901941337403,341.7062429809571,0.002775714034214616,-0.026782723143696785,-0.9994184374809264,0.0209268257021904,0.0018569041855326879,0.1157604634955256,2.982110799994344,0.02806857973337173,-0.04202938824892044,-0.10776657611131668,0.5439349337294698,-0.10980058696120976,-9.574128583073618
45.7,3.299999952316284,324.0,23.718849182128906,23.38616752624512,-79.78279011480285,40.45901944086196,342.02554840087885,0.0037741486448794603,-0.02503335289657116,-0.9994497895240784,0.021430181339383125,-0.016251991378461287,0.11639944164533987,3.0034195978108595,0.03741994872689247,-0.06950066238641739,0.011002440005540848,0.5037424524128438,-0.2190900541841984,-9.747316678762436
45.9,3.299999952316284,325.0,23.62494468688965,25.366159439086914,-79.78279010695131,40.45901953121835,342.6250509643555,0.0060653993859887114,-0.02394581027328968,-0.9994601607322692,0.021662544459104538,-0.019982954585794053,0.09147446221755716,2.978349910061786,0.09287392348051073,0.016873491927981377,0.02726464718580246,0.4287324696779251,-0.17209753515198828,-9.642629883885382
46.01,3.299999952316284,325.0,23.755157470703125,22.86134910583496,-79.78279003263464,40.45901956706162,343.2415975952148,0.006068254355341196,-0.02218884415924549,-0.9994956851005554,0.02189190872013569,-0.03781197377113903,0.10079413181412387,2.9863966899733265,-0.005900974851101637,-0.029463460668921467,-0.029903575778007507,0.41544628009200096,-0.11610734808258713,-9.733461701273919
46.21,3.299999952316284,326.0,23.74764633178711,21.326658248901367,-79.7827899215809,40.459019613926884,343.55505889892584,0.005786414258182049,-0.022639986127614968,-0.9994804859161376,0.02219922281801701,-0.050965766392655584,0.09631746220282948,3.0007226930880204,-0.11033794283866882,-0.03705749288201332,-0.025627104565501213,0.4288666998222471,-0.0019852302130311727,-9.752776808738707
46.3,3.2000000476837163,326.0,23.61117172241211,25.11170196533203,-79.78278991447986,40.45901965347921,343.85571044921875,0.006262302864342928,-0.0236694235354662,-0.9994451403617859,0.02258370444178581,-0.02932081208104726,0.09403061728475336,3.0032076245822354,0.06430418789386749,0.02150676399469376,0.03773124516010285,0.4600497912615538,-0.12154396128840746,-9.801254904270172
