time,wind_speed,wind_angle,battery_voltage,battery_current,position_x,position_y,position_z,orientation_x,orientation_y,orientation_z,orientation_w,velocity_x,velocity_y,velocity_z,angular_x,angular_y,angular_z,linear_acceleration_x,linear_acceleration_y,linear_acceleration_z
0.0,3.4000000953674316,91.0,24.332353591918945,-0.04771064221858978,-79.78281344082164,40.45901315907258,267.83326208543775,0.032669324427843094,-0.01548223756253719,0.983193337917328,0.17895235121250153,-0.0035517022212302983,-0.02740205690438423,0.0038010734445534772,-0.005597993731498718,0.0004199532850179821,-0.008729143999516964,-0.2211611562408507,0.6832935612648726,-9.7844312953949
0.1,3.299999952316284,99.0,24.32734489440918,-0.04771064221858978,-79.78281340896888,40.459013195370744,267.83810576748846,0.032669898122549064,-0.015509815886616709,0.9832120537757874,0.1788468062877655,-0.0013468869029520571,-0.02153719785326321,0.003267921058454309,-0.005661309231072664,-0.005419828929007053,-0.011154763400554657,-0.2229601434990764,0.6822830162197352,-9.78527621805668
0.3,3.5,96.0,24.32108497619629,-0.015903547406196594,-79.78281339838023,40.45901321346495,267.83848538947103,0.032671667635440826,-0.015528264455497263,0.9832202196121216,0.17879992723464966,-0.0014707859709543586,-0.02500131290850988,0.0036676715551535468,0.00505214836448431,-0.0021446084138005968,0.003932803403586149,-0.22074309859424832,0.6627415484189988,-9.787159021496773
0.41,3.700000047683716,94.0,24.33110237121582,-0.10337305814027786,-79.7828133513219,40.45901328123333,267.84382483315466,0.03266134485602379,-0.01553377229720354,0.9832369089126588,0.17870983481407166,-0.00043055028598712415,-0.027413963959678742,0.0037883614850091904,0.002650558948516845,6.348783790599555e-05,0.004720802418887615,-0.22271719168871645,0.6689058293402196,-9.787060788273813
0.6,3.799999952316284,94.0,24.3148250579834,-0.11132483184337616,-79.78281330670488,40.45901332623842,267.84845775318144,0.03266245871782303,-0.01554062496870756,0.9832484126091005,0.17864571511745453,0.0005327329514286863,-0.02642120410703474,0.0036335885145916407,0.0006982836639508605,0.0002955881645902992,0.000267392402747646,-0.21897659992799165,0.6626285509765149,-9.789202038645746
0.71,3.2000000476837163,95.0,24.3148250579834,-0.12722837924957275,-79.78281328101009,40.459013374610656,267.84938040328024,0.03266733139753342,-0.015540423803031445,0.9832619428634644,0.17857030034065247,-0.0017844136799801645,-0.033106606936439624,0.004681862123073744,0.0038813860155642033,0.005425715819001198,0.004352258983999491,-0.2172204617969692,0.6615811684727669,-9.7884793227911
0.9,3.0,92.0,24.302305221557607,-0.14313192665576935,-79.78281320950819,40.45901338534979,267.85378429245947,0.032678939402103424,-0.015583190135657787,0.9832695126533508,0.178522989153862,-0.008324312700104551,-0.0251032076068808,0.004621880093674451,-0.007542131934314965,-0.00446635065600276,-0.009920483455061913,-0.22149598242715002,0.6825220942497254,-9.785746334195137
1.0,2.700000047683716,89.0,24.31357192993164,-0.02385532110929489,-79.78281317154385,40.459013424926546,267.858521282196,0.03267645090818405,-0.015618981793522838,0.9832842946052552,0.1784389168024063,-0.0040611315378947035,-0.019513833959666858,0.003936177052564024,-0.006626546382904053,-7.234315125970171e-05,-0.007747816387563944,-0.2228017204999924,0.6741270274668932,-9.786898235678674
1.2,2.5,84.0,24.33110237121582,-0.007951773703098297,-79.78281315781436,40.45901344127571,267.85894036245344,0.03267456963658333,-0.015611139126121996,0.983291745185852,0.17839884757995605,-0.0045202262784538,-0.022875418622005043,0.004248963310641912,0.006257048342376946,-0.0004874564183410257,0.0017404672689735892,-0.22264168951660399,0.6652282961457968,-9.786854966282846
1.3,2.4000000953674316,77.0,24.33360481262207,0.0,-79.78281313774103,40.459013474343344,267.8633046443462,0.03266681730747223,-0.015652982518076897,0.9833070635795592,0.17831182479858398,-0.0009960501230158454,-0.0170830470120428,0.00345435254064636,0.003926560282707214,-0.0005696137668564916,0.0012943512992933393,-0.22009244967252012,0.6647410038113595,-9.787903372049332
1.5,2.200000047683716,76.0,24.332353591918945,0.0,-79.78281312875916,40.459013488539796,267.8636976177692,0.03264080733060837,-0.0156709011644125,0.9833159446716307,0.17826621234416962,-0.002382689699436348,-0.02004951373771261,0.0039286596673840535,0.001188039779663086,0.002562172943726182,0.0029468447901308537,-0.21745941191911705,0.6618882934749126,-9.78753090441227
1.61,2.200000047683716,69.0,24.33110237121582,-0.007951773703098297,-79.78281306246727,40.459013552615744,267.8700470919609,0.032652609050273895,-0.0156722292304039,0.9833319783210754,0.17817552387714386,-0.00321650545278516,-0.02422412509091493,0.006814495014515975,0.0016270414926111698,0.0034237573854625225,0.001006367732770741,-0.21851112501695752,0.6626925048977137,-9.78729467689991
1.8,2.200000047683716,65.0,24.33110237121582,0.0,-79.78281304824833,40.45901357181381,267.8707749838829,0.0326535739004612,-0.015675803646445274,0.9833388328552246,0.17813709378242493,-0.0052395593598918285,-0.027087047770944502,0.007348797249608052,-0.004612116143107414,-0.0023826484102755785,-0.008571851067245007,-0.22279760917648675,0.6837719365954399,-9.785769138336182
1.91,2.0,65.0,24.328598022460927,-0.02385532110929489,-79.78281302991952,40.459013618880356,267.87541750025747,0.03261774405837059,-0.015700582414865494,0.9833555817604064,0.17804883420467374,-0.00024679567602514684,-0.022334561510239888,0.005867477935909086,-0.004614361561834811,-0.0015612333081662655,-0.012048199772834778,-0.22163185710087416,0.6812560258805752,-9.785617695450783
2.1,1.7999999523162842,67.0,24.32609367370605,0.007951773703098297,-79.78281295586851,40.459013665291785,267.87935343337057,0.03263011574745178,-0.015702169388532642,0.9833602905273438,0.17802099883556366,-0.003578251023684488,-0.022659602774969964,0.0042982025328004905,0.0035498864017426968,0.0026968626771122213,0.0004939824575558305,-0.2217073958180845,0.6627364321053029,-9.786956123113633
2.21,1.7000000476837158,70.0,24.329849243164066,-0.007951773703098297,-79.78281292268126,40.45901370413129,267.88034728121755,0.03262012451887132,-0.015697570517659187,0.9833724498748779,0.17795583605766296,-0.006407802368667974,-0.02890749905880283,0.005251472255054279,0.0050370111130177975,-0.001221639569848776,0.005330817308276893,-0.22199162531644107,0.6647557680308819,-9.78630591273308
2.41,1.600000023841858,70.0,24.33110237121582,-0.015903547406196594,-79.7828129000233,40.459013729460594,267.88474166345594,0.032619796693325036,-0.015728110447525978,0.983383059501648,0.17789411544799805,-0.0031378092786735843,-0.02077423344172244,0.0040588330675419785,-0.004431565757840872,-0.00022391196398530155,0.0030590291135013103,-0.21920911811292174,0.664456098228693,-9.787835544347764
2.5,1.5,69.0,24.33110237121582,0.0,-79.78281287030437,40.45901378361437,267.89152809929845,0.03260591998696327,-0.0157456211745739,0.9833967685699464,0.17781978845596313,0.0021732744833490507,-0.01713252193247475,0.006691895382911165,-0.0009724182309582832,0.00031838755239732563,0.005954473745077848,-0.21864500798285008,0.6605611947923901,-9.788437222838402
2.7,1.600000023841858,68.0,24.323589324951172,0.0,-79.78281286372932,40.45901379953332,267.8922676439285,0.03260791301727295,-0.015746353194117546,0.9834043979644777,0.17777658998966214,0.0004033213625315164,-0.0200274951587535,0.007204664741344496,-0.007205171976238489,-0.0021395753137767315,-0.0048321876674890536,-0.2225416107662022,0.6836313110589981,-9.784771603345874
2.8,1.399999976158142,72.0,24.332353591918945,-0.007951773703098297,-79.78281279486899,40.45901383939053,267.8990257079601,0.03261800855398178,-0.015769446268677708,0.983421504497528,0.1776782125234604,-0.004044799708171092,-0.01590219798861697,0.009675237556894384,-0.009499654173851013,-0.002531236037611961,-0.00956508703529835,-0.22144834589213133,0.675094376206398,-9.784980348944664
3.01,1.399999976158142,74.0,24.32609367370605,-0.015903547406196594,-79.78281278407724,40.4590138515572,267.9000071878433,0.03260266780853272,-0.015760427340865142,0.9834293127059937,0.17763876914978027,-0.00431178888335128,-0.018765848895245088,0.010004860877671226,0.0037678938824683428,0.0010560393566265702,0.0034923027269542213,-0.2226999606750905,0.6662586486339569,-9.786069100499152
3.11,1.2000000476837158,76.0,24.32734489440918,-0.007951773703098297,-79.78281274815359,40.45901390017582,267.90690389227865,0.03259822353720665,-0.015750829130411148,0.983443558216095,0.1775616854429245,-0.0011852961921449796,-0.015697216422869642,0.011169891433038823,-0.00019247896852903068,-0.0009163449285551908,-0.004815963096916676,-0.22032420041039588,0.6805876891314984,-9.785656871795657
3.3,1.2000000476837158,75.0,24.33110237121582,-0.007951773703098297,-79.78281273902907,40.45901391286932,267.9080520863533,0.03258904442191124,-0.015760695561766624,0.98345547914505,0.17749659717082975,-0.001966339058008494,-0.01856837486633427,0.011467766102397657,0.002855595899745822,0.0009138742461800576,0.002864863956347108,-0.21788644138723606,0.6635226633399726,-9.786115878224372
3.41,1.2000000476837158,75.0,24.329849243164066,-0.015903547406196594,-79.78281266262147,40.45901397340796,267.91546344709394,0.03259566053748132,-0.015757063403725624,0.9834712147712708,0.17740797996520996,-0.004154251024213821,-0.020235394532693164,0.012472104901315641,0.00910060200840235,0.0025356952100992203,0.002844125730916857,-0.22201187130063774,0.6635209091752768,-9.787835544347764
3.6,1.100000023841858,76.0,24.32609367370605,0.0,-79.78281263652755,40.45901403138702,267.92131113958357,0.03256582096219063,-0.015760183334350586,0.9834794402122498,0.1773679107427597,0.0015817128785844134,-0.01857407034703713,0.012245143851967816,-0.006501069292426109,-0.003397136926651001,-0.0003757167723961175,-0.2194642942585051,0.6651928474009038,-9.78812381207943
3.71,1.100000023841858,77.0,24.324840545654297,-0.007951773703098297,-79.7828126194963,40.45901406608213,267.9239388103485,0.032549198716878884,-0.015743749216198918,0.9834935665130616,0.17729391157627106,-0.00036491930285109545,-0.024237229385153297,0.013131740415686894,0.0020847024861723185,0.0029246972408145666,0.002572930185124278,-0.21897924944758407,0.6624116192758084,-9.787468923926356
3.9,1.100000023841858,79.0,24.329849243164066,-0.03180709481239319,-79.78281254487432,40.45901408231885,267.9282999033928,0.03257875144481659,-0.015758022665977478,0.9834986925125122,0.1772591471672058,-0.00840972635461927,-0.015022443712675375,0.010274823197415768,-0.005462467670440674,0.0015350790927186608,-0.011818662285804749,-0.22335877742618326,0.6848983296006919,-9.784720732569696
4.01,1.0,81.0,24.329849243164066,-0.007951773703098297,-79.78281251308023,40.45901410985937,267.9332977528572,0.03253621980547905,-0.015815598890185356,0.9835134148597716,0.1771799772977829,-0.0036543933234545415,-0.006391908003105589,0.006274301598034718,-0.005104121752083302,-0.0008667795918881892,-0.003321398049592972,-0.2218870515190065,0.6710594319552183,-9.785924674272538
4.2,1.0,80.0,24.332353591918945,-0.015903547406196594,-79.78281250533024,40.459014115121306,267.93393337678907,0.03253977745771408,-0.015814339742064476,0.9835204482078552,0.17714029550552368,-0.003964968865098553,-0.00937907092191954,0.00666761630440004,0.004561847541481257,-0.0007652408094145358,0.001806395943276584,-0.22221212016418576,0.6675145574659109,-9.786996468901632
4.3,0.8999999761581421,79.0,24.329849243164066,-0.02385532110929489,-79.78281245886538,40.4590141916001,267.9394678468704,0.032542813569307334,-0.015806913375854492,0.9835338592529296,0.1770658642053604,-0.0005386722076717652,-0.014187536100478909,0.0050221900324745605,-0.0013341738376766445,-0.0018921967130154367,-0.0022246830631047487,-0.22052002731710674,0.6805776757746935,-9.784121977686883
4.5,0.8999999761581421,78.0,24.33110237121582,0.015903547406196594,-79.78281245194741,40.45901420358399,267.94000679206846,0.032553624361753464,-0.01580711454153061,0.9835429191589355,0.17701387405395508,-0.0011493720270288625,-0.016963404315819133,0.005363422918782695,0.002287969458848238,0.0043540438637137404,0.003606999292969704,-0.21915532372891905,0.6638262069225311,-9.785658041238783
4.6,0.8999999761581421,75.0,24.33110237121582,0.007951773703098297,-79.78281240622672,40.45901428192322,267.9479074473381,0.032558608800172806,-0.01579030603170395,0.9835602045059204,0.17691798508167267,0.0026217765877013946,-0.01924722794853989,0.008288881030059212,0.006643388420343399,-0.0005426589050330222,0.004371905699372292,-0.2215277218446136,0.6817099159955978,-9.784059997200966
4.8,1.0,74.0,24.329849243164066,-0.007951773703098297,-79.7828123997736,40.45901429862371,267.9488151068687,0.03255946934223175,-0.01578664593398571,0.9835692048072816,0.17686814069747925,0.0004779276467430498,-0.02179986751361185,0.008843940263911637,-0.0009573917486704887,-0.0012839166447520256,-0.0010787403443828225,-0.22037678880617026,0.6644264966994524,-9.788059492707253
4.92,1.0,71.0,24.323589324951172,-0.02385532110929489,-79.78281232957245,40.459014347917844,267.95639800977705,0.032586853951215744,-0.0158046055585146,0.983584463596344,0.1767767369747162,-0.0026900682285102315,-0.019940605966626453,0.010621165561519048,0.003749564057216048,0.00213874620385468,-0.0005738229956477879,-0.2186599732004106,0.6641143284738065,-9.786750885844231
5.1,1.0,73.0,24.328598022460927,-0.02385532110929489,-79.78281227087527,40.459014408244734,267.96264183473585,0.03258109465241432,-0.01579997502267361,0.9835946559906006,0.1767214834690094,-0.002432136093798168,-0.01968850323064092,0.011193859800551213,-0.00345276715233922,-0.004080757964402436,-0.01192336343228817,-0.2230734333023429,0.6790371537208557,-9.785590798258783
5.2,0.8999999761581421,74.0,24.328598022460927,0.0,-79.78281225855966,40.45901442492642,267.9637937541008,0.0325879380106926,-0.015787450596690178,0.9836060404777528,0.17665784060955048,-0.002705364711676162,-0.022724182785648275,0.011444642862984534,0.0038349204696714882,0.0007348243962042034,0.003934895619750023,-0.22084171554073687,0.6662356252223254,-9.786840348243716
5.4,0.8999999761581421,75.0,24.324840545654297,-0.10337305814027786,-79.78281222817667,40.45901443982551,267.9710603947639,0.03255884721875192,-0.015851711854338646,0.9836232662200928,0.17656181752681732,-0.003238598219220416,-0.006830768117378528,0.012221745492726064,-0.006262209266424179,-0.0009492544922977686,-0.007482409477233888,-0.2217918332666159,0.6830826960504055,-9.784992628097532
5.5,0.8999999761581421,74.0,24.33360481262207,-0.015903547406196594,-79.78281216530844,40.459014517436344,267.980025290966,0.03254756331443786,-0.015859883278608322,0.9836398959159852,0.1764702945947647,-0.002276748902644025,-0.013433210510159213,0.016165277743581126,-0.004786382429301739,-0.0032724370248615733,-0.001544890459626913,-0.2228395629487932,0.6662271467596292,-9.785311301350594
5.7,0.8999999761581421,75.0,24.329849243164066,0.0,-79.78281215533713,40.4590145284766,267.98166859102247,0.03254105895757675,-0.01584266684949398,0.9836476445198059,0.17642970383167267,-0.0032371582827971073,-0.01607507399366885,0.016699542856624294,-0.001178896869532764,-0.001853086636401713,-6.96959177730605e-05,-0.2204847612977028,0.6780791605263948,-9.78538439154625
5.81,0.8999999761581421,75.0,24.329849243164066,0.0,-79.78281210135417,40.45901461840681,267.98746722888944,0.03253692016005516,-0.015823667868971825,0.9836697578430176,0.17630910873413086,-0.0013752058843990072,-0.0216094187777428,0.013442694782471485,-0.00435145478695631,-0.0040399152785539644,-0.007941002026200294,-0.21790635846555234,0.6644984174519778,-9.786353275179863
6.0,0.8999999761581421,78.0,24.33110237121582,-0.007951773703098297,-79.78281209069243,40.45901463625866,267.9888629312515,0.032524291425943375,-0.0158231183886528,0.9836756587028505,0.17627842724323273,-0.001445463142912791,-0.02432866952313896,0.013817562762914222,0.004857337567955256,-9.372163913212717e-05,0.003451518481597305,-0.22120877450332047,0.6678173701465129,-9.786421687602996
6.1,0.8999999761581421,78.0,24.329849243164066,-0.015903547406196594,-79.78281206778746,40.45901466881314,267.9926320309639,0.03252427652478218,-0.01584113948047161,0.9836907982826232,0.17619235813617706,-0.0012439796981512665,-0.0122697298311517,0.00846643064794855,-0.0036508913617581133,-0.0017009642906486988,-0.008558109402656555,-0.22168811827898027,0.6830832076817751,-9.78497216284275
6.3,0.8000000119209291,78.0,24.328598022460927,-0.05566241592168808,-79.78281206047949,40.45901467898437,267.993514775753,0.03252455219626427,-0.015841336920857433,0.9836981296539308,0.17615126073360446,-0.0014953451074460305,-0.015002065023230137,0.008902497958455739,0.006682942621409893,0.002286221366375685,0.004195360001176596,-0.2214257792942226,0.6631979966908693,-9.787654280662537
6.4,0.8000000119209291,77.0,24.32734489440918,-0.05566241592168808,-79.78281199951108,40.459014747578024,267.99914097738264,0.03252081573009491,-0.01583200879395008,0.9837101101875304,0.17608575522899628,-0.004001611770012483,-0.017297826257335225,0.010481612326436608,-0.0004289351345505565,-0.0037230364978313455,0.001909874496050179,-0.22055839966982604,0.6737553638219834,-9.785618280172349
6.6,0.699999988079071,78.0,24.328598022460927,-0.02385532110929489,-79.78281199419288,40.45901478953347,268.0034263129234,0.032511405646800995,-0.015864109620451927,0.9837164282798768,0.1760493367910385,0.001660346919362583,-0.010615644352566398,0.010535550292480031,0.0011950948974117635,0.0004959421348758042,0.004808835219591856,-0.21872931752353908,0.6623311469703913,-9.786122894883157
6.71,0.8000000119209291,81.0,24.32734489440918,-0.02385532110929489,-79.78281198951412,40.45901479947711,268.0045287604332,0.032496839761734016,-0.015840604901313782,0.9837250709533693,0.17600612342357635,-0.0002278644823057552,-0.013216593871447684,0.010982524219420569,-0.00553974648937583,-0.0013972027227282526,-0.010445358231663704,-0.2227242266200483,0.6796725267916918,-9.78399918615818
6.9,0.8000000119209291,80.0,24.329849243164066,-0.04771064221858978,-79.78281193890284,40.459014852094384,268.0108844037056,0.032516300678253174,-0.015838474035263058,0.9837401509284972,0.17591844499111176,-0.0028234433783375715,-0.014005912854614614,0.013956597938262977,-0.003403449896723032,0.00017784758529160172,0.0014848667196929455,-0.22064797170460226,0.6635287298262119,-9.78681988298893
7.0,0.8999999761581421,78.0,24.319833755493164,-0.007951773703098297,-79.78281193156111,40.45901490872669,268.01542544317243,0.032481782138347626,-0.015853121876716614,0.983752191066742,0.17585568130016327,0.004258247510398105,-0.011156456367435608,0.01274641843401502,0.007247525732964276,0.0033766038250178107,0.002066255547106266,-0.21821777751669288,0.6638575626164676,-9.78574984252453
7.2,0.8999999761581421,78.0,24.32233619689941,-0.05566241592168808,-79.78281192913849,40.459014919763725,268.0167658920288,0.032479126006364815,-0.015841728076338768,0.9837602972984314,0.1758120357990265,0.002272378348239815,-0.013778744013234234,0.013238150293230838,-0.0073921317234635344,0.00013763902825303376,-0.0030346158891916275,-0.22180009245872492,0.6726004656404257,-9.786547987461091
7.3,1.100000023841858,72.0,24.32734489440918,-0.015903547406196594,-79.78281191760254,40.45901498832464,268.02258688163755,0.03249449282884598,-0.015823576599359512,0.9837719202041626,0.1757461130619049,0.005431114259160885,-0.016347853709304624,0.0163684010596833,-0.0019565913826227192,0.0037109563127160072,0.004060686565935612,-0.21998807687312366,0.6709559362381697,-9.787339115738867
7.5,1.2999999523162842,71.0,24.33360481262207,-0.007951773703098297,-79.78281191517709,40.4590150034905,268.02431333017347,0.032500185072422035,-0.015827659517526627,0.9837777018547058,0.17571204900741574,0.0036906684871425405,-0.018868532209179133,0.016953441967916125,-0.005152502562850714,-0.001486515044234693,-0.010143221355974674,-0.2240419149398804,0.6832097268104553,-9.7845675355196
7.6,1.5,61.0,24.328598022460927,-0.007951773703098297,-79.78281187836696,40.45901503578733,268.0271700019836,0.03250860795378685,-0.01585027202963829,0.9837925434112548,0.1756252646446228,-0.0018675866184711173,-0.013230852352370356,0.015428494729035534,-0.0037586467806249853,-0.003069311613216996,-0.0019172705942764878,-0.22028538951650264,0.6662197646498681,-9.787777656912805
7.8,1.600000023841858,59.0,24.329849243164066,0.0,-79.78281187007269,40.45901504627686,268.02874296855924,0.03249906376004219,-0.01584747992455959,0.9837995767593384,0.17558784782886505,-0.002547247351251897,-0.015885987017609383,0.01580894334884109,0.002329256618395448,0.0017898030346259477,0.0005726182134822013,-0.2212580372951925,0.6744291823357345,-9.785403102636336
7.91,1.7999999523162842,59.0,24.328598022460927,-0.03180709481239319,-79.7828118325581,40.459015102865685,268.03135919523237,0.032487653195857995,-0.01581740938127041,0.9838145971298218,0.1755087673664093,-0.004671711515067266,-0.01766903015527489,0.01524695350075346,-0.004603767767548561,-0.0025019929744303226,-0.007375269196927547,-0.2218009147234261,0.6817468265444041,-9.78557384133339
8.1,2.0,59.0,24.328598022460927,-0.015903547406196594,-79.78281183764406,40.45901514456563,268.03005689334867,0.03247859701514244,-0.015811065211892128,0.9838255643844604,0.17544925212860107,0.0006616509578424322,-0.012386414649506131,0.009170769989585579,0.004931445233523846,0.00281908200122416,0.002830421552062034,-0.22010602617636324,0.6629515365511179,-9.787267779707909
8.2,2.0999999046325684,56.0,24.328598022460927,-0.015903547406196594,-79.78281183082728,40.45901515556295,268.0310207004547,0.03248066455125809,-0.015799572691321373,0.983833372592926,0.1754062920808792,-0.0014692311441830276,-0.014944171064240374,0.009618730585128023,-0.006528939120471478,0.00027660647174343467,0.0017901171231642363,-0.2216090164147317,0.6649863675981761,-9.786176689267158
8.4,2.0999999046325684,55.0,24.33360481262207,-0.015903547406196594,-79.7828118030577,40.45901521677658,268.03065574121473,0.03246354311704636,-0.015801968052983284,0.9838489294052124,0.17532218992710116,-0.002375708677975884,-0.016115559915718582,0.007314774849258591,0.004375649150460959,-0.00026460489607416093,0.004869706463068725,-0.2178459311462939,0.6642442097514868,-9.785442863702775
8.5,2.200000047683716,51.0,24.332353591918945,-0.007951773703098297,-79.78281186881026,40.45901526195961,268.03132200193403,0.03238554671406746,-0.01581629924476147,0.9838627576828004,0.17525719106197354,0.011188627025137073,-0.008640497444119226,0.008093059604301362,0.008996634744107723,0.0031084856018424034,0.002852145349606872,-0.22276713056489827,0.6812918400764466,-9.784006787538527
8.7,2.200000047683716,47.0,24.33110237121582,0.0,-79.78281187545838,40.459015273157135,268.0322483177185,0.03238168731331825,-0.015817280858755108,0.9838717579841614,0.17520761489868164,0.009525541014565184,-0.011253263524000752,0.008620284963209919,-0.0009505472844466568,0.001604710123501718,0.000909960363060236,-0.2191287371702492,0.6647905589640141,-9.787998096942903
8.8,2.4000000953674316,38.0,24.32609367370605,-0.015903547406196594,-79.78281188566862,40.459015344654716,268.03087991428373,0.032375618815422065,-0.01581853628158569,0.9838852882385254,0.17513279616832733,0.009192950094135273,-0.0152891395566324,0.0069446733000563185,0.006176198832690716,0.00196474464610219,0.0034143158700317144,-0.21898739900439976,0.6620221216231585,-9.787146157622338
9.0,2.299999952316284,42.0,24.32734489440918,-0.015903547406196594,-79.78281188843665,40.4590153602006,268.031692325592,0.03238565474748612,-0.015814680606126785,0.983894944190979,0.17507682740688324,0.007431532575933952,-0.017636208373814685,0.007535523538005346,-0.008183159865438938,-0.002720773220062256,-0.010149472393095492,-0.22051089104264976,0.6776121872663499,-9.785938122868536
9.1,2.200000047683716,47.0,24.32734489440918,0.0,-79.78281188177306,40.459015418730395,268.0271799559593,0.03238911181688309,-0.015798430889844894,0.9839098453521729,0.17499355971813202,0.0028144116011539154,-0.017301377868401885,0.0020055810651921626,0.0006391786155290903,0.0007039728807285428,0.003239113371819257,-0.2201043451018632,0.6623524162173271,-9.788553582429888
9.3,2.0999999046325684,50.0,24.32233619689941,-0.015903547406196594,-79.78281187792706,40.45901543431493,268.02745360088346,0.0323529914021492,-0.015784261748194698,0.9839174151420592,0.17495910823345184,0.001983452432705046,-0.019726678964924763,0.002456650403832023,0.0012799821561202411,-0.0002547746116761118,-0.002466719364747405,-0.21987381862476468,0.6811250482499599,-9.785426491498947
9.4,2.0999999046325684,53.0,24.328598022460927,-0.02385532110929489,-79.78281189854394,40.459015513503324,268.0243566031456,0.03233243525028229,-0.0157710462808609,0.9839351773262024,0.17486454546451569,0.0037928843038612563,-0.0216766309108502,0.0017522678746213292,-0.003968140576034784,-0.004145985469222069,-0.0073957573622465125,-0.2225069294683636,0.6734071621298791,-9.78482715189457
9.6,2.0,53.0,24.33110237121582,0.0,-79.78281188163884,40.459015519001454,268.0202891821861,0.032334450632333755,-0.015803808346390724,0.9839391112327576,0.1748390644788742,-0.0039138978069323685,-0.011236017341464118,0.0016364723252164438,0.004370350856333971,0.0007973472820594907,0.006902311462908983,-0.2221239185705781,0.6678269449621439,-9.786682473421095
9.7,1.7999999523162842,50.0,24.328598022460927,0.0,-79.78281187122587,40.45901552792736,268.0204626317024,0.032331060618162155,-0.015804577618837357,0.9839449524879456,0.17480657994747162,-0.005195516775834944,-0.013664627891611342,0.0019815211549650087,0.0004326186317484826,0.0015134348068386314,0.0068815411068499106,-0.21916148157790305,0.6619306126981974,-9.787556632161143
9.9,1.7999999523162842,50.0,24.33110237121582,-0.015903547406196594,-79.78281192033896,40.45901559836161,268.01527541828153,0.03228488937020302,-0.01580764725804329,0.9839606881141664,0.17472603917121887,0.0036178898775830882,-0.01534150894817595,-0.001389564706870004,0.002970006549730897,-0.0006046144408173857,0.004428339190781117,-0.22028844103217127,0.6627582860738039,-9.786466126441956
10.01,1.7999999523162842,46.0,24.32734489440918,-0.015903547406196594,-79.78281196492894,40.459015670933255,268.0111947054863,0.03227395564317703,-0.015816466882824898,0.9839749336242676,0.17464733123779294,0.008322146637001536,-0.016473013427597008,-0.0012696981394347685,0.0035753340926021338,0.0005490983021445572,0.0017552414210513234,-0.222733216714114,0.6700222089886666,-9.786207679510118
10.2,1.7999999523162842,46.0,24.32233619689941,0.08746951073408127,-79.78281196622758,40.45901568831221,268.011175453186,0.032270487397909164,-0.0158077422529459,0.9839850664138794,0.1745917797088623,0.00734258448104089,-0.01899503234949884,-0.0009123998548956646,0.0013477115426212554,-0.0019502238137647512,0.002885857131332159,-0.2196085560321808,0.6617335615307093,-9.7869970536232
10.31,1.7000000476837158,47.0,24.32734489440918,0.02385532110929489,-79.78281203175175,40.45901576020163,268.0069698090553,0.03225011378526688,-0.015810338780283928,0.9839997887611388,0.17451198399066925,0.013049448110283187,-0.018160365495117792,-0.0010648418020866648,0.00413482403382659,0.0011164861498400573,0.001059203059412539,-0.2238102007471025,0.6838834722340107,-9.783992169499395
10.5,1.7000000476837158,49.0,24.3148250579834,-0.015903547406196594,-79.78281203773895,40.45901577954892,268.0070098633766,0.03224408254027366,-0.01580633595585823,0.9840060472488404,0.17447836697101593,0.011376537372723887,-0.02045634305151202,-0.0005898689299578447,-0.0053905216045677645,-0.0029569338075816627,6.042591849109158e-06,-0.22093377264216546,0.6654062707722187,-9.787533243298533
10.6,1.600000023841858,44.0,24.324840545654297,0.10337305814027786,-79.78281208825115,40.45901581380495,268.0055334563255,0.032253533601760864,-0.015816083177924156,0.9840173721313475,0.17441141605377194,0.010367923767878866,-0.014177408143381972,0.004645976078475725,0.004460829310119152,0.00015431168139912188,0.0012932996032759547,-0.2172650650888681,0.6642632862925529,-9.785606585741043
10.8,1.600000023841858,45.0,24.319833755493164,0.07951773703098297,-79.782812093094,40.45901582918177,268.0061179990768,0.03225276619195938,-0.015834180638194084,0.9840256571769714,0.17436376214027405,0.008782922452447179,-0.016599062785479964,0.00509869780175742,-0.007249050308018924,-0.0042629889212548715,-0.007724884897470473,-0.2231694190017879,0.6748897236585617,-9.785590798258783
10.9,1.5,44.0,24.32233619689941,0.07951773703098297,-79.78281209044121,40.45901584846464,268.0035298461914,0.03227997198700905,-0.015864398330450058,0.9840381145477296,0.17428557574748993,0.002043636936643991,-0.013175156543069073,0.007000831251047389,0.0006543077761307359,-0.0012470979709178214,0.004515139386057854,-0.21955823343247172,0.6621840164065361,-9.787558386325836
11.1,1.399999976158142,39.0,24.32609367370605,0.07156596332788467,-79.78281215233825,40.45901590027784,268.0020593996048,0.032257869839668274,-0.015868285670876503,0.9840484857559204,0.17423062026500702,0.009484681073177102,-0.0122201275157604,0.011429563471813821,-0.0025204860139638186,-0.000773072533775121,-0.010018397122621536,-0.22320325976237654,0.6845930318534375,-9.783814998865127
11.2,1.5,37.0,24.324840545654297,0.08746951073408127,-79.78281215666388,40.45901591413881,268.00329816293714,0.03226560726761818,-0.015868211165070534,0.9840600490570068,0.174163818359375,0.009738282265242364,-0.014652657758409453,0.011580246718666035,0.006021424196660519,0.003336687106639147,0.0008038401720114052,-0.22135179374367006,0.663184475004673,-9.785921750664713
11.4,1.5,37.0,24.323589324951172,0.039758868515491486,-79.7828122002602,40.459015955008375,268.00086396884916,0.032254394143819816,-0.015889279544353485,0.9840741157531738,0.17408448457717896,0.008625624992237456,-0.011479669228500194,0.011039578020646671,-0.0024755820631980896,-0.0011428067227825522,-0.0010332807432860136,-0.2200301402807236,0.6777173640578985,-9.78556507050991
11.5,1.600000023841858,41.0,24.324840545654297,0.08746951073408127,-79.7828122455561,40.459016012049695,268.000043153286,0.032242655754089355,-0.015908548608422283,0.9840921759605408,0.17398297786712644,0.009739561689788921,-0.01354723354702198,0.014382292578573624,-0.0063000842928886405,-0.0011425478151068091,-0.006751738954335451,-0.2219438426010311,0.6724621789902449,-9.786101260185244
11.7,1.600000023841858,36.0,24.32609367370605,0.13518016040325165,-79.78281224958411,40.459016027079755,268.0015966887474,0.032247405499219894,-0.015915604308247566,0.9841001629829408,0.17393623292446134,0.009910936282281782,-0.016076899353096682,0.014772244577655224,0.0023242563474923372,-0.0009244763641618193,0.002114236121997237,-0.22134649470448486,0.6718597695976496,-9.786556173563003
11.8,1.600000023841858,39.0,24.32609367370605,0.06361418962478638,-79.78281227227438,40.459016059085116,267.99903887462614,0.032260969281196594,-0.015918811783194542,0.9841169118881226,0.17383819818496704,0.004491981980584085,-0.012956423316486226,0.013918045518033115,-0.0062217870727181435,-0.0015831823693588376,-0.0096946582198143,-0.2186591874808073,0.6635019788146019,-9.786272583603859
12.01,1.5,39.0,24.324840545654297,0.06361418962478638,-79.78281227155867,40.45901607149092,268.0004955525398,0.032284270972013474,-0.01592904143035412,0.9841259121894836,0.1737821400165558,0.004835509302621268,-0.015229041123942171,0.01410953398753621,0.005280147772282362,0.0025250909384340052,0.0016213261988013985,-0.2211542126722634,0.6679534640908241,-9.785563901066778
12.12,1.600000023841858,42.0,24.32233619689941,0.08746951073408127,-79.78281229267836,40.459016112465136,267.99791854572294,0.03228694200515747,-0.01594446785748005,0.9841424822807312,0.17368638515472412,0.0015932522428997713,-0.015067218390052609,0.013193788360194204,-0.005502094980329275,-0.001356105785816908,-0.009757550433278084,-0.22146157521754506,0.6827806873619556,-9.784155891537667
12.3,1.7000000476837158,41.0,24.32233619689941,0.09542128443717957,-79.78281228754425,40.45901612541308,267.99929219436643,0.032295409590005875,-0.015951571986079216,0.9841509461402892,0.17363642156124115,0.001881283878098718,-0.017285577251424846,0.013416550085481873,0.005949223414063454,0.00036139372969046235,-5.376939952839166e-05,-0.22072182934731246,0.6643368881195784,-9.786494193077088
12.4,1.7999999523162842,34.0,24.32108497619629,0.06361418962478638,-79.78281234427732,40.45901614624077,267.99592256498335,0.03229106217622757,-0.015989337116479874,0.98417067527771,0.17352139949798584,0.00396296573906304,-0.01174743799137332,0.011780504108816021,-0.0019947609398514032,-0.002646775217726827,-0.00042019487591460336,-0.2197500769235194,0.6807981888949871,-9.783744247555733
12.6,1.8999999761581416,34.0,24.32609367370605,0.05566241592168808,-79.78281237101389,40.4590161540631,267.9914339776039,0.03231743350625038,-0.016024425625801086,0.9841770529747008,0.17347747087478638,0.001133780812520999,-0.006077829929744467,0.010966371934342228,0.004049208480864763,0.0045110518112778655,0.00400343956425786,-0.2201330147311092,0.6635768231749535,-9.783613269925118
12.7,2.0,35.0,24.32233619689941,0.07156596332788467,-79.78281236314585,40.459016166219826,267.9937111134529,0.032298263162374496,-0.016030739992856983,0.9841939210891724,0.17338478565216064,-0.0007701757389922723,-0.010009822794911395,0.011500214842183144,0.004124461207538843,-0.0002161640441045165,0.0027569988742470733,-0.22197216505184766,0.6705658538639546,-9.783640751838684
12.9,2.200000047683716,37.0,24.32233619689941,0.04771064221858978,-79.78281238598052,40.45901620775767,267.9893203372955,0.03228265792131424,-0.016034739091992378,0.9842028617858888,0.17333656549453735,-0.00013763946703454182,-0.012530155881382184,0.010966495081926821,0.001359070185571909,-0.0015221142675727606,-2.388035318290349e-05,-0.21807746261358266,0.6625016663968564,-9.785887252092364
13.0,2.0,37.0,24.323589324951172,0.07951773703098297,-79.78281240463295,40.45901625477699,267.98558491420744,0.0322486013174057,-0.016009623184800148,0.9842169284820556,0.17326503992080688,0.0007341057669172263,-0.015127599182055654,0.010613212607048374,0.005394361447542907,0.00145039486233145,0.0066079767420887964,-0.22031683657318354,0.6652157246321441,-9.786217619776727
13.2,1.8999999761581416,36.0,24.319833755493164,0.06361418962478638,-79.78281239726206,40.45901626794125,267.9866982693672,0.03227503225207329,-0.016003327444195747,0.9842230677604676,0.17322610318660736,-0.0006289723733291225,-0.017120150392711638,0.010987958447572641,0.00045443678391166037,0.0004283822199795395,0.003293042536824941,-0.21874313157051808,0.6624876330792904,-9.786899989843368
13.3,1.8999999761581416,45.0,24.323589324951172,0.02385532110929489,-79.78281247495777,40.459016299136074,267.9820994133949,0.03222893550992012,-0.016027454286813736,0.9842405915260316,0.17313259840011594,0.008745072441387891,-0.009995849035154365,0.01000399308524142,0.003695157822221517,0.003806776599958539,0.0012017294066026807,-0.2224102311395109,0.6635386700928212,-9.785769138336182
13.5,1.8999999761581416,46.0,24.32108497619629,-0.04771064221858978,-79.78281247878515,40.45901630993158,267.98319733095167,0.032236922532320016,-0.016039682552218437,0.9842479228973388,0.17308858036994934,0.0071477046369875985,-0.01181368131341771,0.010441020544706248,-0.00666775880381465,0.0009250773582607508,-0.003120549954473973,-0.2216620068065822,0.6664072410017252,-9.786537462472916
13.61,1.8999999761581416,49.0,24.32734489440918,-0.039758868515491486,-79.78281250046422,40.45901634248713,267.9784599537849,0.03225836902856827,-0.016036815941333767,0.9842624664306641,0.173002228140831,0.004016490033463325,-0.011584056825038208,0.010337045290576193,0.0028538077604025602,-0.0017831512959674,0.0006942489999346435,-0.2170483709312976,0.6646663787215948,-9.785138808488846
13.8,1.7999999523162842,51.0,24.32734489440918,-0.015903547406196594,-79.78281249908933,40.45901635335401,267.9795528049469,0.03224422037601471,-0.01603604294359684,0.984272301197052,0.17294862866401672,0.002524238856761284,-0.013339724207712357,0.010635628250045026,-0.003937547095119953,-0.00048754728049971163,-0.011015236377716064,-0.22080911731347444,0.6786840549856424,-9.784279267787934
13.91,1.7000000476837158,54.0,24.31858062744141,-0.039758868515491486,-79.78281253612222,40.45901640669162,267.97473263692854,0.03224831447005272,-0.016023552045226097,0.9842901229858398,0.17284747958183289,0.004310349556342291,-0.01627023018269249,0.010339123588584279,0.001874199486337602,0.0024163410998880863,0.005212105344980954,-0.21867259953171012,0.6621001819521191,-9.787404604554176
14.1,1.7000000476837158,56.0,24.32734489440918,-0.007951773703098297,-79.78281256114273,40.4590164293948,267.9686018819809,0.03223644569516182,-0.01603025197982788,0.9842954277992249,0.1728193163871765,0.002213141079900555,-0.012436032225732608,0.010051368210171836,-0.0053045740351080894,0.0006365005392581222,-0.008644628338515759,-0.2211860799975693,0.6838684887439013,-9.784468132853508
14.2,1.8999999761581416,60.0,24.319833755493164,-0.02385532110929489,-79.78281255763684,40.45901644112265,267.9696578974724,0.032237458974122994,-0.016026003286242485,0.9843035936355592,0.17277255654335022,0.002591916285576729,-0.014619490066121846,0.010267550047701544,0.003943166695535183,0.0031480994075536732,0.003546355525031686,-0.2220839382335544,0.6633039043843747,-9.786418763995169
14.4,1.8999999761581416,59.0,24.319833755493164,-0.03180709481239319,-79.7828126109438,40.45901646930837,267.9620087738037,0.032219208776950836,-0.01603727415204048,0.98431795835495,0.1726931631565094,0.004298568674368182,-0.010342392801069352,0.005416839139281746,-0.0010669567855075002,-0.0008202345343306661,-0.005912649910897017,-0.21996905514970425,0.6799447146803141,-9.783545442223547
14.51,1.8999999761581416,62.0,24.32609367370605,-0.015903547406196594,-79.78281263864554,40.459016507766755,267.9543745512962,0.032233476638793945,-0.016066571697592742,0.9843342304229736,0.17259512841701508,0.0019089605351265786,-0.01074541712081487,0.0034570461327710104,-0.003856528550386429,-0.0038544926792383203,-0.0012642331421375275,-0.2212168326973915,0.6666666381061077,-9.785313640236856
14.7,2.0,62.0,24.32734489440918,-0.007951773703098297,-79.78281263599102,40.4590165182724,267.9547730679512,0.03223901242017746,-0.01604570262134075,0.9843418598175048,0.17255261540412906,0.001837377937565379,-0.012785294878559374,0.0037915209513207423,-0.0013936039758846164,-0.0016471388516947627,0.0004712268710136414,-0.2198540294542909,0.67799057520926,-9.784891471266748
14.8,2.299999952316284,60.0,24.329849243164066,0.0,-79.78281267081101,40.45901655640765,267.9487265343666,0.032244499772787094,-0.016054598614573482,0.9843560457229614,0.17246949672698975,0.002356498883850705,-0.012453681642363773,0.005289386042781953,-0.004161014221608639,-0.005521803628653288,-0.007287065964192151,-0.21763079015538092,0.6649654638022184,-9.785915318727492
15.0,2.700000047683716,64.0,24.32734489440918,-0.007951773703098297,-79.78281266867474,40.45901656800669,267.9493052358627,0.032236915081739426,-0.016055388376116753,0.9843648672103882,0.1724207103252411,0.002672029137488315,-0.014362993308594831,0.005418236274540092,0.00540848495438695,-0.0005956432432867588,0.0023636633995920424,-0.22059432350099087,0.6682651206851006,-9.785815331339837
15.1,3.0999999046325684,58.0,24.32734489440918,0.007951773703098297,-79.78281270903784,40.459016607009374,267.94147378158567,0.03220314905047417,-0.016063138842582703,0.984380841255188,0.17233499884605408,0.003156595196641475,-0.012856129718366659,0.003367869248457934,-0.003324550110846758,0.0014398971106857061,-0.0054902276024222365,-0.22048185596242548,0.6836241482198239,-9.783374118804932
15.3,3.2000000476837163,51.0,24.328598022460927,0.0,-79.78281270728665,40.459016618863906,267.9418647880554,0.03219681233167648,-0.016078712418675426,0.9843856692314148,0.17230737209320068,0.003682034857610921,-0.014769991145435738,0.0034257491014701978,0.004726428538560867,0.002616284880787134,0.0029281266033649445,-0.2205549278855324,0.6642621899396182,-9.78498210310936
15.4,3.299999952316284,47.0,24.32233619689941,-0.039758868515491486,-79.78281272640955,40.45901665783223,267.93312227678297,0.0321686826646328,-0.01607709750533104,0.9844004511833192,0.1722279042005539,0.0013689137145036655,-0.014392796817609282,0.001903644493061378,0.002379472367465496,0.0018981101457029575,0.0003832201182376594,-0.22144034251570704,0.6698559287935496,-9.785824102163316
15.6,3.299999952316284,42.0,24.32609367370605,0.007951773703098297,-79.78281275292616,40.459016683385634,267.92362058115003,0.032170262187719345,-0.01610477827489376,0.9844062328338624,0.17219184339046478,0.0003232671721386319,-0.011728633055177295,0.0003382511990154278,-0.003023679368197918,0.0008847675053402781,0.004162833094596864,-0.2197819077037275,0.6610202743113042,-9.787281228303911
15.7,3.5,43.0,24.324840545654297,0.0,-79.78281274225388,40.45901670555525,267.92378157329557,0.032137617468833916,-0.016106931492686268,0.984422504901886,0.172105073928833,-8.996778480771446e-05,-0.015084628661578904,0.0006987375968671471,0.006050244439393282,0.0014101499691605568,0.0010799457086250186,-0.21840598477050666,0.6648352901637554,-9.785136469602586
15.9,3.4000000953674316,40.0,24.323589324951172,-0.02385532110929489,-79.78281280718986,40.45901674808719,267.9167234892845,0.03211812302470207,-0.01608918234705925,0.9844324588775636,0.17205333709716794,0.005616370036177311,-0.013793799783246494,0.0023892163347300297,-0.007381963077932595,-0.002025980968028307,-0.010467651300132276,-0.2207840656489134,0.6792953813821078,-9.78335482299328
16.0,3.2000000476837163,43.0,24.328598022460927,-0.007951773703098297,-79.78281285111542,40.459016764716274,267.9096600706577,0.0320919007062912,-0.016111699864268303,0.9844508171081544,0.17195096611976626,0.005404297313086614,-0.006318998940525496,0.004988895983648308,-0.0028056404553353786,-0.003659333335235715,-0.002502273069694639,-0.22167894545942546,0.6669732514768839,-9.785725868940354
16.2,3.0999999046325684,45.0,24.31858062744141,-0.007951773703098297,-79.78281285431002,40.45901677231531,267.9102198476791,0.03207330033183098,-0.016104504466056824,0.984458327293396,0.17191258072853088,0.0059496158392838725,-0.008287421861145212,0.005194750853028125,0.004322992637753487,-0.0008950520423240961,0.005834324285387993,-0.22375967714935546,0.6679197695106268,-9.786134589314461
16.3,3.2000000476837163,44.0,24.324840545654297,-0.007951773703098297,-79.78281292157376,40.45901682910758,267.90278890681265,0.03204990178346634,-0.016096949577331543,0.9844729900360109,0.1718333214521408,0.01199540428697062,-0.009555288897404215,0.005750535583714089,-0.0015522160101681948,0.0010440382175147533,0.0016827814979478715,-0.2196770232729614,0.662596245110035,-9.787248483896256
16.5,3.0,40.0,24.32734489440918,-0.007951773703098297,-79.78281293050294,40.45901684099377,267.9034724230766,0.032038714736700065,-0.016114292666316032,0.9844788312911988,0.17180025577545166,0.011887624347183837,-0.011191318636623695,0.005799803552298235,0.0038286079652607437,-0.002682175021618605,0.004498068243265152,-0.2187834225408733,0.6617619936168194,-9.78422196507454
16.6,2.700000047683716,34.0,24.328598022460927,-0.007951773703098297,-79.7828129455785,40.45901686208556,267.8957141931057,0.032020796090364456,-0.016117645427584648,0.9844942688941956,0.17171476781368256,0.007071785310264146,-0.008022387156578959,0.006805935954296536,0.005712211597710848,0.0022277534008026123,-0.0006759354728274047,-0.21802291905507445,0.6638302268832922,-9.784171094298364
16.8,2.5999999046325684,32.0,24.328598022460927,-0.007951773703098297,-79.78281294908685,40.45901687090039,267.8964661056995,0.03200552240014076,-0.016113627701997757,0.9845014810562134,0.1716768890619278,0.005696828030091214,-0.009427374660732058,0.007052014051774391,-0.0006098899175412952,-0.0028495148289948693,-0.01289710123091936,-0.2214790620468557,0.6814438676834107,-9.783378796577454
16.9,2.700000047683716,34.0,24.32734489440918,-0.02385532110929489,-79.78281295739869,40.459016911858505,267.8893600697517,0.03198941424489021,-0.01610245741903782,0.9845162034034728,0.17159678041934967,0.0037470341991212015,-0.010452009472991821,0.007762755762714692,-0.006082202773541212,-0.0002569125790614635,-0.0035952127072960147,-0.22171967497095466,0.6710304882377387,-9.784816626906396
17.1,2.700000047683716,34.0,24.328598022460927,0.0,-79.78281298837057,40.45901693999539,267.88115051341055,0.03198089078068733,-0.016108972951769832,0.9845214486122132,0.17156745493412018,0.007093222637768962,-0.0069898882196976824,0.007824002974013186,0.0038659088313579572,0.004323354922235012,0.00652379309758544,-0.22047504030168052,0.6685153084248304,-9.78530311524868
17.2,2.5999999046325684,43.0,24.32609367370605,-0.007951773703098297,-79.78281299194498,40.459016948178416,267.8819992239475,0.03199084848165512,-0.01610391214489937,0.9845277070999146,0.17153000831604004,0.006252786189557355,-0.008552916558802337,0.007950569421032382,-0.001514098490588367,0.00016825294005684555,0.0052818311378359795,-0.21812118882313367,0.6629397690296174,-9.78648776113987
17.4,2.5999999046325684,39.0,24.32609367370605,-0.015903547406196594,-79.78281299525797,40.45901698872484,267.8741024429798,0.03197383135557175,-0.016117878258228302,0.9845448136329652,0.1714337021112442,0.004517436835453675,-0.008513088441298841,0.008065508381907492,0.0062716258689761144,0.0003903212491422892,0.003846394130960107,-0.21810278836637734,0.6636930365860463,-9.784000940322878
17.51,2.5999999046325684,39.0,24.324840545654297,-0.007951773703098297,-79.7828130219464,40.459017026126865,267.8681440050602,0.031947847455739975,-0.016123075038194656,0.9845555424690248,0.17137634754180908,0.007240499588869178,-0.00648808485737908,0.012579719311533668,0.003191131167113781,0.0003500361926853657,0.00368565903045237,-0.2194992496445775,0.6664736799895764,-9.784891471266748
17.7,2.799999952316284,33.0,24.32609367370605,0.0,-79.782813025726,40.45901703381932,267.86947369527815,0.0319460891187191,-0.016112376004457474,0.9845633506774902,0.17133300006389618,0.006734240402892505,-0.008091764855014128,0.012799140500674754,-0.003227497916668653,0.000676969182677567,0.004528474994003773,-0.2191042336821556,0.6624776928126812,-9.786110031008725
17.8,3.0,29.0,24.328598022460927,0.0,-79.78281302386378,40.45901707877797,267.86377391171453,0.03194495663046837,-0.01608857698738575,0.9845771193504332,0.17125609517097473,0.005730659520487747,-0.009437924874686348,0.014343607740079825,0.0037038305308669814,0.0019474140135571358,-0.00036467344034463167,-0.22298271009698512,0.6832021254301072,-9.783067724704743
18.0,3.0999999046325684,30.0,24.31732940673828,-0.015903547406196594,-79.78281302466313,40.45901708797175,267.86527791571615,0.031938482075929635,-0.0160873532295227,0.9845861792564392,0.17120526731014252,0.004593178796373668,-0.01084422285992401,0.014652481324417215,-0.004840156063437462,-0.004004541784524918,-0.005888891406357288,-0.22213707480579611,0.6763035804033279,-9.783506265878678
18.1,2.700000047683716,38.0,24.32734489440918,-0.007951773703098297,-79.78281301506532,40.45901711526321,267.8596700723171,0.031927689909935004,-0.016117719933390614,0.9846006631851196,0.17112141847610474,0.002224003699875178,-0.00773118809086589,0.016266669213771123,0.00016160224913619461,-0.0017344469670206304,0.0006474161637015643,-0.2188859315402806,0.6649145199358464,-9.785287912487984
18.3,2.700000047683716,39.0,24.32108497619629,-0.007951773703098297,-79.78281301383169,40.459017122202546,267.8613206441402,0.031925562769174576,-0.01609576679766178,0.9846039414405824,0.17110490798950195,0.002504192572709661,-0.009343687827683734,0.01625346749375573,0.0007483040681108832,0.0004059688653796911,0.0012183582875877619,-0.21976864183321598,0.6764132156968117,-9.78294259428978
18.4,2.5999999046325684,44.0,24.32609367370605,-0.02385532110929489,-79.78281303095955,40.45901715883647,267.85571038675306,0.031877875328063965,-0.01612052693963051,0.984620213508606,0.1710178554058075,0.005600822025701081,-0.00818828169694467,0.016882677704093612,-0.00524901133030653,-0.0026576665695756674,-0.010689675807952879,-0.2224188923276961,0.6842794749140739,-9.781620538830758
18.6,2.5999999046325684,44.0,24.31732940673828,0.0,-79.78281306790038,40.45901718405922,267.8460885579586,0.03186612948775292,-0.01613750122487545,0.9846262931823728,0.17098329961299896,0.013186490084691926,-0.003280602653010647,0.012302853458293106,0.005718376953154802,-7.601025572512299e-05,0.005820630118250847,-0.21935619385913016,0.6620926536619663,-9.784963976740835
18.71,2.5999999046325684,43.0,24.32734489440918,0.0,-79.78281307933337,40.45901719073931,267.84742143702505,0.031865574419498444,-0.016125166788697243,0.9846330285072328,0.17094595730304718,0.012027450373429008,-0.004778055764662099,0.0125162610152433,-0.005826346110552549,-0.0017633817624300718,-0.004038519226014614,-0.22433104148134592,0.6735857214778662,-9.78456636607647
18.9,2.5,41.0,24.329849243164066,-0.015903547406196594,-79.78281309052882,40.45901724289817,267.83882287096975,0.03186715766787529,-0.016132522374391556,0.9846450686454772,0.17087501287460327,0.012594727486805436,-0.008119575101005416,0.00896539689447382,-0.0030693288426846266,-0.0003803462313953787,0.006062662694603205,-0.2184122157096863,0.6626935281604529,-9.785008415579798
19.0,2.4000000953674316,42.0,24.32108497619629,-0.007951773703098297,-79.7828130865932,40.45901729960672,267.82958733987806,0.03187483176589012,-0.016125205904245377,0.9846588373184204,0.1707950234413147,0.010460908969815785,-0.011684425385593954,0.005384319951075247,0.005913110449910164,0.0033763437531888485,0.00341416709125042,-0.22010463746264572,0.6647876353561879,-9.783774653077126
19.2,2.299999952316284,41.0,24.32609367370605,0.0,-79.78281309227299,40.45901731291911,267.83022284460066,0.03187286853790283,-0.016122536733746532,0.9846660494804382,0.17075420916080475,0.009351443786275664,-0.013117068660438123,0.005543714746134557,-0.0074140764772892,-0.0011682853801175954,-0.004391031805425882,-0.22273455061018468,0.6717548851668835,-9.784421939849857
19.3,2.0,45.0,24.319833755493164,0.0,-79.7828131059487,40.4590173530592,267.82238426756857,0.031876008957624435,-0.016129694879055027,0.9846814870834352,0.17066410183906555,0.010154404076333874,-0.009098929540598785,0.0064450566848876295,0.004202151205390692,0.000973729300312698,0.0031816307455301285,-0.21693159107118845,0.6634857527911664,-9.785407780408859
19.5,1.8999999761581416,48.0,24.32734489440918,0.0,-79.78281311297876,40.459017363889046,267.8231271202564,0.03185625374317168,-0.016128016635775566,0.9846875071525574,0.17063289880752566,0.009730579320327618,-0.010560857778056579,0.006673788178901894,-0.003848744789138436,-0.0016874056309461596,-0.012835269793868065,-0.22052399246022106,0.682953472584486,-9.783227938413619
19.6,1.7999999523162842,48.0,24.328598022460927,0.0,-79.7828130971636,40.45901740840756,267.8128694887161,0.03183979913592338,-0.01612734980881214,0.9847018122673036,0.17055362462997434,0.005837650289018393,-0.009831399352605541,0.0031538089629393065,-0.0030471421778202053,0.0012017054250463846,0.004686306696385145,-0.21903678970411425,0.6641163749992848,-9.785355155467988
19.8,1.7000000476837158,52.0,24.28477478027344,0.8667433857917786,-79.78281309987928,40.45901741883483,267.8132501835823,0.03182399645447731,-0.016114387661218643,0.9846983551979064,0.17057812213897705,0.0060959675367146795,-0.011291016908037771,0.0032517189593391426,-0.0017541839042678475,0.0013078690972179177,-0.006090932060033083,-0.2208221273683012,0.6789577777683735,-9.782757822275162
19.9,1.600000023841858,50.0,24.30856513977051,0.2703603208065033,-79.78281310373934,40.4590174910039,267.8037663693428,0.03182772174477577,-0.01609557494521141,0.984715461730957,0.1704801321029663,0.007436756976787151,-0.01394870402236769,0.0018186254312505773,-0.003479012753814459,-0.004848618060350418,-0.005281638819724321,-0.22147443909198047,0.6690053050965071,-9.785506598353388
20.1,1.600000023841858,48.0,24.31232070922852,0.2862638533115387,-79.78281309079867,40.45901751577684,267.79404491138456,0.03181811794638634,-0.01608750782907009,0.9847274422645568,0.17041350901126862,0.003759734540055861,-0.00724464069941051,0.0004613105962902904,-0.0008642441243864598,-0.0018217737087979915,-0.0009457981796003877,-0.21691954946145411,0.6803739733994008,-9.782222802042961
20.2,1.600000023841858,47.0,24.309816360473643,0.278312087059021,-79.78281309189352,40.45901752341293,267.7941322619915,0.03181146085262298,-0.016083044931292534,0.9847336411476136,0.17037944495677948,0.003958335795460273,-0.008152913036440475,0.00039135835871783713,0.0005725669907405972,0.004444531165063381,-0.00025641897809691727,-0.21522798651829364,0.6611024276912213,-9.78474646031857
20.4,1.600000023841858,49.0,24.306060791015625,0.2624085247516632,-79.78281310448598,40.4590175927076,267.7842351491451,0.031783439218997955,-0.016068294644355774,0.9847530722618104,0.17027334868907928,0.007830815088784897,-0.011273185347502069,-0.0011055073874331929,-0.0004984076367691159,-0.004839470610022546,0.003075447864830494,-0.21909842301160096,0.6739437172561884,-9.78363022685051
20.5,1.5,53.0,24.29479217529297,0.3101191818714142,-79.7828131080583,40.45901760492874,267.7842154796123,0.031798887997865684,-0.016077185049653053,0.9847549200057985,0.17025931179523468,0.008186202942553178,-0.013477314743494955,-0.0009421692570294154,0.002943913685157895,0.0037706457078456883,0.0008775732712820172,-0.22150321835651995,0.6576832683384419,-9.786772520542145
20.61,1.399999976158142,54.0,24.29604339599609,0.326022744178772,-79.78281312950827,40.45901768058789,267.7770769293308,0.03178451955318451,-0.016085345298051834,0.984770655632019,0.17017006874084473,0.011462137391798214,-0.013684806895617848,0.002594644287961728,0.0004712041991297156,0.0016022501513361929,0.0016737652476876974,-0.2257954949140549,0.6646710564941168,-9.782335653305054
20.8,1.5,61.0,24.303556442260746,0.4293957948684693,-79.78281312880202,40.45901773569739,267.77038067531583,0.03179449960589409,-0.01610966958105564,0.9847822785377502,0.17009861767292025,0.008889766705874526,-0.011454117528764324,0.005929428816695096,-0.004868834279477596,0.00023362782667391002,-0.009196392260491848,-0.21763716727495194,0.6667729112505913,-9.782746127843858
20.9,1.5,66.0,23.37328338623047,13.279462814331055,-79.7828131343813,40.459017748526136,267.771126329422,0.03173242136836052,-0.016108360141515732,0.9847829937934875,0.17010608315467834,0.010723455259288365,-0.010124022126923343,0.007245639945267663,0.007142271846532822,-0.03551885858178139,-0.009129459969699385,-0.20888277081772685,0.674537136554718,-9.78284903883934
21.11,1.600000023841858,64.0,24.298547744750977,0.2862638533115387,-79.78281311274722,40.459017796221254,267.76352921080587,0.03166748583316803,-0.016208695247769356,0.9847899675369264,0.17006821930408478,0.0010308795282827046,-0.011238293178891287,0.0092726357755111,0.008551531471312046,-0.01989244297146797,-0.0017045990098267796,-0.2248513888567686,0.6828321428596974,-9.770121989250184
21.3,1.600000023841858,68.0,23.907907485961914,5.916119575500487,-79.78281310959268,40.45901781742575,267.7654129559993,0.031684532761573785,-0.016237620264291763,0.9848026633262634,0.16998909413814545,0.005999170604894988,-0.015285859830749291,0.00896380571360453,0.018653420731425285,0.01033821515738964,0.01034021843224764,-0.2618539399467409,0.6418080778419972,-9.794839339256287
21.4,1.600000023841858,64.0,24.255977630615234,0.8190327286720276,-79.78281313707555,40.459017866435964,267.75903519940374,0.031661540269851685,-0.016162879765033722,0.9848096966743468,0.1699598729610443,0.01261991903027727,-0.008332161590046383,0.011904865791676352,0.013163920491933823,-0.011172476224601269,0.026114804670214653,-0.21690352443605665,0.6063029073178768,-9.78605857551098
21.5,1.600000023841858,65.0,24.29729652404785,0.2862638533115387,-79.78281313315469,40.45901794021319,267.7512623364925,0.031678542494773865,-0.01618317514657974,0.9848403334617616,0.16977696120738986,0.011339586758005223,-0.00854678650535719,0.010612638918400648,0.010959849692881107,0.002577021485194564,0.005218608304858208,-0.1846468293853104,0.6375293046981096,-9.77608497977257
21.71,1.600000023841858,68.0,24.27100372314453,0.9462611079216005,-79.78281313629941,40.459017951532026,267.7523303623199,0.03169843554496765,-0.016065578907728195,0.9848377704620358,0.16979947686195376,0.007885456692658464,-0.012656393021617458,0.009723746365998608,0.0029150352347642183,0.008680456317961216,-0.012781736440956593,-0.16684110755100848,0.6617105381190778,-9.783119180202483
21.81,1.600000023841858,67.0,24.21215629577637,2.806976079940796,-79.78281313713774,40.45901801958839,267.7445083553791,0.03174639120697975,-0.016176139935851097,0.9848601818084716,0.1696498841047287,0.004711708902545072,-0.01301132543780216,0.009110582596455877,-0.009531143121421335,-0.002045990666374564,-0.01177701074630022,-0.22549728691577914,0.6801235663890839,-9.793671065568924
22.0,1.7000000476837158,61.0,24.09321212768555,5.550338268280028,-79.78281313881865,40.45901803151162,267.74550455760954,0.03173563629388808,-0.016210978850722313,0.984850823879242,0.16970279812812805,0.0042808250064314025,-0.012929190952434931,0.009489049814144107,-0.00802785623818636,-0.023814376443624496,-0.0030509275384247303,-0.2641343905963004,0.6947793931514025,-9.787658958435062
22.2,1.7000000476837158,62.0,23.980527877807607,7.760931491851807,-79.7828131362228,40.45901812178805,267.73814704966543,0.0316653735935688,-0.016240142285823822,0.9848782420158386,0.16955386102199554,0.009931405460204143,-0.0152026847977073,0.007869013850046506,0.014859463088214397,0.037359382957220084,0.013299942947924135,-0.17919441042467954,0.5460184063017368,-9.831991378068924
22.3,1.600000023841858,67.0,23.9291934967041,8.87417984008789,-79.78281316573337,40.459018169767646,267.7340360577106,0.031150585040450093,-0.016397999599575996,0.9849274158477784,0.16934829950332642,0.011410895207320748,-0.008784142314800583,0.007561796864058046,0.009115831926465034,0.0047970013692975036,-0.0036545780021697283,-0.279126377440989,0.6469256340712309,-9.74720441222191
22.5,1.5,63.0,23.79397201538086,11.752721786499025,-79.78281317229084,40.45901817835809,267.73493453812597,0.03100592643022537,-0.016423793509602547,0.9849212169647216,0.1694081425666809,0.004407809953463111,-0.008887299474678017,0.00846427015867298,3.312344051664695e-05,-0.13955146074295044,-0.005606591235846281,-0.2786053539812565,0.5577876819670201,-9.746555956006052
22.61,1.7000000476837158,64.0,23.722604751586914,13.279462814331055,-79.78281313714969,40.45901824545845,267.7258056695461,0.029757745563983917,-0.016102280467748642,0.9850003719329834,0.16920264065265656,-0.003216085024343912,-0.016891138328858468,0.006740509792476856,-0.008656836114823818,-0.01239702757447958,0.029660940170288086,-0.2304631627164781,0.5948593946546317,-9.827289047241214
22.8,1.8999999761581416,58.0,23.53604888916016,16.929327011108402,-79.78281313443752,40.459018260295814,267.7269846792221,0.028982143849134445,-0.015547187067568304,0.9850744009017944,0.16895791888237,0.008764111215721746,-0.01573357753168928,0.01437402650233856,0.054950956255197525,0.058549769222736366,-0.031156571581959724,-0.205792023986578,0.5902584764733911,-9.867676935195924
22.9,1.8999999761581416,55.0,23.46843910217285,18.44016456604004,-79.78281313521508,40.459018335612505,267.71975693058965,0.027416106313467026,-0.014525512233376503,0.9851960539817808,0.16860073804855347,0.008373636997690838,-0.009902688817673307,0.01064678139301539,0.00901693757623434,-0.018993431702256203,-0.002758512739092112,-0.2029270893149078,0.6110421852394938,-9.777281904816627
23.1,2.0,59.0,23.295656204223643,21.930992126464844,-79.78281316845572,40.45901842700379,267.7143044168949,0.02568667195737362,-0.012133421376347542,0.9856823086738586,0.1662030667066574,0.0013170852163398171,0.0029194878201733486,0.0172270042025947,0.029193460941314694,0.019965119659900662,-0.030318034812808037,-0.11507250968366865,0.33688053242862226,-9.873947489261628
23.2,2.0,61.0,23.19048309326172,24.252910614013672,-79.78281315918503,40.45901841297695,267.7164208884239,0.026171186938881874,-0.011865335516631605,0.9860278964042664,0.1640831083059311,-0.023593878903946496,0.01836636829150927,0.0276185228195626,0.03445056825876236,0.07897340506315231,-0.06996361911296843,0.06273030909709633,0.4250395144522191,-9.910213090181353
23.31,2.0,62.0,23.08781433105469,26.16133689880371,-79.78281313371792,40.45901844210846,267.71384602737425,0.020440760999917984,-0.006007370539009571,0.9866435527801514,0.16149526834487915,-0.06805651072378513,0.05933495504931885,0.13274704608066992,0.1124112457036972,0.052291642874479294,-0.11134380847215652,0.23139177365228536,0.2413421267084777,-10.540611934661868
23.5,2.0999999046325684,66.0,23.295656204223643,20.14979553222656,-79.78281284826903,40.45901844475527,267.74191433143613,0.00521851098164916,-0.004114266484975815,0.9870097637176514,0.16052314639091492,-0.08814581389152007,0.10171595452435052,0.32522477227783586,0.08769407123327255,-0.027466878294944763,-0.03616238757967949,0.1666608488559723,0.3559922664240003,-10.822115607261658
23.61,2.0999999046325684,72.0,23.301916122436523,20.69051551818848,-79.78281278925597,40.45901833831781,267.7763863201141,0.0008619853178970518,0.0021603365894407034,0.9870337843894958,0.16049598157405853,-0.07589230204872603,0.10256746097447213,0.35221496294938825,0.012637504376471044,0.08457119017839433,-0.011100613512098793,0.05024688740260898,0.31123201332986355,-10.16144923567772
23.8,2.299999952316284,70.0,23.29941177368164,20.571239471435547,-79.78281275339134,40.45901822517183,267.8110543484688,-0.0014414179604500532,0.007729200646281242,0.9868793487548828,0.16126790642738342,-0.04818815953819045,0.12179025224331418,0.33810940184813904,0.0964827612042427,-0.013123132288455965,0.0920238271355629,0.1957772784680128,0.1526906081289053,-9.778846619725226
24.0,2.299999952316284,68.0,23.280630111694336,20.865455627441406,-79.78281272974888,40.459017835539015,267.8546274001598,-0.002149692503735423,0.009344142861664295,0.986884355545044,0.16114383935928345,-0.006965120280711298,0.13557734835082855,0.27698925818363823,-0.01116087846457958,0.05700672045350075,0.038106512278318405,0.20490335684269667,0.0725428231805563,-9.654574576020241
24.1,2.299999952316284,75.0,23.23806190490723,21.565210342407227,-79.78281278975456,40.45901772928514,267.86693993163107,0.0014311664272099733,0.010979719460010529,0.9869700074195862,0.16052292287349698,0.018661227363093537,0.14571839756155522,0.21893222421236674,-0.004664495587348938,-0.007939653471112251,0.013003219850361349,0.2371111910976469,0.08143747972324493,-9.563527581095695
24.2,2.200000047683716,71.0,23.19674301147461,22.082077026367188,-79.78281295136719,40.45901749059005,267.9064337904453,0.005454893223941326,0.007987808436155321,0.9873224496841432,0.15843269228935242,0.04157354039859349,0.15289864837681594,0.17571762579836755,-0.038236603140830994,-0.053218942135572433,-0.05310047417879105,0.21607749558985234,0.16060570986941458,-9.603438920974734
24.4,2.0,77.0,23.19924736022949,22.33653259277344,-79.78281324311389,40.459017302081755,267.9441905016899,0.0063356542959809295,0.009442944079637527,0.9876059889793396,0.1565413773059845,0.0925882389746052,0.1477523101154813,0.14227719733592625,-0.02982944063842297,0.050810005515813834,-0.03289107233285904,0.10658735923469068,0.21316989451646806,-9.574171852469442
24.61,2.0999999046325684,79.0,23.14040184020996,22.92496490478516,-79.78281302034313,40.45901723727983,267.96376669359205,0.008633249439299107,0.012638714164495468,0.987690806388855,0.15566855669021604,0.042666280624145424,0.14832400013412064,0.15231408172529304,-0.19668911397457128,0.036855291575193405,-0.07445093244314194,0.16121520901098849,0.2423781254142523,-9.710688550472259
24.71,2.0999999046325684,75.0,23.177963256835927,22.272918701171875,-79.78281313523969,40.459017132076944,267.97963505935667,0.011256249621510506,0.015686344355344772,0.9876639246940612,0.15539433062076569,0.0613318918836671,0.14200766195115858,0.1601241061233636,-0.04622066020965576,0.07973258197307588,0.06037760525941849,0.1944241962209344,0.09781712047755718,-9.890995631217956
24.8,2.0999999046325684,77.0,23.129133224487305,23.5849609375,-79.78281335365428,40.45901694210917,268.02733164978025,0.013450749218463898,0.02020577900111676,0.987265408039093,0.1572195142507553,0.07055700078744119,0.1375914515432148,0.20595336467870184,-0.15873125195503235,0.006498164031654596,-0.0707632526755333,0.24214352415874602,0.2982843775302172,-9.919769779443742
25.0,1.8999999761581416,74.0,23.11661148071289,23.56110572814941,-79.78281346812916,40.45901672184833,268.08035343837736,0.012917696498334408,0.02044667862355709,0.986647129058838,0.16106705367565155,0.0651266664520185,0.11431790325307033,0.18804878801565755,0.002839984139427543,0.020901184529066086,-0.0034136974718421693,0.2157925351895392,0.19785373438149687,-9.6700188267231
25.1,1.8999999761581416,74.0,23.062774658203125,24.10977935791016,-79.78281356997823,40.459016658531645,268.0998926157951,0.012008731253445148,0.020877363160252568,0.9864916801452636,0.16203166544437408,0.0628631971033657,0.09172452365197632,0.19801400813502065,-0.03505287319421768,0.03564736619591713,-0.08838817477226257,0.2298797567747533,0.28195259258151056,-9.85251744389534
25.3,1.7999999523162842,72.0,23.791467666625977,10.981399536132812,-79.78281366202286,40.459016614465625,268.1212212438583,0.01178068108856678,0.021710623055696487,0.9864009022712708,0.16249078512191772,0.06578835571965454,0.0724213197602023,0.21964441219587,0.003930838778614998,-0.024969598278403282,0.10461514443159103,0.21366206562146545,-0.08423990400508047,-9.954694029092787
25.5,1.7999999523162842,72.0,22.950090408325195,26.272661209106445,-79.7828137363353,40.45901654045436,268.15972721529005,0.009978578425943851,0.016735415905714042,0.9865544438362122,0.16226737201213834,0.05297099590777261,0.06355038068839339,0.043873182179573374,0.02278492599725724,-0.2291157990694046,-0.019273573532700542,0.35004330921918153,0.1417083859629929,-8.871397342085839
25.6,1.7999999523162842,69.0,22.89499855041504,28.07771301269531,-79.78281377284256,40.459016293722776,268.1989485616684,0.0054350746795535105,0.006523624062538147,0.9867746829986572,0.1618756353855133,0.05576720821717293,0.06122310699523339,0.09609601682021787,0.06699498742818832,-0.21367573738098145,0.020105982199311256,0.1721378992125392,-0.033900763071142134,-9.7297908192873
25.7,1.7000000476837158,65.0,22.76478576660156,30.065656661987305,-79.78281393939395,40.459016222665355,268.234849214077,0.006105975713580847,0.00298267207108438,0.987198770046234,0.15935024619102478,0.052030265991897605,0.06966064568441474,0.29163337947009005,-0.03139965608716011,0.04774607345461845,-0.02479387633502484,0.1748923215083778,0.2932895945571363,-10.85792863368988
25.9,1.600000023841858,65.0,22.68340301513672,32.252395629882805,-79.78281380081944,40.45901614704217,268.2870481009483,0.006336255930364132,0.007429000455886125,0.98765230178833,0.15635772049427032,0.061238266900532974,0.0869090176831266,0.4537967072783204,0.08521274477243422,0.06742972135543822,0.04505995661020279,0.18477437177672984,0.09820492791943253,-11.1421945309639
26.0,1.600000023841858,63.0,22.46429443359375,36.124908447265625,-79.78281391518226,40.459016041323984,268.4105398650169,0.005451858974993229,0.014003709889948368,0.988766312599182,0.14871245622634888,0.0762412045743238,0.10335945395649604,0.8229710272579576,0.007022715173661711,0.011806015856564043,-0.02658659406006336,0.33262573286890984,0.16622437248006466,-11.865581645965571
26.21,1.8999999761581416,67.0,22.614540100097656,33.087329864501946,-79.78281402782622,40.459015995387865,268.5050826663971,0.006627232301980257,0.013902883976697922,0.9893271923065186,0.14489531517028809,0.08684783823019708,0.10639000899906664,1.0576202103649222,-0.04786345735192299,-0.015415352769196032,-0.050533611327409744,0.3465934519842267,0.11852625897154212,-12.064595139026645
26.4,1.8999999761581416,67.0,22.406700134277344,38.32754898071289,-79.78281413690738,40.459015950064725,268.7624898548126,0.009522399865090849,0.01354154571890831,0.99016135931015,0.1389479786157608,0.11249867757817768,0.09706725351197644,1.5172321432053637,-0.053237590938806534,-0.01729205809533596,-0.13840751349925995,0.2371481930091977,0.3575509148463607,-12.18896658539772
26.5,2.0,70.0,22.449268341064453,35.68756103515625,-79.78281426361076,40.45901593216243,268.9276553983688,0.013218719512224196,0.011856556870043278,0.9903551936149596,0.1374097466468811,0.12448775903540556,0.09660642876799556,1.782472001233047,-0.09384175390005113,-0.04112410917878151,-0.09237831085920334,0.2459689370915294,0.2840904077142477,-12.402892817258834
26.6,2.0999999046325684,70.0,22.35787010192871,36.49864196777344,-79.78281439281301,40.45901591815921,269.3333873147964,0.020943121984601017,0.0070847771130502215,0.9901231527328492,0.13844595849514008,0.15860532783402184,0.0907079954015145,2.293585404525243,-0.0375170037150383,0.030711716040968895,0.031819075345993035,0.27165316075086593,0.17600895697250962,-12.439236770868304
26.8,2.200000047683716,70.0,22.3353328704834,37.69141006469727,-79.7828144289443,40.459015955462476,269.84480339241026,0.023251520469784737,0.005241095554083586,0.9896076321601868,0.14180490374565125,0.15198026132068934,0.08491433796469519,2.7465252245459264,-0.05501187220215797,0.054402284324169166,0.01857755333185196,0.20023592658340933,0.4420924803614617,-12.162965186834334
27.0,2.200000047683716,72.0,22.712200164794922,30.200838088989247,-79.78281446088033,40.459015919989604,270.13114505958555,0.024212459102272987,0.007025065366178751,0.9895100593566896,0.1422477513551712,0.13684341708805153,0.09638374816757612,2.963906259314416,0.0520167350769043,0.035649798810482025,0.007657347712665795,0.25688121194019914,0.15863488756120206,-11.995455322265625
27.11,2.4000000953674316,71.0,22.66086578369141,30.74950981140137,-79.78281433339481,40.459015917058295,270.43879538726804,0.026743756607174873,0.008481606841087341,0.9895913004875184,0.1411454975605011,0.10421672862074816,0.11026710631461466,3.1202672428901805,-0.04031094163656235,-0.012764375656843184,-0.13238002359867096,0.21301276886835696,0.2448639777861536,-11.516894634962082
27.3,2.4000000953674316,71.0,22.886234283447266,25.01628112792969,-79.78281419624756,40.45901580565628,271.0884769554138,0.028417598456144333,0.00970910396426916,0.9901418685913086,0.1368114948272705,0.07640900669061201,0.12823055719727922,3.3413588967247034,-0.02784006483852864,-0.0026426748372614392,-0.02364837378263473,0.2357778432033956,0.21957508072257045,-10.75794592380524
27.4,2.5999999046325684,76.0,22.794836044311523,27.51313781738281,-79.78281392030864,40.45901581820538,271.43516999435417,0.027482159435749054,0.011601010337471962,0.9902961850166321,0.13573381304740906,0.03995448588197835,0.11625539595020065,3.3599971182673847,-0.01534291449934244,-0.029266072437167168,-0.07888627052307129,0.28516161762177944,0.1803925414569676,-10.162770706415175
27.5,2.700000047683716,78.0,22.833648681640625,26.19314384460449,-79.78281334147884,40.45901576989407,272.1073659057617,0.029645994305610657,0.01635836623609066,0.9901453852653505,0.13588829338550568,-0.020115739422527742,0.11855978815819708,3.3687387204189583,0.04479927197098732,0.0033460499253124,0.0997668132185936,0.25340202726423744,0.0200036171078682,-9.879181916713717
27.7,2.5999999046325684,75.0,22.84491729736328,26.3521785736084,-79.78281279250642,40.45901568028162,272.77716523361204,0.029726317152380943,0.013318007811903957,0.9899607300758362,0.13753840327262878,-0.08898315338232217,0.1029661675409935,3.3320495921726137,0.024877507239580158,-0.02698994241654873,0.05619070678949356,0.23229142259806398,0.34913395754992965,-9.56115302681923
27.8,2.5,70.0,22.816120147705078,25.342304229736328,-79.7828123502164,40.45901573420378,273.05634766769407,0.02864736318588257,0.010823454707860948,0.990060031414032,0.13727158308029175,-0.12012710312019265,0.07633854437597831,3.289353275953863,-0.054527878761291504,-0.08448486775159836,0.015805238857865334,0.2429283118620515,0.18731188064441087,-9.686613224744796
28.01,2.5999999046325684,64.0,22.803600311279297,27.27458381652832,-79.78281198305467,40.459015694455,273.38352376174925,0.02711719460785389,0.009865627624094486,0.9900519847869872,0.13771134614944458,-0.14554189600712714,0.05201740827527202,3.2736248634681893,0.05063333734869957,-0.01998158544301987,0.07681542634963989,0.22652054965496066,0.2016786539554596,-9.625857145786286
28.2,2.5999999046325684,63.0,22.837404251098643,26.511213302612305,-79.78281129526495,40.45901573680389,273.95793086242674,0.02473965659737587,0.013974607922136784,0.9898340106010436,0.1393609493970871,-0.19599575962374569,0.03160846479847716,3.1872778489177,0.12423499673604965,0.14571420848369598,0.024796253070235245,0.2497433147951961,0.3583704021200538,-9.608384495973588
28.31,2.5999999046325684,61.0,22.76854133605957,28.125423431396484,-79.78281086557128,40.45901570070728,274.2740190620422,0.02248398773372173,0.01841907575726509,0.9897044897079468,0.14014440774917605,-0.237974508481814,0.04496198793451009,3.1652764921325334,-0.1189505010843277,0.06919178366661073,-0.10686641931533812,0.2459705633483827,0.3684729289636016,-9.584826064109805
28.4,2.700000047683716,63.0,22.94883728027344,23.20327568054199,-79.7828101009026,40.459015794806035,274.8341596717834,0.01819588430225849,0.024014819413423538,0.9894773960113524,0.14151577651500702,-0.2552913168676169,0.0602762112181601,3.123771531433228,0.01939944364130497,-0.0010337569983676076,-0.07055103778839111,0.35712571263313303,0.440414110198617,-9.810054963827133
28.6,2.700000047683716,54.0,22.84992599487305,25.15146064758301,-79.78280910501367,40.45901539866276,275.4174235458374,0.011023742146790028,0.01965079829096794,0.9894452691078186,0.14314478635787964,-0.30010166304503105,0.078567659501881,3.0765298122717084,-0.015614057891070844,-0.08948768675327301,-0.07243285328149797,0.4655947789549828,0.3300510576367379,-9.8100958943367
28.7,2.799999952316284,52.0,22.81236457824707,26.050010681152344,-79.7828086654713,40.459015360584935,275.7242968673706,0.008084579370915891,0.01959926076233387,0.98948872089386,0.1430474817752838,-0.30434335955650554,0.0621071240597473,3.057278157820538,0.01495423913002014,0.016858918592333794,0.0014446823624894025,0.3905473009496928,0.16716506157070402,-9.65894186139107
28.9,2.9000000953674316,48.0,22.807355880737305,26.82928466796875,-79.78280828331694,40.459015389275216,275.92686206054685,0.004414293449372053,0.02182210609316826,0.989580512046814,0.1422492414712906,-0.2738986213211948,0.053692276781837384,2.956659360229475,0.2242199629545212,0.07323060929775238,0.0064798593521118155,0.4507844395190478,0.14727932067587973,-9.653878757357598
29.1,3.0,45.0,22.754770278930664,27.29048728942871,-79.78280737814529,40.45901528664184,276.60374861907957,-0.006465090438723564,0.029976960271596912,0.9900923371315002,0.13702870905399325,-0.2685153854052107,0.07222476663652169,2.9471096384158812,0.10579396039247513,0.09107735008001328,-0.016006745398044586,0.40228222422301774,0.25588427994400265,-9.771911821961405
29.2,3.0999999046325684,41.0,22.71846008300781,27.32229423522949,-79.78280685900617,40.45901532970785,277.1935027236938,-0.002930021146312356,0.030414061620831486,0.9905794262886048,0.1334875077009201,-0.2242665196523703,0.0902903226840066,2.9369781553770555,0.02754349075257778,0.0071169259026646605,0.1899916380643845,0.5869973746687174,-0.08103616886772216,-9.81387085676193
29.31,3.2000000476837163,40.0,22.79358291625977,26.28856468200684,-79.78280627317119,40.459015201238735,277.58850032043455,0.0009600835037417713,0.02577201835811138,0.990690052509308,0.13367179036140442,-0.17885131154787592,0.09628821463231783,2.9714054647468617,-0.13326731324195862,-0.0839211642742157,-0.024492172524333,0.4925412337481976,0.5453187869489193,-9.766850472092633
29.51,3.299999952316284,35.0,22.688411712646484,29.06373405456543,-79.78280549033249,40.45901488787968,278.28771334838865,0.004669923335313797,0.02152153104543686,0.9905899167060852,0.13508056104183194,-0.07964756623122017,0.08480117503872836,3.0203091838515506,0.08688559383153915,0.027562638744711883,0.01231869589537382,0.4776640167832375,0.3760635650530458,-9.901596633195878
29.7,3.4000000953674316,34.0,22.93381309509277,23.56110572814941,-79.78280538586104,40.459014913769096,278.59037905883787,0.0059097642078995705,0.025114886462688446,0.9904519319534302,0.13542310893535614,-0.056753118089800825,0.07907509206843791,3.0215176326286484,-0.03408657014369965,0.107327900826931,0.02434252947568893,0.40178798831999296,0.3166270930320025,-9.78533001244068
29.82,3.5,29.0,22.781063079833984,26.78952598571777,-79.78280530773563,40.459014946968225,278.89000827026365,0.006959351245313883,0.0318307988345623,0.990219235420227,0.1356627494096756,-0.033000204887336154,0.09640325791713164,2.959332561081793,0.0007214347133412957,0.17252327501773834,0.05444727092981338,0.4710837795585394,0.335356894209981,-9.292900899052619
30.0,3.5,29.0,22.7597770690918,27.298439025878906,-79.78280470242875,40.45901455903913,279.5465224380493,0.009436319582164288,0.037846483290195465,0.9899224042892456,0.1361333727836609,-0.029168153065179687,0.16909437040017605,2.856020897821316,-0.20925527811050407,-0.08200076967477797,-0.15465198457241058,0.5801964050531387,0.5026883821561933,-9.28142281472683
30.1,3.700000047683716,24.0,22.754770278930664,26.43964767456055,-79.78280451605175,40.45901440110839,279.925970375061,0.008326981216669083,0.034984957426786416,0.989997923374176,0.1364220380783081,0.026284392892034214,0.16081539389524038,2.8463608262113063,0.08588793128728868,-0.11374795436859132,0.17165255546569824,0.5246540690213443,-0.07061346128582954,-9.402677695155145
30.21,3.799999952316284,27.0,22.816120147705078,25.70013236999512,-79.7828044919367,40.45901453016742,280.49271613311765,0.003361013252288103,0.02674655243754387,0.99024099111557,0.13673414289951324,0.03107801632235745,0.09194709759780502,2.815136734881596,-0.028279395774006844,-0.05866971984505653,-0.015852842479944233,0.4273319153487681,0.20429970491677524,-9.574105778932573
30.4,3.9000000953674316,26.0,22.85869026184082,25.09579849243164,-79.78280458434782,40.45901429555392,281.19736319732664,0.0033620228059589863,0.024760160595178604,0.9903457760810852,0.13634833693504333,0.08047270918427404,0.08715744869285187,2.827973993402165,0.032257381826639175,-0.010572527535259724,0.07258611917495728,0.4625935493409634,0.13220543626695871,-9.488678542971613
30.5,3.799999952316284,28.0,22.71720886230469,26.16133689880371,-79.78280447835618,40.45901395118359,281.6449654693604,0.005564370192587376,0.025437697768211358,0.9903996586799622,0.13575920462608335,0.09120796602157216,0.1131151275399888,2.9012712425991154,-0.015682756900787354,0.01653740368783474,-0.0362628772854805,0.4880865690484643,0.19124480925500395,-9.569476538300515
30.71,3.799999952316284,29.0,22.79859161376953,25.41386985778809,-79.78280466943127,40.45901404658938,282.22132998657224,0.014980172738432884,0.029736163094639775,0.9903173446655272,0.13477040827274325,0.14295800894613106,0.12545266320502838,2.8429654689225154,-0.12596148252487185,0.06493642181158066,-0.010282454080879688,0.4416893148422241,0.263589759003371,-9.383849660754203
30.9,3.799999952316284,25.0,22.66086578369141,28.022050857543945,-79.78280454470114,40.459013755289895,282.69017344665525,0.018923696130514145,0.030931115150451664,0.9902940988540648,0.13417479395866394,0.17211010623032771,0.15421302203664414,2.9026953046147512,0.006855178624391557,-0.0636979267001152,0.00656205415725708,0.5716223038360477,0.16131150534376504,-9.374165502190593
31.0,3.700000047683716,27.0,22.677143096923828,27.47337913513184,-79.78280465951546,40.45901381005184,282.98032408905027,0.01761951856315136,0.02902856841683388,0.990572154521942,0.13271699845790866,0.2123335769268672,0.1461931220946583,2.8877393827740536,0.2317400723695755,0.05071475729346275,0.07790995389223099,0.5191513274610042,0.20697804031893613,-9.64282342672348
31.1,3.700000047683716,29.0,22.69467163085937,26.169288635253906,-79.78280484613806,40.459013720527686,283.6858151550293,0.012023596093058586,0.02386698126792908,0.9911845326423644,0.1297653764486313,0.1954738824505591,0.12081917155121052,3.006298024550618,0.015584716573357582,-0.0694996640086174,-0.05547526106238365,0.56054881028831,0.4061943769454957,-9.946491554975507
31.31,3.700000047683716,32.0,22.75727462768555,25.89097595214844,-79.78280510984852,40.45901381531592,284.32260066223137,0.01601540483534336,0.02023808844387532,0.991035521030426,0.1310827136039734,0.2288275177836746,0.09439365789613967,3.0178924616664853,-0.0251790564507246,-0.0813371017575264,0.1238798126578331,0.6079619816690683,0.10761716354638336,-9.76993604779243
31.5,3.700000047683716,32.0,22.53190422058105,30.8608341217041,-79.78280528274077,40.4590138894426,284.62434130859367,0.01721821166574955,0.01601989381015301,0.9908971190452576,0.13255122303962708,0.2373966967038592,0.09301504986693676,3.009910918630367,-0.037957463413476944,-0.035013262182474136,0.02293883450329304,0.4767330669611693,0.5401214162260294,-9.780975006222725
31.6,3.5999999046325684,31.0,22.59701156616211,28.992168426513672,-79.78280541709172,40.45901400875525,284.9384663696289,0.018663054332137108,0.0155584579333663,0.990787148475647,0.13323161005973816,0.27180043329024656,0.059170393631724924,3.0400405778720265,0.02742752991616726,0.0721529871225357,0.11738184839487074,0.2603523201495409,0.07812762675806881,-10.054048748016358
31.7,3.5999999046325684,30.0,22.72221565246582,27.32229423522949,-79.7828057530523,40.45901416815351,285.55505114746086,0.020590472966432568,0.01857985928654671,0.9903228878974916,0.13598379492759705,0.2645210178194977,0.09758535985926373,3.089970103325823,0.003249093657359481,-0.12470345944166185,-0.1558869481086731,0.5556975581869483,0.3435486971586943,-9.972284792661668
31.9,3.5999999046325684,30.0,22.65585708618164,28.30036354064941,-79.78280592147661,40.45901425705795,286.1513589019775,0.013596604578197002,0.011271167546510695,0.9906793832778932,0.135064497590065,0.2277294477088837,0.08399168028908993,3.0930225850799724,-0.07759084552526474,-0.03602374717593193,-0.06324136257171631,0.3857147599384189,0.3285595060139895,-9.946677496433258
32.0,3.700000047683716,32.0,22.640832901000977,28.77746963500977,-79.78280595584124,40.45901421092806,286.45341426086424,0.01411484181880951,0.014351847581565382,0.9906647801399232,0.13482619822025302,0.2454245636641945,0.08385671390370805,3.0861574690648816,0.1457875519990921,0.1461523026227951,0.07050344347953796,0.5337719612941146,0.04762151498347522,-10.012425928115846
32.2,3.700000047683716,33.0,22.684654235839844,28.85698699951172,-79.78280613847028,40.459014234444425,286.7639878387451,0.01641425304114819,0.01823355071246624,0.9905754327774048,0.1347535103559494,0.21875454604762595,0.12734131784369496,3.1077306937958897,-0.1960376352071762,0.06287125498056413,-0.13369102776050568,0.5457997204363346,0.5636462265998126,-9.936491646766664
32.4,3.700000047683716,34.0,22.69216728210449,26.360130310058594,-79.78280640616764,40.459014111512076,287.3745358581543,0.023464260622859,0.021415580064058304,0.9905090928077698,0.13372573256492615,0.265238370644451,0.196217203302643,3.0779116634078862,-0.15899135172367096,-0.0024093075189739466,-0.13521957397460938,0.6148839886486529,0.5716865866631271,-9.81995663881302
32.5,3.799999952316284,33.0,22.751012802124023,25.87507247924805,-79.7828066149779,40.459014110285565,287.68431407165525,0.02645217999815941,0.020088084042072296,0.9905459880828856,0.13309940695762634,0.3041790761657289,0.2010880898487397,3.086640504724901,0.0213959589600563,-0.02560142800211906,0.04304720833897591,0.4084956948459149,0.1940835228189826,-9.838547276258467
32.6,3.799999952316284,32.0,22.6420841217041,28.363977432250977,-79.78280713472984,40.459014164485225,288.2792981262207,0.0242933239787817,0.01958301290869713,0.9906694293022156,0.1326667070388794,0.3155882246944557,0.18786201257880167,3.053000934323181,0.0625048354268074,0.07598461210727693,0.016359291970729828,0.5294171012565494,0.32312239944934845,-9.833435640335084
32.81,3.700000047683716,32.0,22.70969581604004,25.77169990539551,-79.78280745430891,40.459014066206656,288.8870518798828,0.025309408083558086,0.02022775821387768,0.9906419515609741,0.13258515298366547,0.3001517606001143,0.19155043563214552,3.0724327143995853,0.02972974069416523,0.11318273842334747,0.016404787078499794,0.4214195032417775,0.2378257391229272,-9.945560678243638
33.01,3.700000047683716,33.0,22.59450721740723,28.76951789855957,-79.78280764324164,40.45901405604617,289.1953423614502,0.02964169904589653,0.020860770717263225,0.9906314015388488,0.1316647082567215,0.2701386468521367,0.1977766413562521,3.0621221016002598,-0.2328965961933136,-0.0776669979095459,-0.16488327085971832,0.39200830087065697,0.4419469577819109,-9.748988397717477
33.1,3.5999999046325684,33.0,22.55068588256836,28.97626495361328,-79.78280776994134,40.45901403979872,289.49825984191887,0.032630138099193566,0.02137184701859951,0.9906591176986694,0.1306641399860382,0.3100513732722557,0.18071356014762435,3.0368451733653083,0.15898427367210388,0.09671574831008913,0.0743265450000763,0.4239053738862276,0.15837274957448244,-9.775854014754296
33.2,3.5999999046325684,32.0,22.724720001220703,25.914831161499023,-79.78280801889765,40.45901404215621,290.1124241943358,0.03102068230509758,0.020928841084241867,0.9905860424041748,0.13167805969715118,0.2540576375199388,0.1799816715385521,3.0577916468671984,0.020326076075434685,-0.0747627392411232,-0.012807494029402731,0.4607907431200146,0.17845859315246346,-9.790969067215919
33.5,3.5999999046325684,36.0,22.652101516723643,28.22084617614746,-79.78280803980327,40.45901401332315,290.7182419891357,0.02431237511336804,0.017647020518779755,0.9904951453208924,0.13422736525535586,0.20917698232001053,0.15198079341707615,3.0044544189367786,0.18333975970745087,-0.036834053695201874,0.03933059051632881,0.4799967269226909,0.06965178617276252,-9.602309238910676
33.61,3.4000000953674316,41.0,22.64333724975586,26.932659149169922,-79.78280802778617,40.45901391846218,291.02837306213377,0.020282262936234474,0.017298499122262,0.9905099272727966,0.13483142852783206,0.1599659841813233,0.13885490904685005,3.0006386855740623,-0.050380337983369834,4.098935096408241e-05,-0.20733682811260226,0.3319878747314215,0.5123445106297732,-9.646092020273207
33.71,3.4000000953674316,42.0,22.59075164794922,28.78542137145996,-79.78280809982171,40.45901392474317,291.6272347564697,0.021966166794300083,0.02256537973880768,0.9905571937561036,0.1334349811077118,0.11935343728028758,0.1336337383557914,2.9688084361293883,-0.13983525335788727,0.07832655310630797,-0.0880201905965805,0.4473592867702246,0.263269514311105,-9.567898374795917
33.9,3.299999952316284,44.0,22.58073425292969,29.278430938720703,-79.78280800881741,40.459013807390534,291.9386227722168,0.025661109015345573,0.025347206741571426,0.9905595779418944,0.1322527974843979,0.12250171752463992,0.15548271267006042,2.9623077821786072,-0.09303900599479677,-0.02669111080467701,-0.18136663734912872,0.4958746583014727,0.444642451107502,-9.609931084513665
34.0,3.4000000953674316,44.0,22.435497283935547,31.576494216918945,-79.78280794820876,40.45901374671367,292.5496781463623,0.01898918487131596,0.021425461396574967,0.9909902215003968,0.1308387815952301,0.11366324988533265,0.15462083736832288,2.9936234776218447,0.02554185874760151,-0.11796577274799347,-0.13134661316871646,0.4050232527405024,0.4414283828437329,-9.874699441194537
34.2,3.299999952316284,44.0,22.483074188232425,30.15312576293945,-79.78280793992823,40.4590137579316,292.8507912750244,0.01463854778558016,0.016406433656811714,0.9912028312683104,0.13051259517669678,0.08307112547148672,0.1273172439260945,3.016684344922848,-0.03538887575268745,-0.10545264184474944,-0.09356004744768144,0.3514641460776329,0.3862652022019029,-9.923076964616776
34.4,3.299999952316284,44.0,22.463041305541992,31.17890548706055,-79.78280770248216,40.459013731271924,293.4629166717529,0.017434511333703998,0.010414042510092258,0.9912914633750916,0.13011114299297333,0.076820590787394,0.08318797019556776,3.049813931394441,0.010972185991704464,0.006308759097009897,0.13214777410030365,0.3557409457862377,0.2285881433822215,-9.973021541833877
34.5,3.4000000953674316,47.0,22.469301223754886,30.39963150024414,-79.7828077008383,40.4590137326125,293.7682088012695,0.01867350377142429,0.011449819430708885,0.9912917017936708,0.12985017895698547,0.10699354341815068,0.08349029959457288,3.0507894034757688,0.07659707963466644,0.10594644397497176,0.07442287355661392,0.3779702324420214,0.28436875345185403,-9.86295355439186
34.7,3.5,45.0,22.52313995361328,29.84300804138184,-79.78280759828739,40.45901369784493,294.38091784667967,0.01932615041732788,0.018696153536438945,0.9912132620811462,0.1295117884874344,0.10503940671506798,0.1186648397943228,3.0507370205763613,-0.049734845757484436,0.04522181674838066,0.010520652867853642,0.40185713164508347,0.2707660102285445,-9.786957877278331
34.8,3.5999999046325684,45.0,22.439252853393555,31.958179473876953,-79.78280750084156,40.459013793053714,295.0084946746826,0.020275583490729332,0.021412624046206474,0.9911055564880372,0.12977026402950287,0.10645869201118376,0.1371270614145213,3.0519349429476805,-0.061525452882051475,-0.05882313847541809,-0.15347273647785187,0.40750097382813694,0.436083406470716,-9.824030978679655
35.0,3.5999999046325684,45.0,22.52814865112305,28.125423431396484,-79.78280750610978,40.45901380479983,295.315112411499,0.02024175226688385,0.019489997997879985,0.99115389585495,0.12970921397209167,0.10602562903398527,0.13128562445836536,3.0673184221393464,-0.06593804061412811,-0.04404916614294052,-0.10475130379199983,0.3866795870661736,0.4593082546815277,-9.877805482149123
35.1,3.700000047683716,48.0,22.478065490722656,30.48710060119629,-79.78280736584449,40.45901362888733,295.6190732116699,0.02060090191662312,0.01803596504032612,0.9912148118019104,0.12939715385437012,0.09742081191463932,0.14083425960650178,3.0544899891936907,0.016264192759990692,-0.04224828630685806,-0.0516943596303463,0.4471229861676693,0.4571690142899752,-9.797195182442666
35.3,3.700000047683716,50.0,22.25770568847656,34.327808380126946,-79.78280734196284,40.45901362008514,296.22865420532224,0.02040582336485386,0.0167172159999609,0.9914347529411316,0.12791158258914948,0.1089246508432818,0.11650800328385708,3.03000915130778,0.13147827982902527,0.002282515866681933,0.07330513745546341,0.3577335672453046,0.2814151421003044,-9.665680777430532
35.4,3.700000047683716,52.0,22.46805000305176,28.05385780334473,-79.78280707375477,40.45901360338251,296.53028422546384,0.018578171730041504,0.01625589281320572,0.9915562272071838,0.12730655074119568,0.0943247735072607,0.10238557314398128,3.0323091084255718,0.11708107590675355,-0.024718347936868668,0.10085608810186386,0.4322187989205121,0.2531690522655845,-9.89216390490532
35.5,3.700000047683716,53.0,22.58073425292969,27.37795829772949,-79.78280695692612,40.45901351733609,297.1458180541992,0.015294923447072506,0.01349136047065258,0.9916331768035888,0.1274668425321579,0.08884373380479306,0.10304814686786964,3.0344924248082794,0.011495138518512249,-0.04325268790125847,0.09517964720726013,0.27407383494079113,0.3491387815028429,-9.590409570336345
35.7,3.700000047683716,56.0,22.386667251586914,32.093360900878906,-79.78280697669315,40.45901352164017,297.7437813873292,0.01809616759419441,0.010803301818668842,0.9915868639945984,0.12771610915660858,0.10991816238045322,0.08577838904565904,2.9552851698985454,-0.031067507341504094,-0.04140647128224373,-0.02754487842321396,0.3502805965393782,0.31244849000126124,-9.387022944688796
35.9,3.700000047683716,56.0,22.37289428710937,30.900592803955078,-79.78280678636315,40.4590135121195,298.05359584045414,0.02009882591664791,0.010908911935985088,0.991521954536438,0.12791168689727786,0.1154814012687052,0.07593452568565315,2.9597665071698653,-0.08165483176708221,0.0026790383271873,0.06332773715257645,0.2727908827364445,0.26750044992193583,-9.604798983335495
36.0,3.700000047683716,57.0,22.391674041748047,30.240596771240234,-79.78280680716809,40.45901351821021,298.3491700286865,0.021807240322232246,0.012286237441003323,0.9914094805717468,0.12837748229503632,0.1202189793415156,0.08007293994245805,2.9502542703108547,-0.11604887247085573,0.0020678485743701467,-0.028667576611042026,0.3771482601016761,0.39794739089906217,-9.724119604825974
36.21,3.700000047683716,58.0,22.340341567993164,32.68178939819336,-79.78280668665828,40.459013478125954,298.9589875335693,0.023313062265515327,0.012589666061103344,0.9912375211715698,0.12940768897533414,0.12196292093159725,0.1011313217627534,2.9727582828525265,-0.04909897223114967,-0.03514203056693077,-0.0054478025995194895,0.31246424093842506,0.2684490144811571,-9.856787080764773
36.31,3.700000047683716,58.0,22.445512771606445,29.94638061523437,-79.7828066518763,40.4590133365076,299.56691104125974,0.02310005389153957,0.016173075884580612,0.9910512566566468,0.13046926259994507,0.11663322423017533,0.13628881891585984,3.0313238780744203,0.06110875681042671,-0.02155372314155101,0.009780519641935824,0.3670703281089664,0.2475945726782084,-9.974407331943512
36.51,3.700000047683716,61.0,22.545677185058594,28.38783264160156,-79.78280663872543,40.459013306765534,299.8702710266113,0.020751366391777992,0.01551802922040224,0.991058886051178,0.13088569045066833,0.1124795841693832,0.14558315758669158,3.0181915038350238,0.08955764770507812,-0.010707397013902664,0.010328808799386023,0.3832051715254784,0.270754005163908,-9.707178466916083
36.61,3.700000047683716,63.0,22.412960052490234,30.39963150024414,-79.78280658092623,40.459013241401344,300.17199069213865,0.01891742646694184,0.01386972703039646,0.9911330938339232,0.13078652322292328,0.09807934753958662,0.13087723658219394,2.983696442233012,-0.048448417335748666,-0.07780594378709793,0.02676587551832199,0.2502176336199045,0.1816162357851863,-9.5421969383955
36.8,3.700000047683716,63.0,22.431739807128906,29.73168182373047,-79.78280658612701,40.45901320970193,300.7673657531738,0.018070708960294724,0.011313069611787796,0.991299331188202,0.12988926470279696,0.093912786141608,0.1095566014229641,2.9824884446627093,-0.05767045915126801,-0.04093094542622566,-0.09143106639385223,0.3066841951757669,0.5520334370434284,-9.86349734544754
36.9,3.700000047683716,63.0,22.475563049316406,29.84300804138184,-79.7828065338492,40.45901313134123,301.08305484008787,0.019051797688007355,0.009585939347743988,0.9914215803146362,0.12895169854164126,0.10204495549991886,0.11475062047139355,3.0179185155558197,0.012358964420855044,-0.010688962414860724,-0.009400869719684124,0.30965297274291514,0.4702200727164746,-9.95571378350258
37.0,3.700000047683716,62.0,22.48432731628418,28.96831321716309,-79.78280647095052,40.459013026767174,301.69226580810545,0.02318237721920013,0.01186605915427208,0.991441011428833,0.12793226540088656,0.1222259605203339,0.12788098938257178,3.0361765125676734,0.004867761395871639,0.06077438592910767,0.07915402203798294,0.34915782149881125,0.2500659897364676,-9.879888260364533
37.2,3.799999952316284,61.0,22.494342803955078,28.228797912597656,-79.78280649008562,40.45901298027147,301.99694567871086,0.02467622235417366,0.013130946084856987,0.9914143085479736,0.12773551046848294,0.1360752219951881,0.14664164152632794,3.0528457221481577,0.04018476232886314,0.07636594772338867,-0.012524181976914406,0.4237817052751779,0.3740140794217587,-9.99347042441368
37.3,3.799999952316284,60.0,22.49684715270996,29.48517799377441,-79.78280631216046,40.45901293841774,302.6037419433593,0.02124597132205963,0.018165517598390583,0.9913838505744934,0.12797167897224426,0.11299670066391347,0.16044214758008102,3.02702978319199,-0.008616788312792778,-0.025554077699780464,-0.06942242383956909,0.368535274900496,0.3483661450445652,-9.885632565021517
37.5,3.799999952316284,59.0,22.446765899658203,29.38975715637207,-79.78280630982671,40.459012896352796,302.9062626953125,0.020926496013998985,0.019253099337220192,0.9913829565048218,0.12787239253520966,0.09065234569238242,0.17298662387695188,3.014238873662292,-0.09470023959875107,-0.04422115907073021,-0.07785864919424057,0.3272831684723497,0.518311923108995,-9.681260098814963
37.7,3.799999952316284,61.0,22.33157730102539,31.56854248046875,-79.7828063290098,40.45901277921191,303.5154469604492,0.0205830167979002,0.02007625438272953,0.9915280342102052,0.12667129933834076,0.13864525110043435,0.1745869171325458,3.033196455736848,0.09723718464374542,0.061040684580802924,0.07617543637752533,0.4585468375682831,0.2656144853308797,-10.011651756763461
37.81,3.799999952316284,61.0,22.451772689819336,27.98229217529297,-79.78280636327526,40.45901274808927,303.82159167480467,0.02093038521707058,0.019733605906367302,0.991627275943756,0.12588880956172946,0.13533456452346415,0.17764842189579744,3.0735980143969615,0.02525569684803486,-0.04062890633940697,-0.019599761813879013,0.4543810618668795,0.341203854046762,-10.169280996322634
37.9,3.700000047683716,60.0,22.42422866821289,29.668067932128906,-79.7828063083668,40.45901271613033,304.435681640625,0.024359028786420826,0.01572548784315586,0.9917466640472412,0.12489182502031325,0.14632811864673287,0.1553373170909572,3.1003876888964523,-0.08542665839195251,-0.009520928375422956,-0.007438546512275934,0.36145159240812064,0.3582188861444593,-9.917327982187274
38.11,3.799999952316284,57.0,22.42422866821289,28.42759132385254,-79.78280642527035,40.45901267444353,305.0457585449218,0.02498101256787777,0.01662437431514263,0.9917236566543579,0.12483518570661545,0.1750000197680056,0.1478529821391371,3.0678527702946536,-0.05305806174874306,-0.05147962272167207,-0.06884128600358963,0.32035158667713404,0.5968261056393386,-9.722240894436837
38.3,3.799999952316284,55.0,22.44300842285156,29.6760196685791,-79.78280647894016,40.45901265758874,305.3526394958496,0.02444486692547798,0.01887891814112664,0.9916611909866332,0.12511640787124634,0.18077563439233754,0.14670605801788955,3.049548480891773,0.045029934495687485,0.10252444446086884,0.0040694884955883035,0.3672850671038032,0.5729177179187537,-9.635205089449883
38.41,3.799999952316284,56.0,22.453025817871094,29.98613929748535,-79.78280638076774,40.459012578842895,305.65872698974607,0.024695320054888725,0.02118639834225177,0.99155855178833,0.12551093101501465,0.18035784659546428,0.15553168072462334,3.018269663400525,0.10831789672374724,0.012450918555259705,0.060979131609201424,0.500283641628921,0.2555296463146806,-9.583950151205064
38.6,3.799999952316284,56.0,22.412960052490234,30.18493461608887,-79.78280645858001,40.45901242650208,306.27636462402336,0.02620142325758934,0.017246492207050323,0.9914884567260742,0.1263594627380371,0.1786229221827916,0.1614916521534699,3.0340123959534253,-0.10541106760501864,-0.09797896444797516,0.007977436296641827,0.2909754858724773,0.4011388742923737,-9.866772955656053
38.7,3.799999952316284,59.0,22.54442596435547,25.93073463439941,-79.78280656930932,40.459012413986784,306.88815432739256,0.02853813394904137,0.017899084836244583,0.9913052916526794,0.12719687819480896,0.18380143761654885,0.1390595872137885,3.0511183424541146,-0.005200331099331379,0.018574748188257214,0.05447589233517647,0.3417287878319621,0.5253700605779886,-9.752497311830519
38.82,3.799999952316284,60.0,22.421724319458008,29.548791885375977,-79.78280654089069,40.45901235394867,307.2047551269531,0.028684839606285095,0.01768007129430771,0.9913243055343628,0.12704676389694214,0.19979406322026627,0.14017507718283495,3.0326205655490472,0.11435524374246595,0.08174685388803482,0.06808394193649292,0.3081680723279715,0.44948716163635255,-9.632516539692881
39.0,3.799999952316284,60.0,22.535659790039066,27.59265518188477,-79.78280648661321,40.459012269404674,307.82692080688474,0.02855189517140388,0.017650865018367767,0.9912475943565368,0.12767767906188965,0.17354925230236287,0.1373263027500971,3.0413999332825923,-0.10841868072748184,-0.027619080618023872,0.021530592814087868,0.34063930537551645,0.40159736908972266,-9.71813673377037
39.2,3.799999952316284,60.0,22.45052146911621,29.66011619567871,-79.782806511076,40.45901226556651,308.1311314697265,0.028010573238134384,0.016656773164868355,0.9911654591560364,0.12856557965278625,0.16596081721191674,0.13718335990389094,3.0300654007609915,-0.06449013948440553,-0.05428420007228851,-0.10003585368394853,0.35406933646649125,0.5831318900361657,-9.74248921751976
39.31,3.9000000953674316,57.0,22.27523422241211,32.80106735229492,-79.7828065316098,40.459012261493505,308.434533416748,0.02612839639186859,0.015186445787549019,0.9911609888076782,0.12917636334896088,0.16620352434859226,0.12982289867171165,3.021066151270272,0.06387921422719955,-0.008827528916299343,-0.02852568216621876,0.3962584592029453,0.6227110715210438,-9.685733803510669
39.5,3.9000000953674316,58.0,22.39793586730957,30.336017608642567,-79.78280647453784,40.459012276194784,309.0588124389648,0.022764207795262337,0.015069135464727882,0.9913625717163086,0.12827695906162262,0.15607236644157535,0.10871473452797316,3.0731237517852006,0.1296839565038681,0.02361386828124523,0.07310599088668822,0.39686309784650803,0.2536655722372234,-10.058580340147019
39.6,3.799999952316284,57.0,22.34785270690918,31.56854248046875,-79.78280638933406,40.45901226507939,309.3735249633789,0.022150518372654915,0.016154726967215538,0.9914877414703368,0.1272813230752945,0.13842654155899828,0.10504338936898573,3.090440408346628,0.05367081239819527,0.056580603122711175,0.07515975087881087,0.2563538479059935,0.23868014523759484,-9.908088212013245
39.71,3.799999952316284,57.0,22.534408569335927,26.71000862121582,-79.78280639762119,40.45901227305684,309.99638873291013,0.020950177684426308,0.017551586031913757,0.9916236400604248,0.12623637914657593,0.12280353998732055,0.126291260708655,3.123902702421973,-0.03847794607281685,0.045987986028194434,-0.04141934216022492,0.42772123027592895,0.3946766046434641,-9.909983879327774
39.9,3.9000000953674316,58.0,22.481822967529297,29.02397537231445,-79.78280625431269,40.45901230827853,310.6108945007324,0.021034501492977142,0.019735014066100117,0.991599142551422,0.1260923147201538,0.10883346980458604,0.11532146778579527,3.0518767543161425,-0.09425438940525056,-0.014288075268268585,-0.13540615141391754,0.37448587663471705,0.6704862586408854,-9.500621480941774
40.1,3.799999952316284,57.0,22.38165855407715,30.789268493652344,-79.78280624796972,40.45901229145621,310.9263890380858,0.02086831070482731,0.02066151425242424,0.9916090965270996,0.1258937269449234,0.13075569094226752,0.1188248070365295,3.0461509934249347,0.12178904563188553,0.07414962351322174,0.15295273065567014,0.40384485606104137,0.2595606985129416,-9.676510405540466
40.2,3.799999952316284,57.0,22.50060272216797,27.51313781738281,-79.78280625560132,40.459012310783095,311.23071795654295,0.0209814365953207,0.020753819495439533,0.9916729927062988,0.1253548562526703,0.13332194440412054,0.1210007219611758,3.030012820044108,0.04981592670083046,-0.043585799634456635,-0.032686207443475716,0.42498922839760783,0.2939646007865668,-9.663560577034946
40.4,3.799999952316284,57.0,22.320308685302734,32.832874298095696,-79.78280613272429,40.4590123207906,311.85414248657224,0.02218274585902691,0.018107987940311432,0.9918556809425354,0.12410631030797956,0.12403367293546462,0.09743936812100867,3.0538420374142863,-0.08493448048830032,-0.012397981248795986,-0.06653685867786407,0.3700012084096671,0.5487590693682433,-9.8424602329731
40.5,3.799999952316284,57.0,22.455530166625977,28.92060089111328,-79.78280615128463,40.459012318407346,312.4798215026855,0.02304532378911972,0.015867255628108982,0.991938054561615,0.12359688431024553,0.1368279969069183,0.08896776467541939,3.0918212001340675,-0.040807731449604034,-0.03453943505883217,-0.13510721921920776,0.3524215545505285,0.5108973978459835,-9.916847341060636
40.7,3.799999952316284,55.0,22.3891716003418,30.272403717041016,-79.78280615862127,40.45901234925302,312.78953295898435,0.023982364684343338,0.013879265636205671,0.991954505443573,0.12352573871612547,0.13554432915981193,0.0845934010600937,3.094712477862887,-0.06333345919847487,-0.0163798276335001,-0.0821491926908493,0.2962301410362125,0.6180513522773982,-9.789777404665948
40.8,3.700000047683716,57.0,22.419219970703125,29.151203155517567,-79.78280616486602,40.45901238128953,313.09929019165037,0.022832266986370087,0.013139271177351476,0.9919517040252686,0.12384654581546785,0.14881922875170558,0.06943192878837176,3.0920523139163043,0.07299847155809402,-0.012012907303869724,0.08191216737031938,0.2737972616404295,0.31726772859692576,-9.808648708462716
41.0,3.700000047683716,57.0,22.34785270690918,30.80517196655273,-79.7828059379439,40.459012419503686,313.721757232666,0.02283373661339283,0.01347668655216694,0.9918891191482544,0.12431077659130095,0.12375378720984992,0.06653583135481905,3.0839028527924066,0.07765372842550278,0.02357812225818634,0.10753533989191057,0.3644846162572503,0.2406330787204206,-9.716903555989266
41.1,3.700000047683716,60.0,22.426733016967773,29.04783058166504,-79.78280595679416,40.45901237645377,314.03295260620115,0.021995743736624718,0.012542840093374252,0.9918776154518129,0.12465038895606995,0.13706494461750973,0.07557745608633648,3.0868378095666307,0.05045301839709282,-0.02157768979668617,0.011369014158844948,0.2866069396957755,0.24763733044266706,-9.777906387448311
41.2,3.700000047683716,62.0,22.501855850219727,27.62446212768555,-79.7828059376421,40.45901242163493,314.65137225341795,0.02144000679254532,0.013905913569033146,0.9918285012245178,0.12499308586120605,0.11027212046055053,0.06773235565510559,3.0784983949026423,-0.1051187515258789,-0.008380166254937649,-0.009773320518434048,0.2953346399590373,0.388393698334694,-9.633521091341972
41.41,3.5999999046325684,63.0,22.349105834960934,30.137222290039066,-79.78280577341934,40.459012439644326,315.27479678344724,0.02086728624999523,0.01571464166045189,0.991679310798645,0.12605465948581696,0.11382471750195218,0.07640710351948392,3.0598999122034107,0.111245758831501,0.008231149055063725,0.11845933645963667,0.3699674772843719,0.31784930728375915,-9.757092638611796
41.5,3.5999999046325684,64.0,22.37790298461914,29.548791885375977,-79.7828056287468,40.459012431216784,315.59699374389646,0.019576974213123318,0.015816092491149902,0.991652011871338,0.12646335363388062,0.1059697035413978,0.07628435285651564,3.0847182564291256,0.10120545327663424,0.04527148976922035,0.06136934831738473,0.36391009077429776,0.2730086184293032,-9.824054367542269
41.7,3.5999999046325684,64.0,22.50436019897461,26.28856468200684,-79.78280559454413,40.45901246166203,315.9056218261718,0.01988049410283565,0.016122294589877132,0.9915849566459656,0.12690265476703644,0.09094718659187304,0.07016431678937884,3.081931892280806,-0.005387959536164999,0.016764268279075626,0.07246474921703339,0.2024458269216121,0.10876146364957094,-9.745331549048423
41.9,3.5999999046325684,65.0,22.376649856567386,30.510955810546875,-79.78280543489736,40.459012409072926,316.52922183227537,0.020646966993808743,0.012796920724213123,0.9916256666183472,0.1268407702445984,0.0936081101605376,0.07594642720404368,3.0340641561067034,0.036912620067596436,-0.05337826535105705,-0.04505856707692146,0.3777086426317692,0.4619684819877148,-9.520572180747989
42.01,3.5,66.0,22.37790298461914,29.31818962097168,-79.78280540058613,40.45901243080723,316.83192568969724,0.01914174109697342,0.011070298030972479,0.9917805790901184,0.1260254979133606,0.10131401283381468,0.06279004155294655,3.019788052379995,0.1011526808142662,0.04447423666715622,0.055315811187028885,0.30375326005741954,0.18720149617642165,-9.657680032253266
42.1,3.5,66.0,22.380407333374023,30.145174026489247,-79.78280517220831,40.45901241007535,317.4547780151367,0.01864283531904221,0.011561289429664612,0.9920107126235962,0.12423203140497208,0.05951122938671899,0.0549292366641045,3.0693318945829247,-0.08253411203622818,-0.0029614216182380915,-0.11811050772666933,0.3083544888719916,0.4565801265835762,-9.937755814790727
42.31,3.5,65.0,22.48432731628418,27.529041290283203,-79.78280504059533,40.45901237318432,318.0809643859863,0.017546238377690315,0.013480998575687408,0.9921582341194152,0.12301403284072875,0.07076879846843906,0.0837775118535874,3.1189022426068282,-0.017455045133829117,0.01638423278927803,-0.0583154559135437,0.3141484217718244,0.5280084704607726,-9.90219538807869
42.4,3.5,66.0,22.342844009399414,29.80324935913086,-79.78280500598756,40.459012376993215,318.39259463500974,0.016544118523597717,0.013766144402325152,0.9921916127204896,0.12285242974758148,0.08072033306169221,0.08445643817550802,3.1111765060658727,0.12715132534503934,0.05677623301744461,0.1217387467622757,0.33764096282422545,0.2815835236385465,-9.796138590574264
42.6,3.5,65.0,22.5494327545166,26.209047317504893,-79.78280485666804,40.45901239279113,318.70117694091795,0.01622919738292694,0.013495275750756264,0.9922558069229126,0.12240539491176605,0.07969058963865051,0.07550591141510651,3.1030726607973445,0.0855584517121315,-0.02299189567565918,0.03690175712108612,0.34252232808619737,0.1821240299195052,-9.832004241943359
42.8,3.5,65.0,22.508115768432614,26.209047317504893,-79.78280481047689,40.45901242258232,319.32062655639646,0.0159128550440073,0.012836311012506485,0.9923338890075684,0.12188344448804855,0.07706606067832585,0.07153507100763719,3.08480233868759,-0.05449461191892624,-0.06882636994123459,-0.14328642189502716,0.25102729026228193,0.4228966560959816,-9.741936070919037
42.9,3.5,64.0,22.326568603515625,30.08156013488769,-79.78280470488862,40.45901241495323,319.63006335449217,0.015762276947498318,0.013957150280475616,0.992292046546936,0.12212008982896805,0.08167265481070228,0.06585786655916515,3.0796428640085365,-0.006222857628017664,0.009202724322676659,0.04004687443375588,0.29910850603133443,0.4290274982526899,-9.762510668635366
43.0,3.5,64.0,22.329072952270508,30.08951187133789,-79.78280458968395,40.45901237735393,320.252404510498,0.016303261741995808,0.014597062021493912,0.9922276139259338,0.12249739468097688,0.10445838820185682,0.08686087628290252,3.081014392320022,0.007961510680615902,-0.03284282237291336,0.04178648069500923,0.3411971662938595,0.2524952154792845,-9.86574969291687
43.21,3.5,64.0,22.33282852172852,30.717702865600586,-79.78280460291239,40.45901239518512,320.56121951293943,0.016609810292720798,0.01469014119356871,0.992160975933075,0.1229839101433754,0.09813237244475248,0.0874521821872311,3.0857301579715504,-0.145514577627182,-0.015812130644917488,-0.04420748353004456,0.28606137620285155,0.4662537967041135,-9.786879524588583
43.4,3.4000000953674316,64.0,22.545677185058594,25.66037368774414,-79.78280459508929,40.45901237241808,321.1835835571289,0.01716635376214981,0.015366091392934322,0.9920569062232972,0.123662106692791,0.13764455607724754,0.09384741209515644,3.0830722433223237,0.10831507295370102,0.00532545754685998,0.053952358663082116,0.3549558839946985,0.2345091253146529,-9.774805024266245
43.5,3.4000000953674316,63.0,22.511871337890625,27.370006561279297,-79.78280463317277,40.4590123910606,321.4919217224121,0.01754673756659031,0.014872220344841482,0.9920529127120972,0.1237013265490532,0.13242518343486126,0.09477533516919788,3.070716341166573,-0.022382618859410286,-0.004988245200365782,0.03429679945111275,0.3599330705031753,0.18875740371644492,-9.67320088148117
43.6,3.4000000953674316,64.0,22.46805000305176,28.29241180419922,-79.78280463353678,40.45901230612984,322.1118176574707,0.01820981875061989,0.01497657969594002,0.9920664429664612,0.12348438054323195,0.1596632559001874,0.10110904253215024,3.023058824403112,0.11093777418136597,0.07495611160993576,0.028626553714275364,0.3456512828171253,0.29762510396540165,-9.583473603129386
43.81,3.4000000953674316,64.0,22.309040069580078,30.28035545349121,-79.7828046173193,40.45901228553241,322.7323125,0.017530974000692368,0.013665436767041685,0.9922053813934326,0.12261522561311725,0.1304758126952612,0.0981894555483932,3.043091209727621,-0.11074546724557877,-0.0765230804681778,-0.11024179309606552,0.2374730972014368,0.4981110721081495,-9.778116302490234
43.9,3.4000000953674316,63.0,22.46053695678711,27.179162979125977,-79.78280466988873,40.45901229772592,323.0377286071777,0.01851597987115383,0.013538729399442673,0.9922173023223876,0.12238816916942595,0.14663946109184026,0.09376327224065156,3.0540261198061422,0.05119651556015015,0.03753536194562912,0.08783932030200957,0.34783580258488656,0.3397914956510067,-9.871113928556444
44.1,3.4000000953674316,62.0,22.402942657470703,28.65024185180664,-79.78280466157305,40.45901225724472,323.3498814697265,0.01989014074206352,0.013302850537002087,0.9922015070915222,0.12232621014118195,0.16330228905875951,0.10335622209964654,3.0621111526755374,0.08252158015966415,0.028093582019209862,0.006323686800897121,0.4157294315099717,0.17973242735490202,-9.83259714961052
44.3,3.4000000953674316,61.0,22.431739807128906,27.59265518188477,-79.78280477479323,40.45901226570687,323.9643300170898,0.02089996263384819,0.01474488154053688,0.992168664932251,0.12225836515426634,0.1542659365342671,0.10366547711464877,3.061077801143398,-0.05755903571844101,0.0074258409440517426,-0.06440351158380507,0.3350836830586195,0.4936149652674794,-9.723186973929408
44.4,3.299999952316284,61.0,22.37790298461914,29.342044830322266,-79.78280471578228,40.459012259394214,324.27605944824217,0.021025734022259712,0.015661096200346947,0.9921613335609436,0.12218225747346878,0.16748536489688418,0.10525038774227838,3.049845669232324,0.10073204338550568,0.020181922242045403,0.11830449104309082,0.3535674260929227,0.21498921912163496,-9.698307071328164
44.5,3.299999952316284,61.0,22.26146125793457,32.761306762695305,-79.78280461553403,40.45901229822539,324.8899930114746,0.020407717674970627,0.016200918704271317,0.9922332167625428,0.1216321662068367,0.12617730928881432,0.09713576230756617,3.058029442528991,-0.07715901732444763,-0.06565355509519577,-0.1753966063261032,0.3005027380585671,0.4601036221906543,-9.906562088727954
44.72,3.299999952316284,59.0,22.34159278869629,29.64421272277832,-79.78280463221742,40.45901231443553,325.19778186035154,0.020572567358613014,0.01635049656033516,0.9922533631324768,0.1214195191860199,0.1236705647468552,0.10143884005938368,3.08015921721045,-0.03350206837058066,-0.02014708891510964,-0.02246336080133915,0.3167597517371178,0.4592941848188639,-9.886419600248336
44.81,3.299999952316284,60.0,22.35787010192871,27.94253349304199,-79.78280439315785,40.459012393521135,325.80534487915037,0.02070939913392067,0.01471412554383278,0.9923929572105408,0.1204611510038376,0.11316728721134732,0.06643134302754879,3.0623087301781227,-0.02039257064461708,-0.04227285832166672,-0.0032805227674543858,0.2992635120637715,0.2380515512824059,-9.911735705137254
45.0,3.299999952316284,59.0,22.421724319458008,28.61843490600586,-79.7828043751298,40.45901243156944,326.11169940185545,0.02024204097688198,0.013638801872730257,0.9924576282501221,0.12013420462608335,0.10204986077708808,0.05757938874491485,3.0589810559258983,-0.052463069558143616,0.01798876188695431,-0.02453415095806121,0.3552278526127339,0.3675274707376957,-9.812162300348284
45.2,3.299999952316284,59.0,22.39668273925781,28.006147384643555,-79.78280424070452,40.45901243948463,326.7170155639648,0.017657412216067314,0.013063336722552776,0.99247944355011,0.12042465806007385,0.10999393118894188,0.05729894207560704,3.0139589280848824,0.13131168484687805,0.10997937619686128,0.05355587974190712,0.3282319157570601,0.30209462424740197,-9.667265372872354
45.3,3.299999952316284,57.0,22.451772689819336,28.316267013549805,-79.78280422513636,40.459012466662564,327.01891452026365,0.01762979477643967,0.013210898265242577,0.9924240112304688,0.12086905539035794,0.09009775818713713,0.06101380676794671,3.0183424153436667,-0.05515772104263306,-0.04326917231082916,0.032551005482673645,0.3624808119982481,0.19728962425142527,-9.779614359140396
45.5,3.4000000953674316,57.0,22.390422821044922,28.363977432250977,-79.78280418319845,40.459012457532396,327.623742401123,0.019922850653529167,0.01610893756151199,0.992283821105957,0.12131188809871675,0.12205961962999586,0.0725970294905167,2.9662378057560983,0.10040150582790376,0.006187940482050181,0.09775972366333008,0.3633014687150717,0.13798715396784247,-9.534703731536863
45.62,3.299999952316284,56.0,22.37289428710937,28.642290115356445,-79.78280407925246,40.45901241034695,328.226338684082,0.017995206639170647,0.016052553430199627,0.9923399090766908,0.12116134166717528,0.12472813795926305,0.09274226871030214,2.9504127533186217,0.12447310239076614,0.00040686660213395953,0.08125734329223633,0.4205762616544961,0.3218892947584391,-9.611521527171137
45.81,3.299999952316284,56.0,22.352861404418945,29.89071846008301,-79.78280409318927,40.45901242861506,328.52146655273435,0.017996855080127716,0.01550765335559845,0.9923965334892272,0.1207672581076622,0.11752695231930516,0.0909016945865456,2.9508426285628366,0.026483934372663498,0.06285595893859862,-0.009221332147717476,0.3684594438225031,0.28507973833009603,-9.757760390639305
45.9,3.299999952316284,57.0,22.46805000305176,26.01820373535156,-79.78280406004103,40.45901234659709,328.8300335998535,0.018906762823462486,0.014706057496368885,0.9923837184906006,0.1208343431353569,0.10645681340389226,0.1004610511737757,2.9800136513982487,-0.11056329309940338,-0.05449620261788368,-0.05496306717395783,0.3400063077360392,0.3732469247281552,-9.89953724384308
46.1,3.299999952316284,55.0,22.342844009399414,29.30228614807129,-79.78280421381933,40.459012257154534,329.4350178833008,0.019506745040416718,0.015472749248147009,0.9923434853553772,0.12097357958555224,0.15518972443193607,0.1233890758548037,2.987098454311911,0.15861991047859192,0.10328146815299988,0.09919442236423492,0.3976193986460567,0.18516363188624385,-9.777005331516266
46.2,3.299999952316284,55.0,22.34159278869629,28.41168785095215,-79.78280425694766,40.459012241334094,329.7346432800293,0.019464608281850808,0.016906555742025375,0.9922884702682496,0.12123902887105945,0.12781738315864413,0.13440955163599674,2.994550446330828,-0.10993719100952147,-0.07242724299430847,-0.004952001851052046,0.3717960477992893,0.2884090515598655,-9.854065786600113
46.3,3.299999952316284,55.0,22.436748504638672,26.837236404418945,-79.7828042036618,40.459012198659366,330.3404286499023,0.01811748929321766,0.016734015196561813,0.9922664165496826,0.12165194749832152,0.131024400094975,0.1278122352363999,3.0071408534935284,0.12706905603408813,0.01810399256646633,0.12234485894441605,0.3776103363186121,0.2363592757098377,-9.797183488011363
46.52,3.299999952316284,55.0,22.405447006225586,27.05193519592285,-79.78280419286232,40.45901213868246,330.94390994262693,0.017909003421664238,0.015334522351622581,0.992372751235962,0.12099777162075046,0.11748493290663273,0.11729551497773485,2.9917933036845046,-0.03905577585101128,-0.005533847026526928,-0.0353572703897953,0.3825122033804656,0.4791885686293245,-9.708913335800169
46.71,3.299999952316284,55.0,22.352861404418945,28.05385780334473,-79.7828042270042,40.459012136707685,331.2428525085449,0.01923217624425888,0.01513988710939884,0.99241304397583,0.12048758566379547,0.13246044600816756,0.11466751292768625,2.980005435748467,0.05238748714327812,0.04146430268883705,0.067987821996212,0.3352369897440076,0.16776794604957104,-9.707257989048962
46.8,3.299999952316284,55.0,22.344097137451172,28.594579696655273,-79.78280425981687,40.459012131979826,331.5412343139648,0.020212363451719284,0.013922912068665028,0.9924383163452148,0.12026631087064744,0.11906669652364195,0.1164910058797388,2.9808960939949034,-0.11107943207025528,-0.02632766403257847,-0.0561932735145092,0.3639231739193201,0.3118140671029687,-9.800924536585807
