time,wind_speed,wind_angle,battery_voltage,battery_current,position_x,position_y,position_z,orientation_x,orientation_y,orientation_z,orientation_w,velocity_x,velocity_y,velocity_z,angular_x,angular_y,angular_z,linear_acceleration_x,linear_acceleration_y,linear_acceleration_z
0.0,0.699999988079071,343.0,23.1641902923584,0.0,-79.7827818411307,40.45901558162871,270.77253690195084,0.004632279742509128,0.03360603377223015,-0.9959833025932312,0.08286461234092712,-0.005721969789815738,-0.016700328970907174,0.02549329571959617,-0.0035921770613640547,-0.0007825109059922397,-0.002795692067593336,-0.6770912003517151,-0.16000478055328132,-9.782975338697431
0.2,0.6000000238418579,349.0,23.17170333862305,0.02385532110929489,-79.78278175942873,40.45901550781819,270.78586110305787,0.004636321682482958,0.03362653777003288,-0.9959786534309388,0.08291216194629669,-0.009398091006106463,-0.01510527969343785,0.024465774946396342,0.003134636674076319,0.0016852549742907286,0.0032838957849890007,-0.6722676859796047,-0.1649625250697136,-9.78533761382103
0.3,0.699999988079071,351.0,23.16794586181641,0.015903547406196594,-79.7827817201524,40.459015443316325,270.79892077875144,0.0046631693840026855,0.033628638833761215,-0.995976448059082,0.0829363688826561,-0.0047886902497961785,-0.016767217540368855,0.02304302496294357,0.0025026516523212194,0.002457136753946543,0.0030147780198603877,-0.6773003114014864,-0.15856092028319838,-9.782821556925773
0.5,0.8000000119209291,347.0,23.162939071655273,-0.007951773703098297,-79.7827817172484,40.459015458567535,270.8013552708626,0.004656986799091101,0.0336313396692276,-0.9959728717803956,0.0829787477850914,-0.0059389668199358175,-0.01910410137922898,0.023167116184174528,0.004342467989772558,0.002384981373324991,0.0035911255981773147,-0.6715791763365269,-0.1656240096129477,-9.786271998882292
0.6,0.8000000119209291,355.0,23.16669464111328,-0.015903547406196594,-79.78278164860166,40.459015377722665,270.81485959720607,0.0046650199219584465,0.03365284949541092,-0.9959693551063538,0.08301069587469101,-0.007572981669975726,-0.016326459503529615,0.023091997866514332,-0.00031523872166872025,0.0031487445812672377,-0.00016528165724594146,-0.6775581736117602,-0.16015616862103346,-9.78300515949726
0.8,0.8000000119209291,357.0,23.165441513061523,-0.015903547406196594,-79.78278164246547,40.45901539288316,270.81730034780503,0.004660002887248993,0.033659379929304116,-0.9959665536880492,0.08304218202829361,-0.008576793977005987,-0.018576329593591054,0.02314002775990064,0.004905558656901121,0.0030402825213968754,0.0013066993560642006,-0.6726223196089268,-0.1661312190257013,-9.785441109538079
0.9,0.8000000119209291,0.0,23.16794586181641,0.0,-79.78278157623083,40.459015325992134,270.83073100280757,0.004646178800612688,0.03367842361330986,-0.9959638118743896,0.08306841552257538,-0.010056111211262526,-0.017612947120183027,0.02314813509857194,0.003099616384133697,0.005435328464955092,-0.003055638400837779,-0.6768961957097054,-0.15995180843397974,-9.783035565018654
1.1,0.8000000119209291,357.0,23.16043472290039,0.015903547406196594,-79.78278156799105,40.45901534158257,270.83318891954417,0.004653502721339464,0.033687520772218704,-0.9959602355957032,0.0831068903207779,-0.010760542577355259,-0.019566779830939875,0.023251333063608336,0.0034841757733374834,0.0013496868778020144,-0.0003125082876067609,-0.671836526915431,-0.1642037757486105,-9.785883159041406
1.2,0.8000000119209291,352.0,23.1641902923584,0.02385532110929489,-79.78278151248666,40.45901526814136,270.8442010564804,0.0046277716755867004,0.03368445485830307,-0.9959580302238464,0.08313611149787903,-0.01010370251682098,-0.018049596619961503,0.02275980243774851,-0.005274289753288032,-0.003874011570587753,-0.00010719597048591822,-0.6770472000539303,-0.16189979005604982,-9.784025498628617
1.4,0.8000000119209291,353.0,23.16168594360352,-0.02385532110929489,-79.7827814713871,40.45901518827127,270.85810699892045,0.004630669485777617,0.033695757389068604,-0.9959536790847778,0.08318348228931427,-0.0035402311231865656,-0.014136035840978759,0.022486615853031442,0.004907125607132912,0.0034157419577240944,0.0065817059949040396,-0.6719255507737398,-0.1656957476399839,-9.786635110974313
1.5,0.699999988079071,347.0,23.15793037414551,-0.02385532110929489,-79.78278146901434,40.45901520101254,270.8604679389,0.004629820119589567,0.03371337056159973,-0.9959514737129213,0.08320248872041702,-0.005784636011100887,-0.0161107793422154,0.02276658000768809,-0.005718649830669165,-0.00571008725091815,-0.002387757878750563,-0.6771835132688284,-0.1628832917287946,-9.784329553842543
1.7,0.699999988079071,339.0,23.165441513061523,0.0,-79.78278139788559,40.45901512718378,270.87494274806977,0.004625409375876188,0.03371824324131012,-0.9959474205970764,0.08324980735778809,-0.006590478699241455,-0.014246280522162638,0.022863535167566097,0.007757815066725016,0.0003443366731517017,0.005907307844609022,-0.6721389741450549,-0.16543995022773744,-9.785497827529909
1.8,0.699999988079071,328.0,23.16669464111328,0.015903547406196594,-79.78278132295897,40.45901507207858,270.8894212527275,0.0046365559101104745,0.03371643275022507,-0.995944619178772,0.08328372985124588,-0.0084349806729917,-0.016312926649824276,0.0225634579723948,-0.001270732725970447,-0.0009453368838876486,-0.002527352189645171,-0.6770401833951474,-0.16040622845292093,-9.782934992909432
2.0,0.6000000238418579,322.0,23.169198989868164,0.007951773703098297,-79.78278131580521,40.459015087367895,270.8918073458672,0.004643239080905914,0.03370368108153343,-0.9959439635276794,0.08329562842845918,-0.009429768898224193,-0.018369886175723937,0.022611531620448287,0.006544304080307485,-0.000648645160254091,0.006111148279160261,-0.671515222415328,-0.16485153760761026,-9.785444617867473
2.1,0.5,319.0,23.17045021057129,0.02385532110929489,-79.78278130819295,40.459015103772074,270.8942072672844,0.004644310567528009,0.03370966017246246,-0.9959427118301392,0.0833081528544426,-0.01158009879127246,-0.020356534378750298,0.02271134495344088,-0.00782643537968397,-0.004669394809752703,-0.002931344322860241,-0.6773272085934878,-0.16009433431550862,-9.782416929602624
2.3,0.5,313.0,23.17170333862305,0.015903547406196594,-79.78278129597469,40.45901500651927,270.9090515656472,0.004660141188651322,0.033734530210494995,-0.9959377646446228,0.08335677534341812,-0.00047565531617871376,-0.013399039207237895,0.02280966165093126,0.003868533298373223,0.0030081889126449823,0.0029441583901643753,-0.6719599762558938,-0.16621870798990132,-9.786905252337457
2.4,0.4000000059604645,315.0,23.1641902923584,0.02385532110929489,-79.78278119318782,40.45901495058101,270.92453470659257,0.004629116039723158,0.03374692425131798,-0.9959344267845154,0.08339309692382812,-0.008174751066033116,-0.015267498060880296,0.022731002745742728,-0.0011646694038063288,0.00017748872051015496,-0.0015378094976767898,-0.678287248313427,-0.1599044825322926,-9.784459946751593
2.6,0.5,309.0,23.16669464111328,0.015903547406196594,-79.78278118667531,40.45901496374634,270.9269373102188,0.0046269348822534076,0.03374577313661575,-0.9959333539009094,0.0834067091345787,-0.009130450187485805,-0.017170937791485645,0.022898626413140145,0.005169035866856575,0.004700913559645414,0.003318927017971873,-0.6715500133484602,-0.1654576015099883,-9.785906547904013
2.7,0.5,310.0,23.17045021057129,0.02385532110929489,-79.78278113060419,40.459014884962116,270.9427487535477,0.004627197980880736,0.03369976580142975,-0.9959338307380676,0.08341937512159348,-0.005557935742079293,-0.015271054153668447,0.022990473943255263,0.0029593964572995892,0.003135586390271783,5.2602124924305826e-05,-0.6766202802211047,-0.15973292157053948,-9.783157187104226
2.91,0.5,307.0,23.16168594360352,0.0,-79.7827810728532,40.45901477673132,270.95859840345383,0.004643561318516731,0.03374133631587028,-0.9959304332733154,0.08344225585460663,0.00019597606577287504,-0.007099120150489671,0.027352046435090368,0.00519736623391509,0.001681846217252314,0.006260397378355265,-0.6715292557328941,-0.16588461270555854,-9.785835211873056
3.0,0.699999988079071,308.0,23.15667724609375,-0.04771064221858978,-79.78278107356577,40.45901478230406,270.9613868875504,0.004656539298593998,0.03373594954609871,-0.9959288835525512,0.0834626778960228,-0.001940926477201288,-0.009049788926812493,0.027519202364562217,-0.005759982392191887,-0.0053887316025793535,-0.007107625249773264,-0.6786440015584231,-0.1555452005378902,-9.78217017710209
3.2,0.699999988079071,305.0,23.17045021057129,0.007951773703098297,-79.78278097709466,40.45901472975496,270.97787532043463,0.0046266834251582605,0.03371325135231018,-0.995925784111023,0.08351064473390579,-0.00737477224737993,-0.012491299380315016,0.02639299269459813,-0.0008867199649102986,0.002676873933523893,-0.0013788676587864757,-0.6755001729726792,-0.16671528277918699,-9.784748214483262
3.31,0.699999988079071,312.0,23.16794586181641,0.02385532110929489,-79.78278089096695,40.45901465319726,270.99615785312653,0.0046404586173594,0.033709995448589325,-0.995921790599823,0.08355797827243805,-0.0071485355198065625,-0.009053713711356324,0.028739093373655145,0.006646024994552136,0.0017711494583636524,0.006146642845124006,-0.6766482737660409,-0.14884430967271328,-9.782638539075851
3.5,0.8000000119209291,312.0,23.16669464111328,0.0,-79.78278088354547,40.45901466166264,270.99911287260056,0.004650567192584276,0.033684562891721725,-0.9959201216697692,0.08358781784772873,-0.009352681692028741,-0.011193829115860744,0.02896361935957275,-0.0072148642502725124,-0.0024771420285105705,-0.003214817261323333,-0.6780233196169139,-0.1539144303649664,-9.782502298951153
3.6,0.8999999761581421,309.0,23.17045021057129,0.015903547406196594,-79.78278087524524,40.4590146710593,271.00209471416474,0.004648707341402769,0.03368976339697838,-0.9959182739257812,0.08360767364501953,-0.00983419972225922,-0.013448488548565963,0.02889447859802175,0.005636521615087986,0.004584482405334711,0.0058096195571124545,-0.6732416859269142,-0.16572925949469208,-9.786314098834993
3.8,1.100000023841858,311.0,23.16669464111328,0.02385532110929489,-79.78278081817659,40.45901460239157,271.0211733264923,0.004659269005060196,0.033675435930490494,-0.9959129095077516,0.08367689698934555,-0.0061210851848887615,-0.013668062923640952,0.030618688248780005,-0.000436158268712461,0.0015715060289949179,-0.0026875960174947977,-0.6781439184397459,-0.15319080088287593,-9.783214489817619
3.9,1.2000000476837158,313.0,23.16794586181641,0.02385532110929489,-79.78278072721167,40.4590145295145,271.03831204605103,0.004663559142500162,0.03368425741791725,-0.9959065318107604,0.08374900370836258,-0.007824734902213361,-0.012255362728614973,0.027994398666877626,-0.00467697624117136,-0.0023629660718142986,-0.010765216313302515,-0.6712477122992278,-0.1671441212296486,-9.784913690686228
4.1,1.399999976158142,314.0,23.165441513061523,0.015903547406196594,-79.78278072085693,40.45901454006361,271.0411997718811,0.004658504854887724,0.033693742007017136,-0.9959039092063904,0.08377648144960402,-0.008341346137119149,-0.0146599899987999,0.02790101159254832,0.0019045136868953703,0.0019091236172243953,0.004422033671289682,-0.6739760962128639,-0.158685867972672,-9.78605740606785
4.2,1.5,316.0,23.169198989868164,0.03180709481239319,-79.78278063157643,40.45901449800726,271.0603249950409,0.004637036006897688,0.03368421271443367,-0.9958982467651368,0.08384937793016434,-0.010655762623006772,-0.017797196565284376,0.029417653173495824,-0.0018997667357325554,-0.0019226106815040114,-0.00871721189469099,-0.6750097377598286,-0.1690595228970051,-9.784887378215787
4.4,1.5,312.0,23.169198989868164,0.007951773703098297,-79.782780548949,40.459014412084024,271.07534274292004,0.00462135998532176,0.03373125195503235,-0.9958945512771606,0.08387444913387299,-0.008455970287909368,-0.011312423457653929,0.027991560881562468,0.004302177578210832,0.002984444843605161,0.005879457108676434,-0.6706838214397429,-0.16600612515583635,-9.787120429873466
4.5,1.399999976158142,312.0,23.162939071655273,-0.007951773703098297,-79.78278054030267,40.45901442267447,271.0782504959106,0.0045914449729025355,0.03372132033109665,-0.9958929419517516,0.08389900624752045,-0.011003894755938416,-0.013193720680835864,0.02838322857857004,-0.009173065423965454,-0.003505716798827052,-0.007868614979088306,-0.6764529036730528,-0.1570829817093909,-9.783610931038856
4.7,1.5,312.0,23.16794586181641,0.015903547406196594,-79.78278045360048,40.45901435404807,271.0957927389145,0.004596136510372162,0.03374003618955612,-0.9958893060684204,0.08393511921167374,-0.009622210265959604,-0.01108735574390474,0.02657087869931362,-0.00029727976652793586,-0.0023474877234548326,0.0003653443709481508,-0.6753621055930853,-0.16562024546787146,-9.786418763995169
4.8,1.5,311.0,23.169198989868164,0.02385532110929489,-79.78278038559641,40.4590142974002,271.1139753742218,0.00460169417783618,0.03377871960401535,-0.9958829879760742,0.08399412781000137,-0.005162032729046858,-0.014371960858961287,0.024942961367239155,0.006132268812507391,0.0033099884167313576,0.0026242858730256557,-0.6760911072045565,-0.1514915086515248,-9.783340789675712
5.01,1.600000023841858,314.0,23.16669464111328,0.0,-79.7827803813948,40.45901431043885,271.11658713054663,0.004591166041791439,0.03377055749297142,-0.9958813786506652,0.0840163379907608,-0.007499741968984483,-0.01626467672799636,0.025249609523077376,-0.0060334838926792145,-0.00123033975251019,-0.01208240445703268,-0.6783593883365393,-0.15075958343222734,-9.782884706854821
5.1,1.5,320.0,23.18046760559082,0.07951773703098297,-79.78278037622907,40.45901432464228,271.11923500728614,0.004588975105434656,0.03377712890505792,-0.9958787560462952,0.08404541015625,-0.007824351433897656,-0.018518380228933262,0.025291670870993592,0.004618039354681969,0.005223274230957031,0.00584943825379014,-0.6723420187085867,-0.16543585717678072,-9.786990036964417
5.31,1.5,325.0,23.162939071655273,0.03180709481239319,-79.78278031421151,40.45901425976198,271.13498720359803,0.00459687039256096,0.0337538905441761,-0.995875358581543,0.08409467339515686,-0.005496867178604658,-0.017008095730201168,0.02111231571882428,0.00411875592544675,0.004630129784345628,0.004957563243806362,-0.675872055888176,-0.16570475600659848,-9.786215865612027
5.4,1.399999976158142,330.0,23.16794586181641,0.007951773703098297,-79.78278019961112,40.459014197008905,271.15139648151404,0.004567977972328663,0.033756569027900696,-0.9958721399307252,0.08413342386484146,-0.010496327031569424,-0.013956852406076404,0.01838419165722812,0.004426809959113598,0.002381864935159683,0.0025923671200871468,-0.6752608756721021,-0.16225729247555135,-9.784935910105704
5.6,1.399999976158142,331.0,23.169198989868164,0.0,-79.7827801897491,40.45901420973891,271.1533699913025,0.004573199898004532,0.033752214163541794,-0.9958690404891968,0.084170863032341,-0.012529838331033213,-0.015506792557743974,0.01875548889841991,-0.005830388516187668,0.0009273308678530157,-0.0017721873009577394,-0.6758150455355645,-0.1652376365661621,-9.784442989826204
5.7,1.399999976158142,332.0,23.16669464111328,0.015903547406196594,-79.78278012854105,40.45901413776093,271.17225953769685,0.004583545029163361,0.033764854073524475,-0.9958631992340088,0.08423545956611632,-0.007154359067199877,-0.014219172950313585,0.02053036447058533,-0.0009031423833221195,0.002495636232197285,0.0012867567129433155,-0.6754344648867846,-0.15520668329671025,-9.784048887491226
5.9,1.2999999523162842,335.0,23.16669464111328,0.02385532110929489,-79.78278003634706,40.45901406045928,271.188927857399,0.004576504230499268,0.033762872219085686,-0.9958614706993104,0.08425595611333847,-0.006749518908586517,-0.010339805988647359,0.021439782223856167,0.001313687302172184,-0.00017102705896832052,-0.0017574763623997571,-0.6758806805312634,-0.15292847103439272,-9.782589422464367
6.0,1.2999999523162842,341.0,23.1641902923584,-0.007951773703098297,-79.78278002995226,40.45901407036211,271.1911670846939,0.0045490600168705,0.033765021711587906,-0.9958574771881104,0.0843040719628334,-0.008222390792982771,-0.012421231677950423,0.02169409393117396,0.0008355001336894927,0.0032216396648436785,0.003584194695577025,-0.6740706749260426,-0.16876613885164266,-9.785228270888329
6.2,1.2999999523162842,342.0,23.16794586181641,0.015903547406196594,-79.78277995938464,40.45901401077436,271.208119480133,0.00457462714985013,0.03377280384302138,-0.9958527088165284,0.08435577899217606,-0.005418942194643564,-0.0122823690180195,0.018835585422442104,0.0020217099227011204,0.0029392777942121033,0.007166445720940828,-0.6714148695766926,-0.16812594182789325,-9.786172596216202
6.3,1.2999999523162842,340.0,23.17170333862305,0.02385532110929489,-79.78277988688521,40.45901394684253,271.22689637374884,0.004580635111778975,0.03379515931010246,-0.9958460330963136,0.08442524075508118,-0.002217822468816768,-0.011442929038343009,0.020373401954143288,0.005219769198447466,0.0018065141048282387,0.006727670785039663,-0.6752064234763384,-0.14755614979192616,-9.783538425564766
6.5,1.2999999523162842,336.0,23.16043472290039,-0.007951773703098297,-79.78277988549523,40.459013957090534,271.2290305776596,0.004578628111630678,0.03379683941602707,-0.995843470096588,0.08445531129837036,-0.004710181938441301,-0.013294510224798751,0.020726922913025414,-0.0025719988625496626,-0.0017679249867796898,-0.008176787756383419,-0.6787044471502305,-0.15147875441238284,-9.784364637136461
6.6,1.2999999523162842,331.0,23.165441513061523,0.015903547406196594,-79.78277988296962,40.45901396831435,271.2312072200775,0.004591360222548246,0.03380560502409935,-0.9958400130271912,0.0844920352101326,-0.005069488375265039,-0.015415748700843054,0.020728552394150286,0.007380475755780934,0.0020032008178532124,0.00701728044077754,-0.672863736525178,-0.16627922667190434,-9.786408239006995
6.8,1.2999999523162842,331.0,23.159181594848643,-0.03180709481239319,-79.78277978262615,40.45901389548559,271.2492761297226,0.004612154792994261,0.033785633742809296,-0.9958338737487792,0.08457154780626297,-0.006992360783055541,-0.012670063159276913,0.019901512105401645,0.005965828895568848,0.006005044560879469,0.002902772510424257,-0.6746559812128544,-0.16619084235280754,-9.787488219738007
6.9,1.399999976158142,326.0,23.16168594360352,0.0,-79.78277964685337,40.45901380164341,271.26904186439515,0.004605268128216268,0.033799074590206146,-0.9958274960517884,0.08464094251394272,-0.013462843270899754,-0.006493735622268423,0.02234138213159561,0.003911187406629324,0.0020956099033355713,0.006832294631749392,-0.6768318032473326,-0.15775802448391915,-9.7835378408432
7.1,1.399999976158142,324.0,23.15667724609375,0.02385532110929489,-79.78277963194155,40.45901380812543,271.27135667037965,0.0046011600643396395,0.03380899503827095,-0.9958242774009703,0.08467529714107512,-0.015638404792529703,-0.008131878422871653,0.022638374488565968,-0.005205894354730845,-0.0019266442395746708,-0.0010376219870522616,-0.6764018136262894,-0.1641842606663704,-9.783683436512947
7.2,1.5,326.0,23.162939071655273,0.07951773703098297,-79.78277952690104,40.459013729328326,271.28882977199555,0.004593143705278635,0.03380937874317168,-0.9958181381225586,0.0847470611333847,-0.01493303634392565,-0.006587555051299279,0.021200728929775408,-0.0005573018570430577,-0.0011450384045019744,3.1640440283808864e-05,-0.6738271383941173,-0.15799850950017572,-9.78409508049488
7.4,1.2999999523162842,325.0,23.15793037414551,0.04771064221858978,-79.7827794683676,40.459013700511385,271.3034376783371,0.004617920145392418,0.03379271551966667,-0.995816707611084,0.08476963639259337,-0.009715017001310595,-0.017264041201932367,0.01760283971365109,0.0008068635943345728,0.001480151666328311,-0.0005372168961912394,-0.6769311328232289,-0.15188683524727822,-9.78291569709778
7.5,1.5,322.0,23.15667724609375,0.06361418962478638,-79.78277945997986,40.45901371713671,271.30535015296937,0.004598068073391914,0.03377605602145195,-0.9958145022392272,0.08480320870876312,-0.010887988897075469,-0.019245421129708788,0.017950626037169848,-0.0007734360406175256,0.0006809075130149723,0.0028524515219032764,-0.6733154339343311,-0.16812647173181178,-9.786512319445613
7.7,1.5,322.0,23.16043472290039,0.06361418962478638,-79.78277935609535,40.459013648414775,271.3225464506149,0.0046246587298810465,0.033768612891435616,-0.9958102107048036,0.08485568314790726,-0.011008483999648109,-0.015332831333814922,0.017088789947671428,0.005086611025035381,0.004256295040249825,0.00444107037037611,-0.6718092642724515,-0.1681053121201694,-9.785611263513566
7.8,1.5,321.0,23.16168594360352,0.12722837924957275,-79.78277925196066,40.45901357037237,271.3396440429688,0.004631814546883106,0.033772114664316184,-0.99580579996109,0.08490459620952606,-0.009603741805462395,-0.01142931141412353,0.016110281492621788,0.0015579204773530366,0.00558502832427621,0.00494487676769495,-0.6761002434790134,-0.14671963250264528,-9.781643342971805
8.0,1.5,320.0,23.155426025390625,0.11132483184337616,-79.78277924205857,40.459013582010044,271.3413602991104,0.004630457609891892,0.03375304117798805,-0.9958052039146424,0.08492030203342438,-0.01192470813155608,-0.013379996656814542,0.016354161386907134,-0.004046587739139795,-0.006653326563537121,-0.007731656078249215,-0.677707935422659,-0.1491562220826745,-9.782877105474473
8.1,1.5,317.0,23.162939071655273,0.11927660554647446,-79.78277923111712,40.45901359481682,271.34311064910895,0.0046330438926816,0.03375376760959625,-0.9958041906356812,0.08493079245090485,-0.012173820701690343,-0.015621013438220144,0.016348949874679445,0.009583050385117527,0.005507266614586115,0.004232528619468212,-0.6716776288300753,-0.16549339743331076,-9.785858600735665
8.3,1.5,318.0,23.165441513061523,0.11132483184337616,-79.78277916886276,40.45901352659997,271.3585757894516,0.004674687050282954,0.03376152366399765,-0.9958000183105468,0.08497460931539537,-0.00730721870345159,-0.014891237180515231,0.015227959549944704,0.00494394451379776,0.0039912676438689215,0.007160491310060023,-0.6730657578259707,-0.16728178661316634,-9.78678538441658
8.4,1.2999999523162842,324.0,23.162939071655273,0.12722837924957275,-79.78277904808613,40.459013479368615,271.3715128583908,0.004678237717598678,0.03378313034772873,-0.9957946538925172,0.08502866327762604,-0.0120222386676896,-0.015447345397468676,0.00907367950202524,0.005574075039476156,0.004238272085785866,0.005364901386201382,-0.6792769626528025,-0.1532601634785533,-9.782509315609932
8.6,1.2999999523162842,326.0,23.16168594360352,0.10337305814027786,-79.78277903646729,40.459013494408346,271.3725678606033,0.0046830824576318255,0.033783428370952606,-0.9957926869392396,0.08505205810070038,-0.014266056204981087,-0.017101187195657005,0.009520024011501094,-0.004950373433530332,-0.005463818553835154,-0.008236074820160866,-0.6780891738831998,-0.1563339168392122,-9.783222675919532
8.71,1.2000000476837158,322.0,23.162939071655273,0.09542128443717957,-79.78277896015206,40.459013448015966,271.38665494155885,0.004678688943386078,0.033779267221689224,-0.9957897663116456,0.08508720248937607,-0.01022225656178358,-0.01880962582406321,0.007282742000230139,-0.005288754589855671,-0.0035551136825233702,-0.0052044373005628594,-0.6732785964757204,-0.16395662125200033,-9.785513030290604
8.9,1.2000000476837158,322.0,23.16168594360352,0.09542128443717957,-79.78277885055228,40.459013365261825,271.3999838514328,0.004677134100347757,0.03379460796713829,-0.9957870841026306,0.0851127877831459,-0.011538454427590508,-0.012921863267193077,0.005805389570943825,0.006048657465726136,0.0023091607727110386,0.003867422696202994,-0.6756627986580134,-0.16033372297883033,-9.7844581925869
9.01,1.2000000476837158,322.0,23.16043472290039,0.08746951073408127,-79.78277883868817,40.45901337905463,271.4006911201477,0.0046687391586601725,0.033765289932489395,-0.9957855343818665,0.0851430892944336,-0.013593031486364673,-0.014693257530063931,0.006157808715082678,-0.0026196769904345274,-0.0026039888616651297,0.002573985839262605,-0.6756375094503164,-0.16531026994809508,-9.784848786592486
9.2,1.2000000476837158,319.0,23.165441513061523,0.11927660554647446,-79.78277877431788,40.45901333698378,271.4143423719406,0.004694018047302961,0.0337492935359478,-0.9957825541496276,0.085182785987854,-0.006899984677394278,-0.017576965234701033,0.005117831722047066,0.000568630697671324,-0.0020111154299229388,0.0027133908588439226,-0.6765660472959281,-0.16827789634466173,-9.785328258275989
9.3,1.100000023841858,320.0,23.165441513061523,0.12722837924957275,-79.7827787041473,40.45901324699345,271.4273574037552,0.004727020859718323,0.03380000963807106,-0.9957783818244934,0.08521010726690292,9.637285047186752e-05,-0.007232151704810806,0.0038615406652463295,-0.0013907345710322259,0.0005113529623486102,0.00314896390773356,-0.6758414310961962,-0.1532343169581145,-9.78329693555832
9.5,1.100000023841858,319.0,23.15667724609375,0.08746951073408127,-79.78277870521754,40.45901325426452,271.4278005046845,0.004739503376185894,0.0337890163064003,-0.9957777261734008,0.08522174507379532,-0.0012969914210521564,-0.00952725477691223,0.0038809486977548695,-0.00306543312035501,-0.002261192537844181,-0.0024040259886533018,-0.6770396717637778,-0.15217384217306973,-9.782850793004037
9.6,1.100000023841858,321.0,23.1641902923584,0.10337305814027786,-79.7827787054909,40.45901326267836,271.42827245426184,0.004720936994999647,0.033802159130573266,-0.9957749843597412,0.08524888008832933,-0.0021137214564589733,-0.011308375619506884,0.0040885473633428425,0.002814028877764941,-0.0002907615271396935,0.005259105935692786,-0.6747048054635525,-0.16941824957728388,-9.785401933193207
9.8,1.100000023841858,320.0,23.162939071655273,0.10337305814027786,-79.78277860970809,40.459013219010636,271.441760389328,0.004704771097749472,0.03378617763519287,-0.9957703351974488,0.08531008660793304,-0.004813687482227891,-0.014681859013475847,0.0033117137579379862,0.0032549798488616943,0.002756292000412941,0.004874289967119694,-0.6720638374239206,-0.16656018538400533,-9.784997890591622
9.9,1.2000000476837158,316.0,23.16043472290039,0.11132483184337616,-79.78277852645628,40.459013153932815,271.45556637477875,0.004755163565278053,0.03381505608558655,-0.9957664012908936,0.08534204959869385,-0.002641541917522517,-0.013527718654048755,0.003255309906452899,0.005746275652199985,0.003521459875628352,0.005321701522916554,-0.6764072953909636,-0.14760802555829286,-9.781881324648856
10.1,1.2000000476837158,315.0,23.165441513061523,0.06361418962478638,-79.78277852559053,40.45901316642557,271.4560008926392,0.004756471142172813,0.03381207212805748,-0.9957659244537354,0.0853487029671669,-0.004671496093816867,-0.015365976694648948,0.003475431475935712,-0.0016830280655995011,-0.004368949215859175,-0.010516416281461716,-0.6778166205435991,-0.14770870730280874,-9.780998395085335
10.2,1.2000000476837158,313.0,23.162939071655273,0.06361418962478638,-79.78277842897148,40.45901309009706,271.4693537635804,0.0047496524639427645,0.033831827342510216,-0.9957600235939026,0.08541002124547957,-0.005914620023388458,-0.010983135254667523,0.0035006565193991075,-0.00656148511916399,-0.004435559269040823,-0.010797782801091673,-0.6715841464698316,-0.1674995953962207,-9.785253413915637
10.4,1.2000000476837158,315.0,23.16794586181641,0.02385532110929489,-79.78277834829726,40.459013027970926,271.48248597812653,0.004773285239934921,0.03385411947965622,-0.9957574605941772,0.085429847240448,-0.002141981368068902,-0.01250959048909711,0.00293416410010881,0.0061969212256371975,0.001957118744030595,0.007611053530126809,-0.6721120769530535,-0.16825302740558984,-9.785282649993896
10.5,1.2000000476837158,313.0,23.162939071655273,0.0,-79.78277834724176,40.45901304014431,271.4828926010132,0.0047530909068882465,0.03384557738900185,-0.9957556128501892,0.08545632660388948,-0.004280362177829715,-0.014208666721026084,0.003239987921801204,-0.004458713345229626,-0.0059969229623675355,-0.008688142523169521,-0.6783849699050188,-0.15216345422901215,-9.780909517407418
10.7,1.2999999523162842,314.0,23.169198989868164,0.02385532110929489,-79.78277826634408,40.4590129895646,271.49666198921204,0.004762503318488598,0.033868316560983665,-0.9957523941993712,0.08548320084810257,-0.0026559172173685106,-0.015728925354556764,0.003051021865298994,-0.0073594287969172,-0.00676463870331645,-0.01083681732416153,-0.6772844508290291,-0.1566451714374125,-9.782071359157564
10.8,1.2999999523162842,317.0,23.16669464111328,0.03180709481239319,-79.78277815927551,40.45901290926509,271.51265093517304,0.004786163568496704,0.03387697786092758,-0.9957488179206848,0.0855211690068245,-0.00421854767747647,-0.010971522736233712,0.007328982540831303,-0.004785123746842146,-0.006928692571818829,-0.0044918120838701725,-0.6734791559726,-0.16481486460193992,-9.78567090511322
11.0,1.2999999523162842,313.0,23.162939071655273,0.0,-79.78277815683285,40.459012920171155,271.5134560747147,0.004796425346285105,0.033862046897411346,-0.9957481622695924,0.08553359657526016,-0.004262925020294999,-0.01320655941301966,0.007076220694787575,0.0039125741459429255,0.002114786067977548,0.0048558455891907215,-0.6737546329200268,-0.16262793285772206,-9.783923757076263
11.1,1.2999999523162842,312.0,23.16669464111328,0.007951773703098297,-79.78277815396011,40.459012932297824,271.51427623462683,0.004787511192262173,0.03386451676487924,-0.9957448244094848,0.08557172119617462,-0.006222467174404314,-0.014748928452731118,0.007410383180548674,-0.006130057387053967,-0.0030548195354640484,-0.0014542775461450221,-0.6769567143917085,-0.16324070278555156,-9.782958966493608
11.3,1.2999999523162842,312.0,23.16794586181641,0.007951773703098297,-79.7827780475036,40.45901286249162,271.52790352535254,0.00478578032925725,0.03386521339416504,-0.995742917060852,0.08559456467628479,-0.0071667540578762515,-0.013597149962218473,0.006023316517244113,-0.003121995832771063,-0.004574225284159184,0.0009933146648108961,-0.6759535514563323,-0.16445431066676974,-9.783020946979525
11.4,1.2000000476837158,312.0,23.16794586181641,0.015903547406196594,-79.78277796740142,40.45901278656946,271.54185136985785,0.0048077423125505465,0.033883485943078995,-0.9957380294799804,0.08564247190952301,-0.0028007173712223396,-0.011657415301511254,0.004407320719196264,-0.0015395573573186994,-0.0009862900478765366,0.003458637045696377,-0.6750600238144399,-0.15869653914123774,-9.783368271589277
11.6,1.2000000476837158,310.0,23.16669464111328,0.015903547406196594,-79.78277796675563,40.459012797186745,271.5423748178482,0.00482686934992671,0.03386450186371803,-0.995739221572876,0.08563452214002609,-0.00354184176175436,-0.013688191132673382,0.004332559886002113,0.003436589846387505,-0.0008653477998450397,0.0032746428623795514,-0.6776273900270462,-0.15678952457383274,-9.782176609039306
11.71,1.2000000476837158,310.0,23.16043472290039,0.007951773703098297,-79.78277789415219,40.459012723055785,271.55689617824555,0.004836183972656728,0.033854592591524124,-0.9957359433174132,0.08567658811807632,0.0009826336031971102,-0.013543731018285229,0.004144761352251085,-0.000589958974160254,-0.0003106221265625209,-0.003366075688973069,-0.6749402289837599,-0.16715947017073632,-9.783957086205485
11.9,1.2000000476837158,310.0,23.16669464111328,0.02385532110929489,-79.78277779475948,40.45901264989798,271.57118150424964,0.004829709418118,0.033888421952724464,-0.9957317113876344,0.08571257442235948,0.0016919190832102387,-0.013439478770601372,0.003954090716745076,0.00266574090346694,0.0009011994116008283,0.004004350863397121,-0.6734135940670968,-0.1684313309378922,-9.784340663552284
12.0,1.2000000476837158,310.0,23.165441513061523,0.007951773703098297,-79.78277779885076,40.459012662383216,271.5716716928482,0.004831376951187849,0.03387501463294028,-0.9957305192947388,0.08573155850172043,0.000212134968584118,-0.015536754593304529,0.004064574756153682,-0.003485543420538307,-0.00010613256017677486,-0.009157422930002213,-0.6769531329721212,-0.14721904867328706,-9.780828241109848
12.2,1.100000023841858,310.0,23.16794586181641,0.07156596332788467,-79.78277772505832,40.45901259602896,271.58443733882905,0.004859799519181252,0.03386802598834038,-0.995728075504303,0.0857619047164917,0.0029178964524204237,-0.014620180840903413,0.0012587886181728875,-0.008320405147969723,-0.0048020011745393285,-0.008263892494142056,-0.6777720355242491,-0.15175890913233162,-9.78116504073143
12.3,1.100000023841858,311.0,23.174205780029297,0.015903547406196594,-79.78277763426345,40.459012523862036,271.5988899154663,0.004886760842055082,0.033900145441293716,-0.9957209825515748,0.08582897484302521,0.002678782300472591,-0.01265700617573126,0.002198782463408745,-0.007794396486133338,-0.0033465432934463024,-0.007382779382169247,-0.6724043646454811,-0.16554415857419372,-9.78551595389843
12.5,1.2000000476837158,312.0,23.15417289733887,-0.007951773703098297,-79.78277764020078,40.45901253555929,271.59918615055085,0.004896691069006921,0.033885754644870765,-0.9957183003425598,0.08586584031581879,0.0025882001793282572,-0.01492570539339394,0.0020073023847862093,0.005694246385246515,0.002572034252807498,0.0038884587120264773,-0.6746534230560065,-0.15946135494858027,-9.783274131417276
12.6,1.100000023841858,311.0,23.16669464111328,0.015903547406196594,-79.78277764577058,40.45901254804882,271.5995013399124,0.004906032234430313,0.033904384821653366,-0.9957146048545836,0.08590055257081985,0.0015292570806291685,-0.016309840481943626,0.002239434514479435,9.96821399894543e-05,-0.0006513836560770869,0.001713230973109603,-0.6763692153990271,-0.1679129569977522,-9.783195194005968
12.8,1.100000023841858,310.0,23.17170333862305,0.02385532110929489,-79.7827775777953,40.45901248348576,271.6122833175659,0.004931626841425896,0.03390957787632942,-0.9957121014595032,0.0859258621931076,0.0045456431121081295,-0.017746542888401485,-0.00030692111653935383,0.0076531623490154735,0.003525646170601249,0.005432216450572014,-0.6730322094261647,-0.16785698818042874,-9.784716639518738
12.9,1.100000023841858,305.0,23.165441513061523,0.015903547406196594,-79.78277748272295,40.45901241416424,271.62784275245673,0.004939249716699122,0.033921565860509865,-0.9957086443901062,0.08596117049455643,0.003621634243811426,-0.017522806955561618,0.0011861980274150018,0.0032442000228911643,0.0054792268201708785,0.004177294671535492,-0.6778786741197109,-0.1461701130028814,-9.779821935296061
13.1,1.100000023841858,306.0,23.162939071655273,0.007951773703098297,-79.78277748996662,40.45901242923187,271.62808629703517,0.004926075227558614,0.03392670676112175,-0.9957067966461182,0.0859813317656517,0.001975464608133287,-0.019023538421416176,0.0013217119109731185,-0.005839397199451922,-0.004085310734808445,-0.0068501620553433895,-0.6789365816116333,-0.15487817941233514,-9.780044129490852
13.2,1.0,307.0,23.162939071655273,0.0,-79.7827774085152,40.4590123486978,271.64308079910285,0.004936219658702612,0.033915016800165176,-0.9957008957862854,0.0860530436038971,0.0023423557945165146,-0.016036126516174126,0.0018768842136089945,-0.004411269910633564,-0.003575831651687622,0.0009213595185428858,-0.6736222665756941,-0.16336078997701406,-9.783810321092606
13.4,1.0,307.0,23.1641902923584,0.03180709481239319,-79.78277731881799,40.45901225779926,271.6579074544907,0.004953882656991482,0.03393920883536339,-0.9956998229026794,0.08605533093214035,0.004448950772083104,-0.01113113538638471,0.0019244730939426368,0.004444776102900505,0.0017180658178403974,0.003726779017597437,-0.6749840100109578,-0.1592723254300654,-9.782073113322259
13.51,0.8999999761581421,309.0,23.159181594848643,0.015903547406196594,-79.78277732577007,40.45901226756629,271.65817889404303,0.004955447744578122,0.03394070640206337,-0.9956972002983092,0.08608463406562805,0.003588356037041277,-0.012741258184148035,0.002058938641812034,-0.002877439372241497,-0.0018215222517028449,0.00238525471650064,-0.6755965058505535,-0.16853179341182115,-9.783326756358148
13.7,0.8999999761581421,310.0,23.165441513061523,0.0,-79.78277719785305,40.45901220457543,271.6754270477295,0.004943782929331064,0.033942822366952896,-0.995695412158966,0.08610513806343079,-0.004222292956996788,-0.013493950903616178,0.005835920307373844,0.006825607270002365,0.0044632116332650185,0.0010200345423072577,-0.6712413534522057,-0.16448849860578774,-9.783340204954149
13.8,1.0,309.0,23.16168594360352,0.007951773703098297,-79.78277709280272,40.45901212883632,271.69468340110785,0.004956876859068871,0.03394858911633492,-0.9956909418106079,0.08615364879369736,-0.004823425603348817,-0.010673835582474173,0.012398207380386836,0.004219516646116972,0.002426785184070468,0.002737311646342277,-0.6768845743685961,-0.15966942446306348,-9.781078501939774
14.0,1.100000023841858,303.0,23.159181594848643,-0.03180709481239319,-79.78277708890822,40.45901213901559,271.6960198564529,0.004946356639266014,0.03394167125225067,-0.995688796043396,0.08618275076150894,-0.005538369206944764,-0.012331922007234477,0.012663083493488063,0.0017161489231511948,0.0020099345128983264,0.002457277383655309,-0.6728737498819828,-0.1693595033325255,-9.784193898439408
14.11,1.100000023841858,299.0,23.16168594360352,0.007951773703098297,-79.78277708488511,40.45901215031779,271.69737705421454,0.00495980866253376,0.033940836787223816,-0.9956878423690796,0.08619271963834763,-0.006872835742049016,-0.01406084122711581,0.012692200008958892,-0.006561406422406435,-0.004236019216477871,-0.007464389316737652,-0.678280231654644,-0.15178710367530585,-9.780411919355393
14.31,1.100000023841858,300.0,23.16669464111328,0.015903547406196594,-79.78277701340676,40.45901205985725,271.71440693569184,0.004975093528628349,0.03393632546067238,-0.9956822395324708,0.08625871688127518,-0.002243986787116634,-0.009542872916271984,0.012742160750942451,-0.0019398151198402047,-0.0038820190820842977,-0.00023128480825107545,-0.6770976322889328,-0.16456811210140587,-9.781612352728844
14.41,1.2000000476837158,293.0,23.16168594360352,0.0,-79.7827769164279,40.45901199310578,271.73309239578253,0.004949016962200403,0.033946670591831214,-0.9956788420677184,0.08629477769136429,-0.0028683604760992385,-0.00977096647453228,0.015877116864309995,0.0046142712235450745,0.0032025831751525398,0.003373537911102176,-0.6774690035730601,-0.1522919193841517,-9.7800803822279
14.6,1.2999999523162842,294.0,23.16043472290039,0.0,-79.78277691490581,40.4590120013366,271.7347566766739,0.0049642659723758715,0.03394470363855362,-0.9956780076026917,0.08630524575710298,-0.004270081387178585,-0.011258069296442932,0.016009376868966353,-0.006038045510649681,-0.002617181744426489,-0.011103515513241293,-0.6791921780258418,-0.1524294842686504,-9.779051856994627
14.71,1.7999999523162842,297.0,23.159181594848643,-0.015903547406196594,-79.78277684626646,40.45901193310794,271.75143036079413,0.004937866237014532,0.03393371775746345,-0.995672643184662,0.08637287467718124,-0.000566463680488209,-0.010836535168667928,0.014484912679962282,-4.580321547109634e-05,-0.003178659826517105,0.003377729095518589,-0.6737311709672213,-0.16122319411486388,-9.78247774064541
14.91,1.8999999761581416,299.0,23.159181594848643,-0.02385532110929489,-79.78277674865025,40.459011843523406,271.76683565807343,0.004942064173519611,0.03395557031035423,-0.9956702589988708,0.08639076352119446,-0.0013136719141183726,-0.0048383805977462,0.01433130044976755,0.00219239154830575,-0.0008487467421218753,-0.001805990352295339,-0.6763191486150026,-0.1512377760373056,-9.78096097290516
15.0,2.0,303.0,23.15417289733887,-0.015903547406196594,-79.78277674803255,40.45901184795068,271.7683111114502,0.004931430798023939,0.033947475254535675,-0.9956671595573424,0.08643001317977905,-0.001623536972275899,-0.006759577395613682,0.014400700580583941,0.0009666488040238619,0.003776862984523177,0.005342422053217888,-0.6739256639778615,-0.16684342816472053,-9.7837430781126
15.2,2.0999999046325684,300.0,23.159181594848643,0.0,-79.78277668902685,40.45901182654541,271.7849987430573,0.004955328069627285,0.033913176506757736,-0.995665967464447,0.08645668625831604,0.0010917172525341892,-0.0170012813078996,0.013418487896708924,0.002235452178865671,0.002338894410058856,0.0041043045930564395,-0.6724048762768507,-0.16880730690434576,-9.783575263023376
15.3,2.299999952316284,301.0,23.169198989868164,0.03180709481239319,-79.7827765952665,40.45901177402798,271.80126914215094,0.004945737309753896,0.033894460648298264,-0.9956616163253784,0.08651454001665115,-0.003519796338011336,-0.014377279448649218,0.013442021962714431,0.006648813374340534,0.004191063810139895,0.003818444442003965,-0.6778519961982966,-0.15319262813776732,-9.779757031202315
15.5,2.200000047683716,298.0,23.16168594360352,-0.007951773703098297,-79.78277659338671,40.45901178723785,271.80273338985444,0.004939065780490637,0.03387521579861641,-0.9956595301628112,0.08654586970806122,-0.005171296774264129,-0.015969476884731746,0.013747743818395995,-0.007282047998160124,-0.002049998380243779,-0.009109847247600555,-0.6793612356483937,-0.15617845399305225,-9.780421859622004
15.6,2.200000047683716,304.0,23.159181594848643,0.015903547406196594,-79.78277659102766,40.4590118014225,271.80421790313716,0.004939601290971041,0.03387076407670975,-0.9956589341163636,0.08655508607625961,-0.0045850958671891035,-0.01814199668119521,0.013524506709447829,0.007270225789397955,0.0015594903379678724,0.004486636258661747,-0.6749528735876084,-0.16603649413213134,-9.783879318237307
15.8,2.200000047683716,306.0,23.16669464111328,0.007951773703098297,-79.78277653732331,40.459011760619504,271.8199505491257,0.004928373731672764,0.033876560628414154,-0.995655119419098,0.08659698069095613,-0.0013045777291634975,-0.019237289828360333,0.013037473695981476,0.0066660367883741856,0.0004875080776400863,0.005071625579148531,-0.6720352591574192,-0.16480183627456427,-9.782719230651855
15.9,2.4000000953674316,310.0,23.1641902923584,0.015903547406196594,-79.7827764534278,40.45901169194961,271.83575519752503,0.004922190681099893,0.03388426825404167,-0.995650589466095,0.08664601296186447,-0.002701597673041828,-0.014552120726883569,0.012824772859568064,0.007598296739161014,0.002516573294997216,0.0008465750142931937,-0.6773076935112476,-0.1577723318897188,-9.780532956719401
16.1,2.299999952316284,313.0,23.16669464111328,0.015903547406196594,-79.78277645252831,40.45901170474618,271.83715352249146,0.00493397144600749,0.03388674929738045,-0.9956477284431458,0.08667731285095215,-0.004471469402711628,-0.01610181174592459,0.013085117238854057,-0.0013130620354786515,-0.0029933485202491283,-0.005024432670325041,-0.6768625011295081,-0.16061183117330075,-9.781276137828828
16.2,2.0,318.0,23.16794586181641,0.02385532110929489,-79.78277640569944,40.45901162174243,271.8517945690155,0.004920721985399723,0.03389997407793999,-0.9956430196762084,0.08672797679901123,0.00011057853138051709,-0.010067277485448656,0.013036361382573532,-0.007289797998964786,-0.002680590841919184,-0.006955127231776714,-0.6752230149507523,-0.1635315652191639,-9.785593721866608
16.4,1.8999999761581416,315.0,23.165441513061523,0.02385532110929489,-79.78277634636065,40.459011585256135,271.8641408367157,0.004943367559462786,0.033898528665304184,-0.995641589164734,0.08674289286136627,0.001630025491337071,-0.01502150984486748,0.009476772515882251,0.0029929003212600946,0.0013695306843146682,0.0057524750009179115,-0.6755037543922663,-0.16146466584876182,-9.783736646175383
16.5,1.7999999523162842,314.0,23.15041732788086,0.2942156493663788,-79.78277635064445,40.459011598560465,271.86520561409003,0.004937801975756885,0.033886946737766266,-0.9956392049789428,0.08677511662244798,0.0001982025350522985,-0.016662028098002806,0.009751659536927665,-0.0052038352005183705,-0.0005417625652626157,-0.004588579293340445,-0.6767214370518924,-0.1612485929578543,-9.781575515270234
16.7,1.7999999523162842,314.0,23.152921676635746,0.3180709481239319,-79.78277628094328,40.459011567782156,271.87832459640504,0.004972004797309637,0.033896155655384064,-0.9956358671188354,0.08680805563926698,-0.0012730462932314796,-0.017559555408641712,0.006841923947519647,-0.00332160503603518,-0.0050299521535635,-0.0016374008264392614,-0.6894533836841583,-0.15059581571258604,-9.777708166837693
16.8,1.7000000476837158,314.0,23.15667724609375,0.3180709481239319,-79.78277621180148,40.459011516993115,271.8914905471802,0.004946593660861254,0.03392694145441055,-0.9956327676773072,0.08683270215988159,-0.0031628838132992327,-0.013284429932608794,0.005256786064567897,-0.004910707008093596,-0.004410164430737495,-0.005810391157865524,-0.6754020128399134,-0.1476070845220238,-9.786790646910667
17.0,1.7000000476837158,312.0,23.15041732788086,0.3021674156188965,-79.7827762110538,40.45901152968877,271.89217421245576,0.004981803242117167,0.033926744014024734,-0.9956260323524476,0.08690771460533142,-0.00330382160760222,-0.01565163268797583,0.005518467020432812,0.0006445172475650908,0.0007807054789736867,0.0009971865219995384,-0.6745323856920005,-0.15392784241586924,-9.775510783195495
17.1,1.600000023841858,312.0,23.152921676635746,0.3101191818714142,-79.7827762103117,40.45901154347299,271.8928517980576,0.004955444950610399,0.03394218534231186,-0.9956253170967102,0.08691234141588211,-0.00390794624299321,-0.016603018403693427,0.006845769157291376,-0.00016024839715100825,-0.00048232518020085996,-0.0018727745627984407,-0.6727456958591939,-0.16043524526059627,-9.793016177415847
17.3,1.600000023841858,312.0,23.137897491455078,0.2862638533115387,-79.78277618185415,40.459011531906704,271.9054393453598,0.004973112605512142,0.03391807153820992,-0.9956225156784058,0.08695250749588013,-0.0007897112712506467,-0.021764493354701164,0.0045125878387201855,-0.0005721210618503393,6.176414171932264e-05,0.0018679422792047267,-0.6691008339822293,-0.17187217980623246,-9.774434895515443
17.4,1.5,311.0,23.13038444519043,0.3101191818714142,-79.78277614402508,40.459011476701114,271.91751357746125,0.0049879057332873344,0.03397071361541748,-0.9956148862838744,0.08701794594526291,0.0031223104357707672,-0.01708102664864837,0.003284995603771105,0.005252551753073932,0.009443609043955805,0.003981359302997589,-0.6718174503743649,-0.15077286757528782,-9.784702606201172
17.6,1.5,312.0,23.14666175842285,0.4612028896808624,-79.78277615057377,40.45901149064101,271.91795047950745,0.005008792039006949,0.03396228700876236,-0.9956161379814148,0.08700607717037201,0.0019344097992940333,-0.017004295761075483,0.0043314354951857975,-0.0031228235457092524,-0.007868501357734203,-0.007024515885859728,-0.6742418521642686,-0.15107826582156125,-9.788258882761005
17.7,1.5,314.0,22.30528259277344,13.581629753112793,-79.78277610459027,40.45901144328835,271.9289728088379,0.0052777957171201715,0.03425908088684082,-0.9956146478652954,0.08689108490943909,0.00599352411504444,-0.015492785548280057,0.0026921665784417443,0.018233340233564373,0.018140297383069992,-0.01173706352710724,-0.6777694042772056,-0.15219895779155196,-9.795090769529343
17.9,1.399999976158142,311.0,23.14415740966797,0.3101191818714142,-79.7827760378033,40.459011393698454,271.94154724311835,0.0051579466089606285,0.03422848880290985,-0.9956082701683044,0.08698335289955139,0.005042763701042433,-0.02235824791325457,-0.002797105019483964,0.04861924797296524,0.09607405960559844,0.04622316360473633,-0.6060076960176229,-0.2565550834871829,-9.838525056838991
18.0,1.5,306.0,23.147912979125977,0.2465049922466278,-79.78277604247009,40.45901140715954,271.94175788593293,0.005194744095206261,0.034164950251579285,-0.9956082105636596,0.08700637519359589,0.005966213979653684,-0.016687603716044285,-7.143226437438339e-05,0.01769358105957508,-0.02637207880616188,0.0001299806754104793,-0.6806654570996762,-0.15405671870335938,-9.778871178030967
18.2,1.5,308.0,23.11410903930664,0.7633702754974365,-79.78277597308305,40.45901136618154,271.9545344991684,0.005392566323280335,0.034371569752693176,-0.9956041574478148,0.08696000277996062,0.003970517788504472,-0.01281749575008778,0.002652551791290325,-0.0021087045315653086,0.02826395072042942,0.006773508153855801,-0.6768663018196821,-0.2104033757932484,-9.783792779445651
18.3,1.5,307.0,23.14540863037109,0.326022744178772,-79.78277594140913,40.459011323445104,271.96506663990016,0.005195010919123888,0.0342082716524601,-0.9956062436103821,0.08701179921627045,0.008570145569885194,-0.014523656945324457,-0.0034051183462263557,0.0040564960800111285,-0.009717332199215887,-0.0042759827338159076,-0.6488683714717627,-0.24000908944755794,-9.835642379522325
18.5,1.5,308.0,23.10659599304199,1.0893930196762085,-79.78277594851718,40.4590113394816,271.9651486558914,0.005135952495038509,0.03404432162642479,-0.9956032037734984,0.08711445331573486,-0.0011396689432557415,-0.02274413344439975,0.0006037801341238103,0.003709177952259779,0.009867126122117044,7.521254883613437e-05,-0.6940462253987789,-0.15439837882295251,-9.792571204304695
18.6,1.600000023841858,308.0,23.07028579711914,2.3298697471618652,-79.78277595410806,40.459011355378536,271.965219704628,0.005078318528831005,0.03407824039459228,-0.9955952167510986,0.08719609677791595,0.01025492461790092,-0.017659379737754027,-0.0005740963361287314,0.03991231694817543,-0.010687888599932194,-0.007871058769524097,-0.6832750694453716,-0.16454401060938836,-9.79871136546135
18.8,1.7999999523162842,305.0,22.9638614654541,5.248170852661133,-79.78277589574327,40.45901131264961,271.9741846008301,0.00478246808052063,0.033643849194049835,-0.9956167340278624,0.08713594079017639,-0.0005858876952606923,-0.016582427368117537,-0.0050276421180044115,-0.010671603493392471,-0.02579697407782077,-0.003886624239385128,-0.6497002840787173,-0.0566344086220488,-9.757880843281749
18.91,1.7999999523162842,305.0,22.92254447937012,5.8445539474487305,-79.78277586486553,40.45901127212573,271.9860666675568,0.005019094794988632,0.033819884061813354,-0.9956064820289612,0.0871710255742073,0.0015104425323850374,-0.020797596035536936,-0.00506960051467535,0.005843082908540964,-0.00834560114890337,-0.014084100723266603,-0.6557753949612379,-0.1262938738334924,-9.753048119544983
19.1,1.7999999523162842,306.0,22.826135635375977,8.309603691101074,-79.78277587426587,40.45901128937425,271.98568257522584,0.0048443092964589604,0.03358515724539757,-0.9956198334693908,0.08711980283260345,-0.0007126330306577889,-0.02124575628457472,-0.005322059426451667,-0.03305536136031152,-0.03262035548686981,-0.01892700046300888,-0.6789365085214377,-0.05471196745522322,-9.764316873550417
19.2,1.8999999761581416,308.0,22.758525848388672,9.39104461669922,-79.78277585202603,40.45901124891157,271.99652466011054,0.005419451743364334,0.03442210704088211,-0.9955942630767822,0.08705165237188339,0.011726817070625685,-0.015291456644472044,-0.005157429440433823,-0.002336609410122037,-0.030249692499637607,0.04186849668622017,-0.6342727710306645,-0.14595608663745224,-9.810934385061264
19.4,1.8999999761581416,307.0,22.64333724975586,12.539947509765625,-79.78277579767239,40.45901115571886,272.0079018754959,0.005541391205042601,0.034366171807050705,-0.9955892562866212,0.08712231367826463,0.007658319241103077,-0.016483049623084074,-0.008711316907082677,0.013512802310287952,-0.022077716886997226,-0.02405736409127712,-0.6664804773777724,-0.1626113596558571,-9.730305958986284
19.5,2.0,312.0,22.57071876525879,14.03488063812256,-79.78277581177676,40.45901116735172,272.00730833244324,0.00548899220302701,0.03439280018210411,-0.9955883622169496,0.08712536096572876,0.011531318334644049,-0.010647751559957928,-0.0037263346736573603,0.009479913860559464,-0.051120474934577935,-0.0214417576789856,-0.6937445821613074,-0.036023197285830984,-9.81284291625023
19.7,2.200000047683716,317.0,22.431739807128906,17.072458267211914,-79.78277575239862,40.459011146876136,272.018704621315,0.0062236543744802475,0.034441575407981866,-0.9955822825431824,0.0871271938085556,0.007367901549767495,-0.02423395804469904,-0.002095710455412889,-0.006249133497476578,0.06428501754999161,0.015768555924296386,-0.6351008829474449,-0.2600036433711648,-9.799676740765573
19.8,2.200000047683716,317.0,22.352861404418945,18.527633666992188,-79.7827757290267,40.459011085565365,272.0311834497452,0.006329044699668884,0.032623305916786194,-0.9951213598251344,0.09289364516735077,0.019815948524036186,0.0005596999200321402,-0.0031418360932268805,0.007506721653044224,-0.029062647372484207,-0.1140870600938797,-0.5798660739138722,-0.06823253902606666,-9.74098239004612
20.0,2.200000047683716,317.0,22.1988582611084,21.962799072265625,-79.78277575423485,40.45901108208817,272.0321039838791,0.007178701926022769,0.0333237387239933,-0.9947956800460817,0.09601851552724837,0.021162217297686504,0.007221650680195038,0.022673423819150426,0.035114068537950516,-0.027289602905511856,-0.1269763559103012,-0.5771143011376262,-0.21080783866345884,-9.932262940406801
20.11,2.200000047683716,317.0,22.123735427856445,23.91893577575684,-79.78277577530535,40.45901106609677,272.0352508707046,0.002840237459167838,0.029149390757083893,-0.9939798712730408,0.10557624697685243,0.008702078629421746,0.023784891092131683,0.04014311262503325,-0.18594691157341006,0.0839257463812828,-0.2935153543949127,-0.3394478986412287,-0.17173988655209546,-9.945862394571304
20.3,2.200000047683716,319.0,21.95721244812012,27.314342498779297,-79.78277556985601,40.459010805444095,272.0572755022049,-0.009333474561572077,0.01939755491912365,-0.9916548728942872,0.1271117627620697,-0.0028639990985179268,0.14335693425074975,0.15954930869118114,-0.1824360936880112,-0.0815415233373642,-0.034552257508039474,0.2778723689541221,-0.11619741347618402,-10.537645057439805
20.4,2.0999999046325684,318.0,22.258956909179688,18.09028625488281,-79.78277559100312,40.45901053139903,272.0930562896729,-0.015519998967647552,0.012955374084413052,-0.9912832379341124,0.1301875114440918,-0.02311873122855095,0.21599676782787045,0.3131881177460489,-0.007094451226294041,0.25067389011383057,-0.12044555693864822,-0.02217116167768836,-0.027643378945067527,-10.885961354970933
20.6,2.0999999046325684,315.0,22.31780433654785,19.712448120117188,-79.78277548307442,40.45901033803352,272.12217792701716,-0.008074770681560041,0.0010940568754449489,-0.991331934928894,0.13112841546535492,-0.034072572532776284,0.2586708867572997,0.2821935418695141,0.11809255927801132,0.3067963719367981,-0.01918829046189785,0.268764818944037,0.07306337155401707,-9.781416471004489
20.7,2.299999952316284,315.0,22.197607040405273,21.01653861999512,-79.7827749565817,40.459009911772704,272.154124824524,1.0317133273929358e-05,-0.007000576704740524,-0.991314709186554,0.13132525980472565,-0.05996645116119815,0.27894452428631,0.16140784354370172,0.11571146547794342,0.18299660086631767,-0.04523338004946709,0.2076501594856381,0.17408052697777748,-9.238844559788703
20.9,2.200000047683716,314.0,22.064889907836914,24.30857276916504,-79.78277464578548,40.459009514796904,272.1985276622773,0.009668891318142414,-0.02475530095398426,-0.9910892248153688,0.13052184879779816,-0.04985465953485043,0.2506593584378814,0.0062577868539376285,0.06784617155790329,0.16718174517154696,-0.04371503740549088,0.25910900110378865,0.005764788184314967,-9.085220078229904
21.0,2.0999999046325684,326.0,22.022319793701172,25.75579643249512,-79.78277451145611,40.45900932003365,272.1985884590149,0.010347304865717888,-0.030160136520862583,-0.9910224676132202,0.12983806431293488,-0.04715337487849056,0.2335042107604913,-0.024527479711444592,0.005898864474147558,0.02946164645254612,-0.01912420429289341,0.3800823563709855,-0.04070727383717895,-9.404259366989137
21.2,2.0,328.0,21.95345687866211,26.550973892211914,-79.7827741064828,40.459008642584436,272.24283417892457,0.00477403635159135,-0.02303408645093441,-0.9914401173591614,0.12842603027820587,-0.061157071303627436,0.20416711792031,0.06113422020497504,-0.13958513736724856,-0.11343732476234435,-0.0767410397529602,0.234355142544955,0.19598472671583286,-10.18985968708992
21.3,1.8999999761581416,328.0,22.034839630126953,24.02230834960937,-79.78277399524708,40.45900849068752,272.25403389167786,0.0042427279986441135,-0.01988284662365913,-0.9915525317192078,0.12810254096984866,-0.03916884634975372,0.1802353497222081,0.1458739419534191,0.016765264794230458,0.06869769841432571,0.005787940230220556,0.1760393259488046,-0.007213755631819369,-10.493574593067171
21.5,1.8999999761581416,328.0,22.06238555908203,23.87917709350586,-79.78277362222528,40.459008035498094,272.3172443790436,0.0050041298381984225,-0.016499096527695656,-0.9913470149040222,0.13013039529323578,-0.04518911983335803,0.18375313833992532,0.2216617437660783,0.034408289939165115,-0.018122682347893715,0.03959769383072853,0.2086212175525725,-0.192106780204922,-10.023015235662461
21.61,1.7999999523162842,326.0,21.952205657958984,25.22302627563477,-79.78277351397472,40.45900789308265,272.33954486083985,0.005709171760827303,-0.0155726233497262,-0.991323947906494,0.1303911656141281,-0.04027136857665035,0.17470324418332858,0.21198614194474746,0.042716942727565765,0.06835147738456726,0.02695140801370144,0.2288791337236762,-0.06952691614162178,-9.826983822584152
21.8,1.7999999523162842,325.0,22.05111694335937,23.1953239440918,-79.7827734119953,40.45900755781377,272.37900075149537,0.002397030359134078,-0.01473803259432316,-0.9914740324020386,0.1294465959072113,-0.04017824617580964,0.1808568648286596,0.21812797648977367,-0.08391367644071579,0.028516670688986775,-0.11126726120710373,0.20536758922040466,0.1749423334747553,-9.942100296020508
21.9,1.7999999523162842,327.0,22.033588409423828,23.338457107543945,-79.78277334022741,40.459007331922216,272.4044433517456,0.0011878118384629488,-0.015699053183197975,-0.9915239214897156,0.12896697223186493,-0.032387438595797194,0.17574706015226446,0.2041633755373532,-0.10233567655086516,-0.006714689545333386,-0.04115180298686028,0.24500005345791576,0.1896959549188614,-9.861476547718047
22.1,1.7000000476837158,328.0,22.01605987548828,25.342304229736328,-79.78277318627586,40.45900703771936,272.44414743614203,0.00031808996573090564,-0.015076868236064913,-0.9915837049484252,0.12858617305755615,-0.02552904618158957,0.18340255551698206,0.1751056583818915,-0.03613230958580972,0.010382359847426414,-0.037011101841926575,0.296513529997319,-0.029385561416856942,-9.635103932619096
22.2,1.7000000476837158,329.0,21.994773864746094,24.18929672241211,-79.78277294544361,40.45900676591263,272.4831078929901,-0.0010060943895950911,-0.015877464786171913,-0.9915663599967957,0.12862037122249606,-0.02653434407046528,0.19796033163574814,0.1652098002742176,0.057150844484567635,0.029937028884887695,-0.01872741617262364,0.3448585465550423,-0.016148630054667594,-9.700652389526367
22.4,1.7000000476837158,330.0,22.017311096191406,23.903032302856445,-79.78277274469339,40.459006434712464,272.54008707237244,0.0008552618091925979,-0.02018856629729271,-0.9914431571960448,0.12896616756916046,-0.024306171786980083,0.18588083843388106,0.18493478099202207,0.08239994943141937,0.0020170921925455327,0.0745735913515091,0.2888097502849996,-0.06666445740032942,-9.788510313034056
22.5,1.7000000476837158,332.0,21.96096992492676,24.491464614868164,-79.78277266089907,40.459006289348004,272.55910715293885,0.004055515397340059,-0.02156516723334789,-0.9913734197616576,0.12921792268753052,-0.01667332904012776,0.1780840626327561,0.1791510466075907,0.13743126392364502,-0.019319750368595123,0.08155279606580734,0.3078345252200961,-0.06007054774090648,-9.773702824115754
22.71,1.7000000476837158,332.0,21.92716407775879,25.342304229736328,-79.7827723775829,40.45900594931905,272.6161111278534,0.006139828357845546,-0.028088394552469254,-0.9911781549453736,0.12938064336776733,-0.02159908836234489,0.15729432236215773,0.18142028653249392,0.01836109533905983,0.08202455937862396,0.01647746004164219,0.3193952014669776,-0.012580129159614444,-9.661109424233436
22.8,1.7000000476837158,336.0,21.98976707458496,23.71219062805176,-79.78277230675526,40.4590058365633,272.63456114959723,0.004501384682953358,-0.031987287104129784,-0.9911008477211,0.12913474440574646,-0.02648604698031656,0.13556690833990007,0.17651849308992373,-0.09525270760059357,0.0530787892639637,-0.06464676558971405,0.3478566332906485,0.1791429001092911,-9.733696759343148
23.0,1.7000000476837158,335.0,22.052370071411133,23.736045837402344,-79.78277214285595,40.45900549136742,272.69073399734503,0.003501281375065446,-0.035591747611761086,-0.9909759163856506,0.1291809380054474,-0.009826424701762005,0.09544061940021166,0.1067763581840694,0.014497719705104828,0.03693848103284837,0.028814665973186493,0.3117951367422939,-0.0499212066270411,-8.980354358553887
23.1,1.7000000476837158,336.0,21.80821990966797,28.41168785095215,-79.78277209380434,40.45900541433147,272.69432768058783,0.0021196145098656416,-0.032357484102249146,-0.9910586476325988,0.12942726910114288,-0.01364702344088941,0.07684806836942525,-0.032846445267772466,-0.04150776937603951,-0.14510436356067655,-0.03685962036252022,0.4067052408680321,0.017174285355722532,-8.691664457917215
23.3,1.7000000476837158,337.0,21.71932411193848,30.24854850769043,-79.78277185736694,40.45900513533097,272.73395523262025,-1.4095312508288773e-05,-0.015722623094916344,-0.9914707541465759,0.1293778270483017,-0.017753257312839957,0.0548851734999631,0.06681646450357219,-0.08992262184619904,-0.08030229806900024,-0.058897007256746285,0.22005383977666496,0.060262048621661964,-10.279642513990405
23.4,1.7000000476837158,337.0,21.684267044067386,32.08540725708008,-79.78277159350219,40.45900487969707,272.79201134872443,-0.002690252149477601,-0.013543109409511093,-0.9915688037872314,0.12884360551834104,-0.030089966289954667,0.0765819623572211,0.2228139668233064,-0.061012309044599526,-0.04754660278558731,0.04929574579000473,0.17049974692985415,0.02299881221260876,-10.805014840364457
23.6,1.7000000476837158,334.0,21.51273536682129,34.44708633422852,-79.78277147717311,40.45900478632832,272.8649245185852,-0.0022923005744814877,-0.01982906274497509,-0.9914507865905762,0.12894544005393982,-0.03809554576393726,0.07272164828226756,0.5201554410102055,-0.02318989671766758,0.07037889957427979,-0.05944072082638741,0.20366182850673795,0.28044529002159835,-11.265393025875092
23.7,1.7000000476837158,332.0,21.491451263427734,35.5523796081543,-79.78277132203958,40.45900475613724,272.9131120128632,0.002469873521476984,-0.02186761423945427,-0.9913216829299928,0.129603311419487,-0.034884324825530805,0.06990717040411333,0.6559026689185758,0.0587785542011261,0.02294793538749218,-0.10546273738145827,0.4054509765654801,0.14295068174600606,-11.541689168214798
23.9,1.7000000476837158,331.0,21.282358169555664,40.021278381347656,-79.78277122568755,40.45900472005994,273.08802279663087,0.005742193665355444,-0.020373430103063583,-0.9912100434303284,0.13059347867965698,-0.03233961352907668,0.06373233105621078,1.0947404225358943,0.06036830320954323,-0.025926439091563225,-0.00646019633859396,0.4291379740834236,0.03445423400960864,-12.201324090957645
24.0,1.7000000476837158,332.0,21.269838333129886,39.5521240234375,-79.78277118867085,40.45900471664395,273.21110591125495,0.0052312258630990965,-0.01802709326148033,-0.9912877678871156,0.13037031888961792,-0.04061268256648681,0.06799191399520235,1.3655257989661425,-0.05887487530708312,-0.06990204751491548,-0.05198539420962334,0.4729489317163825,0.044647812964394684,-12.441792004108427
24.1,1.7000000476837158,332.0,21.26608085632324,39.695255279541016,-79.78277115453528,40.45900471502721,273.3622754497528,0.0020391212310642004,-0.013308219611644743,-0.9913411736488342,0.13061922788619995,-0.03856154703571955,0.07595684783479234,1.6547004167948849,-0.11185454577207564,-0.11609215289354324,0.025349099189043045,0.35946686469018463,-0.12331196743994953,-12.581784871816636
24.3,1.7999999523162842,331.0,21.272340774536133,39.1624870300293,-79.78277116496652,40.459004710205946,273.7459228916169,-0.0006137969903647902,-0.012023407034575941,-0.9913475513458252,0.13071061670780182,-0.011958233641312523,0.058699688997028224,2.1795955099546207,0.04267029091715813,-0.007807632442563772,0.06812290847301483,0.3638288144767284,-0.0903187607601285,-12.44964364528656
24.5,1.8999999761581416,330.0,21.27985382080078,37.30972290039063,-79.78277113517099,40.45900468199768,274.22195538711554,-0.005649716127663851,-0.013050314038991928,-0.9913647770881652,0.1303602159023285,-0.010252797276565077,0.09372212915853814,2.640986470252053,-0.028199687600135807,-0.05446317791938782,0.012695521116256714,0.3749600127339363,-0.019644017913378768,-12.219896017313006
24.6,2.0999999046325684,329.0,21.44512367248535,34.39142227172852,-79.7827710733031,40.45900466895206,274.4977107925415,-0.008836684748530388,-0.011943995021283628,-0.9913255572319032,0.13058756291866302,-0.014772137931431872,0.10069708015518786,2.8626304559536715,-0.06599684059619904,-0.013429534621536732,-0.01354098878800869,0.35931688360869884,0.0161322761233896,-12.020093150138855
24.8,2.200000047683716,329.0,21.5452880859375,32.053600311279304,-79.78277096910445,40.459004671930046,275.0865279121399,-0.01599662005901337,-0.011679602786898613,-0.9910386204719543,0.1320994645357132,-0.004976372558344885,0.10620585553428777,3.1161080998327004,0.04580830782651901,0.0004990092711523175,0.038302019238471985,0.35507100105285644,-0.038077134566847234,-11.092242937088013
24.91,2.4000000953674316,329.0,21.592866897583008,21.771957397460934,-79.78277074338783,40.459004675134565,275.7151556892395,-0.014731705188751219,-0.013445430435240269,-0.9908889532089232,0.13319654762744906,-0.033606461481827284,0.12805304531589445,3.2158049093789547,0.07050184905529022,0.09448844939470293,-0.0002626282803248614,0.4170167691260577,0.05937328554689885,-10.790422528982162
25.1,2.5,331.0,20.887962341308594,32.952152252197266,-79.78277053307633,40.459004659639135,276.0343976898193,-0.014317946508526804,-0.014345998875796797,-0.9908564686775208,0.13338929414749146,-0.08049413869281519,0.14000378531414906,3.1734602328948283,-0.11381079256534575,-0.07367978990077972,-0.024681193754076958,0.2310384556464851,-0.12614364607259632,-9.588136172890664
25.2,2.700000047683716,332.0,21.522750854492188,32.284202575683594,-79.78277040676717,40.45900468439812,276.33430585098273,-0.015899483114480972,-0.01505549717694521,-0.9908636212348938,0.1330784261226654,-0.09653309822489146,0.1429477823611393,3.15088529034706,0.09257905930280684,0.05350242927670479,0.12198090553283693,0.33231133539229635,-0.07608528569340706,-9.839909677505494
25.4,2.799999952316284,333.0,21.696786880493164,28.43554306030273,-79.78276995423765,40.459004717198965,276.94484957885743,-0.018406426534056664,-0.01807091012597084,-0.9908792972564696,0.13226084411144254,-0.11574869184498213,0.14488466251234233,3.239087898429293,0.11077787727117536,0.15166771411895752,-0.002234582789242268,0.2827985750511289,0.1082675201073289,-10.19751603126526
25.51,3.0,336.0,21.709306716918945,31.616252899169922,-79.78276962379114,40.459004730329404,277.2688566131592,-0.01626142859458923,-0.02169337868690491,-0.9909724593162536,0.13129597902297974,-0.16195788752269835,0.15907637950830664,3.249217113347792,-0.08280966430902481,0.0013645978178828955,-0.007027332670986652,0.33390075478702785,0.010424927696585656,-9.973423830270768
25.6,3.0999999046325684,337.0,21.72808837890625,28.196990966796875,-79.78276926284214,40.45900475495849,277.59269770812995,-0.013301278464496136,-0.02449487522244453,-0.9910876750946044,0.13026252388954165,-0.19309942313475054,0.17353602618362346,3.244478868760291,0.11507537215948105,0.1023755893111229,0.03862446546554565,0.3597195374965668,0.2474975454434753,-9.852947798967364
25.8,3.0,341.0,21.74436378479004,26.94856262207031,-79.78276824052223,40.459004905240825,278.5610729141236,-0.006085917819291353,-0.024860749021172523,-0.9912267327308656,0.12967126071453094,-0.2859922064230752,0.1385557733700752,3.1766587140587403,0.012767588719725607,-0.041616950184106834,-0.007703506387770177,0.2994104233570397,0.07104511370882392,-9.680063758492473
26.0,3.0999999046325684,345.0,21.72808837890625,27.3620548248291,-79.78276784016303,40.45900500558327,278.8764539642334,-0.0049163810908794394,-0.024761883541941643,-0.9911791682243348,0.1301027536392212,-0.2916942991890037,0.11836935229020484,3.1387451773779884,0.11431296914815905,0.07566127926111221,0.08701379597187042,0.3157432498410344,-0.12706701278686525,-9.484144611954688
26.1,3.0999999046325684,348.0,21.69803810119629,27.640365600585927,-79.78276744033086,40.45900511895738,279.18805083465577,-0.001839085016399622,-0.023176781833171844,-0.9911875128746032,0.13041026890277865,-0.3288593983425743,0.11124812424009364,3.101983391186504,-0.09514961391687393,-0.10140269994735718,-0.15174303948879242,0.2494064603559673,0.4037815234065056,-9.37228328347206
26.3,3.0999999046325684,348.0,21.650461196899414,29.636260986328125,-79.78276685773682,40.459005582581575,279.72786673736573,0.00807497464120388,-0.018138797953724858,-0.9911776185035706,0.13104504346847534,-0.3368684994505221,0.03717862284471102,2.9929487084434085,0.019331427291035645,0.0036807511933147907,-0.06230813637375832,0.261111069470644,0.06213008327409625,-9.624353826642038
26.4,2.9000000953674316,352.0,21.77316093444824,26.41579246520996,-79.78276593896483,40.45900580155311,280.04420909118653,0.010783478617668152,-0.017316006124019626,-0.9911523461341858,0.13115260004997253,-0.38600609618853743,0.018563611751497986,2.966095642880535,-0.027282051742076874,-0.055156663060188287,-0.09308969229459764,0.3029461067542434,0.14558793132193387,-9.725073870420458
26.6,2.9000000953674316,353.0,21.634183883666992,28.32421875,-79.78276526428009,40.45900612910326,280.6335941238404,0.009913646616041659,-0.01745680719614029,-0.9910369515419006,0.13207168877124786,-0.3673700118169795,0.0057390702155075395,2.9180490567068293,-0.22228792309761047,-0.1219540238380432,-0.12606017291545868,0.17778822815045714,0.26225206224247816,-9.530292592048646
26.71,2.9000000953674316,353.0,21.65797233581543,27.89482307434082,-79.78276425627612,40.459006349976015,281.35218676757813,0.009412047453224659,-0.017644302919507027,-0.990955650806427,0.13269184529781342,-0.3119818059294163,-0.0073439864400717545,2.9050218625013806,-0.04728689044713974,0.04089723527431488,0.006269330158829689,0.3163573536649347,-0.03257416231557727,-9.554043397307396
26.9,2.799999952316284,353.0,21.62166404724121,28.95240974426269,-79.78276359612939,40.459006223020594,281.7720523757934,0.00893914420157671,-0.01885827258229256,-0.9909424185752868,0.13265633583068848,-0.30327149069048703,0.02187679430950657,2.9370121373710765,-0.08504463732242584,-0.07462865859270096,-0.053906410932540894,0.29256112284958363,0.12035860276781025,-9.544810059070588
27.0,2.700000047683716,354.0,21.696786880493164,29.469274520874023,-79.78276334594807,40.45900636469743,282.06552085113526,0.008233729749917984,-0.01976620778441429,-0.9909533858299256,0.1324877291917801,-0.26333211247883354,0.01417646473418209,2.926685245585672,0.10655129700899124,0.11132469773292544,0.06099106371402741,0.3415512152016163,-0.012183167170733214,-9.684843857288364
27.1,2.799999952316284,354.0,21.670494079589844,29.73168182373047,-79.78276311688367,40.45900650934046,282.3575063629151,0.0071819042786955825,-0.02025893144309521,-0.9909496903419496,0.1325024664402008,-0.2642742143766005,0.015168596437007784,2.911562648115332,-0.1739329993724823,-0.08032234758138658,-0.031875405460596085,0.2410071908868849,0.0443102184869349,-9.601075476408004
27.3,2.799999952316284,355.0,21.57533836364746,30.47914886474609,-79.78276239526534,40.45900641490784,283.4062190933228,0.013689869083464146,-0.02049454860389233,-0.9913554787635804,0.12886829674243927,-0.19255603772870192,0.04074087675130875,2.987523652929115,0.04375557601451874,0.03828614577651024,0.08489838987588882,0.2634833214059472,0.10321583641692997,-9.746763532161713
27.5,2.799999952316284,353.0,21.629175186157227,29.2863826751709,-79.78276226390359,40.45900653062228,283.70561846923835,0.012465137057006359,-0.019697928801178932,-0.9915752410888672,0.12741775810718536,-0.20833010162880056,0.03132601299455075,2.993016603919812,-0.15908214449882507,-0.1101887673139572,-0.12741760909557345,0.2897214225679636,0.0970954278856516,-9.823843867778779
27.61,3.0,354.0,21.483938217163086,31.775287628173828,-79.7827621586579,40.459006650268,284.00492819976813,0.009741836227476595,-0.018025953322649,-0.9917035102844238,0.12690319120883942,-0.17133100449921698,0.016572680304391657,2.99315858732986,-0.03588680922985077,0.0019951225258409977,0.04304613545536995,0.24148587685078385,0.11067166677676142,-9.784231905341152
27.8,3.0,353.0,21.58284950256348,29.93842887878418,-79.78276173200553,40.45900668316117,284.6609378738404,0.010905273258686066,-0.018142573535442352,-0.9913524389266968,0.1295083314180374,-0.10582142578247307,0.0042284950530859155,3.04540329277563,-0.04561179503798485,-0.05451425164937973,-0.10090967267751694,0.2400297191552818,0.17167754061520102,-9.79612806558609
27.9,3.0,353.0,21.60163116455078,29.342044830322266,-79.78276141821077,40.45900659105597,284.99921759796143,0.011844129301607607,-0.01952810399234295,-0.9910553693771362,0.1314828097820282,-0.0914143386154062,0.016167431510068178,3.036552710197959,0.12936505675315854,0.1545765995979309,0.062088705599308014,0.3309532464668155,-0.16045618560165167,-9.795258584618573
28.1,3.0,353.0,21.649208068847656,27.855064392089844,-79.78276139876216,40.45900679864585,285.60636290740973,0.007814757525920868,-0.023347070440649983,-0.9906664490699768,0.13406674563884735,-0.06374997868644018,0.008413006356397816,3.0325004665224014,0.007832032628357409,0.06455356627702713,-0.028275391086936,0.3313904354721308,0.12393602980300784,-9.746532567143438
28.2,2.799999952316284,349.0,21.610395431518555,28.83313179016113,-79.78276093503122,40.45900652491535,285.9538618011475,0.00669179018586874,-0.022884313017129898,-0.990513026714325,0.1353350579738617,-0.03306017106074936,0.0662403883318762,3.040747929494864,0.03721474856138229,0.001478997291997075,0.07172980904579163,0.317478557266295,0.09983273793943227,-9.589355317354203
28.4,2.700000047683716,352.0,21.690526962280273,26.9167537689209,-79.78276081049151,40.459006283687245,286.59496745300294,0.0097425552085042,-0.015316404402256012,-0.990351140499115,0.13738712668418884,-0.023164707353517968,0.06333824589664779,3.0285714903701084,-0.044146962463855736,-0.04735806956887245,-0.05701540783047676,0.2825044966489077,0.0647526417206973,-9.664044141769411
28.5,2.5999999046325684,356.0,21.60163116455078,29.16710662841797,-79.78276084643448,40.45900633762175,286.89706286621094,0.008805177174508572,-0.012161653488874435,-0.9903663396835328,0.13765618205070496,-0.03171637400643272,0.03080459175789294,3.0109847576019866,-0.12635831534862518,-0.13829268515110016,-0.09269239753484726,0.20351294377818704,0.06232091263867915,-9.632234119176863
28.6,2.700000047683716,358.0,21.602882385253906,29.69192314147949,-79.78276090608458,40.45900639324708,287.1976629180908,0.006841912865638733,-0.01117998454719782,-0.9905625581741332,0.1364337056875229,0.006857385894801702,0.0037131675455740892,3.0069560373501134,0.07995948195457457,0.08039118349552155,0.09560535848140717,0.22550768399611115,0.13535117433406413,-9.753089050054552
28.8,2.5,9.0,21.730592727661133,26.9167537689209,-79.78276111138143,40.45900630332868,288.15453776550294,0.00194471247959882,-0.011249137111008169,-0.991225004196167,0.13169170916080475,0.09354699039928896,0.013936781269708456,3.0476811837791264,-0.09735126793384552,-0.10536344349384308,-0.06247887387871742,0.2829325128346682,0.07854551995173098,-9.897890667915345
29.0,2.5,12.0,21.61289978027344,28.403736114501953,-79.78276127570099,40.4590063294575,288.45849284362794,-0.001387387397699058,-0.008095143362879753,-0.991309940814972,0.1312907487154007,0.13575617897021836,0.008775133155343366,3.036394490366188,-0.026981668546795845,-0.022088460624217987,0.06180553883314133,0.2265005594864488,0.08852963154204191,-9.697220073938368
29.1,2.4000000953674316,25.0,21.58284950256348,28.841083526611328,-79.78276145634625,40.45900635129432,288.76191958618165,-0.002478646812960505,-0.0068559180945158005,-0.9913458824157716,0.13107341527938846,0.15398495342055668,-0.01650328120160231,3.034058252199222,-0.059979494661092765,-0.03811534121632576,-0.0680360272526741,0.1957276136800647,0.2864834172651172,-9.793119088411332
29.3,2.299999952316284,27.0,21.56782531738281,28.76951789855957,-79.78276199425682,40.45900634136732,289.38278063964844,-0.005997010972350836,-0.010229755192995071,-0.9911679029464722,0.1320817768573761,0.19729803323064232,-0.00572200490911639,3.0679710046164432,-0.17144758999347687,0.0004976408672519028,-0.07707644999027252,0.26210858618840577,0.16437400281429293,-9.96285791158676
29.4,2.299999952316284,32.0,21.649208068847656,28.037954330444336,-79.78276221376841,40.45900623916766,289.6905809326172,-0.008899581618607044,-0.00923513900488615,-0.9910314679145812,0.133012056350708,0.2176386619359446,0.022948432457397985,3.08025488170107,-0.09909671545028688,-0.06849914789199829,-0.12446203827857973,0.2993947637826204,0.3257285400107503,-9.931626763343813
29.6,2.299999952316284,35.0,21.58660697937012,28.87289047241211,-79.78276262829453,40.45900620935125,290.30633029174805,-0.015176367945969103,-0.007878095842897892,-0.9904683828353882,0.13667520880699158,0.24740262194667656,0.009752156840520705,3.0613984986464704,-0.03487690538167953,-0.01908721961081028,-0.06833374500274657,0.20764047503471367,0.1633100288361311,-9.701236526370053
29.7,2.4000000953674316,45.0,21.597875595092773,28.538917541503906,-79.78276289582189,40.459006106572936,290.6100335998535,-0.015421615913510324,-0.009661582298576832,-0.990215003490448,0.138358473777771,0.2597036860746984,0.01834720776409201,3.0460473956538867,-0.02664743363857269,0.0788993313908577,-0.06213360279798508,0.18322674170136447,0.4012829350680113,-9.75618281185627
29.9,2.5999999046325684,44.0,21.55280113220215,29.06373405456543,-79.78276340756018,40.459006008405474,291.2284208221436,-0.013932393863797188,-0.013519723899662495,-0.9900618195533752,0.13928711414337158,0.2696372366297003,0.04432614228229699,3.063913407024596,0.032690949738025665,0.053627081215381615,0.004938981030136347,0.2250079115107656,0.18344124315306545,-9.898004103899005
30.0,2.799999952316284,50.0,21.652965545654297,27.560848236083984,-79.78276359097417,40.45900598599325,291.53664073181164,-0.012942521832883358,-0.012385173700749874,-0.9901951551437378,0.13853786885738373,0.2506084340313988,0.05046262957199185,3.084359243466012,0.016717858612537384,-0.05922304838895798,-0.0066374847665429115,0.2524985593557358,0.09927623832598327,-9.97727012872696
30.2,2.9000000953674316,55.0,21.65171241760254,26.638442993164066,-79.78276402127369,40.459005953669035,292.1423002166748,-0.011048994027078152,-0.0076976106502115735,-0.9905738234519958,0.1363164484500885,0.2278168874595169,0.021966345656778363,3.085708684956254,0.08786816895008087,-0.05747350677847862,0.032371297478675835,0.18082662412896752,0.2055250620469451,-9.9009569478035
30.3,2.9000000953674316,62.0,21.55280113220215,28.26060485839844,-79.782764189135,40.459005948115625,292.45163592529303,-0.012083412148058414,-0.005074576009064914,-0.9907252192497252,0.13524772226810455,0.21537335752538245,0.006072251126746614,3.0869501708492315,0.02090662159025669,0.019927462562918663,0.06091032177209853,0.1036371100321412,0.1163875667564571,-9.827410669326783
30.5,2.9000000953674316,63.0,21.644201278686523,26.511213302612305,-79.78276449026663,40.45900592063415,293.0611482543945,-0.014606357552111147,-0.0066439718939363965,-0.9910366535186768,0.13262353837490082,0.19731006979840332,-0.010318710171680812,3.1007372799754065,-0.0236639566719532,0.04112541675567627,0.0789874941110611,0.07495292213279754,0.2759328657947481,-9.941643043756486
30.6,2.9000000953674316,66.0,21.57158088684082,27.870967864990234,-79.78276461746826,40.45900591653324,293.3717924041748,-0.015254921279847622,-0.006222707685083151,-0.9911447763442992,0.13175998628139496,0.21379939764515046,0.004696400868904071,3.0992503875825883,0.18009339272975922,0.05241846293210983,0.10002686828374864,0.20035108018666506,-0.05271953785791993,-9.856966005563736
30.8,3.0,69.0,21.592866897583008,28.23674964904785,-79.78276490444843,40.459005828231575,293.9791475219726,-0.009597880765795708,-0.00367361051030457,-0.9914734363555908,0.12990295886993408,0.1982699652097078,0.01766654764278225,3.075456691407445,0.24269700050354004,0.07284209132194519,0.07539698481559752,0.1628902352973819,0.017417320534586906,-9.752428899407386
30.91,3.0,70.0,21.54153251647949,29.47722625732422,-79.78276502452584,40.459005813267545,294.27386721801764,-0.007375721819698811,-0.0049321851693093785,-0.9914323091506958,0.13032039999961853,0.13968685307393516,0.01845861625850411,3.059744263427397,-0.13921131193637848,0.02424951083958149,-0.11475756019353868,0.07088108103722335,0.2884480451792479,-9.723129086494446
31.1,3.0,74.0,21.6817626953125,26.20109558105469,-79.7827652130332,40.4590057473062,294.88704547119136,-0.012553305365145206,-0.0072557609528303155,-0.9909932613372804,0.13312457501888275,0.13054199876554712,0.06566759560252096,3.078364744463252,-0.16773433983325958,-0.10282709449529648,-0.12549956142902374,0.23957204662263398,0.28522403664886953,-9.899555954933168
31.2,3.0,73.0,21.5991268157959,27.3063907623291,-79.7827652990102,40.45900572588592,295.18448123168946,-0.017185043543577194,-0.007394485641270877,-0.9907386898994446,0.13448747992515564,0.15643923891632616,0.055490340383683855,3.0707002996361394,-0.0073507861234247684,0.1225702092051506,0.0431259386241436,0.16025270249694587,0.05396035356447101,-9.870026346445083
31.4,3.0,70.0,21.572834014892575,29.342044830322266,-79.78276546896558,40.459005610053396,295.7916475219726,-0.020746469497680664,-0.009916589595377443,-0.9903037548065186,0.13700330257415771,0.1804230574183548,0.06729607600176513,3.082809679515613,0.2445730417966843,0.0906941220164299,0.13607919216156006,0.24604745423421265,0.10729159240610896,-9.899186410903932
31.5,2.9000000953674316,65.0,21.6279239654541,27.52108955383301,-79.78276548477409,40.45900557181293,296.10042247009284,-0.01608053781092167,-0.010694894939661026,-0.9902258515357972,0.13812997937202454,0.14338970690882147,0.0869366909087307,3.0831078805662577,-0.005399581976234913,0.004526068922132254,-0.04941291734576225,0.17949979953467846,0.17016652872785926,-9.789953405857087
31.71,2.9000000953674316,65.0,21.602882385253906,27.71988296508789,-79.78276545857649,40.45900545465353,296.70608004760743,-0.008984084241092205,-0.010894128121435642,-0.990322768688202,0.13806374371051788,0.0783869720273895,0.1090197613227018,3.0456523133026625,0.17934107780456546,0.07781283557415009,0.13590964674949646,0.261718631722033,0.0025836287811398517,-9.644106890559195
31.8,2.799999952316284,63.0,21.521499633789066,29.93842887878418,-79.78276542293571,40.45900541703893,297.01021250915534,-0.007413598243147135,-0.011952795088291168,-0.9903509020805359,0.13786756992340088,0.03262479248106015,0.1068631721779501,3.0292594839971296,-0.1245906427502632,-0.04529685527086258,-0.07974450290203093,0.11103292420506478,0.23861231753602624,-9.565666492581368
32.0,2.799999952316284,64.0,21.57158088684082,28.65024185180664,-79.78276532328088,40.45900528382264,297.61533412170417,-0.004381321370601654,-0.015364788472652437,-0.9903768301010132,0.1374715119600296,0.01878626178134321,0.12809731042153066,3.0060341761780225,-0.04956021532416344,-0.006148442160338163,0.026467399671673768,0.13973253870382907,0.00022738359868526456,-9.595141137242315
32.1,2.799999952316284,61.0,21.490198135375977,30.407583236694336,-79.78276528368937,40.45900525180439,297.9150434417725,-0.005064851604402065,-0.015619569458067415,-0.99047589302063,0.13670416176319122,0.006799471032454606,0.12076446103456424,2.986950249957648,-0.09305892139673233,-0.01257355511188507,-0.0607660710811615,0.16289531506597996,0.2697233420424163,-9.641480321288107
32.3,2.799999952316284,61.0,21.56532096862793,27.83916091918945,-79.78276515579344,40.459005141501656,298.5142064971924,-0.006712296046316625,-0.014838672243058681,-0.9906927943229676,0.13513915240764618,0.03465266440026374,0.1133741878990356,2.9760059287169685,0.01840625144541264,0.06153008714318276,0.07357177138328552,0.17060461308807134,-0.004791455185040832,-9.621309766173363
32.4,2.9000000953674316,66.0,21.48644256591797,30.08156013488769,-79.7827651358234,40.45900504598047,298.80951365661616,-0.007311313878744841,-0.014410319738090038,-0.9907281994819641,0.13489489257335666,0.017678378743679692,0.11397922414144425,2.971630956092322,-0.0801844447851181,-0.0755888968706131,-0.19170591235160828,0.18187395181506874,0.32107773777097465,-9.572231746315957
32.6,3.0,64.0,21.572834014892575,27.46542739868164,-79.78276505703953,40.459005013006774,299.40230235290534,-0.007604127749800681,-0.011412234976887705,-0.990684688091278,0.13548338413238525,0.025290843448864456,0.09444243280138327,2.96879986561288,-0.0026341392658650875,-0.045716769993305206,0.0549079105257988,0.20250042529776693,-0.028420784538611767,-9.855066829919815
32.7,3.0,64.0,21.463905334472656,30.407583236694336,-79.78276504881623,40.45900501405132,299.70127734375,-0.00888532493263483,-0.010861016809940338,-0.9906409382820128,0.13577039539813995,0.01009464522205389,0.0771648877671437,2.9958158175817404,-0.0753442794084549,-0.06789186596870422,-0.09284155815839767,0.1914531894028187,0.2096848078072071,-9.851006523370744
32.9,3.0,65.0,21.42634391784668,30.638185501098643,-79.78276492806843,40.45900497135675,300.2939458770752,-0.008041874505579472,-0.011053807102143764,-0.9905900955200196,0.13617785274982452,0.02676462680842917,0.08193013434575093,3.008896921438064,0.09197699278593063,0.002423598431050777,0.0252237506210804,0.23753984682261944,0.06314532893244178,-9.822016028165818
33.0,3.0,68.0,21.5064754486084,29.75553894042969,-79.78276487129388,40.45900496436696,300.59507235717774,-0.006977343000471592,-0.010068145580589771,-0.9906145334243774,0.13613556325435638,0.004961502920655266,0.08336198983550827,3.0153362852262746,-0.06430160254240036,-0.09744256734848022,0.01829697377979756,0.15670707883313298,0.08177446207031608,-9.841681383848188
33.2,2.9000000953674316,70.0,21.495206832885746,30.391679763793945,-79.78276481096073,40.459004959546775,300.89691409301764,-0.006219781935214996,-0.009902880527079105,-0.9906580448150636,0.13586723804473874,-0.00995072433488612,0.07310517913895456,3.0220145232770927,-0.06288915127515793,-0.00025504257064312696,-0.06769219785928726,0.2325513861514628,0.06623285522684455,-9.911740382909777
33.3,3.0,72.0,21.52901268005371,28.92060089111328,-79.78276474061656,40.459004975018594,301.48631533813483,-0.006177750881761313,-0.0104006240144372,-0.9906004071235656,0.13625209033489227,0.0025052042499897204,0.06819242597922362,3.0384985920625693,0.05042639747262001,0.05575096607208252,0.0928652212023735,0.13588290550746024,-0.06577993355691432,-9.938399008512498
33.5,2.9000000953674316,73.0,21.48268699645996,29.206865310668945,-79.78276460870245,40.45900498807495,302.08147296142585,-0.004409902263432739,-0.013496541418135166,-0.99044007062912,0.13721099495887756,-0.025242663013988267,0.06856216723482925,3.0382391375001925,-0.07542561739683151,-0.03706678748130798,-0.130641371011734,0.18793473701924088,0.3394801314175129,-9.765247750282288
33.6,3.0,77.0,21.493953704833984,29.34999847412109,-79.78276454590558,40.45900500301536,302.38516864013667,-0.004594298545271158,-0.013947662897408009,-0.9903557896614076,0.13776716589927673,-0.012322792465966922,0.07143700919743713,3.0370214034215786,0.07321874052286148,0.06804666668176651,0.10400325059890747,0.1677949894219637,0.1149205277580768,-9.796766581535339
33.8,3.0,79.0,21.546541213989254,28.006147384643555,-79.78276446155608,40.459005055533865,302.97444400024415,-0.00483146868646145,-0.011067553423345087,-0.9902618527412416,0.13869288563728333,-0.015986928657402456,0.05623341040146406,3.0457030553249886,-0.06764025241136551,-0.04189151525497437,0.003205816727131605,0.14588580127805473,0.0795444436557591,-9.887045252323151
33.9,2.9000000953674316,80.0,21.473920822143555,29.930477142333984,-79.78276439364899,40.45900508522576,303.2601800842285,-0.004701120313256979,-0.009916890412569046,-0.9902752637863159,0.1386888325214386,-0.026036868508101718,0.04188581740897247,3.0319991361476166,-0.07125911861658096,-0.027823884040117264,-0.07263987511396408,0.1360857399366796,0.1987093830294908,-9.81052274107933
34.1,2.9000000953674316,82.0,21.441368103027344,29.42951583862305,-79.78276428083073,40.45900514743617,303.8668542785645,-0.00407372461631894,-0.008187218569219112,-0.9904451370239258,0.1376037895679474,-0.008929986228961729,0.02592140568011232,3.042644277266002,0.10255338996648787,0.07820715755224228,0.1004905104637146,0.1464304054621607,0.10155012913048267,-9.869253344535828
34.2,2.799999952316284,84.0,21.487693786621094,29.190961837768555,-79.7827643444695,40.45900516561438,304.15199145507813,-0.0041049476712942115,-0.008782426826655866,-0.9905365109443665,0.13690708577632904,-0.00219531031579525,0.02188831906740106,3.0504145425561777,0.02883782610297203,-0.00024428986944258213,0.06736429035663605,0.15452034808695314,-0.04311903102323413,-9.976669034957887
34.4,2.799999952316284,85.0,21.55530548095703,27.696027755737305,-79.78276432632093,40.45900524126976,304.74314364624024,-0.004213710781186819,-0.011531579308211805,-0.9906551837921144,0.13583683967590332,-0.007557277567517212,0.02714921578175251,3.0422371422293657,-0.010865786112844944,0.04596726596355438,-0.031734202057123184,0.1572824265807867,0.2710612763464451,-9.840289746522904
34.5,3.0,86.0,21.415075302124023,30.39963150024414,-79.78276429690767,40.45900527739751,305.047712890625,-0.0034216241911053658,-0.011684165336191654,-0.9906390905380248,0.13596327602863312,0.010191582384038788,0.03141052961459655,3.044822423415987,0.1115087792277336,0.005547917447984219,0.016879560425877568,0.1803760596178472,0.06682673133909703,-9.799520620107652
34.6,3.0999999046325684,86.0,21.511484146118164,28.284460067749023,-79.78276427295319,40.45900531635725,305.3519769592285,-0.003028690116479993,-0.011242099106311798,-0.9905926585197448,0.13634732365608215,-0.0015351825115900988,0.030904936310034593,3.043424563107255,-0.04565756022930145,-0.03191513568162918,0.07278762012720108,0.12992343245074153,-0.0048385709524154654,-9.794037101268767
34.8,3.0999999046325684,85.0,21.56532096862793,27.86301612854004,-79.7827642621537,40.459005390593425,305.945475189209,-0.005221061874181032,-0.00872072484344244,-0.9904927015304564,0.13718964159488678,0.010295218036429528,0.019624759753524887,3.0302681649016328,0.026752786710858345,-0.023549590259790417,0.05804344266653061,0.12687629305757586,0.04540233219042422,-9.792900987267494
35.0,3.0999999046325684,84.0,21.542783737182614,27.497234344482425,-79.78276429368357,40.45900551341251,306.53650531005866,-0.00584621075540781,-0.008519175462424755,-0.9903576374053956,0.13814865052700046,0.013784314459355029,-0.000533886428666381,3.0116751836717452,-0.09899156540632248,-0.06916705518960953,-0.0951227769255638,0.0989478623494506,0.28234048224985603,-9.741300478577614
35.1,3.0999999046325684,84.0,21.54904556274414,27.71193122863769,-79.78276428811236,40.459005555712025,306.83750399780274,-0.0058084256015717975,-0.008860400877892971,-0.9903975129127502,0.13784295320510864,0.02670045203767129,0.0033759072306670385,3.0062914882128977,0.04595133662223816,0.0664280354976654,0.05766591802239417,0.2049773606657982,0.1883674127049744,-9.740560805797577
35.3,3.0,83.0,21.52525520324707,27.34615135192871,-79.78276427140719,40.45900556869431,307.43020114135743,-0.005051302257925272,-0.009290881454944607,-0.9905391931533812,0.13682198524475098,0.01949197122979451,0.019496799920826192,3.0021650832404605,-0.09597422182559967,-0.01832648739218712,-0.08246121555566788,0.13521404799073936,0.4274452782422304,-9.747120797038079
35.4,3.0999999046325684,83.0,21.46640968322754,29.84300804138184,-79.78276427250063,40.45900559771738,308.02559146118165,-0.004780728369951247,-0.009077658876776695,-0.9906583428382874,0.1359812170267105,0.0278831200724078,0.02893887930345541,3.0162688185984785,-0.02709694392979145,-0.002210077363997698,0.0590326189994812,0.2373432707414032,0.03847630525007844,-9.823815801143649
35.6,3.0999999046325684,80.0,21.44637680053711,29.055782318115234,-79.78276427039386,40.45900562186338,308.32749041748053,-0.004202350974082947,-0.008658838458359241,-0.9906570315361024,0.1360369622707367,0.01475590280436501,0.02179308949750781,3.0198537265036656,-0.09257514774799347,-0.02920666337013245,-0.10379721969366074,0.1284479241259396,0.3106543084233999,-9.807813141345976
35.7,3.2000000476837163,79.0,21.540281295776367,28.1015682220459,-79.78276427305859,40.45900561434755,308.6214052124024,-0.0033051024656742807,-0.009311188012361526,-0.9905919432640076,0.13649186491966248,0.03436004615966659,0.025388180023685047,3.0247305542724514,0.09629867970943452,0.04839165136218071,0.07187376916408539,0.11816372246481475,0.07739259520545602,-9.821975097656253
35.9,3.2000000476837163,78.0,21.39629364013672,30.08951187133789,-79.78276426193445,40.45900562343182,309.2179170532226,-0.004123185761272907,-0.0101436460390687,-0.990361750125885,0.13807149231433868,0.009790891833132472,0.04465149750021108,3.0225248877480406,-0.09223173558712006,-0.09523023664951323,-0.14764629304409027,0.20220861269161106,0.2309351243823767,-9.746706229448321
36.0,3.2000000476837163,81.0,21.497711181640625,27.76759529113769,-79.78276425578422,40.45900563712157,309.5203195495605,-0.004161015618592501,-0.008347542956471443,-0.9903371334075928,0.13836678862571716,0.02097551257712188,0.046431008510900484,3.0293805946885137,0.007942895404994488,-0.018201127648353577,0.040441669523715966,0.15291083802469074,0.2675750201940537,-9.852308113574985
36.2,3.2000000476837163,83.0,21.470165252685547,28.14132881164551,-79.7827642518588,40.45900565040552,309.82373675537116,-0.0038164770230650897,-0.006675212644040585,-0.9903047680854796,0.1386992484331131,0.03789563415739619,0.030835591736490607,3.0346202868618244,0.1218741238117218,0.021168965846300125,0.04786342009902,0.11656080879271033,0.08544638559222223,-9.940755436420439
36.3,3.0999999046325684,84.0,21.58785820007324,26.71000862121582,-79.78276428965836,40.45900563177428,310.43054827880866,-0.0014861534582450984,-0.007905709557235241,-0.990256369113922,0.1390238106250763,0.016178690381556674,0.03328275069543893,3.0670878802201247,-0.056934434920549386,0.011265254579484464,-0.13376709818840027,0.12056874621659518,0.2796369490027428,-9.859248758554461
36.5,3.0999999046325684,85.0,21.515239715576172,28.04590606689453,-79.78276427536213,40.45900560234325,311.0308023376465,-0.0029982088599354033,-0.009754877537488936,-0.990217387676239,0.13915970921516418,0.03384725503492146,0.05260158652277404,3.0339004475025315,0.02355325594544411,0.06497280299663544,0.07958845794200897,0.1655951938033104,-0.04921116735320539,-9.727552505135538
36.6,3.299999952316284,86.0,21.470165252685547,28.79337310791016,-79.78276428489951,40.45900559886607,311.3342958374024,-0.004129018168896437,-0.010243852622807026,-0.990209698677063,0.13915088772773745,0.0276720178828467,0.058261983102714784,3.031102755978754,-0.11109382659196854,-0.07004600018262863,-0.10175280272960664,0.19125727113336324,0.21506525119766595,-9.7458080971241
36.8,3.0999999046325684,85.0,21.38252258300781,29.83505630493164,-79.7827643252879,40.45900556470612,311.93453845214844,-0.0061011468060314655,-0.009316617622971536,-0.9903494119644164,0.1381450891494751,0.06187148073946923,0.053330148089051684,3.020262387400667,0.04023132473230362,0.011979641392827034,0.027439076453447345,0.18755200020968915,0.011027761925943196,-9.754106465578081
36.9,3.0999999046325684,88.0,21.457645416259766,30.36782455444336,-79.78276433341281,40.45900555624127,312.23184451293946,-0.006345448549836874,-0.00975809432566166,-0.9903806447982788,0.13787971436977384,0.04859148445515573,0.04778231119166968,3.0333045431782306,-0.10988335311412813,-0.07429014891386032,-0.03753329813480377,0.024331625634804368,0.21277272239327435,-9.799156923294069
37.1,3.0999999046325684,89.0,21.40756225585937,30.145174026489247,-79.7827643594797,40.45900557215754,312.83668383789063,-0.00872020609676838,-0.012035190127789974,-0.9902562499046326,0.13846220076084134,0.06786086337198308,0.0451081583167805,3.0182552617949616,0.10867747664451599,-0.02395124733448029,0.07190094143152237,0.16145742991939188,0.002581139146350325,-9.772635707259179
37.2,3.0,91.0,21.354976654052734,31.544687271118164,-79.78276440578786,40.45900556504642,313.13812503051764,-0.007702393922954799,-0.010524158366024494,-0.9902281165122986,0.13884663581848145,0.07461385860469705,0.05473766548167188,3.0303999657411813,0.07139181345701218,-0.011668683961033821,0.032690394669771194,0.15873100116848946,0.132667156169191,-9.767993018031119
37.4,3.0,92.0,21.334943771362305,31.31408500671387,-79.78276440872807,40.45900555925469,313.74072512817384,-0.0047372793778777105,-0.006128384731709957,-0.9901928901672364,0.13949202001094818,0.04580227302919631,0.032276337239958,3.060992206494121,0.007620573043823242,-0.0699535608291626,-0.01924102567136288,0.1452557089738548,0.0399786468129605,-9.945738433599473
37.51,3.0,92.0,21.48644256591797,29.09554100036621,-79.78276441550092,40.459005566184366,314.04723986816407,-0.00409637950360775,-0.005801011342555285,-0.9901770949363708,0.139638289809227,0.031420456124725944,0.02585780175959896,3.0697572629961662,-0.061595428735017776,-0.05943658575415611,0.006636910140514375,0.0900273136049509,0.14368320995941758,-9.89109971165657
37.6,3.0,92.0,21.483938217163086,27.902774810791016,-79.78276442415006,40.45900557077804,314.35404833984376,-0.004166926722973585,-0.0061064837500453,-0.9902034997940063,0.1394360065460205,0.02850824632766599,0.02543209385490665,3.0655425316507166,-0.0633472427725792,0.03773181885480882,-0.059686951339244836,0.06291904625482858,0.34687481269240383,-9.776204847693442
37.8,3.0999999046325684,95.0,21.38627815246582,29.98613929748535,-79.7827645228309,40.459005546814545,315.24577960205085,-0.006863263435661793,-0.009421032853424549,-0.9902133345603944,0.1390746831893921,0.0535471674932549,0.03811629801486602,3.0278359663642447,-0.06084262952208519,0.0427841953933239,-0.03297394886612892,0.07076622893102467,-0.06250240473076701,-9.698397703170775
38.0,3.0999999046325684,94.0,21.33369255065918,31.186857223510746,-79.78276453520589,40.45900554846135,315.54793414306636,-0.006143743637949228,-0.010790565982460977,-0.9902025461196899,0.139085590839386,0.05137374184609456,0.04378004852414817,3.014047395340232,-0.034510537981987,-0.05163886025547981,-0.07250027358531952,0.1834243045002222,0.18343884944915773,-9.70447412967682
38.1,3.0999999046325684,96.0,21.395042419433594,31.059629440307607,-79.78276454528438,40.45900555361648,315.84945544433594,-0.0053394362330436715,-0.010634910315275192,-0.9901668429374696,0.1393846571445465,0.04477003986012329,0.0516678336549148,3.01854250013542,-0.009066038765013218,-0.056449364870786674,-0.036982547491788864,0.08600313188508152,0.2208682838268578,-9.789103220701216
38.3,3.0999999046325684,98.0,21.312406539916992,31.36179542541504,-79.78276454729695,40.459005600212286,316.4510637207032,-0.005404912866652012,-0.010954150930047035,-0.9901702404022216,0.1393333375453949,0.0542324922371286,0.024787844242899062,3.0476186311534383,0.13171698153018951,0.050277747213840485,0.0914142206311226,0.17332459162920713,0.0374485977133736,-9.934502424001694
38.4,3.299999952316284,99.0,21.481433868408203,28.13337707519531,-79.78276457455847,40.45900556150053,316.7486024780273,-0.00491612683981657,-0.009990688413381577,-0.990184247493744,0.13932432234287262,0.05566472028373081,0.03855079875114981,3.0611054333754124,0.07829281687736511,-0.03390226885676384,0.06255722045898438,0.11619152057915927,-0.05259147469885648,-9.962328153848649
38.6,3.299999952316284,97.0,21.45388984680176,29.03192710876465,-79.78276460695972,40.459005612185436,317.3631540222168,-0.0050026169046759605,-0.007405562326312066,-0.9901604056358336,0.13965198397636416,0.033317806044380165,0.008290694581275366,3.079214787838167,-0.10963931679725647,-0.05229322984814644,-0.056390568614006036,0.08645206100307405,0.22720639150589705,-9.878310681581498
38.7,3.4000000953674316,97.0,21.435108184814453,28.83313179016113,-79.78276468340214,40.45900563202334,317.9668908996582,-0.004849583376199007,-0.0059048174880445,-0.9901412725448608,0.1398637592792511,0.05939208419051181,0.0054853927068496,3.0756082121429063,0.05384249612689018,0.018841512501239777,0.09531722962856293,0.14783966666087509,0.2845514789409936,-9.815143210887907
38.9,3.4000000953674316,98.0,21.51774406433105,26.09772109985352,-79.78276475306605,40.45900562623053,318.2706781311035,-0.006213961634784937,-0.005438140127807857,-0.9900681376457214,0.14034609496593475,0.061776590262711366,0.0006421164338563934,3.09514729281052,-0.03993524610996246,0.03613502159714699,0.020844919607043263,0.07960710022598505,-0.011955253668129443,-10.005813896656038
39.0,3.4000000953674316,99.0,21.376262664794922,30.08951187133789,-79.78276479111719,40.45900564846778,318.5811334533692,-0.008338415995240211,-0.00634814938530326,-0.9900651574134828,0.14021846652030945,0.06667347322637455,-0.0058649665844794545,3.1038964463093204,-0.06859251111745834,-0.01607476733624935,-0.0418001301586628,0.16691995359957218,0.1044867287389934,-9.865571937561038
39.2,3.4000000953674316,102.0,21.527759552001953,27.03603172302246,-79.78276488128662,40.45900573201045,319.1913705749512,-0.00983088742941618,-0.00607078243046999,-0.990154266357422,0.13950341939926147,0.07928309658747397,-0.008721979754423027,3.1142365144911097,0.03920700028538704,0.05809199437499046,-0.009312552399933338,0.09321065657772123,0.299017070196569,-9.955417914390564
39.3,3.4000000953674316,102.0,21.455141067504886,28.363977432250977,-79.78276491034994,40.459005763459714,319.5029512329102,-0.00941875297576189,-0.005954310297966003,-0.9901845455169678,0.13932126760482788,0.09078040275787776,-0.012293242830348172,3.1112438042143347,0.12604765594005585,0.0168275386095047,0.08996368199586867,0.06276102981995793,-0.060604224940761925,-9.79791906774044
39.5,3.4000000953674316,102.0,21.348716735839844,29.97818756103516,-79.78276494859783,40.459005832316386,320.11721286010743,-0.0072928592562675485,-0.006173005327582359,-0.990131139755249,0.13981838524341586,0.06558362612332459,-0.010892700276598636,3.0865232794454687,0.016696235164999962,-0.03661121055483818,-0.1048685386776924,0.1403611874766648,0.2522751957178116,-9.692594341635703
39.6,3.299999952316284,100.0,21.408815383911133,28.56277275085449,-79.7827649726718,40.45900586537167,320.42578753662116,-0.007004297338426113,-0.006357030477374792,-0.9900866746902466,0.14013928174972534,0.06469855326178514,-0.010316626403192431,3.0881777140500564,0.04006873071193695,0.09470117837190628,0.04157695919275284,0.034846246421802785,0.08816630931571126,-9.78744027256966
39.8,3.4000000953674316,99.0,21.54153251647949,26.59868431091309,-79.78276504844379,40.45900590972057,321.0422006530762,-0.007733395788818599,-0.008512106724083424,-0.9900121688842772,0.14051233232021332,0.053109202633300816,0.000855141551204466,3.0753365537993904,-0.0831388309597969,-0.037652131170034416,-0.05389454960823059,0.04594620547257364,0.3038969736546278,-9.636035394072533
39.9,3.4000000953674316,97.0,21.496458053588867,27.823257446289066,-79.78276500175053,40.459005924752226,321.3502145690918,-0.009199691936373707,-0.009529541246593,-0.9899556040763856,0.14075729250907898,0.07095671415275183,0.0026940716205702386,3.0537469477334898,0.11369623988866805,0.12768812477588656,0.12262322008609773,0.11993869045749307,-0.052879468342289335,-9.579475277066232
40.1,3.4000000953674316,97.0,21.436359405517575,29.02397537231445,-79.7827650358313,40.459005999190225,321.9554925842285,-0.008026069030165672,-0.010913041420280932,-0.98992121219635,0.14097048342227936,0.06594341554554138,0.006682124785584706,3.0046410227720015,0.12170930951833725,0.06568863987922667,0.0670246034860611,0.18718497779220344,0.12733747391961514,-9.60574564754963
40.2,3.5,97.0,21.408815383911133,28.90469741821289,-79.78276498855195,40.45900604484133,322.5702958984375,-0.007871455512940884,-0.006112263072282076,-0.9899234175682068,0.14125259220600128,0.0470323338675644,0.0009720945287895674,3.0160842968338226,-0.0545286200940609,-0.07972684502601624,-0.017948409542441368,0.12504541106522085,0.005170802436769009,-9.657952512502671
40.4,3.5,95.0,21.411319732666016,29.48517799377441,-79.78276493805275,40.45900605078765,322.8772416992188,-0.007855181582272053,-0.0038354201242327686,-0.9899648427963256,0.14104370772838593,0.032866153277468134,-0.006582010205380342,3.0184147339732563,-0.0398671105504036,-0.058934107422828674,-0.02587608247995377,0.07493496021721513,0.20976224686950445,-9.674796586632727
40.5,3.4000000953674316,92.0,21.31741523742676,30.908544540405273,-79.78276493387575,40.459006085326564,323.1787973327637,-0.007015987299382687,-0.0030404042918235072,-0.9900333285331726,0.14062614738941193,0.047345364666177586,-0.01899053958350866,3.0142297430443286,0.1178513914346695,0.08571309596300125,0.06632488965988159,0.11093102733604612,0.10107189084403218,-9.766613659858704
40.7,3.4000000953674316,92.0,21.304895401000977,31.36179542541504,-79.78276496637818,40.45900613855361,323.78870257568366,-0.004055925644934177,-0.004669948946684599,-0.9901026487350464,0.14020894467830658,0.0074734848683450095,0.003483458980725148,3.067196519675951,-0.06521179527044296,-0.01518108882009983,-0.05550682544708252,0.03449077910743654,0.2366492976062,-9.885793948173523
40.81,3.4000000953674316,90.0,21.42634391784668,28.51506042480469,-79.78276494974047,40.45900615355629,324.0957628173828,-0.0036345219705253844,-0.006409034132957458,-0.9901113510131836,0.14009004831314087,0.011001597679546352,0.011715546181107834,3.0770503982878417,0.015618728473782541,0.07331117242574693,-0.04443768411874771,0.14409552088938654,0.2857614871300757,-9.946100960969924
41.0,3.5,92.0,21.40255546569824,28.817228317260746,-79.7827648456332,40.45900618223154,324.7086397094726,-0.0054329014383256435,-0.009736525826156141,-0.9899345636367798,0.14108601212501526,0.019902876460696297,0.03570983702856748,3.0849890748491315,-0.002343737054616213,0.061791598796844475,0.016417955979704857,0.09088997891172768,0.0909756588935852,-9.80908608019352
41.1,3.5999999046325684,93.0,21.5352725982666,27.179162979125977,-79.78276483059769,40.45900619723852,325.01685580444337,-0.005968943703919649,-0.009556793607771395,-0.9898734092712402,0.1415056586265564,0.02449675595204816,0.038772000056105836,3.0779843482483247,-0.022628646343946457,-0.05253437161445618,0.019287828356027603,0.13039235173724592,0.12928770306520165,-9.731415175795556
41.3,3.5999999046325684,93.0,21.31991958618164,29.85095977783203,-79.78276481638999,40.4590062300705,325.6174989624024,-0.006709753070026636,-0.005899890791624785,-0.9899040460586548,0.14145734906196594,0.03856470602568116,0.01965267582000785,3.0248284859478294,0.10366102308034897,0.03586427867412567,0.07021807879209517,0.13635282064788046,0.05516759346239269,-9.696347669363023
41.4,3.5,92.0,21.50897979736328,27.33024787902832,-79.78276481362406,40.45900622443872,325.92212924194337,-0.006367459427565336,-0.0054266396909952155,-0.9898881912231444,0.14160287380218506,0.03525302883887452,0.015534479712218071,3.0464859288202706,-0.014582700096070766,-0.0421280711889267,0.0656731128692627,0.07083078584633767,-0.04517372433096172,-9.866211622953417
41.6,3.5,94.0,21.3987979888916,28.80927658081055,-79.78276479613044,40.45900625784291,326.52929553222657,-0.0051463767886161796,-0.006391701754182577,-0.9898882508277892,0.14161202311515808,0.02131388556491404,0.01977392545045001,3.0290995981864044,-0.0038847611285746093,-0.040008973330259316,-0.04896200075745583,0.17168008049950004,0.2440629457868636,-9.77472959518433
41.7,3.5,95.0,21.35372543334961,29.98613929748535,-79.7827647665148,40.459006269860076,326.83215960693366,-0.004901869688183068,-0.005944587755948304,-0.9898805618286132,0.14169415831565854,0.03485128527545174,0.02636841845581991,3.0403446753492838,0.09128396958112717,0.02805851586163044,0.13759298622608185,0.12810366016812624,0.0357648645574227,-9.832068561315538
41.91,3.5,95.0,21.507726669311523,27.314342498779297,-79.78276468647444,40.45900632135015,327.4367128295898,-0.0052238632924854755,-0.003572373883798719,-0.9899030327796936,0.14160513877868652,0.011283159030331079,0.017877809397935415,3.0683092061919965,-0.11073477566242218,-0.09032005816698074,-0.05154002457857132,0.07247415494173766,0.12880370892584325,-9.940576511621476
42.01,3.5,97.0,21.401302337646484,29.898670196533203,-79.78276467500878,40.459006331770965,327.74318942260743,-0.005391761660575868,-0.004100481513887644,-0.9899088740348816,0.1415434330701828,0.015271710526349009,0.00802746871180352,3.0586235624572926,-0.04593925178050995,0.09045688807964324,-0.05127618089318276,0.057394478134810925,0.383273218497634,-9.736488220095637
42.2,3.5,97.0,21.34621238708496,29.30228614807129,-79.7827646717116,40.459006314651276,328.3487497253418,-0.0059107705019414425,-0.006909727118909359,-0.9896197319030762,0.1434229463338852,0.034157578365307084,0.03697752483972102,3.06112816680234,-0.02316369116306305,0.034486815333366394,0.007794668897986413,0.1041985158249736,-0.008915898380801082,-9.872607307434082
42.3,3.5,97.0,21.40631103515625,27.656269073486328,-79.78276465878005,40.459006315862226,328.65564212036134,-0.007298866752535105,-0.006732756271958351,-0.9893668889999392,0.14510202407836914,0.02852053538504378,0.03540518349406414,3.074002000216208,-0.05018888041377068,0.011723048985004423,-0.034488726407289505,0.07336072987876834,0.0003399333637207747,-9.910738170146944
42.5,3.5,99.0,21.36749649047852,30.83697891235352,-79.78276466117916,40.4590063046631,329.25967654418946,-0.005498281214386225,-0.005933432374149561,-0.9892085194587708,0.14629128575325012,0.046307574112866005,0.03346556470865834,3.028906144031704,0.1023099347949028,0.004641848150640726,0.04792609438300133,0.11832975598052145,0.1101094021741301,-9.581702481508255
42.6,3.4000000953674316,100.0,21.269838333129886,30.78131675720215,-79.7827646512876,40.45900630519556,329.5610299987793,-0.002173821674659848,-0.004914871882647276,-0.989288866519928,0.14587193727493286,0.01915507617316589,0.03473610237914435,3.002570572852012,-0.06702245771884917,-0.059685271233320236,-0.11319337040185927,0.029885336186271164,0.2767533946037293,-9.532879400253297
42.8,3.5,101.0,21.40631103515625,28.96036148071289,-79.78276461941763,40.459006264156386,330.16210803222657,-0.0008927463204599918,-0.005342882126569748,-0.9895963668823242,0.14377015829086304,0.009020442860660071,0.03068650964398289,2.9986735737517725,0.029192201793193817,0.023216698318719864,0.03761304542422295,0.12166968556120993,0.15563846362754705,-9.722230369448662
42.9,3.5,102.0,21.336196899414066,29.58059883117676,-79.78276462601339,40.459006286564325,330.4626642150879,-0.0022748862393200397,-0.005883701611310244,-0.9897581934928894,0.14261448383331302,0.02838906984677432,0.03119102469124688,3.000799809917816,0.04657905548810959,0.044023290276527405,0.1346299648284912,0.0405770636536181,0.0554396260343492,-9.71726959168911
43.1,3.5999999046325684,102.0,21.3987979888916,28.62638664245605,-79.78276466005761,40.45900628286062,331.06270465087886,-0.007742579095065594,-0.005885881837457418,-0.9899991750717164,0.1407381147146225,0.04290867620844747,0.026983054399557862,2.999363749726962,-0.1193838119506836,-0.07391584664583206,-0.043693892657756805,0.08418353319168091,0.1167387468740344,-9.829163664579392
43.2,3.5,101.0,21.44512367248535,27.696027755737305,-79.78276467354709,40.459006310506346,331.3602891845703,-0.009604345075786114,-0.006174081470817328,-0.9900673627853394,0.1401294469833374,0.05503247149490993,0.02218249690874112,3.00763611942584,-0.11544013023376465,0.007784971501678228,-0.09402427822351456,0.04072176396846772,0.3827689326927066,-9.787713922262194
43.4,3.5,101.0,21.45013236999512,28.03000259399414,-79.78276470431943,40.45900630969905,331.95655688476563,-0.009405487217009071,-0.007033449597656728,-0.9899907112121582,0.1406431496143341,0.07265499411692651,0.025879895112513405,2.993370280200438,0.006199908908456564,-0.0071184318512678155,0.010184249840676785,0.1118237601220608,0.04563876070082188,-9.815740796327592
43.5,3.5,100.0,21.368749618530273,28.79337310791016,-79.78276470673539,40.45900631218214,332.25595721435553,-0.008974779397249222,-0.00745785515755415,-0.989906132221222,0.14124350249767306,0.0459665521097491,0.0296018119169828,2.9920876201110107,-0.1387568712234497,-0.007290119770914315,-0.12045897543430327,-0.003931384580209851,0.2753794085606933,-9.752522454857829
43.6,3.5,99.0,21.34621238708496,30.01794624328613,-79.78276470372211,40.45900631765396,332.55473193359376,-0.008823780342936516,-0.007999993860721588,-0.9898599982261658,0.14154663681983948,0.050393804944837695,0.029330399599143388,2.9824866789293187,0.02652205340564251,0.0066527281887829295,-0.06354295462369919,0.1438512260466814,0.291911003831774,-9.747448241114618
43.8,3.700000047683716,102.0,21.375009536743164,28.332170486450195,-79.78276469943548,40.45900629601039,333.14670809936524,-0.007824091240763664,-0.007445452269166708,-0.9897716045379642,0.1422519087791443,0.05955628474926624,0.036144972187173635,2.99432348353589,0.029098078608512882,0.046628817915916436,0.03330492973327637,0.122259614802897,0.035617108158767216,-9.94430937409401
44.0,3.5999999046325684,101.0,21.302391052246094,30.821075439453125,-79.78276465596772,40.459006333695825,333.7436815185547,-0.007497591432183981,-0.007440095301717521,-0.9897084832191468,0.14270828664302826,0.02773534039963107,0.03451507844794726,3.0103890268048183,-0.10271123796701433,-0.07642298191785812,-0.15386593341827393,0.07744618859142065,0.3482039579004049,-9.778326802253725
44.1,3.700000047683716,98.0,21.441368103027344,25.906879425048828,-79.7827646427073,40.45900634403829,334.04502734375,-0.00623967731371522,-0.0072869653813540936,-0.989660382270813,0.14310945570468905,0.03348804722270518,0.02955044978706616,3.0213487506613386,0.022749330848455436,0.04786510020494461,0.02576451934874057,0.1131254051439464,0.2714561826735735,-9.925022917985917
44.3,3.700000047683716,97.0,21.38502693176269,27.7039794921875,-79.7827647188813,40.45900638972588,334.6373582763672,-0.006526589393615723,-0.007258330006152391,-0.9894953966140748,0.14423492550849915,0.03908728952338427,0.02350448251395871,3.015781399117806,-0.013666433282196522,-0.015514109283685684,0.030964232981204987,0.13099234915338456,-0.04600450403988362,-9.849664002656935
44.4,3.5999999046325684,96.0,21.46265411376953,27.72783470153809,-79.78276472311452,40.459006446452655,335.2332216186524,-0.00724439136683941,-0.006936557125300169,-0.9893824458122252,0.14498929679393768,0.03082493666519128,0.018557614828187,3.002954883414427,-0.059603210538625724,-0.058201685547828674,-0.13163457810878754,0.09788531363010408,0.15075119633227588,-9.841483747959137
44.6,3.5999999046325684,96.0,21.322423934936523,30.21674156188965,-79.7827647187562,40.459006465149386,335.5334382934571,-0.007934526540338993,-0.006896242965012789,-0.989323616027832,0.14535583555698395,0.04045193432570178,0.015412134270101416,3.0040305965175937,0.04359620809555054,0.04002724587917328,0.10223805159330368,0.07641866378020495,0.17731992099434138,-9.802306233644488
44.7,3.5999999046325684,96.0,21.249805450439453,32.20468521118164,-79.78276473616692,40.45900652082946,335.82572039794917,-0.007716130930930377,-0.007082627620548009,-0.9892961382865906,0.14554555714130402,0.05540408237467128,0.007662258967378795,3.0068215325878613,0.13134528696537018,0.07558310776948929,0.07795349508523941,0.14308661123737693,-0.01631846882868558,-9.920497173070908
44.9,3.5999999046325684,98.0,21.37125396728516,28.89674568176269,-79.78276468196856,40.459006601642116,336.4228349609375,-0.007526919711381197,-0.007650881540030241,-0.9893614649772644,0.145082026720047,0.01776010105117293,0.010814926752282412,3.0292731963118893,-0.14906734228134155,-0.005237641744315624,-0.0567522831261158,0.06917235103435815,0.19331320697441692,-9.850729365348815
45.0,3.5999999046325684,98.0,21.35247230529785,28.29241180419922,-79.78276466509192,40.45900663302053,336.72514971923835,-0.007176561746746302,-0.007926569320261478,-0.9894624948501588,0.14439454674720764,0.02021132679933375,0.009719392727887124,3.0174460438046644,-0.011136711575090885,-0.060711290687322624,-0.08354170620441438,0.14909858132712545,0.29111762803047897,-9.73143914937973
45.1,3.5999999046325684,97.0,21.284862518310547,30.76541328430176,-79.78276464356465,40.45900666530179,337.02698382568366,-0.007036035880446434,-0.0073274848982691765,-0.9894980192184448,0.14418914914131165,0.02375704049648266,0.01569863126674173,3.0165079545837568,0.06887676566839218,-0.008545354939997194,0.08473099768161774,0.1020634050294757,0.13063195053488014,-9.723319705724718
45.3,3.4000000953674316,97.0,21.294878005981445,30.96420669555664,-79.78276464732564,40.4590067513544,337.91409930419917,-0.005198787432163954,-0.006094527430832386,-0.9895465970039368,0.14399157464504242,0.017421593826278087,0.004826062936552985,2.9862599783832584,0.028532162308692925,0.06498508900403976,0.02445359341800213,0.10369397420436144,0.17805208375677467,-9.694508135318756
45.5,3.299999952316284,96.0,21.304895401000977,30.328065872192386,-79.78276462819184,40.45900677607366,338.2127595825196,-0.004705234430730343,-0.006674019154161215,-0.989494562149048,0.14433972537517548,0.02473277722506645,0.009813183940007502,2.9838110470008234,0.1616586148738861,0.03861239552497864,0.09258873015642166,0.15573342606425286,-0.07329990056343377,-9.78821970641613
45.6,3.2000000476837163,97.0,21.408815383911133,27.544944763183594,-79.7827646065999,40.45900680042685,338.51139697265626,-0.0040810080245137215,-0.008139602839946747,-0.9894161224365234,0.14482015371322632,0.010562160781005669,0.01595248432889806,2.9901269569438207,0.001692033838480711,0.08047820627689363,0.021938277408480644,0.14678788960911335,-8.071898482739926e-05,-9.86117483139038
45.81,3.0999999046325684,98.0,21.391286849975586,28.34012222290039,-79.78276450767734,40.459006897552975,339.1078020019532,-0.003133844817057252,-0.0103328051045537,-0.989270269870758,0.14569757878780365,-0.02413116068457349,0.02695600450541235,2.988252508180365,-0.10558809340000153,0.006389631889760493,-0.08966049551963806,0.1172005307301879,0.3606858629733325,-9.745496440529825
45.9,2.700000047683716,97.0,21.390033721923828,28.371929168701172,-79.78276443845192,40.45900696019388,339.7044130249024,-0.0029128489550203085,-0.010502522811293602,-0.9891670346260072,0.14638987183570862,-0.0011164037285377668,0.037281079728312336,2.9791518502051506,0.014773791655898094,0.017809480428695682,0.0726839154958725,0.2020462976396084,-0.0005413516703993083,-9.796775937080383
46.1,2.5999999046325684,99.0,21.26357650756836,30.654088973999023,-79.78276440766834,40.45900699196629,340.00119647216803,-0.002532931510359049,-0.009392949752509594,-0.9891929626464844,0.1462966501712799,-0.008536648427433815,0.0310409054203829,2.9552861946125817,-0.023336011916399,-0.08664040267467499,-0.05183377489447594,0.20114531479775907,0.02361712329089642,-9.596498275995256
46.2,2.299999952316284,103.0,21.405059814453125,27.44952392578125,-79.78276436404882,40.45900700471024,340.29957446289063,-0.0017490986501798036,-0.008117415010929108,-0.9892616271972656,0.1459193229675293,-0.01872230145296227,0.036221290705165735,2.9654953495669063,-0.05762779340147973,-0.02292148396372795,-0.03149206936359405,0.10765982994809747,0.3093513295054436,-9.732506850957867
46.4,2.299999952316284,100.0,21.3700008392334,28.348073959350586,-79.78276428880244,40.459007062186345,340.89409503173835,-0.0010130306473001838,-0.006960154976695776,-0.9893580079078674,0.1453322023153305,-0.01806102726804578,0.028076173006628787,2.957741519115308,-0.058685746043920524,0.010323556140065191,0.0147103238850832,0.13840549483895306,-0.006035441178828478,-9.661843249797819
46.5,2.0999999046325684,98.0,21.22726821899414,30.582523345947266,-79.78276425891836,40.45900708081866,341.18860491943366,-0.0009012907976284623,-0.006920463405549526,-0.9893778562545776,0.14519965648651126,-0.022354452998295686,0.027788845983984414,2.9329064238718416,-0.06383483111858368,-0.05172241479158402,-0.1407153308391571,0.17425936041399834,0.2463522951677441,-9.58400102198124
