time,wind_speed,wind_angle,battery_voltage,battery_current,position_x,position_y,position_z,orientation_x,orientation_y,orientation_z,orientation_w,velocity_x,velocity_y,velocity_z,angular_x,angular_y,angular_z,linear_acceleration_x,linear_acceleration_y,linear_acceleration_z
0.0,0.30000001192092896,0.0,24.672910690307607,-0.007951773703098297,-79.78278646846361,40.459029075226454,271.05672555828096,0.002939250785857439,-0.016830839216709137,0.99831622838974,0.0554325170814991,-0.0009569343805366393,-0.037186753686199885,0.002476931058215725,-0.002902468899264932,-0.0007253641379065813,-0.008645939640700817,-0.3671305909752846,0.06896103814244271,-9.804456254839897
0.1,0.30000001192092896,354.0,24.680423736572266,-0.02385532110929489,-79.78278661893161,40.45902903276672,271.04573183918,0.0029366735834628344,-0.016852881759405136,0.9983187913894652,0.05538113787770271,0.0030904747647892412,-0.03190284831785913,0.0011358375823240644,0.006519905757158996,0.002576570026576519,0.002269074786454439,-0.3643955923989416,0.05215128899551928,-9.805644993782044
0.3,0.30000001192092896,352.0,24.676668167114247,-0.007951773703098297,-79.7827867780556,40.45902901426994,271.0338101949692,0.002920894185081125,-0.016890745609998703,0.9983215928077698,0.05532030016183853,0.004680932149628914,-0.02866100657850284,0.0003766418193395852,0.002240796573460102,0.0005580260185524821,-0.0014091524062678216,-0.367339263483882,0.06567295691929757,-9.804419417381286
0.41,0.30000001192092896,351.0,24.67040634155273,-0.015903547406196594,-79.78278677859106,40.45902904190225,271.03396826648714,0.0029257824644446373,-0.01687450334429741,0.998323142528534,0.05529553070664407,0.003383032378244372,-0.03239443342496768,0.0006129731429488383,0.0019981779623776674,0.0008110175840556622,0.005142359063029289,-0.36554204866290096,0.05031980857718736,-9.803955733180047
0.6,0.30000001192092896,352.0,24.672910690307607,0.0,-79.78278695296858,40.45902899757858,271.02069002056123,0.002916450845077634,-0.01691235601902008,0.9983240962028505,0.05526736006140709,0.004983984806409894,-0.02472975773802949,1.7862803297262922e-05,0.0028373932000249624,0.0006601284840144218,0.004657781682908535,-0.3656553384661675,0.060106165506877016,-9.805941447615623
0.71,0.20000000298023224,348.0,24.676668167114247,0.0,-79.782786954143,40.45902902167037,271.02080613040926,0.0029116307850927114,-0.01691228337585926,0.9983275532722472,0.05520501360297203,0.0034983763032677352,-0.028394227117370687,0.00043083538058985793,0.000950424000620842,0.0009197848848998547,-0.0004612752236425877,-0.3638991272449494,0.05278621895704419,-9.806304559707645
0.91,0.20000000298023224,352.0,24.67040634155273,-0.039758868515491486,-79.78278711361695,40.45902899859254,271.0069922771454,0.002899558050557971,-0.016946731135249138,0.9983310699462892,0.055132128298282616,0.003643026042245322,-0.026692003695918683,0.00017250206582380078,0.0046399645507335645,0.004331378266215324,-0.00019509055709932,-0.3665747765824199,0.061080512632615866,-9.805299423336985
1.01,0.20000000298023224,7.0,24.677919387817386,-0.015903547406196594,-79.78278711384587,40.45902902268404,271.00713330173494,0.002902873093262315,-0.016948075965046886,0.998333215713501,0.05509250983595848,0.002122249127275789,-0.02992486561265455,0.0006586825833233768,0.0006979572935961188,0.0011126184836030006,0.0014587658224627376,-0.3664380248263479,0.05240828325971962,-9.805719253420829
1.2,0.20000000298023224,5.0,24.677919387817386,-0.015903547406196594,-79.782787278163,40.459028997082335,270.9921236600876,0.002896892139688134,-0.016954125836491585,0.9983362555503844,0.05503571033477783,0.003076190468195577,-0.02708890361983129,0.0002653599048914564,0.00900002010166645,0.003911901265382768,0.0014497060328722,-0.3667027209699154,0.056929090018384164,-9.805622774362565
1.3,0.20000000298023224,11.0,24.6754150390625,-0.007951773703098297,-79.78278745475356,40.45902891238696,270.97592991256715,0.002857479965314269,-0.017022818326950073,0.9983375072479248,0.05499444156885147,0.005380825888876991,-0.011485093476542882,-0.00011631090139236345,-0.0007225371664389968,-0.0005801522638648747,-0.0016929195262491705,-0.3665817566961049,0.053516344330273566,-9.805752582550053
1.5,0.20000000298023224,16.0,24.680423736572266,-0.015903547406196594,-79.78278746136691,40.45902893910382,270.97607391738893,0.0028893474955111733,-0.017000727355480194,0.9983421564102172,0.05491575226187706,0.003308209634477474,-0.01852228250533509,0.00042001563422026624,0.005576537922024728,0.0018734289333224297,0.004606617614626885,-0.3653463496640325,0.05252412665169686,-9.805447942614556
1.61,0.10000000149011612,28.0,24.677919387817386,-0.007951773703098297,-79.78278761343554,40.45902891420634,270.96096771621706,0.0028945826925337315,-0.016994494944810867,0.9983444809913636,0.05487380549311638,0.0010525540048196733,-0.019391283419296308,0.003327339695629585,-0.002271541161462665,0.0004522200615610927,-0.0031110716518014674,-0.3686798838526011,0.057731743706390275,-9.804813519716264
1.8,0.20000000298023224,29.0,24.67416381835937,-0.04771064221858978,-79.78278775929279,40.45902892133008,270.9455305900574,0.002889698371291161,-0.016995873302221298,0.9983473420143129,0.05482102558016777,0.0004941258434030766,-0.025766026399176703,0.004904679636342711,0.0063463118858635426,0.0022353986278176308,0.0027226200327277184,-0.3653172597661615,0.0514492074167356,-9.805927414298056
1.91,0.20000000298023224,32.0,24.677919387817386,-0.015903547406196594,-79.78278775498299,40.45902894571573,270.94613235855104,0.002872454235330224,-0.016973314806818962,0.9983501434326172,0.05477950721979141,-0.0017721437343702364,-0.02922522674519033,0.00533991553610405,-0.005494615528732538,-0.00015476155385840684,-0.006816304288804531,-0.370201256275177,0.06350774666760117,-9.804621146321297
2.1,0.20000000298023224,31.0,24.67040634155273,-0.02385532110929489,-79.78278792015321,40.45902892740602,270.928641494751,0.002867577597498893,-0.016996702179312706,0.998354196548462,0.05469783768057823,0.0015709395829131873,-0.024671998503287242,0.003093392205582468,0.0019163538236171007,-0.0005055202054791152,0.004741181153804064,-0.3638986887037754,0.05179009552113712,-9.805077229142189
2.2,0.20000000298023224,39.0,24.67165946960449,0.0,-79.7827879174709,40.45902895102303,270.9290500249863,0.0028853886760771275,-0.016984283924102783,0.9983553886413574,0.05467921867966652,-0.0005605206897823217,-0.028104853880758427,0.003352475699816025,-0.0044220215640962115,-0.004059356637299061,-0.005046628415584564,-0.3687514756992459,0.06597694361116738,-9.803503743410113
2.4,0.20000000298023224,37.0,24.677919387817386,-0.015903547406196594,-79.78278807228088,40.459028917177626,270.9122164812088,0.0028730458579957485,-0.017016451805830002,0.9983596205711364,0.054592695087194436,-0.0016846723637945248,-0.023438023626052715,0.0046867395969088545,-0.0006089406087994578,0.0018269969150424004,0.0012522340985015035,-0.3665975076332689,0.053697502948343766,-9.803766283392909
2.5,0.30000001192092896,38.0,24.67040634155273,-0.007951773703098297,-79.78278806716222,40.45902893821949,270.9127799835205,0.002848886651918292,-0.01703239604830742,0.9983614087104796,0.05455606058239937,-0.0033294578767106395,-0.0266995210560588,0.005007821201319226,-0.0015327535802498462,-0.0004001529014203698,-0.007983681745827198,-0.3689574073255063,0.07034159316681325,-9.802720801234246
2.7,0.30000001192092896,37.0,24.68167495727539,0.007951773703098297,-79.78278826097166,40.45902892459201,270.8927321996689,0.0028445960488170385,-0.017035406082868576,0.9983650445938108,0.05448818579316138,0.001092367742239978,-0.02679771573150772,0.0021542112949485995,-0.0026393199805170298,-0.0037925401702523227,-0.0007721379515714942,-0.3666002119705081,0.05567859899718314,-9.805493550896648
2.8,0.30000001192092896,42.0,24.6754150390625,-0.007951773703098297,-79.7827884147739,40.45902889650613,270.8731231060028,0.0028262869454920288,-0.017065079882740974,0.998365581035614,0.0544697530567646,0.0007900255021254808,-0.025088212363594847,0.0007023279538171492,-0.0002985588216688484,0.0010137573117390275,-0.003245078725740313,-0.3675163975730539,0.06953798016998917,-9.803778562545775
3.0,0.30000001192092896,43.0,24.680423736572266,-0.007951773703098297,-79.78278840763984,40.459028946011216,270.8735079135895,0.002847481518983841,-0.017059504985809326,0.9983694553375244,0.05440061911940575,-0.0019221415216597465,-0.03171985986616732,0.0011991393226423474,-0.0074292542412877065,-0.0009160041809082033,-0.008648688904941082,-0.3707284193113447,0.0651855366770178,-9.802705598473553
3.11,0.30000001192092896,41.0,24.677919387817386,-0.007951773703098297,-79.78278859182299,40.45902891460006,270.85290568733217,0.0028407613281160593,-0.017072807997465134,0.9983701705932616,0.054383639246225364,0.002810086995321624,-0.02808770846419826,-0.0002897161081451918,0.0043358481489121905,0.004112120717763901,0.0033458040561527014,-0.36727702718228106,0.06266665667295457,-9.804558581113817
3.3,0.30000001192092896,39.0,24.67416381835937,-0.015903547406196594,-79.78278879898738,40.459028907302425,270.831438955307,0.0028030346147716045,-0.01708834432065487,0.9983745217323304,0.054300080984830856,0.0075158987521404185,-0.026566606796749662,-0.0014160905617408054,0.00254243309609592,-0.0015805673319846392,-0.007374119013547896,-0.36831063218414783,0.07003157196566462,-9.803778562545775
3.4,0.20000000298023224,44.0,24.677919387817386,-0.015903547406196594,-79.78278880389908,40.45902893337811,270.8314095106125,0.002805481432005763,-0.017077676951885223,0.9983763098716736,0.054270975291728966,0.007247154823386161,-0.030095451566642974,-0.0012154009561515385,0.007913348264992237,0.003046780591830611,0.00590739119797945,-0.3662611100077629,0.05284120105672628,-9.805708728432657
3.6,0.20000000298023224,47.0,24.676668167114247,-0.015903547406196594,-79.78278891596369,40.45902888749913,270.8088048067093,0.0028100346680730573,-0.017130719497799873,0.9983783960342408,0.054215140640735626,-0.005568285776361157,-0.023265335742494096,-0.0018281260305272914,0.000552634708583355,-0.0012998817255720494,0.0022449749521911144,-0.3669923774152993,0.0656070569716394,-9.803922404050828
3.7,0.20000000298023224,52.0,24.67917060852051,0.0,-79.7827889054966,40.459028909181384,270.80871981048585,0.0028003053739666947,-0.017134379595518112,0.9983800053596495,0.05418433621525765,-0.006560235198200331,-0.026448901180608497,-0.00153665705205376,0.0035965275019407272,-0.002799144480377436,0.0047594495117664355,-0.364943403415382,0.051138701993040735,-9.80539356350899
3.9,0.10000000149011612,56.0,24.66915512084961,-0.007951773703098297,-79.78278907411018,40.459028910559,270.78532236480714,0.002768370555713773,-0.017150478437542915,0.9983832240104676,0.054123081266880035,-0.003706122295124022,-0.028845371291805207,-0.00407184333519471,0.005031566135585308,0.0015780456596985461,0.0038697933778166775,-0.3670433578267694,0.056653453186154376,-9.806766489744184
4.0,0.10000000149011612,54.0,24.672910690307607,-0.007951773703098297,-79.78278906543082,40.45902893585744,270.785037812233,0.002753365086391568,-0.017179355025291443,0.9983844757080078,0.0540907196700573,-0.005366611894030144,-0.03161474815108213,-0.0037140104341557094,-0.0028457094449549913,-0.0015866184839978814,0.002670784946531057,-0.3670480721443892,0.054164617820642885,-9.805521617531776
4.2,0.10000000149011612,51.0,24.67917060852051,0.015903547406196594,-79.78278925655269,40.45902894776162,270.7600783672333,0.002692846581339836,-0.017181560397148132,0.9983891844749452,0.054004911333322525,-0.00022641884734978188,-0.034152219495688564,-0.006882286722804492,0.005140966735780239,0.0024486526381224394,0.004326398018747568,-0.3658488813042641,0.05242936064489186,-9.80564791738987
4.3,0.10000000149011612,27.0,24.680423736572266,-0.007951773703098297,-79.78278946095325,40.459028896275846,270.7347422208786,0.002649050671607256,-0.01722840592265129,0.9983910322189332,0.053958479315042496,0.003242119745765641,-0.02538985468813566,-0.00961097154657915,-0.005014389287680388,-0.0021686642430722713,-0.006204305216670036,-0.36945383593440057,0.06178539904765785,-9.804448068737985
4.5,0.10000000149011612,4.0,24.67917060852051,-0.007951773703098297,-79.78278946107096,40.459028947356096,270.733066734314,0.002624901477247477,-0.01722303219139576,0.9983948469161988,0.053892448544502265,0.002156765369560039,-0.03152015849629982,-0.009113398023772376,0.004234046675264835,-0.0026301159523427486,0.003541002282872796,-0.3646632486954332,0.05029780842829496,-9.805567225813864
4.61,0.10000000149011612,353.0,24.67165946960449,-0.007951773703098297,-79.78278967662938,40.45902890442265,270.7085702981949,0.002592062810435891,-0.017237059772014618,0.9983972311019896,0.05384383723139763,0.005884674811080182,-0.02652591436812287,-0.008231612362884784,-0.007041527424007655,0.0016377572901546955,-0.009234683588147163,-0.36978087801486254,0.06885672472883016,-9.80451998949051
4.8,0.10000000149011612,342.0,24.67165946960449,-0.007951773703098297,-79.78278986893078,40.45902888878203,270.6844983663559,0.002594861201941967,-0.01726064458489418,0.9984015226364136,0.05375738814473152,0.007635280839872574,-0.022830903068991337,-0.007110660373749501,-0.005647685844451189,-0.002157584298402071,-0.0024207725655287504,-0.36632436957210296,0.0537865039659664,-9.805526880025864
4.9,0.10000000149011612,300.0,24.677919387817386,-0.015903547406196594,-79.78278987449109,40.459028911580745,270.68388646507265,0.002595352008938789,-0.017267374321818352,0.998403787612915,0.05371272191405296,0.006669562644930695,-0.02591247739488142,-0.006888030792404319,-0.002900824649259448,0.0006461951998062433,-0.006714481860399246,-0.36905969705432656,0.07010952265933157,-9.80372301399708
5.1,0.10000000149011612,286.0,24.676668167114247,-0.02385532110929489,-79.78279004870012,40.459028910360665,270.6579872932434,0.0025809535291045904,-0.017290281131863594,0.9984065294265748,0.05365470051765442,0.005096715408249093,-0.02581233777737234,-0.009211134585190177,-0.003018321469426155,-0.0026548563037067647,-0.0033840823452919717,-0.3683218880742789,0.05913682505954058,-9.805685339570044
5.2,0.10000000149011612,274.0,24.677919387817386,-0.007951773703098297,-79.78279005137013,40.459028935678965,270.6571709480286,0.002590992255136371,-0.0172860249876976,0.9984076619148254,0.05363508686423302,0.0048458898237654,-0.028915118279620955,-0.008941762729977671,0.003173106117174029,0.003578059608116746,-0.002347896108403802,-0.3676393718272448,0.06745262095704675,-9.805606402158736
5.4,0.10000000149011612,281.0,24.68668365478516,0.039758868515491486,-79.78279025297945,40.459028929153206,270.6325014200211,0.002584362402558327,-0.017299335449934006,0.998410940170288,0.05356978252530098,0.007103684267722159,-0.027265310250331017,-0.007858594501405372,-0.003544934093952179,-0.00649900222197175,-0.007632395718246698,-0.3685627568140626,0.06553147714119405,-9.804800655841829
5.51,0.10000000149011612,283.0,24.67917060852051,-0.007951773703098297,-79.78279025874531,40.459028954856365,270.6318348016739,0.002569045638665557,-0.01731281541287899,0.998412013053894,0.0535457506775856,0.00733571996593173,-0.03022122626697088,-0.00759318387825043,0.007479282561689615,0.005607790313661098,0.002785157412290573,-0.36615067072212704,0.06076443408150226,-9.807135449051858
5.7,0.20000000298023224,284.0,24.680423736572266,0.0,-79.7827904984167,40.45902891586685,270.6072975959778,0.0025548376142978677,-0.017332160845398903,0.9984158277511596,0.053469713777303696,0.01208036907637057,-0.02318008772782776,-0.006203033165853512,-0.004022508859634399,-0.0018060579895973208,-0.00807653833180666,-0.36958550792187456,0.06726399800274521,-9.804938065409662
5.81,0.20000000298023224,286.0,24.66915512084961,-0.015903547406196594,-79.78279067629359,40.45902888291757,270.5838677253724,0.0025404877960681915,-0.01734752580523491,0.9984174370765686,0.05343543738126755,0.012793689795609478,-0.018573996358505884,-0.005612037288062849,0.0040052877739071855,0.003531265771016478,0.004175745416432619,-0.3660222512483597,0.05672180165536703,-9.80698634505272
6.0,0.20000000298023224,287.0,24.672910690307607,0.03180709481239319,-79.78279069910897,40.459028922338646,270.58296841049196,0.002541899448260665,-0.017324646934866902,0.9984220862388612,0.05335529148578644,0.01076184101389867,-0.023810576452023502,-0.005093130100792194,-0.004607843700796366,-0.0025419166777282953,-0.013744198717176914,-0.3676269830390811,0.07027729663532227,-9.803783825039863
6.11,0.20000000298023224,284.0,24.67416381835937,0.05566241592168808,-79.7827908553964,40.4590288881889,270.55927067661287,0.0025507539976388216,-0.017334798350930214,0.9984235763549804,0.05332471802830696,0.008694805271418233,-0.019028625469992143,-0.004805951277586552,0.005254670977592468,0.0019085687818005679,0.0071914438158273706,-0.3668753600120545,0.05358396646566689,-9.807038385272024
6.3,0.20000000298023224,279.0,24.667903900146484,0.11132483184337616,-79.78279104574493,40.45902888059765,270.53491836452486,0.002544864546507597,-0.017355283722281456,0.9984264969825744,0.053261879831552505,0.008973598265624194,-0.0169657122039639,-0.004670293685003513,-0.0026504755951464176,-0.0006450155633501709,-0.005169767886400223,-0.3686993623897433,0.06974775816779584,-9.804659153223039
6.4,0.20000000298023224,275.0,24.6754150390625,0.015903547406196594,-79.78279105382626,40.45902889802061,270.5345368947983,0.002558158477768302,-0.01733541488647461,0.9984289407730104,0.053223196417093284,0.009000004626710505,-0.019854457647843736,-0.0044032235018490965,0.005470390431582928,0.003343946998938918,0.00391716044396162,-0.3656462752819061,0.052965047825127835,-9.806711525917054
6.6,0.20000000298023224,275.0,24.66665077209473,0.08746951073408127,-79.78279125070873,40.45902892427639,270.510024723053,0.002529033226892352,-0.0173118207603693,0.9984333515167236,0.05314922332763672,0.010409950989635064,-0.024353913328507504,-0.004585884351259693,-0.0007487814291380348,0.004773614462465048,-0.0005358077469281851,-0.3665130519121885,0.06613303686026484,-9.805090093016624
6.7,0.20000000298023224,272.0,24.67165946960449,0.11927660554647446,-79.7827912593424,40.459028948451646,270.5096763935089,0.0025259533431380987,-0.017312975600361824,0.9984356164932252,0.05310695245862007,0.010188302696526085,-0.02728793485813757,-0.004319313591709703,0.0018456536345183847,0.0023325288202613588,0.0049410900101065644,-0.3651368366181851,0.05427329380530864,-9.80649810254574
6.9,0.20000000298023224,276.0,24.657886505126953,0.02385532110929489,-79.78279144025403,40.4590289636379,270.4860669937134,0.0025310537312179804,-0.017325347289443016,0.9984382390975952,0.05305176600813866,0.010349742849386936,-0.027714639773152017,-0.0041683666240307105,0.006451939232647419,0.00082190748071298,0.003199015744030476,-0.3669897461682558,0.06096153549849988,-9.806598089933397
7.0,0.10000000149011612,272.0,24.67165946960449,0.06361418962478638,-79.78279144848153,40.45902898935636,270.485771235466,0.002530873520299793,-0.01734209433197975,0.9984399080276488,0.05301493778824806,0.009503908353643124,-0.030208714282693862,-0.003870972341112985,0.0001864573423517868,-0.0034763857256621122,0.003118168096989393,-0.3672427478805185,0.05396482120268047,-9.806770582795144
7.2,0.10000000149011612,275.0,24.645366668701172,-0.039758868515491486,-79.78279166595524,40.45902892825357,270.462754067421,0.0025181155651807785,-0.017392313107848167,0.998441219329834,0.05297575518488884,0.014082863906343475,-0.015962644371844272,-0.002569103575384964,0.006716021336615086,0.0017856971826404333,0.0055888183414936074,-0.3664795766025782,0.054796313541010035,-9.806232054233552
7.31,0.10000000149011612,276.0,24.667903900146484,0.05566241592168808,-79.78279185094618,40.45902893963871,270.4392877187729,0.0024848184548318386,-0.017389873042702675,0.9984419345855712,0.05296390131115914,0.0164335723937558,-0.01883758162411701,-0.003116241208535949,-0.0009114632266573608,0.002087840344756841,-0.0018269388237968085,-0.3668949481844902,0.0559321488859132,-9.806800988316537
7.5,0.10000000149011612,276.0,24.67416381835937,0.06361418962478638,-79.78279188408669,40.459028980813954,270.43887895011903,0.00247858720831573,-0.01737450435757637,0.9984449744224548,0.0529116727411747,0.01635725683882141,-0.024284213515739263,-0.0026637068205536164,0.006844533607363701,0.0033025064039975405,0.005412585102021694,-0.36557643759995706,0.05385586656164378,-9.80689278960228
7.6,0.10000000149011612,271.0,24.66665077209473,0.05566241592168808,-79.78279203059641,40.45902897441997,270.41320508384706,0.002470062114298344,-0.017371276393532753,0.998447597026825,0.0528641939163208,0.011484856580498515,-0.022430057311543128,-0.0064681573826805075,-0.006554479710757732,-0.004054347518831492,-0.002060525119304657,-0.3673714597150684,0.05923731037415565,-9.805232765078543
7.8,0.10000000149011612,267.0,24.67165946960449,0.05566241592168808,-79.78279220155677,40.459028998344,270.38949602508546,0.0024503781460225573,-0.017390063032507896,0.9984495639801024,0.0528223030269146,0.012488217815869646,-0.0238640469953528,-0.005849977545102567,0.0035553504712879658,0.0012378988321870565,0.0045609306544065475,-0.3648699843138457,0.05321995445061475,-9.807231343388557
7.9,0.10000000149011612,259.0,24.66665077209473,0.039758868515491486,-79.78279221230494,40.459029022110784,270.3890253868103,0.0024521939922124147,-0.017378544434905052,0.99845153093338,0.052787557244300835,0.011163921962145523,-0.026351971510440404,-0.005496079872072849,-0.0052713449113070965,-0.003893386106938124,-0.008295636624097824,-0.36810276366770267,0.06309197308961302,-9.805406427383422
8.11,0.10000000149011612,257.0,24.67416381835937,0.007951773703098297,-79.78279240429713,40.45902904664084,270.36373144054414,0.0024470484349876642,-0.01737695373594761,0.9984548687934875,0.05272529646754265,0.01498254894121186,-0.026087623317891443,-0.00814817137275922,0.0025384342297911644,0.0008146074251271784,0.003999665845185518,-0.3650204404816032,0.05271061171777547,-9.806224452853202
8.2,0.10000000149011612,255.0,24.67040634155273,0.07951773703098297,-79.7827924179293,40.45902907282307,270.363033946991,0.002469977829605341,-0.017366226762533188,0.9984563589096068,0.05269999802112578,0.013785502907261807,-0.02873056378261573,-0.007836974848297278,-0.002966250060126185,-0.0009388105827383695,-0.008703554049134254,-0.369881230853498,0.06504258595872671,-9.805675399303436
8.4,0.10000000149011612,249.0,24.672910690307607,0.07951773703098297,-79.78279259694496,40.45902909090439,270.3383105363846,0.0024921116419136524,-0.017379840835928917,0.9984590411186218,0.052643205970525735,0.013737749080887127,-0.027662733738766373,-0.0071136665692172075,-0.001720579108223319,-0.0010966055560857058,0.0019325006287544968,-0.3653282963857055,0.053452545725740486,-9.805660196542739
8.51,0.20000000298023224,233.0,24.672910690307607,0.06361418962478638,-79.78279261009506,40.45902911692344,270.3377159204483,0.00246458500623703,-0.017383737489581108,0.998459815979004,0.052628494799137115,0.0128979158677267,-0.030149597583025687,-0.00686508738351219,-0.00615400355309248,0.0008786693215370178,-0.008919481188058853,-0.36863124232739214,0.0706703117536381,-9.80420307040215
8.7,0.20000000298023224,226.0,24.672910690307607,0.09542128443717957,-79.78279279424976,40.459029099917004,270.3126506175995,0.002473960630595684,-0.017432693392038345,0.998462736606598,0.05255672708153725,0.012346062906387996,-0.023589172326140075,-0.005800116250020518,-0.0010760700097307565,-0.000483749812701717,-0.001618201844394207,-0.3661336407065392,0.05525348814669997,-9.806516228914262
8.8,0.20000000298023224,217.0,24.66915512084961,0.12722837924957275,-79.782792939581,40.45902908989526,270.28828602695467,0.0024566377978771925,-0.01745979301631451,0.9984639883041382,0.052525661885738366,0.009959051745982023,-0.020371942032748183,-0.005645360802355727,0.001068741432391107,0.0002791557053569705,-0.0092365937307477,-0.3679382741823793,0.07113569987006486,-9.804108930230141
9.0,0.20000000298023224,211.0,24.67416381835937,0.07951773703098297,-79.78279295691512,40.45902913182843,270.2873727645874,0.0024478193372488018,-0.017461717128753662,0.9984684586524964,0.05243968963623047,0.008851849835791094,-0.02523387934946488,-0.005109111316694807,-0.007018085103482008,0.002446862868964672,-0.003525180742144585,-0.3661369663104415,0.053859639842994515,-9.80633671939373
9.1,0.20000000298023224,203.0,24.672910690307607,0.04771064221858978,-79.78279312224241,40.45902914907131,270.26218467617036,0.002421478275209665,-0.017465943470597267,0.9984694123268129,0.05242156982421875,0.010752570800177271,-0.026372801870061118,-0.005325014108037746,0.0013717560796067119,3.6926901429978898e-06,-0.0020819942001253366,-0.3689038687571883,0.06799190326128156,-9.805309363603591
9.3,0.20000000298023224,200.0,24.677919387817386,0.0,-79.78279330174367,40.45902916999026,270.23585778141023,0.002398204756900668,-0.017466159537434578,0.9984728097915648,0.05235755443572998,0.011245472730017978,-0.024256977795397948,-0.005159591637941458,-0.0037027671933174133,-0.0003241395461373031,-0.004885814152657986,-0.3675770624354482,0.06060609787702561,-9.805268433094023
9.41,0.20000000298023224,196.0,24.66915512084961,0.0,-79.78279331211591,40.45902919409385,270.23544364833833,0.00240492750890553,-0.017474867403507233,0.9984743595123292,0.052324507385492325,0.011536703217409492,-0.026893242743142358,-0.004963663477910668,0.0030296402983367447,-0.0011095391819253564,0.001258389907889068,-0.3665916238725185,0.06457544824574142,-9.806543126106263
9.6,0.20000000298023224,194.0,24.66665077209473,-0.03180709481239319,-79.78279346004513,40.45902917394866,270.2088864412308,0.0024122283793985844,-0.01751972921192646,0.9984777569770812,0.052243705838918686,0.006065986167145364,-0.018631094208690045,-0.003983247062586544,-0.007715499959886073,-0.0016869233222678304,-0.006685439497232437,-0.36909945812076334,0.0631325061712414,-9.804605358839037
9.7,0.30000001192092896,192.0,24.677919387817386,0.0,-79.78279346513214,40.45902919252864,270.2085656490326,0.002420275239273905,-0.017533762380480766,0.998478889465332,0.052218101918697364,0.006337085973346422,-0.02120364959708184,-0.0038936493380717814,0.00400567427277565,-0.0002599394938442856,-0.0016575190238654613,-0.3678062001988292,0.06655939024407417,-9.80491876959801
9.9,0.30000001192092896,189.0,24.67416381835937,-0.015903547406196594,-79.78279363384799,40.45902923636304,270.18202572727205,0.002389962319284677,-0.01753917150199413,0.9984830021858216,0.052138302475214005,0.007275660986772539,-0.025205654189333297,-0.004067052612929657,-0.002869178773835301,-0.001905242446810007,-0.001483967062085867,-0.3674391412362457,0.06111935550346971,-9.805930337905883
10.0,0.30000001192092896,193.0,24.676668167114247,-0.007951773703098297,-79.78279364019008,40.45902925995268,270.1817205514908,0.0023879383224993944,-0.017537759616971016,0.9984837174415588,0.05212556198239327,0.007486873653034386,-0.02755761547202148,-0.0039124181672232,0.0020655805710703135,0.0028648574370890856,0.0009444736060686412,-0.3662307044863701,0.06575598281342536,-9.806098737716676
10.2,0.30000001192092896,198.0,24.677919387817386,0.015903547406196594,-79.78279385907976,40.45902929196664,270.1545674171448,0.002382941311225295,-0.017525112256407738,0.9984877109527588,0.05205263942480087,0.014275136894892506,-0.02662289456502847,-0.0040775036683856035,-0.003543539205566049,0.00033694159355945885,-0.007172950077801944,-0.3684428158029914,0.06259015407878905,-9.8051696151495
10.3,0.30000001192092896,206.0,24.6754150390625,0.0,-79.7827940259137,40.459029312273394,270.1269233789444,0.0023723242338746786,-0.017553260549902916,0.9984891414642334,0.05201622471213342,0.014924473312550859,-0.02649385621782033,-0.004463059626954925,0.004895448219031096,-6.084424239816144e-05,0.0015691022854298349,-0.3679551580175758,0.0633865768276155,-9.806744270324707
10.5,0.30000001192092896,211.0,24.67040634155273,0.0,-79.7827940535842,40.45902936555465,270.12629949712755,0.002379146870225668,-0.017570724710822102,0.9984946250915528,0.05190488323569298,0.013875219183298294,-0.03080929515372735,-0.003943796706034056,-0.004186391830444336,-0.0021663021761924037,-0.008299535140395164,-0.3681159199029208,0.06421377511695027,-9.805840290784836
10.6,0.30000001192092896,216.0,24.6754150390625,0.02385532110929489,-79.78279422581085,40.459029338848794,270.0999328460693,0.0023672995157539845,-0.017597384750843048,0.99849534034729,0.05188306048512459,0.013958984711303466,-0.021854402069770216,-0.00046396375538848886,0.00676739914342761,0.0012490975204855206,-1.9633984265965413e-05,-0.3657931865751744,0.06017448199912906,-9.806648375988008
10.8,0.30000001192092896,223.0,24.672910690307607,0.0,-79.78279439954133,40.459029360361406,270.07117694282533,0.002361193532124161,-0.017608782276511192,0.9984981417655944,0.05182487145066261,0.012730964738618518,-0.0202047898335992,-0.0014329760182750927,-0.007327040657401084,-0.00239792000502348,-0.0058838585391640654,-0.36990556988865136,0.06871998210903257,-9.804154538512226
10.9,0.30000001192092896,234.0,24.67165946960449,-0.007951773703098297,-79.78279441229509,40.45902938076667,270.0711200799942,0.002374660456553101,-0.01759389042854309,0.9984998106956482,0.051798027008771896,0.013340525399944916,-0.0226084338379895,-0.0013891972521790042,0.003492125775665045,0.00031664254493080085,0.003372326027601957,-0.3683755728229881,0.05886285559739918,-9.804800071120262
11.1,0.30000001192092896,239.0,24.667903900146484,-0.007951773703098297,-79.78279458775918,40.45902940772104,270.04148351812364,0.0023599062114953995,-0.0176138523966074,0.9985033869743348,0.05172241479158402,0.012448610367946731,-0.022248282157620224,-0.002159028959388714,-0.0040849894285202035,-0.0012466979678720234,-0.007454400882124902,-0.3697516784816981,0.07086768725886941,-9.804803579449654
11.2,0.30000001192092896,253.0,24.67165946960449,0.0,-79.78279459983129,40.45902942997117,270.0413678851128,0.0023586044553667307,-0.01761695742607117,0.9985041618347168,0.05170594900846481,0.013124372298790992,-0.02471210587713133,-0.001986105356189394,0.005397401750087738,0.0009943553013727069,0.007603272330015899,-0.3664761413633824,0.05561617997009309,-9.807426055669783
11.4,0.30000001192092896,259.0,24.6754150390625,0.02385532110929489,-79.78279477898822,40.45902945021406,270.01315921211244,0.002333281096071005,-0.017630027607083317,0.99850732088089,0.051643073558807366,0.012648069373703285,-0.023200221075513026,0.0008358635275089653,-0.0030448231846094127,-0.0036518247798085213,-0.01130430307239294,-0.3679315864294768,0.07027110680937768,-9.804410646557807
11.5,0.30000001192092896,269.0,24.66665077209473,-0.007951773703098297,-79.78279479160564,40.45902947206967,270.0133407082558,0.0023282694164663553,-0.017633141949772838,0.9985085129737854,0.05161832273006439,0.013263743297505657,-0.025373642453661964,0.0009137563611404352,0.004983865655958653,0.0016796267591416836,0.0049137980677187425,-0.3666895281895996,0.055647736662067473,-9.805712236762046
11.71,0.30000001192092896,271.0,24.676668167114247,0.0,-79.78279493411334,40.45902943293628,269.98186158800127,0.0023303169291466475,-0.017652230337262154,0.998511016368866,0.051563363522291183,0.007447929226383292,-0.014906334270763485,-0.0005554192548873726,-0.002771284198388457,0.0014857124770060182,-0.002835949882864952,-0.3687753396481276,0.06888054756447673,-9.805174877643584
11.8,0.30000001192092896,273.0,24.677919387817386,0.007951773703098297,-79.78279509650044,40.45902944369178,269.95131659173967,0.0023285443894565105,-0.017658429220318794,0.9985119700431824,0.05154354125261307,0.009580130236826856,-0.015602091424148682,-0.0016483626695077227,0.0031326506286859512,0.0028050236869603395,0.004771239124238491,-0.3650875372812152,0.05254474722314626,-9.807745313644409
12.0,0.30000001192092896,280.0,24.667903900146484,-0.015903547406196594,-79.78279511378116,40.45902947622828,269.9511697258949,0.0023197289556264877,-0.017636585980653763,0.9985154867172241,0.05148356407880783,0.009099951469005274,-0.019725076805336698,-0.0013178172167357767,0.004170035943388939,0.0012046222109347582,0.0033654514700174327,-0.3653544626757503,0.0639590968983248,-9.805978285074234
12.11,0.30000001192092896,272.0,24.672910690307607,-0.015903547406196594,-79.7827952755154,40.45902948541025,269.9197652306557,0.002314520301297307,-0.01764327846467495,0.9985173344612122,0.05144456773996353,0.01044562744407071,-0.019041092923449698,-0.002344919301865845,0.0015139927854761481,0.00030183146009221673,0.001262339181266725,-0.36582483462989335,0.051850632475689065,-9.806402208209036
12.3,0.30000001192092896,273.0,24.66915512084961,-0.015903547406196594,-79.78279546787724,40.4590295088461,269.88752543592454,0.00227029831148684,-0.017669430002570152,0.9985193014144896,0.05139971897006035,0.015188848386257397,-0.01910441630193824,-0.0033154857939226984,0.005327625200152397,-0.0018204491352662448,0.0077347392216324815,-0.3670684643089772,0.05570323952939362,-9.806916763186457
12.4,0.4000000059604645,274.0,24.6754150390625,0.0,-79.78279548263376,40.45902952833804,269.88728648090364,0.0022748780902475123,-0.017658466473221782,0.9985202550888062,0.05138435959815979,0.014286253716365544,-0.021112683800608573,-0.003093849645162058,-0.004100459162145853,-0.0008863360271789132,-0.001900106552056968,-0.3685450324416161,0.05641257531009615,-9.806011614203452
12.61,0.4000000059604645,275.0,24.67416381835937,0.0,-79.78279565769309,40.45902951760804,269.8544790711403,0.002275786828249693,-0.017680050805211067,0.9985226392745972,0.0513308160007,0.014217386035242238,-0.015204272664342638,-0.003245356808526232,0.003636540612205864,0.0030680501367896795,0.0038076196797192092,-0.3643018176779152,0.05399915075395256,-9.80760381102562
12.71,0.4000000059604645,273.0,24.6754150390625,0.007951773703098297,-79.78279567184879,40.459029533460686,269.8542351689339,0.002264954382553697,-0.017666306346654892,0.9985253214836121,0.051284752786159515,0.013366623340215232,-0.01712908265894164,-0.0029881225937666307,-0.00417342921718955,-0.00098971847910434,-0.0029673916287720203,-0.3679202939942479,0.06141956434585155,-9.806319762468341
12.9,0.4000000059604645,268.0,24.66665077209473,-0.02385532110929489,-79.78279584346828,40.459029546558654,269.8220291104317,0.0022560053039342165,-0.017671888694167137,0.998527467250824,0.051240649074316025,0.013877772976130956,-0.017303294950844803,-0.003536442167406153,0.0048679234459996215,-0.00019028854148928081,-0.0009412558865733444,-0.3645381182804704,0.05372742424719036,-9.807348872423171
13.0,0.4000000059604645,268.0,24.672910690307607,0.015903547406196594,-79.78279585732672,40.45902956342097,269.82175618076326,0.0022491810377687216,-0.017667219042778015,0.9985294342041016,0.05120466277003288,0.01312411045571332,-0.019137959642154468,-0.0033907872707554802,-0.004135937429964542,-0.002302394015714526,-0.008710312657058239,-0.3686270030960441,0.06584764248691499,-9.804659737944602
13.2,0.4000000059604645,267.0,24.676668167114247,0.015903547406196594,-79.7827960272147,40.45902960798055,269.7891308631897,0.002258687047287821,-0.017649909481406212,0.9985329508781432,0.051141176372766495,0.01401400679552133,-0.0236162035811157,-0.00410872608087882,-0.0009825878078117967,-0.00021233863662928346,0.003147919196635485,-0.3658439842611552,0.05475990091916174,-9.805752582550053
13.31,0.4000000059604645,259.0,24.67416381835937,-0.007951773703098297,-79.78279616583492,40.45902960959515,269.7561929192543,0.0022390543017536397,-0.017655104398727417,0.9985334873199464,0.05112907290458679,0.010596692911702885,-0.021166438568547642,-0.004688479061002111,-0.0028230163734406233,-0.000789839425124228,-0.006769684609025717,-0.3681087936088443,0.07017325730994342,-9.804262712001801
13.5,0.4000000059604645,258.0,24.66915512084961,0.007951773703098297,-79.78279618583659,40.45902965262521,269.75546174907686,0.002241994719952345,-0.017633525654673576,0.9985378980636596,0.05105078592896462,0.010711046126201416,-0.02533479891326131,-0.004358186422002368,-0.0020482491236180067,1.1082479431934187e-05,0.0005658522131852808,-0.3674937761574984,0.05575230132322759,-9.806258951425553
13.61,0.4000000059604645,248.0,24.67416381835937,0.0,-79.78279635171694,40.4590296263061,269.7226160731316,0.002230059588328004,-0.017644548788666725,0.9985387921333312,0.05102989822626114,0.01142155162881262,-0.017199651310334744,-0.004399928082904356,-0.0002105752064380795,0.0012738523073494437,-0.002677735174074769,-0.3654898988083005,0.06901040600147099,-9.805734456181527
13.81,0.4000000059604645,247.0,24.6754150390625,0.03180709481239319,-79.78279646930811,40.45902964815929,269.69072121047975,0.0022154529578983784,-0.0176519937813282,0.9985415935516356,0.05097384378314018,0.004403168779116233,-0.018297889821288413,-0.003912167148701404,-0.006167531479150057,-0.005488399416208267,-0.003891041269525885,-0.3680140321701765,0.060591397611424326,-9.805592368841172
13.91,0.4000000059604645,239.0,24.67040634155273,-0.007951773703098297,-79.78279647272828,40.45902966614185,269.69039863014217,0.002226660726591945,-0.017652494832873344,0.9985431432724,0.050941064953804016,0.00508650857917894,-0.02054930527606964,-0.003897977866901468,0.0040642982348799706,-0.0006474502733908594,-0.0014448149595409632,-0.3672523592412472,0.06538483536802232,-9.8063910984993
14.1,0.4000000059604645,233.0,24.667903900146484,-0.05566241592168808,-79.78279665207704,40.45902969611983,269.66059910917284,0.0022042011842131615,-0.017672188580036163,0.9985461831092834,0.05087701976299287,0.010661551873523141,-0.02019892406597876,-0.00042935174403121296,-0.006741574965417385,-0.0009041965822689236,-0.00718999607488513,-0.3688715994358063,0.07052437347359955,-9.804835154414178
14.21,0.4000000059604645,229.0,24.676668167114247,-0.007951773703098297,-79.78279666271348,40.45902971624543,269.6606379117966,0.002197595313191414,-0.017666032537817955,0.9985475540161132,0.05085254460573197,0.011797761508706563,-0.022367668608692225,-0.00041651592822614764,0.005611463449895382,0.0009731622412800787,0.002806896343827248,-0.3666403019428253,0.05629467625636608,-9.807216725349427
14.4,0.4000000059604645,227.0,24.667903900146484,-0.039758868515491486,-79.78279679471474,40.45902976442336,269.6295966770649,0.0021790186874568467,-0.017672859132289886,0.9985501170158386,0.05080074444413185,0.008543707018815558,-0.02571732956911392,-0.0017283020789226509,-0.0042453277856111535,0.0012864284217357635,-0.005275917239487171,-0.3687849144637585,0.06943452099803836,-9.80502168059349
14.5,0.4000000059604645,217.0,24.672910690307607,-0.007951773703098297,-79.7827968021285,40.45902978831225,269.62952685022356,0.002175647998228669,-0.017670361325144768,0.998551905155182,0.05076703429222107,0.009397769722731632,-0.02778475947456873,-0.0016327737180804114,0.005073368549346924,0.002362551400437951,0.0026381919160485268,-0.3647919239848853,0.052971456921659416,-9.807602056860924
14.7,0.4000000059604645,213.0,24.672910690307607,-0.015903547406196594,-79.78279696249173,40.459029751007904,269.6019813683033,0.0021668942645192146,-0.017690610140562057,0.9985548257827759,0.05070175603032112,0.010355311834646995,-0.01473190750262435,0.0030141358219590232,0.002248041331768036,0.0008713210700079799,0.004010796081274748,-0.3672353657707572,0.06242986727971584,-9.806513305306435
14.81,0.4000000059604645,205.0,24.664146423339844,-0.03180709481239319,-79.7827970956272,40.45902977029722,269.57279368901254,0.00216170446947217,-0.017707396298646927,0.9985567927360536,0.05065758153796196,0.011235923816001478,-0.015454862012441756,0.0014272379936984315,-0.00010370653035352008,-0.0038380597252398725,0.004150755703449249,-0.3677871602028608,0.05095323105342686,-9.807219648957252
15.0,0.4000000059604645,200.0,24.667903900146484,-0.007951773703098297,-79.78279711817343,40.45902980293892,269.57323658132555,0.002171651227399707,-0.01768704131245613,0.9985606670379642,0.05058851465582848,0.0119550159457728,-0.019523186956475383,0.0016285062393650714,0.005745663773268461,0.0021160501055419445,0.004896461497992277,-0.3670408727601171,0.055368472728878265,-9.807484527826313
15.11,0.4000000059604645,194.0,24.672910690307607,-0.02385532110929489,-79.78279723369721,40.459029808631094,269.5441034104824,0.00219184416346252,-0.01769150048494339,0.9985627532005308,0.050543319433927536,0.009020231548977868,-0.016551385843632516,0.0002916068879008978,-0.004271293058991432,-0.004320401698350906,-0.003479554085060954,-0.3667992365732789,0.05580460649449378,-9.807728356719018
15.3,0.4000000059604645,190.0,24.672910690307607,0.007951773703098297,-79.7827973978903,40.459029823172415,269.5154393877983,0.002180226147174835,-0.01773563027381897,0.998565137386322,0.0504819005727768,0.014950540020636716,-0.012951635381876252,-0.0010921158335343044,0.003023746423423291,-0.0013525037793442607,0.0068458039313554755,-0.3648741504549981,0.05316254210192711,-9.807470494508744
15.4,0.5,184.0,24.67165946960449,0.0,-79.78279741328981,40.45902983690617,269.5153996613026,0.002171181607991457,-0.01772489584982395,0.9985664486885072,0.05046066269278526,0.014250983695852447,-0.0147047978652323,-0.0009054153493078467,-0.004783091135323048,-0.0035044446121901274,-0.0014494940405711536,-0.36816649831831455,0.05816033547744155,-9.806967633962632
15.61,0.5,179.0,24.62282943725586,0.3101191818714142,-79.78279752655642,40.45902984235223,269.4866922464371,0.002187293954193592,-0.017737941816449162,0.998566746711731,0.05045026913285256,0.009326003753172472,-0.011901229149334322,-0.001620641693296865,0.011296717450022696,0.006886635906994343,-0.019838888198137283,-0.3665116997435689,0.03953191496897489,-9.806662409305574
15.71,0.5,176.0,24.66039085388184,0.3021674156188965,-79.78279766474729,40.45902986711981,269.4590587284565,0.0021637978497892627,-0.017747553065419197,0.9985729455947876,0.050324875861406326,0.009747774252133894,-0.011959773804119308,-0.0020903861225794805,-0.0033588847145438194,0.0008470902102999389,-0.007470388431102037,-0.35617056995630264,0.0626952851889655,-9.807490959763527
15.91,0.5,173.0,24.65538215637207,0.278312087059021,-79.7827976756578,40.45902988009968,269.4589098956585,0.0021680572535842657,-0.017737144604325294,0.9985734224319458,0.050318922847509384,0.01214231585297541,-0.014583227017978716,-0.0020413632947515934,0.006762115750461817,0.006725160870701075,0.007037536706775427,-0.3608325549960136,0.052439063368365166,-9.816136068105696
16.0,0.5,172.0,24.66164207458496,0.2862638533115387,-79.78279768651771,40.45902989398937,269.4587835636139,0.0021432717330753803,-0.017717177048325542,0.998579204082489,0.05021073296666145,0.010689812446938871,-0.016245768120830284,-0.0017515792940801086,-0.005703779868781568,-0.002412678673863411,-0.002297494560480118,-0.3700919498875737,0.06653493700549007,-9.806386420726774
16.2,0.5,172.0,24.66039085388184,0.326022744178772,-79.78279782572612,40.459029911988296,269.4311879243851,0.0021347347646951675,-0.01771150715649128,0.9985824823379515,0.05014777183532715,0.012390964840135184,-0.014194769542008616,-0.002107521763051323,0.002549754222854972,0.0017753123538568614,0.008522194810211658,-0.36523868780583146,0.057078458969481286,-9.806291695833208
16.3,0.6000000238418579,169.0,24.651626586914066,0.3498780429363251,-79.78279795770912,40.45902994800788,269.4040229883194,0.0021009079646319147,-0.017696509137749672,0.998585283756256,0.05009879916906357,0.013010615872347735,-0.016422561936061043,-0.0025797996560476,0.0008263902855105697,0.002573516685515642,0.0016275910893455148,-0.3609909414499998,0.051891996958293024,-9.806603352427484
16.5,0.5,170.0,24.650373458862305,0.41349223256111145,-79.78279797097656,40.45902996398856,269.40384092593195,0.0021043121814727783,-0.017698826268315315,0.9985895156860352,0.05001506581902504,0.013698158371202026,-0.01840796240907549,-0.002602659115563137,0.003355642780661583,-0.002952189184725285,0.004281491506844759,-0.3677777681127191,0.04978596235625446,-9.80409431219101
16.61,0.5,175.0,24.651626586914066,0.44529932737350464,-79.78279809347279,40.459029982723656,269.3794074174166,0.0020939465612173076,-0.017674429342150688,0.9985902309417723,0.050008274614810944,0.013196652831389032,-0.017453952080199047,0.0012070919129928282,-0.00673676049336791,-0.0008775027235969901,-0.0031355638056993484,-0.36765333205461503,0.061967704268172386,-9.809521113038064
16.8,0.5,176.0,24.61531639099121,0.7077078819274902,-79.78279821128041,40.459030027042495,269.3539986279011,0.0019493642030283809,-0.017700884491205215,0.9985958337783812,0.04989348724484444,0.012544149037752228,-0.020884584464872062,0.000268081225868723,-0.001408881857059896,0.0022171430755406627,-0.004737571347504854,-0.3885014698281885,0.07713942904025317,-9.812955182790756
16.91,0.5,181.0,24.646617889404297,0.2703603208065033,-79.78279822415854,40.45903004681113,269.35410244429113,0.0018474241951480508,-0.017627261579036713,0.9985995292663574,0.04984930530190468,0.010782528503043929,-0.023720416927577925,-0.0012319354565112498,0.010936054401099682,0.013566698879003523,0.002332167699933052,-0.3772885567322374,0.043037978564389054,-9.798311415910721
17.1,0.5,179.0,24.40121650695801,3.8645620346069336,-79.78279833329172,40.45903007939407,269.3295789923668,0.0019291669595986605,-0.017665956169366837,0.9986019730567932,0.0497831292450428,0.015449382172376312,-0.017865668398562424,0.0038888178178404452,0.029980305582284924,-0.02591525763273239,-0.025410134345293045,-0.39576787780970335,-0.006055047623813152,-9.806087628006935
17.2,0.4000000059604645,178.0,24.6215763092041,0.6202383637428284,-79.78279834472505,40.459030098303096,269.3299471553564,0.0017011023592203856,-0.017591012641787532,0.9986076354980468,0.04970460012555122,0.011235399033763364,-0.02364626286265229,-0.0007324016058313375,0.01710224151611328,0.05529934912919998,0.08868784457445145,-0.2832112605683505,0.1107839059084654,-9.808796058297158
17.41,0.4000000059604645,182.0,24.64787101745605,0.2544567584991455,-79.78279845046268,40.45903014203121,269.3064377125502,0.001820904086343944,-0.01766842044889927,0.9986070394515992,0.049684178084135056,0.014523366279148832,-0.022585255900508163,0.0023918085357121604,0.029045943170785907,0.003222752595320344,0.004911715630441904,-0.35533832844346763,0.03713976194383577,-9.819893488883972
17.5,0.4000000059604645,187.0,24.646617889404297,0.6997560858726501,-79.78279846242026,40.45903016217318,269.3067731078864,0.0018339500529691575,-0.017661629244685173,0.9986073970794678,0.04967847466468811,0.010784911622046823,-0.02336304304667017,0.003136327404797931,-0.006937019061297178,0.005077381618320942,0.0016543748788535595,-0.3630773376300931,0.05992541802115739,-9.80976260304451
17.7,0.5,191.0,24.471330642700195,4.866485595703125,-79.7827986290799,40.45903017414097,269.2797021534443,0.0018411484779790046,-0.017767779529094696,0.9986103177070618,0.049583736807107925,0.015862826558206877,-0.014504556071763984,0.0008624552004215853,-0.017909012734889984,-0.043268375098705285,0.005299418233335018,-0.37362140234559776,0.04380561291240157,-9.805276619195936
17.81,0.5,198.0,24.42375373840332,5.423110008239746,-79.78279871651999,40.459030184407744,269.25546639823915,0.0018551507964730265,-0.017750419676303864,0.9986116290092468,0.0495627224445343,0.007451396558785236,-0.016755684398714513,-0.0009628023377178057,-0.0193415991961956,0.04871866852045058,0.0094749815762043,-0.3317284045368433,0.12615803570486606,-9.82273406624794
18.0,0.6000000238418579,203.0,24.303556442260746,7.665510177612305,-79.78279874162412,40.45903021502585,269.25571343714,0.0015338533557951448,-0.01767003908753395,0.9986233115196228,0.04936512932181358,0.009146400462321224,-0.013836662161990929,0.004540681595365382,-0.05670120194554329,-0.05925135314464569,-0.13553978502750394,-0.4233067651838064,0.11971307015977803,-9.788315600752831
18.1,0.6000000238418579,207.0,24.24846649169922,9.28767204284668,-79.7827988763154,40.45903026075798,269.2313725616932,0.0011375914327800276,-0.01764852553606033,0.9986236691474916,0.049376647919416435,0.01965886661500217,-0.020386446097533897,0.0020415964236506733,0.07829955965280533,0.1311689466238022,-0.11586062610149385,-0.34585728753358125,0.018234806964173917,-9.82173770070076
18.3,0.699999988079071,206.0,24.10698509216309,12.038985252380373,-79.78279901757438,40.459030310226034,269.20910905712844,0.00017252459656447172,-0.017716895788908005,0.998625874519348,0.04932122305035591,0.01885143643287581,-0.02086071551771705,0.002727983205683312,0.01309205312281847,0.02413654699921608,0.04539862275123596,-0.4549884413927794,-0.13842612454667688,-9.790061579346657
18.4,0.699999988079071,204.0,24.033113479614247,13.565726280212402,-79.78279904188726,40.45903033010231,269.20950430297853,-0.0009179413318634033,-0.017591578885912895,0.9986348748207092,0.04917475208640098,0.026195289845960285,-0.02128645051270732,0.003577386956529671,0.0685683935880661,-0.009622607380151749,-0.10851765424013138,-0.21775685247033835,0.11887827962636947,-9.878372662067411
18.6,0.8000000119209291,205.0,23.85907745361328,17.446191787719727,-79.7827992273378,40.459030353120006,269.18583187499644,-0.003700669854879379,-0.01748218759894371,0.9986059665679932,0.04966669157147408,0.02162301899967223,-0.014396655968555962,0.01143705760943569,0.022535840049386024,-0.007774152792990208,0.05543791875243187,-0.4520832157507539,-0.14584110662341118,-9.867274646759034
18.71,1.0,207.0,23.802736282348643,19.028594970703125,-79.78279924618205,40.45903036926602,269.187695037961,-0.003976987674832344,-0.016618629917502403,0.9985470175743104,0.051108166575431824,0.015246066865007568,-0.00727403724554237,0.01749814358833636,-0.013958949595689774,0.037904005497694016,-0.025611462071537968,-0.2253537377715111,-0.257317432500422,-9.78379161000252
18.9,1.2000000476837158,208.0,23.602407455444336,22.789783477783203,-79.7827993492943,40.45903035431459,269.1665815193355,0.002918864833191037,-0.022587152197957042,0.9985241293907166,0.04930365830659866,-0.010776691815966187,0.052619383341479815,0.051892962974018415,-0.004019728396087885,-0.12310152500867845,0.012013726867735386,-0.03944904439151287,-0.1397340187802911,-10.01623129606247
19.01,1.399999976158142,207.0,23.50975608825684,25.07194328308105,-79.78279933089695,40.459030271182286,269.1752399880588,0.005218114238232374,-0.029391143471002582,0.998410165309906,0.0478133000433445,-0.04134462090054574,0.11907358215298885,0.13967320606434025,-0.12117138504981995,-0.2058180272579193,-0.015976518392562866,-0.02293675863649696,-0.13882894288748504,-10.553786880970003
19.2,1.600000023841858,199.0,23.78645896911621,18.29703140258789,-79.78279940563458,40.459030068576034,269.1934820193946,0.0036550504155457024,-0.02470402792096138,0.998688578605652,0.04469431564211845,-0.06189551802968135,0.18504114216396905,0.3736826920732623,-0.012244833633303642,0.33852922916412354,-0.05055124685168266,-0.27833426244556897,-0.014790497731883082,-10.747280602455142
19.31,1.5,188.0,23.728864669799805,18.97293281555176,-79.78279953629082,40.459029664229064,269.1975732188821,0.0056077190674841395,-0.00626276945695281,0.9989977478981018,0.04396408423781395,-0.07931708904981825,0.2267083852140189,0.3456048031248205,-0.06848505139350891,0.3174906671047211,-0.07739360630512238,0.028165603824891163,0.059073716243729014,-10.06052863240242
19.5,1.5,185.0,23.712589263916016,19.6965446472168,-79.78279940264518,40.459029215414034,269.2608593817949,0.0004815552965737879,0.019773615524172783,0.9987951517105104,0.04491273686289786,-0.08916981573499855,0.25494260662465223,0.27872144109974395,0.06501784920692444,0.016009902581572533,0.0789044126868248,0.2580532315000892,-0.1247588792257011,-9.5032860571146
19.6,1.600000023841858,190.0,23.71008491516113,19.36256980895996,-79.78279941591403,40.459028642784475,269.22914102339746,-0.0051781535148620605,0.026703299954533573,0.9985495209693908,0.046466514468193054,-0.0883213862516584,0.2337863448720435,0.1753774552942083,0.0532798208296299,0.01537338923662901,0.05129673331975937,0.2531900839693845,0.06269216515123845,-9.359167978763582
19.8,1.7999999523162842,189.0,23.57110595703125,21.87532997131348,-79.78279935036525,40.45902842366024,269.2319825407267,-0.006381465587764978,0.028038764372468,0.9984051585197448,0.0485822819173336,-0.06502069450744279,0.12689973747154154,0.09820204803396193,-0.059592548757791526,-0.07753080129623413,0.05546599999070168,0.15105404555797575,-0.19749712731689206,-9.443421093821526
19.91,1.8999999761581416,177.0,23.71008491516113,18.877511978149414,-79.78279929195055,40.45902832056525,269.24238268697263,-0.0017508335877209902,0.019505709409713745,0.9986153841018676,0.048825692385435104,-0.058506462377493774,0.10343079375051724,0.1004319635678939,-0.02626929432153701,-0.2469499856233597,-0.04171789065003395,0.17414740450680258,0.003097398038953543,-9.761145343780518
20.11,1.8999999761581416,182.0,23.623693466186523,21.30280303955078,-79.78279902668731,40.459027895583546,269.2949937846661,-0.0005381404189392924,0.0056343688629567614,0.9988273978233336,0.0480811707675457,-0.06033769655808403,0.06852323423687788,0.16066330251489894,0.03803613781929016,-0.04332245513796806,0.02111526019871235,0.0755532073415816,-0.020388000730890785,-9.848308618068694
20.2,1.8999999761581416,189.0,23.65249061584473,19.903289794921875,-79.78279896677861,40.459027836527724,269.3132461425066,-0.0036861184053123,0.0062766969203948975,0.9988595843315125,0.04718780517578125,-0.049012481343272095,0.05420112453654846,0.20128345727987812,0.10242363810539246,0.02186490222811699,-0.06503504514694214,0.038777208449319006,0.0012624778132885694,-10.187932444810867
20.41,1.8999999761581416,183.0,23.597400665283203,20.73822593688965,-79.78279883967815,40.459027729506815,269.3460296210051,-0.0012407478643581273,0.004417122807353735,0.9990119338035583,0.04420696943998337,-0.05562072308314056,0.04439843524501634,0.21326018820698786,0.032849002629518516,-0.06910709291696547,0.03063593246042728,0.00909197266213596,-0.14713938949629665,-9.80730618774891
20.51,1.7999999523162842,183.0,23.59489631652832,20.61894989013672,-79.78279877407455,40.45902768750359,269.36750302875043,-0.0007235283846966923,0.0037954831495881076,0.9990668296813964,0.04301998391747475,-0.059458863448137764,0.0371865054057162,0.21880523069068733,-0.01606800965964794,0.05492817237973213,-0.014696164056658743,0.03659100760705769,-0.11615680273622275,-9.877895529270171
20.6,1.8999999761581416,185.0,23.60491180419922,20.69051551818848,-79.78279863540303,40.45902760311336,269.37936910653116,-0.0005295721348375082,0.006300079170614481,0.9990740418434144,0.04255877062678337,-0.07830438659242679,0.03133556223990459,0.2379576764110469,0.0012037390843033786,0.10255613923072816,-0.0012013053055852652,-0.02012847343459725,-0.09980936734937132,-9.910928789377213
20.8,1.7999999523162842,190.0,23.644977569580078,18.88546371459961,-79.78279841928419,40.459027461174045,269.4173853662014,-0.0046291914768517035,0.007851737551391125,0.9990819096565248,0.04186125472187996,-0.07791311201370453,0.03554239865377321,0.2670606549773269,0.03235223144292832,-0.10542138665914537,-0.037858542054891586,0.0660011775791645,-0.008450964794028551,-9.893340364694595
20.9,1.8999999761581416,192.0,23.81400489807129,17.74835968017578,-79.78279833777792,40.459027435677,269.4434933629036,-0.007323698606342076,0.0054756393656134605,0.9990554451942444,0.04248188063502312,-0.06978103114340899,0.018418110757644768,0.2290331226846397,0.06534284353256226,-0.087228924036026,-0.017390979453921318,-0.04420479958411306,-0.04004981839098037,-9.380392202138902
21.1,1.8999999761581416,189.0,23.420860290527344,24.65049934387207,-79.78279831356059,40.459027391999605,269.4674210216999,-0.010980591177940369,0.002268742071464658,0.9990180134773254,0.04286492988467217,-0.03679983320123372,-0.0016753252791990017,0.08292759958909225,0.012519276700913906,0.0049725305289030075,0.021127432584762573,-0.014863661017734559,-0.10145258112810553,-9.517135187387467
21.3,1.8999999761581416,187.0,23.261850357055664,27.44157218933105,-79.7827979448914,40.459027372800996,269.5147043731213,-0.005807909648865461,0.003296414623036981,0.9991198182106018,0.04141310229897499,-0.05896497821474166,0.005421451387047698,0.29565952861747385,-0.25419002771377563,-0.05060271173715592,-0.07274360954761505,-0.0489784253295511,0.2075683715566993,-10.743857642412186
21.41,1.7000000476837158,188.0,23.27186584472656,28.16518402099609,-79.78279790911569,40.459027370659825,269.55209192299844,-0.0032950686290860176,0.0028157683555036783,0.9991722702980042,0.04044986888766289,-0.01892196002108356,0.002460892848086945,0.4549252471921366,0.14891108870506287,-0.04247111454606056,0.11469975858926773,0.10270952235907316,-0.3275352931022644,-11.297937458753589
21.5,1.8999999761581416,188.0,23.09657859802246,31.10733985900879,-79.78279788218586,40.45902737212628,269.6065704789162,-0.0032780820038169627,0.00208043260499835,0.9992059469223022,0.0396556593477726,-0.018572937666645275,-0.00031242806197245344,0.6382565989207766,0.06658206880092621,0.026484405621886253,-0.0333799347281456,0.11690966829657555,-0.08000255472958089,-11.55646742105484
21.7,2.0,183.0,23.11786460876465,30.2962589263916,-79.78279786918826,40.45902747977468,269.7308849658966,-0.0028775730170309552,0.002226226730272174,0.9992299675941468,0.03906850144267082,-0.02073245450337121,-0.012684072837177623,1.0366266687437389,0.033194418996572495,0.003984115086495875,0.1351277381181717,-0.022135831704363236,-0.07077219491824507,-11.938188861608506
21.8,2.0,180.0,23.09282302856445,30.980112075805664,-79.78279787682969,40.45902750780474,269.82129823827745,-0.002282260684296489,0.001607230049557984,0.9991998672485352,0.03989801183342934,-0.012311374270250879,-0.017544948882789138,1.21948716612277,0.0490393191576004,0.004919161088764668,0.054256841540336616,0.06822709837462754,0.05316736148670316,-11.88621997833252
22.0,2.0,185.0,23.08656311035156,30.08156013488769,-79.78279786263325,40.45902754324918,270.11142462158205,-0.002425088780000806,0.0018170838011428714,0.9990757703781128,0.04287903755903244,-0.012561262656161008,-0.01958214278341605,1.702457071559118,-0.01447449531406164,0.032506681978702545,0.1186159923672676,0.027822618945501747,-0.1546807810664177,-12.339848138093949
22.2,2.0,185.0,23.03522872924805,31.94227600097656,-79.78279788096873,40.45902758837478,270.4702712860108,0.0003805187880061567,0.0007316127885133027,0.9990195631980896,0.044265016913414,-0.003642766531979609,-0.0007201184750218843,2.1225410404832057,0.04445572942495346,-0.03374611586332321,0.1538943201303482,0.058419901602901524,-0.2536956671252847,-11.889814846515653
22.31,2.0999999046325684,186.0,22.953845977783203,31.94227600097656,-79.78279799077373,40.45902762947032,270.6403648223877,0.002378259552642703,-0.001988146686926484,0.9989774823188782,0.045105788856744766,0.0009520552489073043,0.0015288027270933047,2.2728932188103452,-0.005373568739742041,-0.03372521698474884,0.1517152041196823,0.04374043016228825,-0.2709492108039558,-11.827489374876025
22.4,2.0999999046325684,189.0,23.01644897460937,30.55071449279785,-79.78279797841421,40.459027625262046,270.87922387981416,0.0045487280003726465,-0.002333560492843389,0.9989383220672609,0.04578408226370812,-0.0023330745936332524,0.002574614680310466,2.5058747305877875,-0.03259467706084252,0.07601970434188843,0.07103978097438812,0.05734182121697814,-0.06587994835339486,-12.02662565946579
22.61,2.0999999046325684,188.0,23.234304428100586,26.622539520263672,-79.7827981410065,40.459027683419855,271.326284822464,0.007376402150839567,0.006048656068742275,0.9989134669303894,0.04561717063188553,0.0058156984215430784,0.023069677215749082,2.7959054365237748,-0.005427037365734577,0.17538170516490936,0.013931455090641977,0.10450419729575516,-0.006993068922311068,-11.475636681318285
22.8,2.0999999046325684,188.0,23.258094787597656,26.12952995300293,-79.78279838645709,40.45902777812784,271.77199285888673,0.011355145834386349,0.014128977432847025,0.9989245533943176,0.042675189673900604,-0.0036133752406434156,0.070554187009153,2.8743875087113016,-0.1273382008075714,-0.0334760881960392,-0.09626512229442596,0.22285116601735355,0.035972310521174215,-10.553889791965485
22.9,2.200000047683716,193.0,23.28188323974609,25.81941032409668,-79.78279831375035,40.459027778497685,272.0613865222931,0.015027224086225031,0.014854080975055696,0.998939037322998,0.04091977700591087,-0.009585354268355654,0.0695582960032976,2.913385496398558,0.01762540079653263,0.11273590475320815,-0.05781484022736549,0.17257291378453374,0.08463793493807316,-10.290535876750944
23.0,2.4000000953674316,195.0,23.276874542236328,25.040136337280273,-79.78279820691647,40.45902779066783,272.3546614017487,0.017419815063476562,0.014390663243830202,0.9989758729934692,0.03920260444283485,-0.0154226966341113,0.06364805699176697,2.9573971741835714,-0.03377976268529892,-0.02518233098089695,0.0065809115767478926,0.17173942973837258,-0.0628869322501123,-10.27764510512352
23.21,2.4000000953674316,190.0,23.265605926513672,23.147613525390625,-79.78279832825038,40.459028020021,272.80413812065126,0.012961562722921371,0.009757455438375471,0.999162495136261,0.03756416216492653,-0.04739282176895236,0.0077425191594998576,2.895684550639124,0.06886963546276093,0.0021388765890151267,-0.10056622326374054,0.11931794456206266,0.2897954994812608,-9.84770401597023
23.3,2.5999999046325684,186.0,23.328208923339844,24.467607498168945,-79.78279842164112,40.45902813466081,272.9800779190064,0.007314583752304316,0.007753477431833744,0.9992470145225524,0.03730801492929458,-0.058409204938597185,-0.01907828456290148,2.815322125306952,0.11082861572504044,0.04343045875430107,0.050890862941741936,0.059605616438202565,-0.08870500233024359,-9.748163940310477
23.5,2.799999952316284,179.0,23.34698867797852,23.56905746459961,-79.78279805960986,40.45902827132209,273.5373422470093,0.0036101166624575853,0.0064191301353275785,0.9992371797561646,0.038352586328983314,-0.11568131527299595,-0.05874780812960459,2.7686134581876054,0.12194910645484924,0.008303094655275345,0.053387008607387536,0.10002332976087927,-0.20535145455971365,-9.673972129225731
23.7,2.9000000953674316,172.0,23.23680877685547,26.447599411010746,-79.78279796685719,40.45902859520906,273.967918094635,-0.0009364299476146696,0.0050250724889338025,0.9992105960845948,0.03939761593937874,-0.10725230465401524,-0.08873210563712157,2.62895040999072,0.1993858516216278,0.041173290461301804,0.04227298498153687,0.15809464138001206,-0.16889832247048614,-9.5568009442091
23.8,3.0,164.0,23.231800079345703,25.68422889709473,-79.78279848058428,40.459028275593155,274.13404959106447,-0.001856716931797564,0.005669265985488893,0.9991952776908876,0.039664287120103836,-0.09118922392936296,-0.049933537128982734,2.5510327636674868,-0.13615569472312927,0.06874118745326996,-0.07300250232219696,0.00885803835466504,0.2406885724514723,-9.590508388280867
23.9,3.0,158.0,23.336973190307607,23.855321884155273,-79.78279838362931,40.459028343592074,274.38918035888673,0.0019760068971663713,0.007371776271611451,0.9992089867591858,0.03902892768383026,-0.08723131432167078,-0.05600308938847735,2.5559458834033464,-0.09886947274208067,-0.049984421581029885,-0.009785755537450314,0.06910344982054085,-0.13755138108506798,-9.831234748363496
24.1,3.0999999046325684,151.0,23.24557304382324,26.65434646606445,-79.78279730708698,40.45902826066187,275.0744673576355,0.0014327550306916235,0.00868477113544941,0.9992220401763916,0.03844544291496277,-0.07936223117509805,-0.041994453115199705,2.5956455384453205,0.09302746504545213,0.06811684370040894,0.06386137753725052,0.1381804135814309,0.17065082436427476,-9.658974605798722
24.3,3.0999999046325684,152.0,23.288143157958984,24.11773109436035,-79.78279623428385,40.459028087705896,275.70477884674074,-0.0037718226667493577,0.006881311535835265,0.9992140531539916,0.038854844868183136,-0.11155056920747078,-0.039619781681454684,2.617801023308709,0.13157835602760315,-0.0018252320587635038,-0.010778031311929226,0.0585158187802881,0.1406640367023647,-9.793009745478633
24.41,3.0,155.0,23.29189872741699,24.38809013366699,-79.7827961030858,40.459028152453605,275.96641510391237,-0.0071847005747258655,0.007735297083854675,0.999170184135437,0.03933966904878616,-0.10087320637126132,-0.0515783535518285,2.6105548690218567,0.23560768365859985,0.04928911104798317,0.13082534074783325,0.14544137634336948,-0.2799340423755348,-9.779443620443343
24.6,2.9000000953674316,154.0,23.25183296203613,24.793630599975586,-79.78279469963441,40.459027997406935,276.6478535499573,-0.008472188375890255,0.009012194350361824,0.9990832209587096,0.0409860834479332,-0.1782433463790448,-0.03152779770189597,2.6515610576941087,-0.10294928401708604,-0.04635613039135933,0.06662990897893906,0.08542048425413669,-0.15660526419058446,-9.786636280417444
24.7,2.5999999046325684,156.0,23.25934600830078,24.22110366821289,-79.78279455472338,40.459028064219055,276.91297024154665,-0.00659880181774497,0.009583079256117344,0.9990689158439636,0.04154551774263382,-0.1548776737311328,-0.04137774115425528,2.6457958387392857,0.0100306561216712,-0.01620796136558056,-0.027476249262690544,0.14537679201923312,-0.028790461043827237,-9.798693239092827
24.8,2.5999999046325684,159.0,23.294403076171875,23.974597930908203,-79.7827934032537,40.45902774828996,277.295847114563,-0.007090296596288681,0.01033345889300108,0.999059796333313,0.04150278493762016,-0.1679373939525,-0.031374840895851644,2.669155300798032,0.13443879783153534,0.07449153065681458,0.06486734002828598,0.13080188523977995,0.0008834229223430158,-9.703318719863892
25.0,2.200000047683716,169.0,23.249330520629893,25.19917106628418,-79.78279310174322,40.45902788403389,277.8258354034424,-0.011397689580917358,0.010622842237353323,0.999018132686615,0.04147424548864365,-0.14581370455747267,-0.03886294142233709,2.629716972922711,0.17903512716293335,-0.006448861211538315,0.0917382836341858,0.14182068904861808,-0.1526435745880008,-9.676754234433174
25.1,2.0999999046325684,172.0,23.23305320739746,25.18326759338379,-79.78279176459324,40.45902747548053,278.28841608428957,-0.012381494976580143,0.008457816205918789,0.9990389347076416,0.04118717461824417,-0.2038268212219136,-0.019752376567407318,2.710181916951353,0.002919577527791261,-0.033860601484775536,-0.0314437560737133,0.1952088742889464,-0.06108982706442476,-9.810191788673402
25.31,1.7000000476837158,180.0,23.2030029296875,24.96061897277832,-79.78278991158372,40.45902691452623,279.0537978973389,-0.012251945212483406,0.006771023385226727,0.9990666508674622,0.040863540023565285,-0.21769370698987828,-0.012080759055476844,2.791018689852264,0.16075530648231506,0.03765031322836876,0.09830743074417114,0.15947350619360806,-0.3336352546513081,-9.703905195593837
25.51,1.7000000476837158,184.0,23.17671012878418,24.14953804016113,-79.78278956955974,40.4590269633507,279.6091958847046,-0.011774485930800438,0.0061415135860443115,0.9990431666374208,0.04167165607213974,-0.1851688726569032,0.001457523636661802,2.7589839338552142,0.01422614324837923,0.04435089603066445,0.07940496504306792,0.10178148700855673,-0.1644145678728819,-9.690888124108318
25.6,1.8999999761581416,191.0,23.19423866271973,24.34037971496582,-79.78278807566308,40.4590262280824,280.1383115615845,-0.012049580924212929,0.005780363455414772,0.9990213513374328,0.042164329439401634,-0.2173736955545179,0.036342738641571865,2.8635274030055835,-0.0883219987154007,-0.07369724661111833,-0.06601137667894362,0.1705679949000478,0.06755195053294301,-9.828622212409973
25.71,1.8999999761581416,195.0,23.205507278442386,25.350255966186523,-79.78278792209484,40.459026216021215,280.4256135787964,-0.011707994155585766,0.006480049341917038,0.9990071654319764,0.04249190166592598,-0.18007974627773352,0.0291284709393456,2.872907857083084,0.1407531052827835,0.1295003741979599,0.035221096128225333,0.12512141573242844,-0.20475646382197732,-9.900852867364883
25.9,2.0,201.0,23.14916610717773,25.437725067138672,-79.78278649426694,40.45902534765363,281.19375151062013,-0.009530633687973022,0.00938878394663334,0.9990317821502686,0.04191037639975548,-0.17539733579690694,0.08545255821812522,2.9490442924720552,0.1508433073759079,-0.0012787532759830356,0.1028173565864563,0.14692700766026975,-0.3085980619490147,-9.927483426332476
26.0,2.0,200.0,23.162939071655273,25.827362060546875,-79.78278636305485,40.45902530579427,281.49077146911617,-0.010114233009517193,0.008938862942159176,0.999039888381958,0.0416790246963501,-0.17681310696028466,0.09002532524660778,2.981540527213462,-0.11331076174974446,-0.054549165070056915,-0.058862008154392235,0.04424661174416542,0.18622808095067744,-10.017811213731768
26.2,2.0999999046325684,203.0,23.19048309326172,25.00832939147949,-79.78278508835955,40.459024272821225,282.2993175354004,-0.010706673376262188,0.004480170086026193,0.9990820288658142,0.04123737663030624,-0.1562705492537462,0.1319020320459667,3.0770907682066158,0.02588598243892193,-0.04720264300704002,-0.04120602086186409,0.17037642549723386,-0.017468517932575197,-9.900590912103654
26.41,2.200000047683716,204.0,23.23806190490723,25.24688148498535,-79.7827844409453,40.459023218958784,283.19125193023683,-0.007447785232216121,0.0005641091265715659,0.9991400837898254,0.04078468307852745,-0.1178375251309382,0.1526108894898289,3.1644707522326088,-0.097711943089962,-0.06947512179613112,-0.04864649474620819,0.0513025702117011,0.01839586121030152,-9.689978297352793
26.51,2.4000000953674316,206.0,23.17045021057129,24.197248458862305,-79.78278439892338,40.45902308623953,283.5076143112183,-0.00654459185898304,0.002031278098002076,0.9991636872291564,0.04031237959861755,-0.07499124385307622,0.14720248452635112,3.1589119220158617,0.12445227801799776,0.02587388828396797,0.05690417438745499,0.16866066969931126,-0.3407209105789661,-9.789447036981583
26.6,2.4000000953674316,204.0,23.1929874420166,24.82543754577637,-79.78278405400016,40.45902317496307,284.0109235610962,-0.005228017456829548,0.005021276418119669,0.9991637468338012,0.04024113714694977,-0.06253319655627505,0.1218318783521104,3.2324352640698604,-0.006353795994073153,0.1507532298564911,0.012752347625792028,0.12600770744495093,0.04905393663793803,-9.763801149129868
26.8,2.5,204.0,23.27061462402344,23.537250518798828,-79.78278374660471,40.45902294582945,284.74730509185787,-0.002644245745614171,0.010984085500240326,0.9991180896759032,0.04044200852513313,-0.008135637070400159,0.1367942664639096,3.2418941242313437,0.13615119457244873,0.01774616539478302,0.07152905315160751,0.13271008752286434,-0.31146897174417976,-9.776548663973813
27.0,2.5999999046325684,204.0,23.13664436340332,25.68422889709473,-79.78278376833407,40.45902280567272,285.3930312957764,-0.006478288676589727,0.010446947999298573,0.9991441369056702,0.03949815034866333,-0.03978994089847026,0.14438842213584555,3.200157008350837,-0.0887482538819313,-0.08793614059686661,-0.09222080558538437,0.09540879853069782,-0.027421038569882514,-9.53869504094124
27.11,2.5999999046325684,207.0,23.22679328918457,23.46568489074707,-79.78278379785671,40.459022668761314,285.77204626464845,-0.007144739385694265,0.007852597162127495,0.999220848083496,0.038012951612472534,0.0009611382429319721,0.12077761547609282,3.197119937165698,0.16652749478816986,-0.03280721604824066,0.07996218651533127,0.16818227609619502,-0.3683232402428985,-9.730141652226447
27.2,2.700000047683716,208.0,23.24306869506836,23.147613525390625,-79.78278383712558,40.4590226208955,286.0919181671143,-0.007030986249446869,0.00437827967107296,0.9992946982383728,0.03662676364183426,-0.026544335565849092,0.10309451314068986,3.194916884265397,-0.09668862074613573,-0.0976519212126732,-0.12064933776855467,0.14501630203798413,0.027566588558256628,-9.761485651731492
27.4,2.9000000953674316,214.0,23.17545890808105,24.04616355895996,-79.7827838024953,40.459022695628725,286.74347036743166,-0.004735211376100779,-0.00016312958905473351,0.999349057674408,0.03576488047838211,-0.01499954753376684,0.056658626078297726,3.150621192901892,-0.19761040806770325,-0.08185653388500214,-0.10778190195560457,0.027334476937539882,0.1010569347627461,-9.58951202273369
27.5,3.0,216.0,23.235557556152344,24.42784881591797,-79.78278384764292,40.45902265214403,287.05775946044923,-0.001924441545270384,0.0002865418791770935,0.999342679977417,0.036202136427164085,0.012042775937932806,0.052098788508757835,3.1354264436701063,0.033485837280750275,-0.006683813408017159,0.07302019000053406,0.13205442278645935,-0.33224040135741234,-9.677349480986596
27.7,3.0999999046325684,221.0,23.159181594848643,24.70616149902344,-79.78278441990246,40.45902281231041,287.6638767089844,-0.006396179553121328,0.008699472993612291,0.9992344975471495,0.03760277479887009,0.07314065097372327,0.05717108733753407,3.0761407055954884,0.12463299930095673,0.1560376137495041,0.05724647268652916,0.12281681790947915,-0.14731813156977294,-9.688757983446123
27.9,3.0999999046325684,222.0,23.209264755249023,23.89508056640625,-79.78278441056499,40.45902284009785,288.2857143249512,-0.0097513971850276,0.006801529321819544,0.9991850852966307,0.03857425972819328,0.033446607358698435,0.0679264982965326,3.06387744484821,0.12722423672676084,-0.026254521682858467,0.05826708674430847,0.14507775261998174,-0.29116363830864433,-9.85961011648178
28.0,3.0999999046325684,223.0,23.16794586181641,24.32447624206543,-79.78278450642874,40.45902283563945,288.5928890075684,-0.008054004050791264,0.0020089333411306143,0.9992309808731079,0.038321636617183685,0.012564400514617977,0.05582182179683115,3.0788953766380014,-0.15954917669296265,-0.1530659794807434,-0.1350797712802887,0.1338629483152181,-0.037546227942220865,-9.907540912628177
28.1,3.0999999046325684,221.0,23.280630111694336,22.59894180297852,-79.7827844881208,40.45902292616869,288.9012786712646,-0.005834902636706829,-0.002350372960790992,0.9992657899856568,0.0377957858145237,0.05055831484529952,0.01496366999688499,3.0763151070943486,0.12478142976760866,-0.08110801130533217,0.15361878275871274,0.04777367049828172,-0.3484846607968211,-9.987129703760148
28.3,3.2000000476837163,222.0,23.260597229003906,23.36231231689453,-79.7827846925607,40.459022840877225,289.5176441040038,-0.0033438890241086483,-0.004483011085540056,0.9993278384208679,0.03623174130916596,0.0822936580617355,4.4833974817770975e-05,3.0766860493392922,-0.014518903568387032,0.06704973429441452,0.07072918117046356,-0.054027212820947176,-0.1828330596350133,-9.891113744974136
28.5,3.299999952316284,221.0,23.112855911254893,25.54109764099121,-79.78278493920142,40.459022786222384,290.1332485046387,-0.00010503922385396436,-0.0004026205569971353,0.9993575811386108,0.035836879163980484,0.0871980493365459,0.03645314382098255,3.0753873651139503,-0.04031655564904213,-0.07109995186328888,0.057020798325538635,0.09040159022435547,-0.22173350729048247,-9.813593698740004
28.6,3.2000000476837163,219.0,23.16794586181641,23.71219062805176,-79.78278483554409,40.459022700248156,290.4336921539307,0.000814052764326334,0.0009833370568230748,0.9993402361869812,0.03629780188202858,0.09237291803733616,0.06128362193618937,3.04744404623622,0.08651226758956909,0.07023703306913376,0.046318214386701584,0.13922708345577126,-0.13446946903131904,-9.774665275812147
28.7,3.0999999046325684,213.0,23.28939437866211,22.59099006652832,-79.78278493884119,40.459022648557344,290.73780172729494,8.355934369319583e-06,0.0028559055645018816,0.9993244409561156,0.03664115071296692,0.08998583664194038,0.07348212378248517,3.0315042026838173,0.046762049198150635,-0.031491339206695564,-0.007087033707648516,0.1510779551882297,-0.1028234060201794,-9.705895587801932
28.9,2.9000000953674316,206.0,23.112855911254893,25.461580276489247,-79.78278489021227,40.459022209751176,291.3228828277588,-0.0011308331741020086,0.008465098217129706,0.9992626309394836,0.03743498027324677,0.05093917190156127,0.1322858758740894,2.959934753744518,-0.08539784699678421,0.11284585297107695,-0.03633438423275948,0.091018179114908,0.21481964986771346,-9.648897514343265
29.0,2.799999952316284,201.0,23.21302032470703,23.489540100097656,-79.78278498353917,40.4590221276041,291.6193420257568,0.0013829639647156,0.010456136427819729,0.9992591738700868,0.03701397031545639,0.05469451448410431,0.14639937679024972,2.97020421124642,-0.16220250725746155,-0.04869415238499642,-0.1080690547823906,0.08360756417736412,0.10163465794175863,-9.84139370083809
29.2,2.799999952316284,194.0,23.14666175842285,24.47555923461914,-79.78278535259648,40.45902190532178,292.20844190979005,0.002716020215302705,0.008239655755460262,0.9993400573730468,0.035274721682071686,0.0912779029874274,0.15171742190165607,2.967389980692964,-0.17633910477161407,-0.04220373556017877,-0.11765844374895094,0.10217316823080183,0.30146244887262585,-9.862364155054092
29.3,2.700000047683716,190.0,23.14165306091309,25.10375022888184,-79.78278549530775,40.45902185113178,292.51512831115724,0.004506190773099661,0.006029132287949325,0.9993781447410583,0.03445146232843399,0.12927584374627218,0.12960156771896064,2.9834785199328655,0.017691245302557945,-0.04958828911185265,0.0950867235660553,0.10717478513717653,-0.22344010854139928,-9.966397815942763
29.51,2.799999952316284,194.0,23.1641902923584,24.332427978515625,-79.78278572781028,40.459021715902594,293.11790007019044,0.008893217891454697,0.003890324383974075,0.999371349811554,0.03409964591264725,0.12965874467990396,0.11052025400517856,3.0459993176185187,0.04169363155961037,0.0880388468503952,0.0072633177042007455,0.13989558465778829,0.15402691617608072,-10.108410311937332
29.6,2.799999952316284,196.0,23.19924736022949,23.608816146850586,-79.78278565837095,40.4590217207056,293.42655104064943,0.008813107386231422,0.003920808434486389,0.9993528723716736,0.03465304896235466,0.10062253348536444,0.10118333724900357,3.066890988421107,-0.13537870347499847,-0.008165924809873104,-0.09528277814388277,0.021639702308457347,0.05517388835549355,-10.106264383792878
29.81,2.9000000953674316,194.0,23.21051597595215,24.23700714111328,-79.78278568377613,40.45902163134329,294.04016416931154,0.0035311307292431593,0.009777739644050598,0.999320387840271,0.035366583615541465,0.07151855760485773,0.1156128636813203,3.0365175373521005,0.04713300615549088,-0.07693270593881607,-0.01945585012435913,0.16560387326404452,-0.2176309546083212,-9.766932917833328
29.9,2.9000000953674316,197.0,23.126628875732425,24.563030242919922,-79.7827857210635,40.45902156983283,294.3427230682373,-0.001435805344954133,0.010337959043681622,0.9993399381637572,0.03479693457484245,0.061311102012279475,0.12718714562858127,3.0068712331071525,0.3096437752246857,0.08219940215349197,0.07304327934980392,0.19493546213954688,-0.2766305848024785,-9.599115489721301
30.1,3.0,198.0,23.19423866271973,23.33050537109375,-79.78278567738775,40.459021479213405,294.9532253112793,-0.004054132848978043,0.009164001792669295,0.9993839859962464,0.033634983003139496,-0.0039937292340017074,0.1072093405321079,2.9788012089437563,0.07774700224399568,0.10040511935949326,0.01805870048701763,0.1342323553003371,-0.19522937608882787,-9.6977849149704
30.3,3.0,200.0,23.105342864990234,25.77169990539551,-79.78278550736019,40.459021413975634,295.56460874938966,0.0012101678876206279,0.007663966622203588,0.9994048476219176,0.033612899482250214,0.0058588469034610464,0.08639275752485184,2.9708090030677523,0.05430178716778755,-0.002891776151955128,0.09532073885202408,0.0948396725859493,-0.29943651655688885,-9.78632053077221
30.4,3.2000000476837163,211.0,23.13664436340332,25.07194328308105,-79.7827855152654,40.45902138157306,295.86249464416505,0.0010628829477354882,0.006472187582403421,0.9994259476661682,0.03323977068066597,0.004250035375034841,0.08370816213128941,2.985715357413835,-0.04205365851521492,-0.11142247915267944,-0.0696820616722107,0.18671416729688645,-0.09912308695726098,-9.92617014169693
30.5,3.2000000476837163,214.0,23.13038444519043,24.21315193176269,-79.78278551802974,40.45902134783715,296.16188162231447,-0.00107610656414181,0.005543304141610861,0.9994375109672546,0.03305908292531967,0.005557216720515929,0.07422350245274875,2.9993298022750086,0.1429920345544815,0.06366383284330368,0.012190693989396095,0.1700545910932124,-0.1245280238427222,-9.950742480754851
30.7,3.2000000476837163,222.0,23.08531188964844,25.946638107299805,-79.78278537300167,40.45902126578349,296.7806732025146,-0.002697113202884793,0.008930805139243603,0.9993823766708374,0.03388101607561112,-0.04351541347760142,0.0742990065887548,3.0185663238721463,-0.0910215973854065,0.023198382928967483,-0.05618634074926376,0.12633104933425784,0.09409291919320822,-9.783547781109812
30.8,3.299999952316284,225.0,23.099082946777344,25.15146064758301,-79.78278524577942,40.45902127274967,297.09200971984865,-0.004751249682158232,0.010170556604862213,0.9993206858634948,0.035104066133499146,-0.03869837789019295,0.08123571578789028,3.021183433327908,0.009014014154672623,0.09466616064310074,0.06200080737471581,0.09146865226328374,0.027149618128314616,-9.817558110952378
31.01,3.4000000953674316,227.0,23.1003360748291,24.793630599975586,-79.78278521171912,40.45902123361493,297.69435804748537,-0.006417065858840942,0.010059400461614132,0.9992368221282959,0.0371958389878273,-0.03210023268180047,0.07362476631835227,2.9985970008416656,0.1690334975719452,0.050260990858078,0.11123979836702348,0.16574568651616575,-0.2359138275124133,-9.73184026837349
31.21,3.2000000476837163,225.0,23.177963256835927,24.26086235046387,-79.78278500001414,40.45902127334333,298.3053676452637,-0.007380464114248754,0.013017755933105946,0.9991912245750428,0.03732399642467499,-0.040456083692932736,0.03912950971318524,3.0029375428690184,0.07785480469465256,0.1346818506717682,0.049620479345321655,0.10565748749300838,-0.12909088030457494,-9.827209525108335
31.31,3.0999999046325684,223.0,23.11536026000977,23.974597930908203,-79.7827848685436,40.459021084822695,298.6136047210693,-0.00627300376072526,0.01318965759128332,0.9992299675941468,0.03641859441995621,-0.06639440945211235,0.08552378810636876,3.020941570978517,-0.23487091064453125,-0.09504660964012146,-0.1361723691225052,0.0781354017276317,0.18211308466270568,-9.840860434770583
31.4,3.0999999046325684,222.0,23.112855911254893,23.990501403808594,-79.78278486969901,40.45902108341206,298.91610639953615,-0.0037137691397219896,0.010642913170158865,0.999305546283722,0.03551725670695305,-0.018404536388592685,0.07301786765741991,3.0272437211509162,0.118619903922081,-0.04642608389258385,0.05745945870876312,0.17604579443112015,-0.3383328711614013,-9.938044667243958
31.6,3.0999999046325684,221.0,23.12788009643555,23.78375625610352,-79.78278483161375,40.45902097097622,299.5362617340088,-0.0008532524225302041,0.005176712293177843,0.9993988275527954,0.03427219018340112,-0.0015068163600479494,0.050566513504294384,3.0825116491739237,0.017781997099518776,0.08559472113847733,0.05450034886598587,0.039607243551872666,-0.13889574732631446,-10.07923972249031
31.7,3.0,220.0,23.08781433105469,25.087846755981445,-79.7827848381993,40.45902096615926,299.84575384521486,0.00020877359202131632,0.004663017112761736,0.9994198679924012,0.0337371751666069,-0.017354935427055955,0.03734227271762319,3.1026665275978926,-0.19396227598190308,-0.10083965957164764,-0.07591254264116287,0.04350118767935783,0.057551183514297014,-9.988478071689606
31.9,3.0,220.0,23.112855911254893,25.19917106628418,-79.78278476263868,40.459021086890324,300.459216293335,0.0002922662242781371,0.005409214645624161,0.9994277358055116,0.03339066728949547,-0.003135715903718636,0.02092393202053125,3.097087534877074,-0.028266683220863342,-0.0586412064731121,-0.02098843455314636,0.07616627419833094,-0.03307869479991496,-9.900663417577745
32.1,3.0,221.0,23.15417289733887,23.4179744720459,-79.78278464017221,40.45902113639005,301.0837337341309,-0.00023522097035311162,0.007107066921889781,0.9993832111358644,0.034392546862363815,-0.028438704405118868,0.029782211257607206,3.11387045452626,-0.1375472992658615,-0.01722137816250324,-0.02631398104131221,0.09599397690966724,0.0474444083031267,-9.923806697130203
32.2,3.0,218.0,23.06402587890625,24.91290855407715,-79.78278461983567,40.45902114595097,301.3948184814453,0.00011149846250191334,0.007053403649479152,0.9993703365325928,0.034774120897054665,-0.02185280928544788,0.03228688872178642,3.1066389461054422,0.011842150241136551,0.02627023123204708,0.06687495857477188,0.10235837878659368,-0.07210181064438075,-9.75568112075329
32.31,3.0,219.0,23.109100341796875,23.48158836364746,-79.78278458471804,40.45902120642654,301.7032481994629,-0.001495528849773109,0.0075942808762192735,0.9993740320205688,0.03452184423804283,-0.012440628972230468,0.02530905141376096,3.0926498399061084,-0.002696774899959564,-0.06207682192325593,-0.07279608398675919,0.0679905008431524,-0.04667585575953126,-9.825212116241458
32.52,2.9000000953674316,220.0,23.121620178222656,24.18929672241211,-79.78278457004151,40.45902123690212,302.3221446838379,-0.006652501877397299,0.005678805522620678,0.9993804693222046,0.03409166634082793,-0.0427043319459025,0.02769882581360146,3.092576634414456,-0.05969155952334404,-0.06522301584482193,-0.06238939240574836,0.1055794819816947,0.0419973934488371,-9.78577673971653
32.7,2.799999952316284,221.0,23.06527900695801,24.316524505615234,-79.78278446289255,40.459021258556426,302.9472553100586,-0.007914118468761444,0.005063251592218876,0.9994302988052368,0.03241652622818947,-0.042189647835233775,0.022998413180489445,3.0838623818212314,-0.1070103794336319,0.06423138827085495,-0.0949222519993782,0.06685838853009045,0.16104403177276255,-9.753548641204837
32.8,2.799999952316284,216.0,23.10784721374512,23.441829681396484,-79.78278434904273,40.45902130457682,303.26983755493166,-0.007260226178914306,0.007787417154759169,0.999426543712616,0.032143332064151764,-0.020855324863858046,0.02193992637234861,3.0882960467565552,-0.08808622509241104,-0.04017084464430809,-0.003515137592330575,0.1168527675792575,-0.015179189108312131,-9.75658042252064
32.9,2.799999952316284,215.0,23.129133224487305,22.89315795898437,-79.78278439697627,40.45902131463265,303.5778705444336,-0.0069444100372493284,0.008700712583959103,0.9994130730628968,0.032398223876953125,0.02489551978049868,0.037110501382426095,3.0649522237200846,0.2101237624883652,0.05879983305931091,0.13619187474250793,0.2147104348428548,-0.30919060416519645,-9.636352313160897
33.11,2.700000047683716,209.0,23.041488647460927,24.761823654174805,-79.78278429770579,40.45902132347322,304.20163458251955,7.011929847067222e-05,0.008597043342888355,0.9994471073150636,0.03211910277605057,0.015337719754966294,0.034977884629752064,3.0341433636147324,-0.1137334406375885,0.03222459554672241,-0.013976463116705421,0.13366048847325146,0.048309083590283984,-9.656600051522256
33.2,2.700000047683716,204.0,23.04399299621582,25.68422889709473,-79.7827843512745,40.45902133969223,304.50473516845705,0.003046720754355192,0.008386975154280663,0.999445915222168,0.03206783533096313,0.04119843910475316,0.038475474955350704,3.02718285061397,-0.09230953454971312,0.043002206832170486,-0.0049570444971323005,0.07306850614026189,0.1873047360777855,-9.641780868172647
33.41,2.5999999046325684,194.0,23.095327377319336,23.8076114654541,-79.78278427151608,40.45902135280011,305.1335384216309,0.0008057595696300267,0.005795752629637718,0.9994686245918274,0.032068587839603424,0.07101419433287659,0.027387101942409453,3.0454245227400474,0.14556555449962616,-0.025642234832048416,0.108560211956501,0.13330893376842146,-0.26961441937834024,-9.86214313030243
33.6,2.5999999046325684,185.0,23.179214477539066,22.662555694580078,-79.78278432522939,40.459021371965974,305.4390346374512,0.0016909324331209064,0.0062290471978485576,0.999436855316162,0.03293054550886153,0.04442761769916067,0.013724601908686969,3.060844308962588,-0.05177845060825348,-0.034049920737743385,-0.04737051948904991,0.10801352254115046,0.16799693763256074,-9.923236008882524
33.7,2.5,179.0,23.026464462280273,26.25675773620605,-79.78278423331916,40.45902136976952,306.06757849121095,0.004219891503453255,0.007941297255456448,0.9993390440940856,0.03522351011633873,0.036809717500920006,0.028026654587979826,3.0670223694109118,-0.07596225291490555,0.03926924616098404,-0.07040213793516159,0.06199166871607304,0.4002783103287221,-9.652819826602936
33.8,2.5,175.0,23.03022003173828,24.68230628967285,-79.78278413846557,40.459021370295545,306.39126318359376,0.0033633953426033267,0.006818342488259077,0.9993350505828856,0.03566348180174828,0.03295310869965975,0.03612736766109405,3.0948918418455458,-0.19289080798625946,-0.10678312927484512,-0.11043088883161543,0.08597465411759914,0.21484530452638867,-9.862003966569901
34.0,2.4000000953674316,166.0,23.13288879394531,22.217256546020508,-79.78278419590009,40.459021410688464,307.01375692749025,-0.0009824602166190743,0.004225017502903938,0.9993443489074708,0.035946417599916465,0.032416841177557484,0.011459340434967828,3.1195122818536096,0.03394102677702904,-0.07184960693120956,-0.016267085447907448,0.09769108557142316,0.07313614654820412,-9.892418843507768
34.11,2.4000000953674316,166.0,23.09282302856445,24.29266929626465,-79.78278425618578,40.45902136584359,307.3404666748047,-0.0023335437290370464,0.002988825784996152,0.9993419647216796,0.03607553988695145,0.03679727214916248,0.018237826772455248,3.118229085732644,0.03686339035630226,0.030211184173822406,0.048461589962244034,0.10674271244555712,-0.06470272111706436,-9.783146077394486
34.3,2.5999999046325684,163.0,23.13664436340332,23.34640884399414,-79.78278420067336,40.459021374488785,307.97473638916017,-0.0005401522503234446,0.002689354121685028,0.9993584752082824,0.035709943622350686,0.014256211583118447,0.021566581617092573,3.0935309080063567,-0.1413659155368805,0.011639067903161049,-0.02303451485931873,0.052984667974524204,0.21434025127440687,-9.61159344792366
34.4,2.4000000953674316,165.0,23.15793037414551,22.789783477783203,-79.78278425187881,40.45902136930253,308.28333013916017,0.0005004628910683093,0.0030658324249088764,0.9993692636489868,0.03537576645612717,0.02893946991639432,0.032376340344586425,3.0843275679915587,-0.14782829582691193,0.0006709457375109197,-0.10458949208259584,0.06130326870828867,0.3374567389860749,-9.688001353740693
34.6,2.5,156.0,23.147912979125977,22.217256546020508,-79.78278431119685,40.459021238936465,308.91758459472663,0.0007372716208919883,0.004298755433410406,0.9994143843650818,0.03394152969121933,0.06519729966631374,0.06706180734739173,3.1078911041444544,-0.004491807892918587,-0.06099865585565568,0.006470793858170509,0.12983537703752518,-0.006379476729780436,-9.879460244178773
34.8,2.4000000953674316,155.0,23.03522872924805,24.12568283081055,-79.78278431135254,40.459021248730345,309.5488826599121,0.0015760574024170635,0.006132086738944054,0.9994335770606996,0.033054012805223465,0.07240996204264806,0.06457740170632953,3.1147518219065,0.060505785048007965,-0.008112163282930851,0.07310016453266144,0.12101946604438127,-0.16148111114278438,-9.843679962158204
34.91,2.4000000953674316,152.0,23.13288879394531,23.9825496673584,-79.78278438995297,40.45902122451135,309.86123770141603,0.0031728888861835003,0.0070140077732503405,0.9994122982025146,0.033403493463993066,0.08256071332155013,0.07213968201421389,3.1301964490845915,0.06475815922021866,-0.046112313866615295,0.038969166576862335,0.19483547475188973,0.014704084564000368,-9.9465640604496
35.0,2.4000000953674316,148.0,23.109100341796875,23.163516998291016,-79.78278447472918,40.45902120075935,310.17490881347663,0.003801596816629171,0.0074959397315979,0.9993960857391356,0.033718593418598175,0.08969594432169166,0.07639790143402697,3.138507181387906,0.01225509401410818,-0.03602171689271927,-0.046418100595474236,0.21101353274658324,0.09147111905738713,-9.914068744182588
35.21,2.4000000953674316,144.0,23.142906188964844,23.17146873474121,-79.78278448359566,40.4590211658286,310.8115245666504,0.005988183431327343,0.008583242073655128,0.9994125366210938,0.032636020332574844,0.08790893659612745,0.08017583033716866,3.162170365889994,-0.037437230348587036,0.034486867487430566,-0.027563685551285744,0.1279815173149109,0.1374879022501409,-9.956224830150603
35.4,2.4000000953674316,142.0,23.12287330627441,23.09990310668945,-79.7827845396411,40.45902110807658,311.44940679931636,0.007855668663978577,0.007358051836490631,0.9994851350784302,0.030228819698095318,0.07869090628043288,0.07909945371492053,3.1444596773317905,-0.14057892560958862,-0.029728148132562637,-0.08706330507993698,0.06047294124495239,0.18770274873822929,-9.612087537646293
35.5,2.4000000953674316,138.0,23.147912979125977,22.52737617492676,-79.78278459392388,40.459021094165685,311.7624255981445,0.00887193903326988,0.007642477750778198,0.9994985461235046,0.029421271756291383,0.07971419201948335,0.062480346415019226,3.1175037272383457,-0.09980349987745284,-0.005077912006527186,-0.07223774492740631,0.04926956641953439,0.2037028869241476,-9.584352439641954
35.6,2.299999952316284,136.0,23.14540863037109,22.88520622253418,-79.78278460439755,40.45902113814099,312.07974356079103,0.008109776303172113,0.008501258678734303,0.9995076060295104,0.029096186161041263,0.0970590475980554,0.050522062785081714,3.0954901674286135,0.08440686762332916,0.03794669359922409,0.0020056716166436672,0.1558037753775716,0.0317082559154369,-9.651234061717988
35.8,2.299999952316284,130.0,23.139148712158203,22.60689353942871,-79.78278457592037,40.45902115632778,312.7136813964844,0.004838462453335525,0.00619871262460947,0.9995002746582032,0.030617816373705864,0.046181994232091295,0.0499732764213017,3.096098011694308,-0.12565237283706665,-0.07457476109266281,-0.046171821653842926,0.13164237680844965,0.2721047119796276,-9.72308172404766
35.9,2.299999952316284,129.0,23.12287330627441,23.282794952392567,-79.78278460188112,40.459021159727676,313.02260321044923,0.004154560621827841,0.004653407260775565,0.9994763135910034,0.031751200556755066,0.042443343576371584,0.03620480599944989,3.0805111102603124,-0.08765625208616258,-0.01271197572350502,-0.004902674350887537,0.1131961655896157,0.14876599352806807,-9.676501634716988
36.1,2.299999952316284,127.0,23.09783172607422,22.85339736938477,-79.7827844922651,40.45902118548828,313.65119665527345,0.0031898654997348785,0.0033905331511050463,0.999439537525177,0.03315015882253647,0.031498373533768526,0.024455195106260624,3.072927506632157,-0.015325927175581457,0.05050788819789887,0.007306230254471301,0.0838499586749822,0.14060981291346253,-9.715926486253741
36.3,2.299999952316284,128.0,23.17170333862305,21.581113815307614,-79.78278441548808,40.45902116377169,314.27860372924806,0.003611682681366801,0.003906337544322014,0.9994465112686156,0.0328415110707283,0.02373774056209913,0.026696401225522567,3.0836859607644604,-0.1060660257935524,-0.02811237797141075,-0.04165033996105194,0.06825509191956372,0.1154350370541215,-9.819157909154892
36.41,2.4000000953674316,132.0,23.135393142700195,22.52737617492676,-79.78278442952102,40.45902116073036,314.5867587890625,0.003731123404577375,0.004361364524811506,0.9994526505470276,0.032582398504018784,0.04299566459333445,0.029679868644031694,3.073895255474012,0.05613008514046669,-0.04428542777895928,0.04610005393624306,0.1086652312707156,-0.13614761078730225,-9.751713784933091
36.5,2.4000000953674316,134.0,23.089067459106445,23.56905746459961,-79.78278444495744,40.459021157562354,314.893578704834,0.0037764890585094686,0.004319492727518082,0.999459445476532,0.032373420894145966,0.049645324686266194,0.03155257005875883,3.0593280066733564,0.13339956104755402,-0.015175108797848225,0.08692893385887146,0.1330093370564282,-0.1849116534367204,-9.73453408062458
36.71,2.4000000953674316,135.0,23.095327377319336,22.439905166625977,-79.78278430523928,40.459021176930044,315.5123302307129,0.0038491275627166033,0.003677653381600976,0.9994609355926514,0.03239559009671211,0.03032621782273483,0.02133396606150832,3.0759934631002968,0.053031519055366516,0.06332438439130783,0.03406020998954773,0.0818639244697988,0.10369339861907063,-9.890893889665604
36.8,2.5,135.0,23.12412452697754,22.630748748779297,-79.78278423178921,40.459021145402396,315.82962911987306,0.003835254115983844,0.005071061197668314,0.9994531273841858,0.03245190903544426,0.02229790054311905,0.03195387146604948,3.0865231780854687,-0.0696396678686142,0.042229536920785904,-0.0213793758302927,0.07647915048524738,0.2173348296806216,-9.817457538843156
37.0,2.5,133.0,23.04023742675781,23.79170799255371,-79.78278424893959,40.45902113691393,316.4433376159668,0.003635430475696921,0.005877383053302765,0.9994536638259888,0.032320696860551834,0.030073876905488718,0.04284226716087483,3.0472127319337834,-0.017856420949101448,-0.002291541313752532,0.021156135946512226,0.09872237909585238,0.06945813369937241,-9.658700371384619
37.2,2.5,135.0,23.14165306091309,22.59894180297852,-79.78278420506787,40.459021082399715,317.0650073852538,0.00341329094953835,0.004258472938090564,0.9994823336601256,0.03170664981007576,0.035328563109814234,0.036252793859321016,3.0629497850007965,0.011755965650081636,-0.04777338355779648,0.032940734177827835,0.0521710781659931,0.0006458660820499063,-9.848777564764024
37.31,2.5999999046325684,135.0,23.15417289733887,21.811716079711914,-79.78278418336981,40.459021060889256,317.38237493896486,0.004054915159940721,0.00420443806797266,0.9994893670082092,0.031415313482284546,0.045439760811815985,0.03365590995791316,3.0706242301950155,0.015400409698486328,-0.02886842377483845,-0.0004376149154268205,0.123541854377836,0.048160427268594506,-9.8626214325428
37.4,2.5,135.0,23.06527900695801,23.624719619750977,-79.78278421280406,40.4590210568914,317.68973654174806,0.004184850957244636,0.0041872989386320105,0.9994859099388124,0.03151247277855873,0.05847239160012738,0.028896888888635293,3.0707732911521712,0.07193547487258911,0.03133717551827432,0.04035196453332901,0.08638680059462786,0.02713537239236757,-9.82939755320549
37.61,2.5999999046325684,133.0,23.159181594848643,21.899185180664066,-79.78278413916692,40.45902107009591,318.31419485473634,0.004706819541752338,0.0029779106844216585,0.9994564056396484,0.032495785504579544,0.04699579254648755,0.02520495513296672,3.0774457031550817,-0.028741208836436268,0.07418639212846756,0.017654694616794586,0.019932034397497776,0.15748788312077522,-9.82706919193268
37.8,2.5999999046325684,132.0,23.07028579711914,23.56905746459961,-79.78278411274525,40.459021034946154,318.9387904968262,0.00448209885507822,0.003273843554779887,0.99943870306015,0.03303995728492737,0.0716652506076198,0.029663076965708773,3.0704898977434185,0.1111297756433487,0.017666598781943318,0.004945224616676569,0.06122557383030652,0.0364033530978486,-9.769340216517447
37.9,2.5999999046325684,131.0,23.135393142700195,22.583038330078125,-79.78278415321822,40.459021028130266,319.24649923706056,0.003443241817876697,0.0036543880123645054,0.9994434714317322,0.032978761941194534,0.07194752457891578,0.0287934475120211,3.0821772309305926,0.12111500650644302,0.006382951512932777,0.029917199164628983,0.08496900611557066,-0.019609126481227576,-9.888076701164248
38.01,2.5,130.0,23.125375747680664,21.65267944335937,-79.78278419964597,40.45902102212705,319.55506246948244,0.004004919435828924,0.0038701440207660203,0.9994633197784424,0.03228168562054634,0.05643528069526784,0.030672133624170893,3.086947336150873,-0.053652074187994,0.0419628731906414,-0.014739707112312315,0.060275446968153124,0.2391871171072125,-9.811817314624788
38.21,2.5,129.0,23.079050064086914,22.84544563293457,-79.78278417747859,40.45902103933692,320.1761371459961,0.007679718546569346,0.004257441498339176,0.9995294809341432,0.02938859537243843,0.0630601857545602,0.03102208165865761,3.0720396941483417,-0.18051990866661072,0.023692118003964424,-0.08426222205162047,0.002791246050037444,0.32361798752099274,-9.733945266008377
38.31,2.4000000953674316,128.0,23.159181594848643,21.70834350585937,-79.7827841607358,40.459020967891945,320.49211614990236,0.009707755409181118,0.0038845052476972346,0.9995484352111816,0.028171664103865623,0.09173998230523282,0.04405600794292179,3.0803630247149574,-0.09665139019489287,0.03791727125644684,-0.0641668513417244,0.025445145629346373,0.26326662724837663,-9.846714667081834
38.5,2.5,125.0,23.05150604248047,23.34640884399414,-79.78278425992616,40.459020947105046,321.1070110168457,0.012145385146141052,0.002904366469010711,0.9995418787002563,0.02757196873426437,0.09872303294033824,0.04086982010033595,3.067476288300072,-0.05186213552951813,-0.06302744895219803,-0.007369913160800935,0.061062500467523935,0.10570876026526094,-9.782176609039306
38.7,2.5,124.0,23.06527900695801,23.1873722076416,-79.7827841737026,40.45902090739169,321.7320682373047,0.011182217858731748,0.002164178527891636,0.9995205998420716,0.028792230412364006,0.08311042485123826,0.03631629289264969,3.06559125055647,0.0615839846432209,-0.034439291805028915,0.023020246997475624,0.07391760864760727,0.10797472078353168,-9.754888823032381
38.8,2.5,119.0,23.18046760559082,21.915088653564453,-79.78278409402216,40.45902097615389,322.0530254211426,0.008999722078442574,0.002358484780415893,0.9995303750038148,0.029197933152318,0.08199380401614817,0.026425833436723944,3.0732835962951928,0.1253424882888794,-0.0156717412173748,0.09082622081041336,0.09890906972810627,-0.02821783133782446,-9.835089232921598
38.9,2.5,120.0,23.23931312561035,20.674612045288086,-79.78278410040728,40.45902096379103,322.36071508789064,0.00653706444427371,0.0025046535301953554,0.9995472431182858,0.02926517277956009,0.06552899853345323,0.030542812202328518,3.0747356195552116,0.13133233785629272,0.045213036239147186,0.00984638836234808,0.1121459508407861,0.038866542940959335,-9.808796643018725
39.11,2.5,118.0,23.13163757324219,21.620872497558594,-79.78278394445118,40.459020928836665,322.9850665893555,0.005777559708803892,0.004710025619715452,0.999551236629486,0.02901620231568813,0.034165372317516284,0.043061122948548115,3.0548797904374667,0.1047564372420311,0.025707952678203583,0.03339342400431633,0.09031612037681044,0.003899014759808779,-9.729083306193353
39.3,2.5,118.0,23.09031867980957,23.25893783569336,-79.78278378504321,40.459020919646115,323.6092235412598,0.0057368138805031785,0.004070668946951628,0.9995669722557068,0.028573406860232364,0.029140796325795783,0.04512324445062208,3.0401024435667217,0.0012862476287409663,0.011695751920342444,-0.08032660931348799,0.13596574410796167,0.30977174431085586,-9.719005045294764
39.4,2.5,120.0,23.02521324157715,24.276765823364247,-79.78278378395505,40.45902090715336,323.91301458740236,0.005607180763036014,0.0044478094205260285,0.9995646476745604,0.02862576954066753,0.028762395835068524,0.037129801220066885,3.033934144246282,-0.0544145442545414,-0.018816197291016586,-0.0593966469168663,0.1054738118313253,0.3606015534326433,-9.753436959385873
39.5,2.5999999046325684,119.0,23.112855911254893,22.241111755371094,-79.78278379012997,40.45902089573415,324.216576751709,0.006030712742358446,0.0033628556411713357,0.9995578527450562,0.028921054676175117,0.0330692352100371,0.04194291978031034,3.0360975813245026,-0.12070580571889875,-0.04918074980378151,0.015155745670199394,0.08446418127045036,0.235949769616127,-9.801730282902716
39.7,2.700000047683716,119.0,23.05776596069336,23.378215789794922,-79.78278370524018,40.459020911062105,324.8351985778809,0.008337156847119331,-0.00021409183682408184,0.9995311498641968,0.029463170096278187,0.05777219176188845,0.008382586420362024,2.997897597219209,-0.023758048191666603,0.037602417171001434,0.025744125247001648,0.020191239640116692,0.08742995300330222,-9.553856286406518
39.8,2.799999952316284,119.0,23.05776596069336,23.473636627197266,-79.78278355673137,40.45902085994886,325.15010946655275,0.009054490365087986,-0.0005475688958540559,0.9995097517967224,0.029967091977596283,0.059329271462668365,0.01932295984884179,2.9864506100397907,0.03186824545264244,0.0459996797144413,0.004932832904160023,0.031315804962068795,0.21522321738302708,-9.550312288999557
40.0,2.9000000953674316,117.0,23.032724380493164,24.30857276916504,-79.78278357461572,40.45902082774274,325.7445613708496,0.009334259666502476,0.001896720379590988,0.9994859099388124,0.030616223812103268,0.06069169898644985,0.02575016604259063,2.9590202437497743,0.017811417579650882,0.03111465647816658,-0.027860019356012344,0.051350462562404574,0.19242466773837805,-9.657926200032234
40.1,2.9000000953674316,119.0,23.08531188964844,23.09990310668945,-79.78278345925806,40.45902079355702,326.0636531677246,0.00990974437445402,0.002240912290289998,0.9994854927062988,0.030422538518905636,0.045328861632608325,0.0355113846618845,2.9649057981861136,-0.06380447000265121,0.010570417158305643,-0.05707845836877822,-0.023724010849837208,0.2869214102625847,-9.619022920131684
40.3,3.0999999046325684,120.0,22.97763442993164,24.92881202697754,-79.78278332376837,40.45902075502347,326.6708347167969,0.009200982749462128,0.0017270258395001292,0.999517023563385,0.029634041711688038,0.05367553267142268,0.036621624225390934,2.927102719199984,0.1043502911925316,-0.011710229329764843,0.0429517887532711,-0.026692927745170892,0.08867971312254667,-9.519364730715752
40.4,3.2000000476837163,120.0,22.94132423400879,25.66037368774414,-79.7827833112851,40.459020735327286,326.96301763916017,0.007118893787264823,0.00016387447249144316,0.9995471239089966,0.029239606112241745,0.04392085497646106,0.03172168265868296,2.9206142464968585,0.07124320417642592,-0.0342249721288681,-0.06268562376499176,0.04732176752295345,0.21898432921618224,-9.713741966485976
40.61,3.299999952316284,120.0,22.987651824951172,24.54712677001953,-79.78278320326625,40.459020669564545,327.5699130859375,0.004953132010996343,-0.0005749693373218179,0.999599277973175,0.02786576561629772,0.01924730730612104,0.020869219828505568,2.9752691285993693,-0.04846617951989174,0.04270444065332413,-0.015949755907058716,-0.0228445005370304,0.08689564540050924,-10.007037134170533
40.7,3.299999952316284,120.0,23.052757263183594,22.81363868713379,-79.78278319581226,40.45902064395426,327.8686954345703,0.007890542037785053,0.0007933284505270423,0.9996035695075988,0.027015270665287968,0.02634281340042873,0.02307168369161532,2.999210707119625,-0.0204936470836401,0.029311344027519226,-0.13830195367336273,0.06618120786733926,0.3175557405129075,-10.058890242576599
40.9,3.5,118.0,23.05776596069336,23.13966178894043,-79.78278306129243,40.459020620672455,328.47061270141603,0.007580275647342205,0.0013089372077956796,0.9995824694633484,0.027852566912770268,0.04377747069882552,0.042700733940525634,2.995256899743316,-0.06758630275726317,-0.1015334501862526,0.009825767949223518,-0.03387612253893167,0.19001722287386652,-9.837598857879641
41.1,3.5,118.0,22.925048828125,25.57290458679199,-79.78278294865616,40.45902060951625,329.0687953796387,0.010712108574807644,-0.0008408830035477878,0.9994977712631226,0.02981276623904705,0.04361436659236288,0.03547758083439821,2.9652079490805265,-0.12653464078903198,0.05731972306966781,-0.09307580441236496,0.12809588519856335,0.04695040080696344,-9.740906376242636
41.21,3.5999999046325684,117.0,22.973878860473643,23.529298782348643,-79.78278296066539,40.45902058426022,329.3657352294922,0.011086221784353256,0.0010576468193903565,0.999489963054657,0.029930863529443737,0.0732339905783624,0.02480470314419947,2.9750529753355948,0.00868945475667715,-0.005166472867131233,0.04741672798991203,0.00912165641784668,0.1814995290152729,-9.918838902711867
41.3,3.700000047683716,116.0,23.0177001953125,24.54712677001953,-79.78278295156827,40.459020556965534,329.66950720214845,0.010123489424586296,0.0037136306054890156,0.9994955062866212,0.029877539724111564,0.08312621610377348,0.033535418679161766,2.9807223384842385,-0.01446779631078243,0.03473537042737007,0.11893118172883987,-0.02986077102832496,0.14512982024811208,-9.906911752223973
41.5,3.799999952316284,116.0,23.00392723083496,22.78183174133301,-79.78278300851937,40.459020519371336,330.26562994384767,0.011090775020420551,0.0037101802881807093,0.9994888305664062,0.02975567430257797,0.08675073969877889,0.051442406286359016,2.9877751172472764,-0.06570959836244583,-0.03846081718802452,-0.11942528188228607,0.05340761809609832,0.4334046507999301,-9.920277317762377
41.6,3.799999952316284,116.0,23.00518035888672,23.60086441040039,-79.78278301531384,40.459020517819,330.5668880310059,0.011308063752949238,0.0007800373714417219,0.9995125532150269,0.029091930016875267,0.10360829766417057,0.0336561607402405,2.9810165810699827,0.07781553268432617,-0.03626681864261627,-0.0413145087659359,0.020482746181078256,0.1318529405258596,-9.855196638107302
41.81,3.9000000953674316,116.0,22.953845977783203,25.087846755981445,-79.78278305415644,40.45902053366441,331.1635219421387,0.014191867783665657,-0.0009725444833748043,0.9995408058166504,0.02675780653953552,0.09431652287483763,0.0010709792752045958,2.9505289034952487,-0.13422811031341553,-0.03426383063197136,-0.014744319953024387,-0.05927888955920935,0.1613924892805517,-9.77337362587452
42.0,3.9000000953674316,114.0,22.93005752563477,25.40591812133789,-79.7827831086893,40.45902053137456,331.7543308105469,0.014248906634747982,0.001585187274031341,0.999552845954895,0.026243943721055984,0.08722120994554322,0.004947121539677238,2.9549832990457783,-0.17932680249214172,-0.06893555074930191,-0.07246003299951552,-0.0721275703702122,0.4313357597216964,-9.807064697742463
42.1,3.9000000953674316,114.0,23.01144027709961,23.70423889160156,-79.78278308585408,40.45902055120279,332.05707281494136,0.012145961634814741,0.0011802345979958773,0.9995615482330322,0.026978464797139168,0.12706336713969174,0.004167452954472186,2.9585989771275694,0.25368040800094604,0.016281116753816605,0.0784037858247757,-0.04773850497789681,0.11510340856388213,-9.899900940656662
42.21,4.0,114.0,22.972625732421875,24.88905143737793,-79.78278312011456,40.45902055764938,332.3535854187012,0.009847833774983885,0.00016301931464113295,0.999563992023468,0.02783800289034844,0.08854625967624301,0.0009803609593828837,2.966089068101493,-0.11480680108070375,-0.03958667814731598,-0.009943343698978424,-0.09673556830734016,0.4956218393146992,-9.811936597824095
42.4,4.0,118.0,22.87621879577637,26.209047317504893,-79.78278312072523,40.45902061460589,332.9522487487793,0.013071982190012932,-0.0007118477951735258,0.9994955062866212,0.02893899194896221,0.0947165054314203,-0.01275919541505389,2.9734767600845893,-0.02151235193014145,0.05055112391710282,-0.06543426960706711,-0.04891751835588366,0.3763585936278105,-9.836330012083057
42.6,4.0,116.0,22.98389434814453,23.680383682250977,-79.78278315460112,40.45902062944325,333.2496921386719,0.014768157154321669,-0.0007964607793837786,0.9994891881942748,0.02833235822618008,0.10834935394908607,-0.019468115528729613,2.9740290264541067,-0.05370267480611801,-0.023441132158041,-0.14589719474315646,0.019670508541166785,0.3618422229588032,-9.873928778171539
42.7,4.0,116.0,23.022708892822266,23.489540100097656,-79.78278321162763,40.459020674977324,333.8491336669922,0.010040177032351494,-0.002264032140374184,0.9995586276054382,0.027869900688529008,0.11977132911719172,-0.02152599918948387,2.965150845952093,0.0011197342537343502,-0.03623824939131737,0.08436600863933562,-0.022538147550076246,0.2289291091449559,-9.822701321840288
42.9,4.0,116.0,22.96511459350586,24.74592018127441,-79.78278321213641,40.45902074656508,334.444302734375,0.014204694889485838,-0.0030730681028217077,0.9995265007019044,0.02712254598736763,0.11625028816366988,-0.02727118892278952,2.9515952743329046,-0.027556326240301132,-0.015279047191143038,0.040785934776067734,0.010067470958456398,0.05327990211546421,-9.908325608968736
43.01,4.0,118.0,22.862445831298828,26.43964767456055,-79.78278325954187,40.45902076232998,334.74011724853517,0.01776665635406971,-0.0023908526636660103,0.9994927048683168,0.026325302198529243,0.12561503468743165,-0.03410959463907681,2.9560358790361185,-0.0007912427536211907,0.0962718352675438,-0.0037422312889248133,-0.042489811233244835,0.28959724232554435,-9.84160770893097
43.1,4.0,116.0,22.95635032653809,24.66640281677246,-79.78278322043155,40.45902080370732,335.0466434326172,0.018189603462815285,-0.0010279308771714568,0.9995148777961732,0.02526380866765976,0.1324581651151225,-0.028528269415470993,2.969809244859732,-0.007994327694177628,0.00841630343347788,-0.10042833536863327,-0.08700031056068837,0.4137103879451752,-9.941423188447953
43.31,4.0,115.0,22.992658615112305,25.3900146484375,-79.78278321208387,40.459020879349815,335.6565372314453,0.007970167323946953,-0.0009824610315263274,0.9996387958526612,0.02565001137554645,0.10970477304943434,-0.018049008137787103,2.996119814374925,0.03672799840569496,-0.12175098806619646,0.07897016406059265,-0.08008940415456893,0.049247040934860715,-9.875818598270417
43.4,4.0,115.0,22.97137451171875,24.89700508117676,-79.78278325066864,40.45902090121992,335.95618170166017,0.0069188084453344345,-0.00535003375262022,0.999626398086548,0.025895910337567333,0.08501158353540897,-0.03165873905936807,2.9942610958427585,0.05978696420788765,-0.035822995007038116,0.07707301527261734,-0.14479781717062,0.13432589247822765,-9.782511069774626
43.6,4.099999904632568,117.0,22.90626716613769,25.708086013793945,-79.78278322741363,40.459020972058354,336.56747930908205,0.009458692744374277,-0.0077435774728655815,0.9996030926704408,0.02538226544857025,0.09127966692194336,-0.06442045285238053,3.009226662339425,0.012853151187300682,-0.023209592327475548,0.1048506572842598,-0.06002421769313514,0.014932491425424813,-9.963568933010102
43.7,4.0,116.0,22.9788875579834,23.354360580444336,-79.78278326422834,40.45902099030311,336.87046545410163,0.013526337221264841,-0.005050993524491787,0.9995596408843994,0.02592568658292293,0.08695757785922617,-0.060657566672542726,3.0441282954179467,-0.08081552386283875,0.06707370281219482,0.056528523564338684,-0.1820405791886151,0.15032900908961894,-10.037456688880921
43.9,4.099999904632568,117.0,22.962610244750977,23.95869445800781,-79.7827832881738,40.45902103694078,337.48476141357423,0.016424112021923058,-0.0023195710964500904,0.9994500875473022,0.028714437037706375,0.1465444862149276,-0.023300592651949743,3.016594295578035,0.10921452194452286,0.0466056764125824,-0.03201344609260559,-0.03213513691909611,0.5223416048660875,-9.641392028331756
44.0,4.0,117.0,22.98639869689941,23.545202255249023,-79.78278332432372,40.45902105326713,337.78596228027345,0.013694477267563343,-0.0034519473556429148,0.9994269013404846,0.030766576528549194,0.13293814548383326,-0.029465476705456805,3.003991003471184,0.095782533288002,-0.030149808153510094,0.05978792160749435,-0.04046946118120105,0.2723627203702927,-9.677188097834588
44.21,3.9000000953674316,117.0,23.022708892822266,23.24303436279297,-79.78278328459402,40.45902121369654,338.3963519897461,0.011083226650953293,-0.0035029209684580564,0.9993752241134644,0.03337729722261429,0.10536471485422128,-0.045822382202453736,3.0047985849291625,-0.02591540478169918,-0.058464594185352325,-0.033023592084646225,-0.02333205097122118,0.2608833569660783,-9.789303780198097
44.4,3.9000000953674316,119.0,23.015195846557607,22.59099006652832,-79.78278325498952,40.459021270932176,339.0102893676758,0.01403985731303692,-0.0050347140058875075,0.9993736743927002,0.03209170326590538,0.11191837445758816,-0.04127677543019848,2.995726361171735,-0.02061257697641849,-0.058561980724334724,-0.09481462091207504,-0.017315807389095425,0.284300797842443,-9.754426892995834
44.51,4.0,120.0,23.09657859802246,21.485692977905273,-79.78278329301627,40.459021292378225,339.3096286621094,0.015703422948718068,-0.005042951554059982,0.9994059801101683,0.030261460691690445,0.10440393533984972,-0.050566334490494746,2.9878069657351833,-0.1641143262386322,0.010289833880960941,-0.10238973796367644,-0.1832251154445112,0.5450691839307547,-9.672794499993325
44.6,4.0,119.0,23.05526161193848,22.757976531982425,-79.7827831904315,40.45902135910392,339.62710302734376,0.014901288785040382,-0.0040804571472108355,0.9994722604751588,0.02857628092169762,0.12788879124604305,-0.05334508838843322,2.9845580229578417,-0.03489047288894653,-0.06329116970300674,-0.031139887869358063,-0.10022578046657143,0.2407086357101798,-9.677352404594421
44.8,4.0,118.0,23.09783172607422,21.565210342407227,-79.7827831501759,40.459021477775934,340.24070471191413,0.014057488180696964,-0.00267057353630662,0.9995453357696532,0.02654373273253441,0.11003468812384308,-0.04997097620102712,2.9960677793497386,-0.1486942023038864,-0.04037335142493248,-0.21436458826065066,-0.044108507819473744,0.5704868111014366,-9.818665573596952
44.9,4.0,116.0,23.06402587890625,21.573162078857425,-79.78278319382619,40.459021519438856,340.54021185302736,0.01622985675930977,-0.004713029600679874,0.9995163083076476,0.026109419763088226,0.13374104765543834,-0.05970952170886652,2.9859133244223823,-0.015391604974865912,-0.05971695855259895,-0.07634959369897842,0.034748559091240167,0.3967559476196766,-9.75294170022011
45.11,4.0,116.0,23.069034576416016,21.915088653564453,-79.78278320989101,40.45902156760417,341.1595813598633,0.01761213317513466,-0.009974393993616104,0.9994257092475892,0.027178237214684486,0.16645555298064926,-0.09042319472840872,2.9917605089810064,-0.040598150342702866,0.00032363308127969503,0.026384368538856503,-0.2296151154488325,0.4179809018969536,-9.7895493632555
45.3,4.0,115.0,23.05150604248047,21.811716079711914,-79.78278324322292,40.45902169141736,341.77460974121095,0.0221459660679102,-0.009544581174850464,0.9993024468421936,0.02851714193820953,0.1745302841261579,-0.09905805280807277,2.9775914339040463,-0.18909557163715365,0.021687353029847145,-0.1295631378889084,-0.1270465292595327,0.6720000296831131,-9.653584642410276
45.41,4.099999904632568,114.0,23.095327377319336,20.99268341064453,-79.78278332250866,40.45902174145815,342.07172125244136,0.025495976209640503,-0.009583036415278913,0.999225914478302,0.028386242687702182,0.20466206439262294,-0.10915418463092988,2.9513678218943085,-0.056437011808156974,-0.06780111789703369,0.05006182938814163,-0.2030481997691095,0.31854048471897844,-9.617392131686213
45.5,4.099999904632568,112.0,23.079050064086914,22.050268173217773,-79.78278340612503,40.45902179465621,342.3665439453125,0.027519434690475464,-0.009315982460975649,0.9991811513900756,0.028159886598587036,0.22467240307684624,-0.1060106474653174,2.926550074335111,-0.03340731933712958,0.008935851044952871,0.10840548574924468,-0.26569963540881875,0.6261390747874975,-9.498022978305817
45.71,4.199999809265137,111.0,23.07028579711914,20.984731674194336,-79.78278338702479,40.45902191193692,342.97563665771486,0.032184384763240814,-0.00963797327131033,0.9990501403808594,0.027751101180911064,0.2357163736076415,-0.09952148116648274,2.906765555789012,0.051917433738708496,0.05338268354535103,-0.10111413151025772,-0.04463585358113052,0.5411309745535254,-9.636366931200028
45.8,4.199999809265137,110.0,23.11410903930664,21.39027214050293,-79.78278333417056,40.45902202974045,343.29050177001955,0.03456651046872139,-0.008434372022747993,0.9989838004112244,0.0276672262698412,0.2299426913918929,-0.09958440764338213,2.9273457147001487,-0.042865049093961716,-0.004470473155379295,0.07722506672143936,-0.16322078570723533,0.4990081811696291,-9.682593848705293
46.01,4.199999809265137,104.0,23.0076847076416,22.121835708618164,-79.78278339587702,40.459022102323374,343.87678259277345,0.0385320857167244,-0.005315970629453659,0.9988471269607544,0.028133826330304142,0.23460593388166204,-0.0639348308877157,2.9123133562373846,0.051375776529312134,0.07575921714305878,0.05837444216012955,0.07090251473709941,0.4314627539366484,-9.748432327508928
46.22,4.199999809265137,102.0,22.98514747619629,23.219179153442386,-79.78278330702695,40.45902217329277,344.48569982910163,0.037565261125564575,-0.006828718353062868,0.9988617300987244,0.02859223075211048,0.20621235765232795,-0.03175471115280839,2.920154389135053,0.07171627134084703,-0.03531177341938019,-0.08944001793861389,0.05720432485453784,0.5687883411347866,-9.699913886189464
46.3,4.199999809265137,100.0,23.05025291442871,21.86737823486328,-79.78278316199626,40.459022198612146,344.79259985351564,0.03644009679555893,-0.008032265119254589,0.9989100694656372,0.02804072573781013,0.15882902316412964,-0.033721407554488735,2.9263231376196366,-0.08965019136667253,0.0511714443564415,-0.02441075816750526,-0.11035751597955824,0.7217023859918118,-9.710450568795203
