time,wind_speed,wind_angle,battery_voltage,battery_current,position_x,position_y,position_z,orientation_x,orientation_y,orientation_z,orientation_w,velocity_x,velocity_y,velocity_z,angular_x,angular_y,angular_z,linear_acceleration_x,linear_acceleration_y,linear_acceleration_z
0.0,1.5,185.0,25.48423957824707,0.07156596332788467,-79.78281045699006,40.4590373900809,267.71971637582783,0.0014895355561748151,0.001980679342523217,-0.7362346053123474,0.6767219305038452,-0.0012848708279201025,0.006140799348629629,0.026994021894505636,0.0019495750311762094,0.0006367379683069885,-0.0060228658840060225,-0.009243966008070858,-0.043379200142808265,-9.807012657523156
0.2,1.5,186.0,25.485492706298828,0.06361418962478638,-79.78281051729512,40.459037449087184,267.7170068678856,0.0014923535054549575,0.0019763088785111904,-0.7362380623817444,0.6767181754112244,-0.0013323423413958333,0.0025186052452419354,0.02712706450008296,-0.004715302027761936,-0.00015097387949936092,-0.0001951232407009229,-0.011697927071945743,-0.04758528508711606,-9.807168193459507
0.39,1.5,184.0,25.485492706298828,0.08746951073408127,-79.7828105790432,40.459037488750226,267.7115305123329,0.0014970611082389946,0.0019766842015087605,-0.73624187707901,0.6767139434814453,0.003040078413114313,0.001317703730996216,0.027279958442430058,0.0031126944813877344,0.0011509873438626528,-0.0007615999202243984,-0.007465429158182816,-0.04562134239356965,-9.809507664442062
0.5,1.600000023841858,182.0,25.48799705505371,0.07951773703098297,-79.78281057734402,40.459037482877385,267.7169713435173,0.0014970611082389946,0.0019766842015087605,-0.73624187707901,0.6767139434814453,0.00302501319234435,0.0008971872731640695,0.027032607213965533,0.0007364829652942718,0.002036161487922073,-0.0027612836565822363,-0.006084778202930466,-0.04655323782004416,-9.806446062326431
0.6,1.5,184.0,25.48799705505371,0.07951773703098297,-79.78281061578026,40.45903754624613,267.7129939255714,0.0014936613151803613,0.0019754599779844284,-0.7362469434738159,0.676708459854126,0.0015453476420783994,0.002583842849188194,0.029773812974796508,-8.521100971847774e-05,0.002983081853017211,0.0008679995080456138,-0.012387676964281127,-0.049054736061953014,-9.806943075656893
0.8,1.5,188.0,25.486743927001953,0.07156596332788467,-79.7828106720018,40.45903762575953,267.7102229056358,0.0014900712994858625,0.001967956079170108,-0.7362501621246338,0.676705002784729,-0.0036536817333368593,0.0003504413439288268,0.028842543652868008,-0.0008201590389944612,0.0009770393371582033,-0.00013740541180595756,-0.010389914066763595,-0.0458932836027816,-9.808829972147942
0.89,1.5,189.0,25.482988357543945,0.07951773703098297,-79.7828106714498,40.4590376289456,267.71310419416426,0.0014900712994858625,0.001967956079170108,-0.7362501621246338,0.676705002784729,-0.003714681334431975,-4.171168861680902e-05,0.02883859780196325,-0.0007502345251850784,0.0027608312666416173,0.00014168706547934562,-0.012720401807455348,-0.046086310241371393,-9.806845427155496
1.1,1.5,189.0,25.475475311279297,0.07156596332788467,-79.78281068978214,40.459037684367146,267.71215612268446,0.0014870625454932453,0.001974881161004305,-0.7362552285194397,0.6766995191574097,-0.00026202182079185926,0.006155127347220357,0.031553204685152825,0.0010289661586284637,-0.0007967093260958791,0.0013507382245734336,-0.01045978943584487,-0.045950663974508636,-9.806024478077893
1.2,1.600000023841858,187.0,25.479232788085927,0.05566241592168808,-79.78281068255144,40.45903768403153,267.715304022789,0.0014870625454932453,0.001974881161004305,-0.7362552285194397,0.6766995191574097,-0.00035101705374433983,0.006061078692230932,0.031355796561819124,0.003634453751146794,-0.0014273067936301231,-0.003587476443499327,-0.00746692922024522,-0.04781020189169795,-9.807645910978318
1.4,1.600000023841858,186.0,25.485492706298828,0.07156596332788467,-79.78281074539684,40.45903775681498,267.7147741971016,0.001488444278948009,0.0019701288547366858,-0.7362570762634277,0.6766975522041321,-0.001134177998382181,0.0025340908417637808,0.03378316022669296,0.003062612609937787,-0.002509917598217725,-0.004877077881246804,-0.009255647305981256,-0.04815357963088901,-9.80715474486351
1.5,1.600000023841858,186.0,25.486743927001953,0.07156596332788467,-79.78281074242993,40.459037757427396,267.71813411092756,0.001488444278948009,0.0019701288547366858,-0.7362570762634277,0.6766975522041321,-0.0010144884966978218,0.002360787001387297,0.03348506567394007,-0.001834759954363108,0.00012093596160411836,0.0012827111640945075,-0.012954026623629034,-0.04637442722450942,-9.809935095906258
1.69,1.600000023841858,185.0,25.48924827575684,0.07156596332788467,-79.78281078194206,40.4590378276743,267.715808576107,0.0014862004900351169,0.001969512086361647,-0.7362605929374695,0.6766936182975769,-0.001673504779873419,0.0037843731082462654,0.03145647094108145,0.001446297625079751,-0.003244778141379357,-0.003717689076438546,-0.009128050667932257,-0.04549007697030902,-9.805864264369012
1.8,1.600000023841858,185.0,25.49049949645996,0.07951773703098297,-79.78281080948712,40.45903789866664,267.71204001283644,0.0014811508590355515,0.001972218044102193,-0.7362639307975769,0.6766899824142456,-0.002288272631733708,0.008691472904514965,0.0335376619650494,-0.00027203094214200974,0.00037790319765917957,0.006178354844450951,-0.010381818185560408,-0.04569783128332347,-9.807792676091195
2.0,1.600000023841858,183.0,25.485492706298828,0.07156596332788467,-79.78281078920965,40.45903790121066,267.71868986463545,0.0014811508590355515,0.001972218044102193,-0.7362639307975769,0.6766899824142456,-0.002288620041759671,0.008164911586410384,0.03295287310064859,2.402009158686269e-05,0.0030809612944722176,-0.0023678147699683905,-0.007646030463511123,-0.04699491273611784,-9.805404673218726
2.2,1.5,182.0,25.48423957824707,0.05566241592168808,-79.78281086289141,40.459037992620566,267.7151135859489,0.0014807975385338068,0.001962695736438036,-0.7362686395645142,0.6766849756240845,-0.006289439232549429,0.00363636221698539,0.034926129409903056,0.001851673237979412,-0.0018354796338826414,0.00384614639915526,-0.011683274771785363,-0.046081824330613017,-9.807691519260407
2.3,1.5,181.0,25.486743927001953,0.07156596332788467,-79.78281084788226,40.45903802576427,267.71821767663954,0.001479104394093156,0.0019823077600449324,-0.7362730503082275,0.6766801476478577,0.004700803964350464,0.016551039431103767,0.04301328196464545,0.002074969932436943,0.002369479509070516,-0.003214394440874457,-0.008411002729553729,-0.04713396683335305,-9.807362321019172
2.39,1.399999976158142,181.0,25.485492706298828,0.07156596332788467,-79.78281082892275,40.45903802002987,267.72251582717894,0.001479104394093156,0.0019823077600449324,-0.7362730503082275,0.6766801476478577,0.004889107400400019,0.016507347909981797,0.042911855834538284,0.0018417981918901203,0.00020979109103791416,0.00021398504031822085,-0.007886152883875184,-0.04703660612460226,-9.809976026415823
2.6,1.2999999523162842,183.0,25.47797966003418,0.06361418962478638,-79.78281081932282,40.459038093265384,267.7282054481506,0.0014710963005200028,0.0019834695849567647,-0.7362781167030334,0.6766746044158936,0.0017890265791467574,0.022269623236308368,0.05249840113668598,0.00279037281870842,0.00047676413669250906,-0.00195623142644763,-0.00888222492823843,-0.0476924353139475,-9.80618820011616
2.7,1.2999999523162842,182.0,25.47797966003418,0.05566241592168808,-79.7828107934506,40.459038089774786,267.73344517326353,0.0014710963005200028,0.0019834695849567647,-0.7362781167030334,0.6766746044158936,0.0018290599176027887,0.022102571415403567,0.052325774143806035,-0.0012012089136987927,0.0013197152875363831,0.0023977700620889664,-0.010519346524961294,-0.0462110934779048,-9.805663120150566
2.9,1.2999999523162842,181.0,25.47672843933105,0.06361418962478638,-79.7828107721654,40.459038169322355,267.7406469044685,0.0014637989224866033,0.0019841394387185574,-0.7362837195396423,0.6766685247421265,-0.0008131454710388444,0.02768936156391957,0.06125016234362745,4.185049328953028e-05,0.0004918754566460848,0.00143936846870929,-0.00808376650325954,-0.04573257196694613,-9.808650462627412
3.09,1.2999999523162842,183.0,25.48799705505371,0.07951773703098297,-79.78281073955053,40.459038167732594,267.74676031446455,0.0014637989224866033,0.0019841394387185574,-0.7362837195396423,0.6766685247421265,-0.0009410689711229199,0.02755526535024615,0.06108956649651224,-0.0013221392873674633,0.0004800283641088754,-0.0012880372814834118,-0.01050977970357053,-0.04687995099462569,-9.806533770561217
3.19,1.399999976158142,189.0,25.48423957824707,0.07951773703098297,-79.78281076638338,40.4590382095302,267.7525393424034,0.0014713004929944873,0.0019844358321279287,-0.7362868189811707,0.6766651272773743,0.005165205103678809,0.02425734098350222,0.063276153110982,-0.002027249429374933,-0.0025546993128955364,0.005097853951156139,-0.009575845745857806,-0.04812429330311716,-9.809664954543114
3.3,1.399999976158142,187.0,25.4654598236084,0.3816851377487183,-79.782810843057,40.4590383168224,267.74766940450667,0.001469856477342546,0.001968716736882925,-0.7362887263298035,0.6766631007194519,-0.0027705563242116232,0.01656790712406108,0.05660736131450255,-0.002420783508569002,0.003830615663900971,-0.002317356178537011,-0.010910027325153351,-0.04643688279669732,-9.805060272216798
3.5,1.5,187.0,25.454191207885746,0.3816851377487183,-79.7828108038597,40.45903831868355,267.75894535160063,0.0014454472111538053,0.0019717798568308353,-0.7364354133605957,0.6765034794807434,-0.0030650171053215386,0.016025377172815027,0.05637283544263709,-0.0008269451791420579,-0.0018324175616726281,-0.010506813414394855,-0.01470300876768306,-0.05824249799363315,-9.806875247955325
3.69,1.5,186.0,25.456695556640625,0.3657816052436829,-79.78281086188547,40.45903838918637,267.7540953812599,0.0014521748526021838,0.0019748001359403133,-0.7363481521606445,0.6765984892845154,-0.0035301317734801906,0.013789969518238226,0.05065912672170825,-0.001878378912806511,-0.004753462504595518,-0.009159022942185402,-0.0034906584091368128,-0.07689537174068392,-9.804705930948256
3.8,1.7000000476837158,186.0,25.456695556640625,0.37373337149620056,-79.7828109166404,40.4590384863213,267.7530643401146,0.0014470616588369012,0.0019825529307127,-0.7363176345825195,0.6766316294670105,-0.006794972484117095,0.006671738839892931,0.04191208420650976,-0.0020260256715118885,-0.004279268439859153,-0.014089413918554785,-0.004662056987872348,-0.07109719504136593,-9.812231297492982
3.9,1.7999999523162842,184.0,25.45794677734375,0.3657816052436829,-79.7828109075278,40.459038490806996,267.757240837574,0.0014475383795797825,0.0019567920826375484,-0.7362765073776245,0.6766765117645264,-0.007339119484337298,0.007488724439858143,0.04152488527744984,-0.001878891023807228,0.0005765348905697465,-0.008268597535789013,-0.010459671806311237,-0.0623281211592257,-9.811023262739182
4.1,1.8999999761581416,184.0,25.454191207885746,0.40554046630859375,-79.78281099678442,40.45903857823519,267.7552064118385,0.0014587350888177752,0.0019742201548069715,-0.7362599968910217,0.6766943335533142,-0.0048031079710331714,-0.001228358937051083,0.03541058002198968,-0.0003644669195637107,-0.00348433549515903,-0.005841735750436783,-0.011697743204422295,-0.03943557752296329,-9.808890198469165
4.19,1.8999999761581416,182.0,25.44793128967285,0.44529932737350464,-79.78281099784097,40.459038582226206,267.758755510807,0.0014396989718079571,0.001954042818397284,-0.7362957000732422,0.6766555905342102,-0.0042285122960258855,-0.0015383145813762811,0.03518973260647827,0.00021458830451592808,-0.0009426541510038078,0.004100392572581768,-0.01266309224185534,-0.03447017909260467,-9.806258951425553
4.4,2.200000047683716,190.0,25.44292259216309,0.5009617805480957,-79.78281103962536,40.45903864676556,267.75741142606734,0.001449868083000183,0.0019455896690487864,-0.7363266944885254,0.6766218543052673,-0.001079174822195333,0.0020955884676761255,0.032488109793046456,0.0001942839589901268,0.000965723069384694,-0.0007617357769049704,-0.005842365432763472,-0.044614305677823735,-9.801936104893683
4.5,2.200000047683716,189.0,23.691303253173828,13.215847969055176,-79.78281103753967,40.45903864753682,267.7606882510185,0.0015010775532573466,0.002005222486332059,-0.7363129258155823,0.6766365766525269,-0.0016283459734690866,0.0017228677743651635,0.034333174263744215,-0.010296209715306759,0.006914015859365463,0.021346621215343475,0.03806815132498741,-0.0008003216539509595,-9.843468292951584
4.69,2.4000000953674316,185.0,25.43415832519531,0.37373337149620056,-79.7828110910975,40.45903870457805,267.760020678997,0.0016232088673859837,0.002434055553749204,-0.736531138420105,0.6763973236083984,0.0025077110846748484,0.0005375362866183574,0.030201036830709405,0.02423644438385964,0.0025385459885001183,0.0072072367183864125,-0.012461898915935308,-0.08037154144607485,-9.793574586510658
4.8,2.4000000953674316,185.0,25.45544242858887,0.2942156493663788,-79.78281112154025,40.45903878139121,267.75655121183394,0.0015743013937026262,0.00243421271443367,-0.7364931106567383,0.6764388680458069,0.0008899052044789196,0.0013911238203897372,0.03055592721745112,0.0008754880982451143,-0.004176999442279339,0.019735520705580708,-0.041298463884741066,-0.08240476450882853,-9.801785246729851
5.0,2.4000000953674316,188.0,25.35277557373047,0.9383093118667604,-79.78281111305415,40.45903878082921,267.76256144618986,0.0016138484934344888,0.0027657707687467337,-0.7365149259567261,0.6764137148857117,-0.003200697298477239,0.002510685406166073,0.029728865480527413,0.0017631908413022754,-0.04278578981757164,0.03102158941328525,-0.07151459030807017,-0.0679298085719347,-9.780294975042345
5.19,2.5,188.0,25.45043563842773,0.326022744178772,-79.78281117713634,40.459038878314,267.7569579539299,0.0016003662021830678,0.0026896651834249496,-0.7365397214889526,0.6763870120048523,-0.006668321626651283,0.0004112842964028463,0.024083837936518488,0.0008770573185756803,0.007381259463727473,0.003986615221947432,0.002655124696902931,-0.05835632683709264,-9.808804244399072
5.3,2.4000000953674316,190.0,25.449182510375977,0.4373475611209869,-79.78281120294673,40.45903896182003,267.7551534233093,0.0015195364831015468,0.002583134453743696,-0.7365480661392212,0.676378607749939,-0.0054934422820650365,0.0012446365893218456,0.02113962203519748,-0.011693743988871573,0.008511950261890888,0.005052173510193825,0.0072442296752706185,-0.10114898272790017,-9.815600463151931
5.5,2.5,189.0,25.104867935180664,4.946003437042236,-79.78281119903501,40.45903896607613,267.7572960910797,0.00152404245454818,0.0025424661580473185,-0.736519455909729,0.6764098405838013,-0.0025661207124541225,0.0021450179411635338,0.0215868965003,0.031018113717436787,0.006729111075401306,-0.005933746695518494,-0.03799489210825414,-0.10496903266757728,-9.819325139522553
5.6,2.5,185.0,25.05603790283203,5.5105791091918945,-79.78281125386337,40.4590390627497,267.75557226514815,0.001502255443483591,0.0025648812297731642,-0.7364894151687622,0.676442563533783,-0.00768386000773856,-0.0021674939771479753,0.02026367241475813,-0.009904972277581692,0.001546556013636291,0.001782363862730563,-0.037558363198768346,-0.0420725164655596,-9.80396274983883
5.69,2.5,185.0,24.93083381652832,6.782863140106201,-79.78281125608329,40.45903906860343,267.7576184926033,0.0015696251066401599,0.0027471669018268585,-0.7365199327468872,0.6764084100723267,-0.0074734916017578515,-0.002493074360530395,0.02002954654781774,-0.020103765651583668,0.0019919322803616524,-0.04140790179371834,0.0049444101238623256,-0.0480809416808188,-9.808485571146011
5.89,2.5,186.0,24.738018035888672,9.120684623718262,-79.7828112992573,40.45903913969367,267.75658852434157,0.001686795731075108,0.00331714958883822,-0.7367128729820251,0.6761955618858337,-0.008410838733543351,-0.004928344173580319,0.016548269270243984,-0.008438686840236187,-0.012010649777948856,0.0051144282333552855,-0.03595182699384168,-0.17239614514634016,-9.793022024631501
6.0,2.4000000953674316,182.0,24.607805252075195,11.013206481933594,-79.78281130150181,40.459039142685405,267.7586235461235,0.001991745550185442,0.003880824893712997,-0.7367724776268005,0.6761267781257629,-0.002927892960660005,-0.0011201974048016428,0.022658519045589985,-0.016011744737625122,-0.05416276305913925,0.019692709669470787,0.00946760373422876,-0.0887923451140523,-9.844058861732485
6.2,2.4000000953674316,183.0,24.358646392822266,13.883797645568848,-79.78281136186413,40.459039248255046,267.75573176717756,0.0030553354881703854,0.00486084958538413,-0.7370240688323975,0.6758421659469604,0.003645308056113832,-0.009495989275850042,0.017661391242990716,0.10198889672756196,-0.012134917080402374,0.014079454354941843,-0.07470562145579608,-0.15690031103789806,-9.765143085122107
6.3,2.299999952316284,181.0,24.2071475982666,15.601380348205565,-79.78281140194194,40.45903930395493,267.75118786668776,0.004018914885818957,0.005218367557972671,-0.737177848815918,0.6756666898727417,-0.006726050804370188,-0.013294812928828592,0.01676193576712155,0.02781554311513901,0.025975940749049187,-0.02354799397289753,-0.007258765487931667,-0.09966098511591556,-9.824627394676213
6.5,2.299999952316284,181.0,23.91667175292969,19.00473976135254,-79.78281142413366,40.459039306430775,267.75543022727965,0.006294779945164919,0.005265233106911182,-0.7372668981552124,0.6755517721176147,-0.005650430022241091,-0.012112303201533314,0.030095246796206437,0.0308916699141264,0.036385104060173035,-0.0009428135817870498,0.07491604356095195,-0.147656630538404,-9.863029568195344
6.6,2.299999952316284,179.0,23.775190353393555,20.698467254638672,-79.78281146330707,40.4590393727135,267.75305939292906,0.0077768657356500626,0.005501370877027512,-0.737472653388977,0.6753098964691162,0.003524187471251448,-0.005418506658545582,0.020086364896846117,0.0564146563410759,-0.039089329540729516,-0.022398779168725014,0.012209918182343243,-0.14036111438646914,-9.842227513790133
6.8,2.4000000953674316,178.0,23.46217918395996,24.61074066162109,-79.78281151503184,40.459039437360566,267.7519245800972,-0.000895555247552693,0.0066934488713741285,-0.7362034916877747,0.6767265796661377,-0.028425070950790318,0.026085334166241696,0.04436827900153159,-0.10035302489995956,-0.1527499109506607,0.02714653126895428,0.16439373716712,-0.4289877737313509,-9.9967846262455
7.0,2.4000000953674316,176.0,23.17545890808105,28.16518402099609,-79.78281145705984,40.4590394669396,267.7602695879936,-0.009858145378530024,0.009199043735861778,-0.7350987195968628,0.6778260469436646,-0.040186759481438836,0.06349294059624057,0.12237638310382375,-0.02673664316534996,-0.1965225785970688,0.05182100459933281,0.31126980096101764,-0.2677727657184005,-10.378010222911836
7.1,2.4000000953674316,177.0,23.688798904418945,21.40617561340332,-79.7828116247107,40.459039506378005,267.7706514058113,-0.020235851407051086,0.0072873453609645375,-0.7314016222953796,0.681607723236084,-0.103493271885535,0.09258656243578432,0.3095806297058384,-0.08695457875728607,0.3502030670642853,0.02516128495335579,0.13812255355529487,-0.31140077859163284,-10.746182495355606
7.2,2.5,179.0,23.54481315612793,22.718217849731445,-79.78281146431688,40.45903959865765,267.8036195693016,-0.009323615580797195,-0.0011455521453171964,-0.7309708595275879,0.6823440790176392,-0.11390286066304985,0.1218972168127452,0.35833673693709384,0.14430731534957886,0.28794461488723755,-0.03522104769945145,-0.017648376915603878,-0.2292669137567282,-10.551131075620653
7.39,2.5,172.0,23.58487892150879,21.80376434326172,-79.78281069436531,40.45903988230026,267.8678830323219,0.012075770646333694,-0.004936076700687408,-0.7311602234840393,0.6820810437202454,-0.15616430401983306,0.15655652364006584,0.3651792409958946,0.13217175006866455,0.07810182869434358,-0.07759716361761093,0.14003271100111306,-0.2062546849250793,-10.078709964752198
7.5,2.5,184.0,23.53479766845703,21.93894386291504,-79.78281050825139,40.45904002837418,267.90411490774153,0.01607648655772209,-0.007323388010263444,-0.731680154800415,0.6814191937446594,-0.17403905442422893,0.14596787634846292,0.3525848598250125,0.0697517842054367,0.0209367573261261,0.001366188982501626,0.11669677482917905,-0.2801939876563847,-9.798023732900619
7.71,2.4000000953674316,187.0,23.4221134185791,23.71219062805176,-79.78281010410895,40.45904046714104,267.95661140060423,0.016868434846401215,-0.0036599985323846345,-0.7328643798828125,0.6801558136940002,-0.18816963408009704,0.11265593996637195,0.2920112675479765,0.07813629508018494,-0.07850132137537003,-0.08830142766237259,0.2537616675719619,-0.20291921384632589,-9.656688929200174
7.8,2.4000000953674316,188.0,23.390811920166016,24.83338928222656,-79.78281012619209,40.45904077000453,267.9632977900505,0.016271449625492096,0.0010929390555247664,-0.7330777645111084,0.6799492835998535,-0.19754676925341602,0.07453778399748746,0.25965524280517793,0.06661117076873779,-0.013893993571400642,-0.06031453609466553,0.07991383236832918,-0.14079676849767567,-9.775992009043694
8.0,2.4000000953674316,188.0,23.44214630126953,23.473636627197266,-79.78280995406594,40.459041103272064,268.02142239189146,0.013644646853208542,0.0045694708824157715,-0.7342952489852905,0.6786777973175049,-0.1922521791924206,0.06405939793007788,0.31548201759487515,-0.07585427910089493,-0.033855944871902466,0.07311389595270157,0.1045748206973076,-0.2253467028401792,-9.999625203609467
8.1,2.4000000953674316,182.0,23.46217918395996,23.529298782348643,-79.7828099189699,40.45904139228813,268.04865789985655,0.012216350995004177,0.006351599004119636,-0.7350115776062012,0.6779147386550903,-0.1914181073689089,0.05125143481459997,0.33077994801272403,0.04574670642614365,-0.046742536127567284,-0.002364424057304859,0.1002109066117555,-0.1664665202982724,-10.14340706706047
8.3,2.299999952316284,183.0,23.453413009643555,22.84544563293457,-79.78280996172948,40.459041893578735,268.11925101852415,0.01134859211742878,0.005122210364788771,-0.7356563210487366,0.6772405505180359,-0.19848844145732364,0.009387458369462491,0.3590431165112278,-0.07734590768814087,0.0049340594559907905,0.08810513466596602,0.0052338792756199855,-0.1976687065511942,-10.007065200805664
8.4,2.299999952316284,182.0,23.506000518798828,22.59099006652832,-79.78280993587887,40.45904206282321,268.156389957428,0.009629190899431705,0.0026274072006344795,-0.7358024120330809,0.6771228313446045,-0.1975795767250277,0.012700526995539585,0.36611459026213417,-0.0881076455116272,-0.05609022825956345,-0.0013448547106236222,0.09808262974955144,-0.20009336415678264,-9.888981850147248
8.59,2.200000047683716,184.0,23.33446884155273,24.17339324951172,-79.78280976575581,40.459042573770816,268.2427334246635,0.0062680020928382865,0.001652328995987773,-0.7350841164588928,0.6779450178146362,-0.19403618944991635,0.031865700317909834,0.3870078380846485,0.04311200976371765,-0.06736252456903458,0.05308178812265396,0.05622527254745365,-0.1335925876814872,-9.729213114380837
8.69,2.200000047683716,178.0,24.27100372314453,9.597790718078613,-79.78280971780379,40.459042741549375,268.282580530405,0.008269122801721096,0.002934198128059507,-0.7345203757286072,0.6785299181938171,-0.19232208818264834,0.026267188214161297,0.3998008624554061,0.06775727868080139,-0.03246583044528961,0.028217427432537082,0.0327892736135982,-0.164782357737422,-9.932985656261442
8.9,2.200000047683716,175.0,23.22929763793945,27.457475662231445,-79.78280963227267,40.459042922298416,268.3622250316143,0.016556963324546814,0.007385284639894962,-0.7332627177238464,0.6797037720680237,-0.14676356602802024,0.038944518763026535,0.20357079246152893,0.08709485083818436,-0.010152418166399002,0.009991643950343132,0.029124691088218243,0.0281328365765512,-8.906658391356471
9.01,2.200000047683716,175.0,23.05776596069336,27.544944763183594,-79.78280958031935,40.45904304946964,268.3825331685543,0.017603212967514992,0.00864597037434578,-0.73276287317276,0.680201530456543,-0.14533377846193776,0.033029834605892816,0.21120389224841035,0.02500060200691223,0.0018694919999688864,-0.02469830028712749,0.07956540226936341,-0.2233877576887608,-9.723824905157091
9.2,2.200000047683716,177.0,22.70343589782715,33.58034133911133,-79.782809444153,40.459043283018715,268.46874799406527,0.013552458956837654,0.005217014346271753,-0.7319433689117432,0.6812107563018799,-0.1258471664548496,0.032391022361925884,0.4335642416781431,-0.08665572106838226,0.04260620102286339,-0.04582804068922997,0.1054147549532354,-0.2438427798449993,-10.386024416685103
9.3,2.200000047683716,175.0,22.751012802124023,31.50492858886719,-79.78280941761196,40.459043613370255,268.5439380017519,0.01160736009478569,0.0035546335857361555,-0.7312558889389038,0.6819952726364136,-0.15465647429394444,0.03924540166741992,0.6219065233486345,-0.03977843001484871,-0.07122818380594254,0.06741125136613846,-0.01887908790260553,-0.27691949207335714,-11.27534732580185
9.5,2.299999952316284,174.0,22.710947036743164,32.005889892578125,-79.78280933797951,40.45904384538043,268.70531971766053,0.014660642482340338,0.0045466520823538295,-0.7304176688194275,0.6828283071517944,-0.14067918924701314,0.027952620886655274,0.990238542932421,0.12038159370422365,0.01749168522655964,-0.07736900448799132,-0.012456656978465621,-0.14452777630649508,-11.501006580591204
9.69,2.299999952316284,174.0,22.31529998779297,36.99165344238281,-79.78280927801863,40.45904404116516,268.8135539052486,0.018399372696876533,0.006706741638481617,-0.7305763959884644,0.6825500726699829,-0.1441641129090052,0.03149926817270597,1.1621430016504466,0.06441222131252289,0.00095774803776294,0.10798511654138564,0.047359970854595305,-0.2975845389068127,-11.607245811223983
9.8,2.299999952316284,175.0,22.32781982421875,37.055267333984375,-79.78280921260091,40.45904429136427,269.0929696915149,0.015050006099045275,0.007065382320433855,-0.7330479621887207,0.6799737215042114,-0.14464791116574127,0.0291802223957696,1.6143558916265643,0.03204354643821716,0.009655265137553215,0.0041454522870481006,0.1148611693829298,-0.31455388963222497,-12.206762001514434
9.9,2.4000000953674316,176.0,22.50436019897461,33.89046096801758,-79.78280919503592,40.45904436460634,269.2679746208191,0.012532586231827736,0.00746787805110216,-0.7347105741500854,0.6782239079475403,-0.14144167191825988,0.02524140014897225,1.8771784108492453,-0.08792155236005783,-0.022424811497330662,0.031528372317552567,0.14421393614262346,-0.379488279260695,-12.39732392907143
10.1,2.5,177.0,22.362876892089844,35.846595764160156,-79.78280917862924,40.45904456261545,269.6860011873245,0.00668459152802825,0.009810908697545528,-0.7368758916854858,0.6759238243103027,-0.13997207806569828,0.02772350019185649,2.314461296619329,-0.038675207644701004,-0.04462838917970657,-0.021412864327430725,0.14340665493160487,-0.363887725174427,-12.127402421236038
10.19,2.5,178.0,22.431739807128906,34.24033737182617,-79.78280913498666,40.45904462914147,269.92914629554747,0.007979165762662888,0.009668976068496704,-0.7368791103363037,0.6759083867073059,-0.14371350527249144,0.031417171740499635,2.538184383032158,-0.07940246164798738,-0.018354941159486767,0.04717594012618065,0.1283312356285751,-0.290004007536918,-11.922421259880064
10.39,2.5999999046325684,177.0,22.674638748168945,31.02782249450684,-79.78280899431624,40.459044823442575,270.4689819869995,0.015369249507784843,0.013648237101733685,-0.7344657778739929,0.6783344149589539,-0.15511665220432208,0.08381979071599475,2.84076774181162,0.0768774077296257,-0.0479731410741806,-0.06331074982881546,0.3017717483080924,-0.23202954042702914,-11.21634541153908
10.5,2.700000047683716,180.0,22.704687118530273,29.707826614379893,-79.78280889327702,40.45904486666533,270.75890756225584,0.01724233478307724,0.016510166227817542,-0.7323131561279297,0.6805495023727417,-0.17010418498078556,0.09537673148556908,2.946480950983307,0.04093809425830841,-0.09418675303459167,0.0025236993096768856,0.15003849383443596,-0.369875712543726,-10.859978667497638
10.7,2.700000047683716,183.0,22.77104568481445,28.87289047241211,-79.78280858997124,40.459044963283134,271.36560845947264,0.011770160868763924,0.02071951888501644,-0.7289518117904663,0.6841500997543335,-0.14052626537198726,0.11960360478943052,3.1009744318268697,0.010361352004110813,-0.02688468992710113,-0.1334032118320465,0.2416476437263191,-0.3029759640991688,-10.76298037648201
10.8,2.799999952316284,184.0,22.86620140075684,27.966388702392567,-79.7828083033137,40.45904500494873,271.71492553329466,0.011091676540672779,0.021303841844201088,-0.7275366783142091,0.6856483221054077,-0.10867204118381524,0.12498403086209535,3.1752908167656035,-0.02319411002099514,0.0069353622384369365,-0.021167842671275142,0.21015550866723065,-0.1417103228531778,-10.551440978050232
11.0,2.799999952316284,181.0,22.89249610900879,28.30036354064941,-79.78280785477777,40.459044876359904,272.35618615722655,0.009744331240653992,0.009708336554467678,-0.7288218140602112,0.6845652461051941,-0.04555809960403736,0.1825407011263744,3.2204835472549536,-0.10451501607894896,0.06372051686048508,0.018875474110245705,0.1267296193074435,-0.0949486774764955,-10.1863536965847
11.1,2.9000000953674316,178.0,22.90376281738281,28.47530174255371,-79.78280725645905,40.459044683150594,272.7245433387756,0.008148224093019962,0.003180473344400525,-0.7304983735084534,0.682858407497406,0.017250143998932294,0.24339405079842105,3.2334455319908866,-0.1043448969721794,0.08351407945156097,0.12362240254878998,0.13249099052511154,-0.06057991788256914,-9.83292459368706
11.3,3.0,180.0,22.98639869689941,26.7497673034668,-79.78280608696262,40.45904430253818,273.4185035285949,0.00502069853246212,-0.001466389512643218,-0.7332541346549988,0.679934561252594,0.07647827911419758,0.32947565857089234,3.2131469181710743,0.007499206345528364,-0.039115320891141885,-0.05825722217559815,0.2549108647182584,-0.12444877579808235,-9.739075613021852
11.39,3.0,180.0,23.00893592834473,26.527118682861328,-79.78280574000162,40.4590441859864,273.7399652061462,0.006279008463025093,-0.002446017460897565,-0.7340238690376282,0.6790902614593506,0.08534725592304808,0.3355393029654781,3.2063840468033438,-0.03350837528705597,0.05096076428890228,0.049306463450193405,0.1722971262037754,-0.1575650663673878,-9.739233487844468
11.6,2.9000000953674316,182.0,23.04023742675781,26.272661209106445,-79.78280475834175,40.45904389590054,274.32948899841307,0.01485674548894167,-0.005520571488887072,-0.7353207468986511,0.6775339245796204,0.07717286508337162,0.3759643697093857,3.1163638206748163,0.06837286800146103,0.05944617465138435,-0.01362837664783001,0.14365383683703842,-0.1359238634258509,-9.61935679614544
11.8,2.9000000953674316,183.0,22.94883728027344,26.75771903991699,-79.7828044110461,40.459043776501744,274.64071155166624,0.01709292083978653,-0.008748813532292845,-0.7356670498847961,0.6770710945129395,0.06162075291250401,0.3829636160926076,3.093254531104688,-0.12261002510786055,0.09588693082332612,0.028788775205612183,0.15076865575276316,-0.15346348213031888,-9.629263733625413
11.9,2.9000000953674316,181.0,23.16669464111328,24.403993606567386,-79.7828040002808,40.459043494146975,275.2157213745117,0.014362991787493229,-0.01603678986430168,-0.7347453236579895,0.6780014634132385,0.09230169037180083,0.3482036545851402,2.9980105889491715,-0.09077701717615128,-0.03955770656466484,-0.016872260719537742,0.21509143576025969,-0.14924245937727393,-9.572686659693721
12.01,2.799999952316284,185.0,22.98639869689941,25.7876033782959,-79.78280376838718,40.45904337534291,275.5153005180359,0.011458165012300014,-0.014627907425165175,-0.7339426279067993,0.6789572238922119,0.11694741652568115,0.3248860931640378,2.9700646681399308,0.02115755900740624,-0.03783643990755081,-0.05225435644388199,0.14017548356205226,0.03827204556204378,-9.528721445202828
12.2,2.700000047683716,197.0,22.96135711669922,26.69410514831543,-79.78280269587033,40.45904308205096,276.23669314956663,0.00946749560534954,-0.009700624272227287,-0.7334363460540771,0.679623007774353,0.10673682871416697,0.2768958680932293,2.9764043481606413,0.04353844374418259,0.047881629317998886,-0.07416870445013046,0.1759307504631579,-0.018565932959318163,-9.64087513446808
12.31,2.9000000953674316,195.0,23.10158729553223,24.793630599975586,-79.78280186594891,40.459042749969655,276.6566417274475,0.010602209717035294,-0.012181264348328114,-0.7334868907928467,0.6795117855072021,0.11710135357696318,0.3077141500427139,3.0016537949895765,-0.09964873641729356,0.05180903151631355,0.03235282748937607,0.2678675088845194,-0.035221754154190425,-9.482402141690255
12.51,2.799999952316284,206.0,23.05025291442871,24.88905143737793,-79.78280136641332,40.459042532517465,277.248949295044,0.00958966463804245,-0.02002136595547199,-0.7348641157150269,0.6778510212898254,0.10748432920226454,0.3125952313281326,2.9122274837475626,-0.08634882420301437,0.11249183118343352,-0.02309028618037701,0.2856216655857861,-0.015234755929559468,-9.46504351258278
12.69,2.799999952316284,210.0,22.98514747619629,27.05988693237305,-79.78280099758774,40.4590424553339,277.6300566253662,0.014657065272331238,-0.024185767397284508,-0.7357132434844971,0.6767025589942932,0.10607179585858348,0.3250393329222053,2.893893562648224,-0.03803003206849098,0.13258814811706546,0.08875612914562225,0.3109700215235353,-0.10228214571252467,-9.187077405452731
12.8,2.799999952316284,219.0,22.908771514892567,26.26470947265625,-79.78280040343513,40.45904219928589,278.26143193817137,0.02351338602602482,-0.024034710600972176,-0.7360025644302368,0.6761432290077211,0.056816289794103664,0.3554559257890413,2.767275581692396,0.05073529109358788,-0.023121312260627747,-0.04261530190706253,0.3767577026411891,-0.1504707035701722,-9.084813112020493
12.89,2.9000000953674316,227.0,22.85368156433105,28.11747169494629,-79.7828002130107,40.4590421622671,278.53702951049803,0.02453165501356125,-0.022115277126431458,-0.7353236675262451,0.6769108772277832,0.011928025394990056,0.3383813282519561,2.7105699668730163,-0.01993323490023613,0.00047409214312210684,-0.015524672344326971,0.35195151150226595,-0.13507503043860195,-9.144238949418073
13.1,2.9000000953674316,237.0,22.92880439758301,26.908802032470703,-79.78279965653401,40.459041968894354,279.1456940231323,0.022826092317700386,-0.017133532091975212,-0.7326719164848328,0.679983377456665,-0.014154045630806262,0.2799227393321119,2.676416243777226,0.04024970903992653,-0.013784447684884071,-0.029109574854373925,0.3878512594476343,-0.2452296297624708,-9.325735353827476
13.2,3.0,244.0,22.602020263671875,30.025897979736328,-79.7827995320835,40.45904195058517,279.4129622039795,0.022352743893861767,-0.01714729145169258,-0.7319425940513611,0.6807836890220642,-0.013570930343103369,0.2458667966048567,2.6529647867537007,0.07909080386161804,0.04305538535118103,-0.07161581516265869,0.2815396329760552,-0.09477993048727514,-9.528308047056196
13.4,3.2000000476837163,253.0,22.485578536987305,30.98806381225586,-79.78279901586028,40.459041807825116,280.0335981903076,0.022580888122320168,-0.019122080877423286,-0.7318212985992432,0.6808539628982544,-0.013102089530384293,0.2417761953457335,2.7575027651788955,0.010246475227177143,0.03357692062854767,-0.044844407588243484,0.3551831945031881,-0.0872228610701859,-9.810150858163832
13.6,3.2000000476837163,258.0,22.55068588256836,31.17095375061035,-79.78279892979965,40.45904179710639,280.3123247680664,0.02296614833176136,-0.01960910484194756,-0.7322447299957275,0.6803717613220215,-0.015757671911407332,0.2275080302016555,2.7981807358961923,-0.040181275457143784,-0.004271327517926693,0.049405764788389206,0.36293492138385774,-0.06169940843246877,-10.081003242731095
13.69,3.299999952316284,258.0,22.710947036743164,27.640365600585927,-79.78279878791525,40.45904170851864,280.97457719421385,0.02376476489007473,-0.019481910392642014,-0.73408442735672,0.6783626079559326,-0.02299897702309612,0.1874022915107423,2.927756968653728,-0.025229062885046,0.04247356578707695,0.05387616902589798,0.4314584050700069,-0.14644441137090325,-9.978961143493652
13.8,3.4000000953674316,258.0,22.831144332885746,27.9345817565918,-79.78279879246121,40.45904165654119,281.2823898849487,0.02472344599664212,-0.019694605842232704,-0.7344684004783629,0.6779063940048218,-0.020598416895868586,0.1508412938741003,2.9342177770360154,-0.030695373192429543,0.02826471626758576,0.02641471661627293,0.339093411192298,-0.14306794582866136,-9.961038258075712
14.0,3.4000000953674316,259.0,22.534408569335927,30.72565460205078,-79.78279889340342,40.459041655131365,281.86517930603026,0.022542266175150868,-0.01442369632422924,-0.7331461310386658,0.6795443892478943,-0.036940224327219225,0.1151384469503904,2.889337676702145,-0.08048787713050842,-0.06872449070215225,0.04739784449338913,0.3484852089732885,-0.21115837924182407,-9.697404261231423
14.09,3.4000000953674316,255.0,22.67588996887207,29.278430938720703,-79.78279902018906,40.45904154462494,282.1638052520752,0.018600206822156903,-0.010741334408521652,-0.7323829531669617,0.6805540919303894,-0.02850575281592489,0.07412489351720855,2.8897848511145536,-0.0508098304271698,-0.11694120615720748,0.030819708481431007,0.3644457322731614,-0.1702244527079165,-9.80810199379921
14.3,3.5,258.0,22.70969581604004,28.332170486450195,-79.78279932501502,40.45904149759462,282.75194478607176,0.015165896154940128,-0.011097658425569534,-0.7321640849113464,0.6808690428733826,-0.03592118939105566,0.002713141739809487,2.932802058848998,-0.03197585046291351,0.06803765892982483,0.11049164831638336,0.31536277882754804,-0.3840810113400221,-10.108894461393355
14.5,3.5,258.0,22.62330436706543,29.310237884521484,-79.782799435716,40.45904151209032,283.0462877807617,0.017180422320961952,-0.01339959166944027,-0.732462465763092,0.6804587244987488,-0.03944186902226232,0.013942754330394193,2.95347157402072,-0.009771326556801796,0.06729143112897873,-0.00716007687151432,0.331910252943635,-0.24592490024864674,-10.067617796659473
14.6,3.5,257.0,22.56696128845215,30.121318817138672,-79.78279960007988,40.45904162726985,283.6438610610962,0.021502306684851646,-0.013018792495131493,-0.7333409190177917,0.6793962717056274,-0.07556344610275552,0.029981474187515563,2.9873348512601843,0.09212904423475267,0.02045585960149765,-0.0935857519507408,0.4980246794968844,-0.21507813334465029,-10.029838936328886
14.8,3.4000000953674316,258.0,22.62330436706543,29.59650230407715,-79.7827997267313,40.459041679877735,283.9442942199707,0.024987775832414627,-0.010287524200975895,-0.7332750558853149,0.6793950200080872,-0.08865040821075433,0.036674318145055305,3.0175936750151884,0.15617360174655914,0.0003039166913367808,-0.0960281863808632,0.4252457749843598,-0.14043550193309784,-10.048609668016434
14.89,3.4000000953674316,256.0,22.644588470458984,28.8887939453125,-79.78280006622619,40.45904197734362,284.53381658172606,0.024428371340036392,-0.006949811242520809,-0.7325445413589478,0.6802452206611633,-0.14258488765813246,-0.00201846202182418,2.998844458889082,-0.009478284046053886,-0.07556875050067903,-0.013745480217039585,0.4206155110895634,-0.1788543400168419,-10.031126493215561
15.09,3.4000000953674316,255.0,22.63582420349121,29.30228614807129,-79.78280022757257,40.45904203636454,284.8331530151367,0.01966841146349907,-0.0065692723728716365,-0.7324658036231995,0.6804879307746887,-0.13380794207917587,-0.008902358918701933,2.9899806058367537,-0.04031052440404892,-0.0753709077835083,-0.058967769145965576,0.4439414795860648,-0.1906719831191004,-9.764643148183824
15.19,3.5,252.0,22.624555587768555,29.06373405456543,-79.78280064429623,40.459041929131324,285.4340250549316,0.015549832955002785,-0.005633289460092783,-0.7320656180381775,0.6810334324836731,-0.07250594632973656,-0.03659981900728988,3.0136179228855062,0.041738621890544884,-0.03974047675728798,0.1031872257590294,0.4197591132670641,-0.07345975795760751,-9.814894119501112
15.39,3.5,250.0,22.816120147705078,26.50326156616211,-79.78280089957795,40.459041979466,285.74306893920897,0.016731657087802887,-0.007081702351570129,-0.7319049239158629,0.681164562702179,-0.08354039920349494,-0.04503354366981677,3.0280407164245133,-0.04559201374650002,0.06501565128564835,0.10219021886587144,0.36793304823338985,-0.2794110089354217,-9.91784604549408
15.5,3.5,250.0,22.672134399414066,28.24470138549805,-79.78280120131859,40.45904205593352,286.34707856750487,0.022312337532639503,-0.011093514040112495,-0.7321898341178894,0.680644690990448,-0.0788674314828941,-0.007543719259759926,2.997295661727112,0.07960961759090424,3.7804056773893535e-05,-0.05521433800458908,0.4528390414640308,-0.14022223387844862,-9.814131642580033
15.59,3.4000000953674316,251.0,22.73974418640137,27.62446212768555,-79.78280139776328,40.459042106613865,286.6544477996826,0.022026719525456432,-0.011077875271439552,-0.7322403192520142,0.6805999279022217,-0.07944512002059634,0.0008120442226799003,2.963800813433511,-0.04951312020421028,-0.02339950203895569,0.042960945516824715,0.48979212876409295,-0.12723108200356364,-9.596892963051797
15.8,3.5999999046325684,257.0,22.73598861694336,27.71193122863769,-79.78280169224338,40.45904220515492,287.2583773193358,0.016122950240969658,-0.008606218732893467,-0.7327913641929626,0.6802080273628235,-0.06848001492672061,-0.01254772845800252,2.919733080469774,-4.0070328395813704e-05,-0.09078654646873474,0.03665947169065476,0.3923920974880457,-0.07452652306761592,-9.457795304059985
15.89,3.5999999046325684,257.0,22.84616851806641,24.809534072875977,-79.7828018319623,40.45904223031675,287.54869866943363,0.014268578961491585,-0.0051424303092062465,-0.7327688932418823,0.6803085803985596,-0.043918233670442584,-0.011551270996452348,2.893291122930904,0.07710687071084976,-0.06426315009593964,-0.06415795534849167,0.4536708444356918,0.05953246685676278,-9.475380220413207
16.1,3.5999999046325684,262.0,23.033977508544922,23.74399757385254,-79.7828020648043,40.45904229509532,288.1439001617432,0.011309946887195109,-0.00540577108040452,-0.7329149842262268,0.6802048087120056,-0.05155580545430554,-0.015083431549695872,2.811712263125057,-0.13583488762378693,0.057718999683856964,0.08270526677370071,0.4426570290327073,-0.1591166250407696,-9.102008603811264
16.2,3.5999999046325684,264.0,22.893747329711914,25.191219329833984,-79.78280214550206,40.45904230432801,288.4201147613525,0.011113090440630913,-0.010416416451334952,-0.733693540096283,0.6793097853660583,-0.034767515429650515,0.003889182765133725,2.7102120311272966,-0.03443644940853119,0.10279368609189987,0.01059262827038765,0.4532735626772046,-0.08548838504590095,-8.904897794723512
16.39,3.700000047683716,267.0,23.032724380493164,23.537250518798828,-79.78280233097122,40.45904248571957,288.97683358764647,0.01317213661968708,-0.017319750040769574,-0.7348182797431946,0.6779149770736694,-0.029150520705009963,0.08551210369633208,2.5486801505380203,0.0419948548078537,0.028785692527890205,-0.030186258256435394,0.5230071276426316,-0.017055540054570884,-8.802817688584328
16.5,3.700000047683716,270.0,23.102840423583984,21.597017288208008,-79.78280233143785,40.45904252670426,289.2267553863525,0.015563282184302809,-0.01811963692307472,-0.7347978949546814,0.6778654456138611,-0.03760233758972723,0.1079067835117564,2.444470252626658,0.02825375273823738,0.008774317800998688,0.1151343435049057,0.5071319371461869,-0.2384275272488594,-8.73074783205986
16.69,3.799999952316284,273.0,23.09282302856445,22.257015228271484,-79.78280235808552,40.45904258458885,289.7110598144531,0.02532682009041309,-0.02028333581984043,-0.7337729930877686,0.6786194443702698,-0.07101708161482895,0.13950780635126458,2.2225720083152574,0.07748544961214067,0.15383075177669525,-0.12729644775390625,0.5051887612044812,-0.09526948861777784,-8.618553212285041
16.9,3.799999952316284,275.0,23.21677589416504,21.883281707763672,-79.78280239227801,40.45904263786796,289.94388414001463,0.029077425599098206,-0.023146267980337143,-0.7331527471542358,0.679047703742981,-0.09028002276840703,0.16062487890320354,2.125271356669844,-0.06661267578601837,0.05033927410840988,0.03651589900255203,0.6731565358489752,-0.1543919651582837,-8.568566535115242
17.0,3.9000000953674316,281.0,23.0715389251709,24.11773109436035,-79.78280234065653,40.45904277008829,290.3451101837158,0.03182033821940422,-0.025464661419391632,-0.7319772243499756,0.6801091432571411,-0.09071973431621104,0.16193256015745333,1.8766203482105104,0.03270174190402031,-0.047610968351364136,-0.00031111304997466505,0.6368953203409911,-0.0013314749579876662,-8.569427245259286
17.09,4.0,284.0,23.047748565673828,22.75002479553223,-79.78280233790572,40.45904284016906,290.55288339233397,0.031856976449489594,-0.02438243106007576,-0.7316251993179321,0.6805256605148315,-0.10027879627789232,0.15410669316424852,1.8156118386826563,-0.0034630796872079372,0.006202633492648602,0.031845733523368835,0.6783606308698654,-0.11952054144814613,-8.759711430072786
17.3,4.099999904632568,283.0,23.19048309326172,21.97075080871582,-79.78280231853897,40.459042980370334,290.9334528503418,0.034616366028785706,-0.024290673434734344,-0.7313520908355713,0.6806877255439758,-0.10047483258302002,0.12410246610961645,1.6411303473959684,0.09737376868724824,0.01001612190157175,0.00826337840408087,0.6616260458528996,-0.2096871466934681,-8.603811212182045
17.39,4.099999904632568,283.0,23.14666175842285,22.43195343017578,-79.78280232339024,40.4590430434809,291.0918180999756,0.037720855325460434,-0.02290056087076664,-0.7317215800285339,0.6801737546920776,-0.09791160692092038,0.11036365345614477,1.5178386605318703,0.07334018498659134,0.0037889424711465844,-0.03795824572443962,0.5918629889935255,-0.00396498208749108,-8.532745907306671
17.6,4.099999904632568,283.0,23.046497344970703,22.17749786376953,-79.78280235981737,40.459043138823894,291.4083845672607,0.03739011660218239,-0.020811541005969048,-0.7331963181495667,0.6786693930625916,-0.09742195066848336,0.09203722383363512,1.376877715019993,-0.02227781154215336,0.051074352115392685,-0.03958897665143013,0.6927995259314775,-0.1714591471105814,-8.723955121636394
17.7,4.099999904632568,283.0,23.12287330627441,21.088104248046875,-79.78280239058337,40.459043183356364,291.54321504211424,0.0367814227938652,-0.02126078307628632,-0.733546257019043,0.6783104538917542,-0.07029898763670415,0.07412923856475047,1.3133695095104785,0.04857812076807022,-0.02635176293551922,0.056388970464468,0.6455017639696599,-0.16479894921183588,-9.065765807032584
17.9,4.199999809265137,283.0,23.219280242919922,21.86737823486328,-79.78280245239823,40.45904324006595,291.83521867370604,0.036630362272262566,-0.021970631554722786,-0.733855128288269,0.6779617667198181,-0.05406726015206001,0.05573012788900183,1.2091232702836576,-0.07403122633695602,0.001338857226073742,0.017562052235007286,0.666994666904211,0.004704687986522914,-9.104477298259736
18.1,4.199999809265137,283.0,23.660001754760746,18.29703140258789,-79.7828025050963,40.4590432619484,291.95177293395994,0.0362999401986599,-0.023203838616609573,-0.7337469458580017,0.6780555844306946,-0.04361190565156331,0.03587693781102619,1.1229167555313408,0.04584009572863579,0.00732432771474123,-0.026545153930783272,0.6120529861003161,-0.12280748063698413,-8.907415605783463
18.2,4.199999809265137,283.0,23.258094787597656,21.39027214050293,-79.7828025255347,40.45904334422751,292.17341256713866,0.025657925754785538,-0.0054747778922319395,-0.720504105091095,0.6929542422294617,-0.039912636059401485,0.040778952332089294,0.6978961539158546,0.1985093057155609,-0.1455068141222,-0.6996210217475891,0.7430090551078321,-0.11947756441310048,-7.643258691430093
18.3,4.199999809265137,277.0,23.328208923339844,19.410280227661133,-79.78280250295262,40.45904339380829,292.2171747741699,0.023089494556188583,-0.002272251527756453,-0.6985375285148621,0.7151972651481628,-0.05842905854620701,0.023247061873364328,0.5637653401865208,-0.06419900804758072,0.049071233719587326,-0.6999368071556091,0.361568317450583,-0.3625374203547835,-8.171055273413659
18.5,4.199999809265137,279.0,23.27311897277832,20.579191207885746,-79.78280244019261,40.45904344466551,292.30592752075194,0.02493099123239517,-0.008810718543827534,-0.6473454833030701,0.7617379426956177,-0.022230687259355817,0.06592759645395388,0.3305145116431452,-0.02310354821383953,0.06749390810728073,-0.6404672861099243,0.6911086573451758,-0.0754758733464405,-8.636347458958626
18.59,4.199999809265137,280.0,23.26685905456543,20.937021255493164,-79.78280247125166,40.45904354118992,292.2854807434082,0.026713063940405846,-0.01109476387500763,-0.6241074204444885,0.7808029651641846,0.0038605275847973424,0.08834809745995281,0.2362822609794525,-0.04593947157263757,0.08309220522642136,-0.5784373283386229,0.7470798866450787,0.1226402502693236,-8.852658185362818
18.8,4.099999904632568,266.0,22.859941482543945,24.865196228027344,-79.78280233792961,40.45904357499453,292.2762911376953,0.032829005271196365,-0.015080406330525875,-0.5920881032943726,0.8050630688667297,0.06846664077116589,0.07005418682934045,0.10899428290068773,0.0340130478143692,0.2358125001192093,-0.158593088388443,0.5827888046577573,0.07330372866243125,-8.94599085688591
18.9,4.099999904632568,260.0,22.98264312744141,23.40207099914551,-79.78280223118287,40.45904352828545,292.2871553955078,0.03882653638720512,-0.020045654848217964,-0.5826826691627502,0.8115242719650269,0.09123823113695198,0.07087867506665002,0.10314684721711301,0.0008623893954791129,0.08697565644979477,-0.040787193924188614,0.7161038962751627,-0.11585631066933275,-9.688079121708867
19.1,4.099999904632568,263.0,23.06027030944824,22.217256546020508,-79.78280186101367,40.45904356688288,292.27184129333494,0.0041864695958793155,-0.0019292265642434359,-0.5753924250602722,0.8178645372390747,0.11513713224726135,0.17548084264696578,0.09711204292641304,0.01420547254383564,-0.5554853677749634,-0.0923895314335823,1.0853497906029226,0.0037149987719021743,-9.724409626722336
19.2,4.099999904632568,264.0,23.16043472290039,20.96087646484375,-79.78280157256508,40.45904353190113,292.28250909423826,-0.02308380976319313,0.015779398381710052,-0.5751294493675232,0.8175844550132751,0.12851622324421072,0.2542463672547753,0.10532821835077487,0.07310453057289124,-0.615449070930481,0.11804193258285522,0.5806460559368134,0.021105460943654186,-9.756083993911744
19.4,4.0,245.0,23.06402587890625,22.956771850585927,-79.78280025221011,40.45904377391936,292.30221009826664,-0.060125015676021576,0.04315127432346344,-0.5777146220207214,0.81287682056427,0.11659742042853098,0.5313348214431751,0.1831355496235053,0.06883396208286285,-0.351709246635437,0.10400013625621796,0.3838211026042701,-0.04024498748593034,-9.815299916267396
19.59,3.9000000953674316,230.0,22.74600601196289,26.5748291015625,-79.7827994866713,40.45904387383775,292.3146441040039,-0.07003851979970932,0.05176166445016861,-0.5797188878059387,0.8101490139961243,0.10871567854656816,0.7268014962630907,0.23696308782285694,0.021129366010427475,-0.1929438561201096,-0.003163921879604459,0.4361685200035572,0.11988694259896875,-10.035539971590044
19.7,3.700000047683716,232.0,22.81236457824707,26.06591415405273,-79.78279790342056,40.459044602245605,292.2761080322265,-0.08274554461240767,0.06196103617548944,-0.5820598006248474,0.8065484762191772,0.06414333705015941,1.1259362915024322,0.424544714701757,0.010659761726856232,-0.13035213947296145,0.007815162651240827,0.4273688258975745,-0.08462120641954242,-10.154537826776503
19.8,3.5999999046325684,233.0,22.57071876525879,28.578676223754893,-79.78279678824303,40.459045168438244,292.1775553283691,-0.08703982084989548,0.06384336948394775,-0.5821145176887512,0.8059099316596985,0.03364998953310984,1.33416911922897,0.4985797467352756,-0.004104760009795427,-0.07790785282850267,0.07090958952903748,0.4105899116769433,-0.14274060225114227,-10.692661761045457
20.0,3.299999952316284,224.0,22.777305603027344,26.23290252685547,-79.78279300399565,40.45904606020088,292.2355959472656,-0.08854310214519501,0.0642651915550232,-0.58186274766922,0.8058944940567017,0.02958702185525695,1.8254917830277493,0.765732264295373,-0.006613957230001688,0.016051288694143295,-0.018419448286294937,0.3926429430395365,-0.02186654001474381,-10.758764533996585
20.09,3.0999999046325684,224.0,22.64709281921387,27.48133087158203,-79.78279079585229,40.45904689576492,292.15978265380863,-0.08848096430301666,0.06345664709806442,-0.5816429853439331,0.8061239719390869,0.005143830122414747,2.058240339933524,0.8167028803474898,-0.020858190953731537,0.005227353423833847,0.06997795403003693,0.3294225550442934,-0.0929769415408373,-10.574609985351564
20.3,2.799999952316284,215.0,22.71720886230469,26.58278083801269,-79.78278547010594,40.45904869331489,292.1249582824707,-0.08732118457555771,0.06907834857702255,-0.581748366355896,0.8057122230529785,-0.025183876498918668,2.5408461942757206,0.9534181588192312,0.1484142690896988,-0.03670782595872879,-0.08965179324150085,0.3247828625142574,-0.11009807319380344,-10.527047563791275
20.4,2.5999999046325684,210.0,22.724720001220703,27.71193122863769,-79.78278232731864,40.459049512169315,292.1643679199218,-0.0866733193397522,0.0739460438489914,-0.5823552012443542,0.8049113750457764,-0.02935035957067879,2.7811127530786144,1.0465709722505303,0.013046810403466223,-0.009405113756656648,0.07794487476348877,0.23610325902700424,-0.12920634454116225,-10.413487619161604
20.6,2.299999952316284,194.0,22.816120147705078,24.45965576171875,-79.78277889682586,40.45905039795881,292.20644021606444,-0.08721090853214264,0.07727731764316559,-0.5827189087867737,0.8042768239974976,-0.034379306454043815,3.0216979452772152,1.1493369748296751,0.03104083053767681,-0.052066825330257416,-0.03102519735693932,0.2329863276332617,-0.061679541603662076,-10.391072902679444
20.7,2.200000047683716,183.0,22.730979919433594,26.638442993164066,-79.78277176940917,40.45905300895903,292.16750741577147,-0.08827590942382812,0.08090560883283615,-0.5817657113075256,0.8044938445091248,-0.06163897329807121,3.4602388020224923,1.263780397653063,0.007953980937600136,-0.030248951166868213,0.06977640092372894,0.004181206868961454,-0.1496690411679447,-10.288229734897614
20.9,2.0999999046325684,162.0,22.803600311279297,24.332427978515625,-79.78276344253922,40.45905594429844,292.1582663116455,-0.06227268278598785,0.0640653744339943,-0.5819593071937561,0.8082951903343201,-0.06946829626959614,3.8447181212538064,1.3498084778926476,-0.030145348981022838,0.5025357604026794,0.026901192963123318,-0.20515087679028512,-0.07909632766619325,-10.432153100967408
21.0,2.0,149.0,22.89124298095703,23.83146667480469,-79.78275883532777,40.45905714488659,292.20772004699705,-0.0410514660179615,0.050785090774297714,-0.5832010507583618,0.8096989393234253,-0.03714831584431386,4.0503394882868236,1.2306786378674126,0.05549222230911255,0.4877908229827881,-0.02207590080797673,-0.008366239552851767,-0.027680554445832967,-10.183426580429078
21.1,1.8999999761581416,128.0,22.889991760253906,24.42784881591797,-79.78275478917759,40.45905948873385,292.1445314941406,-0.023917140439152718,0.039925795048475266,-0.5819287896156311,0.8119068741798401,-0.11370530178316415,4.195079128130342,0.9727982817811588,0.003398525528609753,0.2851390838623047,0.07611752301454544,0.06813536561094223,-0.13378400176763536,-9.911359144449234
21.3,1.8999999761581416,135.0,22.90752029418945,23.767852783203125,-79.78274551244266,40.459063418013045,292.11493516540526,-0.011635320261120794,0.025120645761489868,-0.5809357762336731,0.8134784698486328,-0.16154379105338235,4.391246766090825,0.6499019108695291,-0.05305587127804756,0.14315631985664368,-0.036047864705324166,0.015765747064724566,-0.027528563383966687,-9.816895036697387
21.5,2.0999999046325684,118.0,22.78356742858887,26.15338516235352,-79.78274059415452,40.45906481029629,292.15282846069334,-0.009595576673746107,0.02084260992705822,-0.5809345245361328,0.8136268258094788,-0.11040909067226894,4.447525186256558,0.5909608791998996,-0.05849695578217505,0.002801714465022087,0.04325626045465469,0.04043053608387709,-0.10659781113266946,-9.802505038976667
21.59,2.0999999046325684,110.0,22.78231430053711,25.39796638488769,-79.78273069624439,40.45906903167421,292.13033509826664,-0.006375753786414862,0.016223026439547542,-0.5781532526016235,0.8157420754432678,-0.179590523614354,4.540209263199705,0.5029791968139083,-0.07428830862045288,0.09342554211616516,-0.03642724081873894,-0.06179760511033236,-0.04336719051003456,-9.924687287807464
21.8,2.299999952316284,107.0,22.90376281738281,24.141586303710927,-79.78272566858975,40.45907050489785,292.16596055603026,-0.0033192993141710767,0.011085810139775276,-0.5774646401405334,0.8163337111473083,-0.13137012027905962,4.560312496336754,0.4961626913005674,-0.016662733629345894,0.1111254021525383,-0.0017971922643482683,-0.10545749444514514,-0.0676069143600762,-9.940205798149108
21.89,2.4000000953674316,106.0,22.998918533325195,22.169546127319336,-79.78271547100394,40.45907472911849,292.16679788208006,0.004538135603070259,0.00241821026429534,-0.573686420917511,0.8190589547157288,-0.1614413077906008,4.608950216053122,0.36674473488260056,-0.05268979072570802,0.1615130454301834,0.04674402624368668,-0.1079668179061264,0.020268381773494184,-9.830488643646241
22.09,2.5,100.0,22.94508171081543,22.43195343017578,-79.78271042419581,40.45907626819291,292.1996786651611,0.010459356009960176,-0.0011304646031931045,-0.5732519030570984,0.819311797618866,-0.1413565580628034,4.600803831921212,0.2960396612981107,-0.011598353274166584,0.16557089984416962,0.018198871985077858,-0.05720692869275808,0.04540531975217164,-9.6763045835495
22.2,2.5999999046325684,98.0,22.83615303039551,25.20712280273437,-79.78269993681744,40.45908081516821,292.2056448516845,0.020131608471274376,-0.0039787362329661855,-0.5714787244796753,0.8203603625297546,-0.1999990062489725,4.611094114297705,0.12012730707032512,-0.006623345892876387,0.05512943863868714,0.053932394832372665,-0.00488402848597616,-0.11971095968037845,-9.623848042488099
22.3,2.5999999046325684,101.0,22.82363319396973,24.66640281677246,-79.78269419076419,40.459082910519534,292.2285196838379,0.02175178751349449,-0.008290384896099567,-0.57125324010849,0.8204437494277954,-0.220224629507983,4.628571384748772,0.07957146366573924,-0.029749181121587764,0.005975391250103712,-0.06992386281490326,0.05221694226376713,-0.030029591107741,-9.730912899971008
22.5,2.5999999046325684,106.0,22.90251159667969,23.74399757385254,-79.7826842383788,40.459086112838,292.27884698486326,0.02266274206340313,-0.011593276634812357,-0.5717964768409729,0.8200005292892456,-0.1973672018916917,4.531481353789118,0.011666279720000505,0.02158287167549133,0.05405545979738236,-0.02301967516541481,-0.1063323292694986,0.06535134635400028,-9.608052958846093
22.69,2.5,102.0,23.000171661376953,22.821590423583984,-79.78267388366368,40.45908970091699,292.33033204650883,0.022865165024995804,-0.012913080863654612,-0.5732132792472839,0.8189853429794312,-0.2174795631795208,4.467889188221979,-0.004478120485706283,-0.04431648552417755,-0.03828199952840805,0.04042857512831688,0.005981409251689911,-0.0016909325402230026,-9.666329233646394
22.89,2.5,100.0,23.033977508544922,22.026412963867188,-79.78266834646031,40.45909140174341,292.3638746795654,0.02188893221318721,-0.014300622977316381,-0.5741723775863647,0.8183168768882751,-0.21765036197330767,4.464933372560939,-0.011504843201612295,-0.030284134671092037,-0.0038054294418543577,0.03861413896083832,0.011611606408841908,0.021249460049439214,-9.673924182057384
23.0,2.5,97.0,22.912527084350586,23.767852783203125,-79.78266352871245,40.459092952553746,292.38502526855467,0.02201607637107373,-0.017689980566501614,-0.5749931931495667,0.8176706433296204,-0.2270230458259407,4.402263221942475,-0.03132134571650342,-0.07123929262161255,0.10662772506475447,0.05761924758553505,-0.18103505909442905,0.03904382777865977,-9.59282213151455
23.09,2.4000000953674316,99.0,23.05150604248047,22.55918312072754,-79.78265379554355,40.459096064819605,292.4255259094238,0.022337181493639943,-0.023728394880890846,-0.5755015015602112,0.8171512484550476,-0.2403952883355316,4.300157564500282,-0.09365935467749924,-0.04036540165543556,0.014200287871062756,0.07755455374717712,-0.08034203127957881,-0.004800993455573917,-9.563329360485078
23.3,2.5,97.0,22.92379570007324,23.29869842529297,-79.78264916013315,40.45909756931753,292.44106698608397,0.02283507399260997,-0.026412149891257286,-0.5749305486679077,0.8174570202827454,-0.2513117419414633,4.2319495653297725,-0.12342078633496187,-0.04898874834179878,0.031940728425979614,-0.04238757863640785,0.0136075671762228,0.027077884669415655,-9.674636957645417
23.4,2.5,96.0,22.8424129486084,24.09387588500977,-79.78263963936712,40.45910063278468,292.4839918670654,0.0229537095874548,-0.03251718357205391,-0.5721440315246582,0.819186806678772,-0.2558148438900371,4.133138946291206,-0.12403399362917387,-0.04091391339898109,-0.028437374159693718,-0.061731573194265366,0.03593139371601865,0.021000724977348,-9.821058254241944
23.59,2.4000000953674316,93.0,22.98639869689941,21.620872497558594,-79.7826303367494,40.459103516949675,292.5206701812744,0.018531743437051773,-0.031104635447263718,-0.5684890747070312,0.8218938112258911,-0.2227693521257276,4.030319141597712,-0.12095506997104492,0.0219381395727396,-0.07781051099300385,-0.11764929443597795,0.05632817440666259,0.13193895854987206,-9.682948774695397
23.7,2.299999952316284,89.0,22.925048828125,22.877254486083984,-79.78262601072916,40.459104966503965,292.535097366333,0.017813555896282196,-0.02812930569052696,-0.5673568844795227,0.8227986693382263,-0.22425164272254794,3.972853959053957,-0.1302930046677433,0.027901742607355118,-0.08030058443546295,-0.14687666296958926,0.07785956846550107,0.12643926850520076,-9.542005734443665
23.8,2.200000047683716,89.0,22.86870574951172,23.37026405334473,-79.78262151695439,40.459106380369604,292.54558015441893,0.01613388955593109,-0.02547666057944297,-0.5665310621261597,0.8234885334968567,-0.21448430574184527,3.92787592974563,-0.130430645459628,-0.03131308779120445,-0.06205722317099571,-0.028123350813984867,0.10196229388006033,0.04518565173726529,-9.528277641534805
24.0,2.0999999046325684,89.0,22.77229881286621,25.77169990539551,-79.78261315313236,40.459109255332216,292.5641157684326,0.01250638160854578,-0.02332785353064537,-0.5662436485290527,0.8238128423690796,-0.23619126669268625,3.839504441033768,-0.10518833085457144,-0.03935762494802475,-0.0069406423717737215,0.047345463186502464,-0.003052474977448583,0.06252623213455083,-9.746227927207947
24.19,2.0,87.0,22.82238006591797,24.348331451416016,-79.78260890309636,40.45911054427677,292.5756876525879,0.010335712693631649,-0.022817842662334442,-0.5664367079734802,0.8237245082855225,-0.22058438893090365,3.813379327633284,-0.0521439155103738,-0.05648873373866081,-0.02594972774386406,0.06504080444574356,0.06352063338272274,0.03258643233217299,-9.947547562122343
24.3,2.0,85.0,22.82863998413086,23.903032302856445,-79.78260070093481,40.45911329771069,292.58734155273436,0.004572340752929449,-0.01913323812186718,-0.5677583813667297,0.8229601383209229,-0.2427631754413143,3.758636966645692,0.01951442759093314,0.042269956320524216,-0.10601717978715897,0.013729656115174294,0.10134568671695887,0.061378177022561424,-9.977927355766296
24.5,1.7999999523162842,83.0,22.88498306274414,22.169546127319336,-79.78259269139862,40.459116135206855,292.6200754699707,0.002564184134826064,-0.013444261625409126,-0.569360613822937,0.8219740390777588,-0.2879176594023657,3.718445495296297,0.0954997851792374,0.04161735624074936,-0.029246231541037563,-0.05989154428243638,0.08060242423787714,0.09521654390729964,-9.896494352817536
24.59,1.7000000476837158,82.0,22.86495018005371,23.77580451965332,-79.78258871550409,40.45911738866886,292.6190474090576,0.0026452403981238604,-0.011666751466691494,-0.570141077041626,0.8214597702026367,-0.27731890854188124,3.696248722072748,0.09354498080567683,0.009999447502195835,-0.007201989181339741,-0.02802707999944687,0.14865942802280188,0.10894963435828686,-9.788583987951279
24.8,1.600000023841858,73.0,22.95885467529297,22.71026611328125,-79.78258475532812,40.45911879528597,292.63442445373533,0.0014303403440862894,-0.009940559975802898,-0.5711492300033569,0.820784866809845,-0.2938762781537091,3.6932303822337516,0.08781668457423303,-0.00810726173222065,-0.008196789771318436,0.028969064354896545,0.10301097373478114,0.0595317816361785,-9.650903694033623
24.9,1.5,69.0,23.022708892822266,21.92304039001465,-79.78257694253243,40.45912149482832,292.64437890625,-0.005870420951396228,-0.008266774006187916,-0.5718182325363159,0.8203176856040955,-0.30143769063744896,3.6782092771704376,0.08558261430212834,-0.034479431807994836,-0.07755401730537415,-0.026407819241285324,0.02350051702000201,0.08427671405486763,-9.587015846371651
25.09,1.399999976158142,61.0,22.82738876342773,24.53122329711914,-79.78256912083184,40.45912429533469,292.6443979797363,-0.01020900160074234,-0.007427737582474947,-0.5703942179679871,0.8212741017341614,-0.3220704317146933,3.684346965834621,0.10088764274515932,0.040688056498765945,-0.02220297046005726,-0.1283443421125412,0.06004716801457108,0.12528023159131407,-9.764775295257571
25.2,1.399999976158142,58.0,22.87496566772461,23.40207099914551,-79.78256517261907,40.4591257290307,292.6522791442871,-0.008998160250484943,-0.007317539304494858,-0.5685411691665649,0.8225731253623962,-0.32789358557076465,3.700911565342434,0.12265727656772593,0.05616237595677377,-0.018059182912111282,-0.12758168578147888,0.11226766428910197,0.12504884630441665,-9.892252782583236
25.39,1.399999976158142,49.0,22.740997314453125,25.01628112792969,-79.78256133045592,40.459127141118564,292.65318894958494,-0.0073475013487041,-0.0073534841649234295,-0.5663809776306152,0.8240779638290405,-0.3321534662125363,3.6971732696380037,0.1243874734621268,-0.005993073806166649,0.020922359079122543,-0.0916639044880867,0.15814978793263434,0.10824295266531407,-9.88765920996666
25.5,1.2999999523162842,42.0,22.75226593017578,24.38809013366699,-79.78255343546951,40.45913008965282,292.67424417114256,-0.005745452363044024,-0.008887665346264841,-0.561848521232605,0.8271725177764893,-0.31481011333964776,3.726803050404487,0.1342447614425304,0.020080870017409325,-0.0009187901159748435,-0.018165398389101032,0.1448628583084792,0.0545919305132702,-10.00250905036926
25.59,1.2999999523162842,40.0,22.85368156433105,24.09387588500977,-79.78254946213853,40.459131519363865,292.67025209045414,-0.004963242914527655,-0.008394693024456501,-0.5602751970291138,0.8282491564750671,-0.29632717077434323,3.7290766193011216,0.1366431262570208,0.013273706659674644,-0.008277539163827896,-0.025800449773669243,0.1558417822793126,0.10697407945990564,-9.956351130008699
25.8,1.2999999523162842,40.0,22.940073013305664,22.63870048522949,-79.78254153445576,40.45913445553957,292.67921853637694,-0.005457638762891293,-0.0060890880413353434,-0.5598177909851074,0.8285754323005676,-0.2886512780357003,3.744753642731517,0.14307922540364873,0.021270105615258217,-0.07020454853773117,0.06698610633611679,0.10720503534190358,0.01953693849267438,-9.872735946178436
26.0,1.2999999523162842,33.0,22.83865737915039,24.11773109436035,-79.78253756445288,40.45913596550825,292.6926920471191,-0.005761285778135061,-0.00434478372335434,-0.5610405206680298,0.8277570009231567,-0.2998953163634985,3.7594364846993087,0.1445431142527673,0.03426592797040938,-0.03250400349497795,0.04122922196984291,0.14198483135551215,0.0834840600192547,-9.781990667581557
26.09,1.2999999523162842,35.0,22.773550033569336,24.32447624206543,-79.78252950872798,40.45913897349071,292.70343614196776,-0.004271893296390772,0.000462921045254916,-0.5650148391723633,0.8250696659088135,-0.3307125765465701,3.7843763221704214,0.17492464285310672,0.07002609223127365,0.02672303281724453,-0.002312990371137857,0.1085860197711736,0.07770249763503671,-9.964520859718323
26.3,1.2000000476837158,35.0,22.908771514892567,21.70039176940918,-79.78252549035513,40.45914050413143,292.7193243560792,-0.004311302211135626,0.0010076927719637752,-0.5675156712532043,0.823350727558136,-0.35626336405669856,3.799831146481912,0.19842570728539294,0.051255516707897186,0.01008812990039587,0.05844411626458167,0.08668928436934949,0.018461710908450186,-9.977856019735336
26.4,1.100000023841858,35.0,22.82363319396973,23.61676788330078,-79.78251740841016,40.45914353156638,292.7352812347412,-0.005533083807677031,0.0001747907226672396,-0.5726765990257263,0.8197627663612366,-0.3956310827072537,3.814015244998881,0.18242505525359665,0.029922232031822205,0.04469972848892212,0.0904485210776329,0.07718467187136413,0.06832217501476408,-9.735970156788829
26.59,1.100000023841858,39.0,22.94883728027344,22.69436264038086,-79.78251334661451,40.45914506936115,292.74940896606444,-0.004930602852255106,0.001850237837061286,-0.5750921368598938,0.8180717825889587,-0.4114334405474721,3.830818018378412,0.17353345647326954,0.07963071763515472,0.02272384241223336,0.09063731133937836,0.066467739706859,0.10074538780376316,-9.723551255464557
26.7,1.2000000476837158,43.0,22.912527084350586,22.86930084228516,-79.78250517343895,40.459148201427325,292.76069856262205,-0.003052708925679326,0.010092690587043762,-0.5792986154556274,0.8150472044944763,-0.4533038794452041,3.849621493549853,0.13452609201303195,0.0203683003783226,-0.01398573722690344,0.08266931027173996,0.048808673350140455,-0.05162632323335856,-9.561032574176787
26.9,1.2000000476837158,48.0,22.97638320922852,21.764005661010746,-79.78249677543637,40.459151212286855,292.7667048034668,-0.0023086564615368843,0.006968878675252199,-0.5809136629104614,0.8139321208000183,-0.4607226056248878,3.881989143486742,0.09313774966378707,-0.06093156337738038,0.0818035826086998,-0.06821884214878082,0.02189575325231999,0.04314555362798274,-9.533189302682876
27.0,1.2000000476837158,50.0,22.847421646118164,23.88712882995605,-79.7824926135502,40.459152739595325,292.76838708496086,-0.0023066613357514143,0.003277147421613336,-0.5802316069602966,0.8144418001174927,-0.4576455673660856,3.8953425510981257,0.04194875221075972,-0.0639546662569046,0.05017673596739769,-0.06134647876024246,0.03828835838008672,0.04231339434161782,-9.484966730475426
27.2,1.2999999523162842,51.0,22.91127586364746,22.805686950683594,-79.7824884385765,40.45915435243464,292.7787268218994,-0.0020491669420152907,0.0006182335200719535,-0.5788382887840271,0.8154396414756775,-0.4556964196434677,3.9051680583537323,0.035564901713981384,-0.001996130216866732,0.06863215565681458,-0.008095059543848038,-0.0174865095410496,0.012540507421363143,-9.577876063585284
27.3,1.2999999523162842,56.0,22.82238006591797,23.56110572814941,-79.7824798874136,40.459157423180365,292.7857554016113,0.0007165214628912507,-0.002412204630672932,-0.5742726325988771,0.818660318851471,-0.4194496435131687,3.9310584738096703,0.007592474093146258,0.056479260325431824,0.05503953993320465,-0.05324563756585121,0.14355564929544926,-0.039162983070127666,-9.6818635314703
27.5,1.399999976158142,61.0,22.90501594543457,21.85147476196289,-79.78247149822596,40.459160522284655,292.7873461303712,0.00411885092034936,-0.0007323966710828245,-0.5697392225265503,0.8218150138854979,-0.3878712723128256,3.9318638724385737,-0.007682290399751814,0.07147681713104248,-0.03515361621975899,-0.11689236015081406,0.08373351685702801,-0.03574685239233077,-9.909291568994524
27.59,1.5,65.0,23.018951416015625,21.50954818725586,-79.78246716975463,40.45916209493075,292.79129624938963,0.003522811690345406,0.0014378667110577226,-0.568478524684906,0.8226893544197083,-0.3817509378188828,3.9441009453659817,0.0005088082041778564,-0.011402086354792118,-0.11645371466875075,-0.016521994024515152,0.10554829074069856,-0.14211886963807047,-9.766449353098867
27.8,1.600000023841858,78.0,23.001422882080078,22.105932235717773,-79.78245866210446,40.459165255905134,292.7885038909912,0.002437261398881674,0.00652837660163641,-0.5688897967338562,0.822384238243103,-0.3713459240758076,3.9459221222836582,-0.005090991298325982,0.05412876605987549,-0.0617515929043293,0.1177680641412735,-0.07743423834443093,-0.20365486666560173,-9.628554466366769
27.9,1.7000000476837158,79.0,22.94132423400879,21.80376434326172,-79.78245446549805,40.459166830612396,292.7871134338379,0.003952798433601856,0.010048001073300837,-0.5703255534172058,0.8213477730751038,-0.3807777721676809,3.951277243682509,-0.01427763861229859,-0.033282291144132614,-0.006211441475898027,0.037296112626791,0.043321088869124655,-0.14441259529441594,-9.592584734559061
28.09,1.7999999523162842,88.0,22.91753578186035,21.477741241455078,-79.78245026637308,40.45916840507919,292.78361154174803,0.005439490079879761,0.011574867181479931,-0.5723759531974792,0.8198916912078857,-0.3922520793272201,3.946699535261706,-0.03337358594454988,0.09646973013877867,0.04571093618869782,0.04699438810348512,-0.042395442654378716,-0.111506338538602,-9.543880936503411
28.2,1.7999999523162842,90.0,22.814868927001953,24.252910614013672,-79.78244176911198,40.459171509525405,292.7685205993652,0.007905636914074421,0.01433528307825327,-0.5777532458305359,0.8160473108291626,-0.4042524773389115,3.9419816134407055,-0.08092194753520776,0.021049948409199715,-0.04368316009640694,0.06825628131628036,-0.09983998300507664,-0.16693391382694245,-9.571364604234695
28.39,1.8999999761581416,93.0,22.73598861694336,24.904956817626953,-79.78243738682876,40.45917305152844,292.7606203613281,0.010141507722437382,0.01384800486266613,-0.5802353024482727,0.8142681121826172,-0.4240091279586924,3.9406894426526007,-0.07382761409002203,0.021037854254245758,0.0008497023954987526,-0.032714050263166435,-0.03351171309594065,-0.11929311216808855,-9.733823643922808
28.5,1.8999999761581416,100.0,22.863698959350586,24.22905540466309,-79.78242895660202,40.45917610296768,292.7460939941406,0.009339147247374058,0.006646865047514439,-0.5828980207443237,0.8124645352363586,-0.4359336895142361,3.9226177857092703,-0.09338387488283297,-0.02678702957928181,0.0700475350022316,-0.06816313415765762,-0.05484424243681133,-0.05576521544717253,-9.887698971033094
28.6,2.0,102.0,22.80860710144043,24.03821182250977,-79.78242461113034,40.45917760822998,292.73415017700194,0.00582761550322175,0.0022261564154177904,-0.5823345780372621,0.8129253387451172,-0.4402239046666024,3.9159537865910288,-0.0721550962923252,-0.06961868703365326,0.021939976140856743,-0.019942423328757286,-0.06530889465473592,-0.13184982505626974,-9.945043784379962
28.89,2.0999999046325684,103.0,22.97012138366699,22.2331600189209,-79.78241607566348,40.45918055648941,292.7107946929932,-0.00038957575452513993,-0.0010385114001110196,-0.578158974647522,0.8159233927726746,-0.4241539324768412,3.8993426772271236,-0.0554781684455634,0.01134379580616951,-0.06027974933385849,-0.06024910137057304,-0.11743185206316413,-0.04254234937950969,-9.80024275124073
29.0,2.200000047683716,106.0,22.80860710144043,24.730016708374023,-79.7824118971368,40.45918206423373,292.70651078796385,-0.001427391427569091,0.001642637187615037,-0.5761445164680481,0.8173450231552124,-0.40556815079660025,3.892663380113041,-0.05353789237402605,0.1002049446105957,-0.07054132223129272,-0.007913276553153992,-0.19328172337263824,-0.07239958010148258,-9.619939763545993
29.1,2.299999952316284,100.0,22.89875602722168,22.91701316833496,-79.7824034030464,40.45918504662306,292.6821005401611,-0.0010647642193362117,0.0072271330282092094,-0.5722171664237976,0.8200696110725403,-0.3800269642221168,3.8989417510540223,-0.051490558385294635,-0.0102364644408226,-0.01017927099019289,-0.03203339502215385,-0.1029287564009428,-0.16872056711465122,-9.737098669409752
29.3,2.4000000953674316,101.0,22.90501594543457,22.11388397216797,-79.78239485808996,40.45918800201079,292.649879699707,-0.0017837119521573184,0.008028640411794186,-0.5698713064193726,0.8216928243637085,-0.34174691129555473,3.9150131924458735,-0.03220392463606566,-0.014177081175148487,0.03518674150109291,-0.04727401211857797,-0.12241747135296464,-0.06601409627124667,-9.85218298316002
29.4,2.5,101.0,22.91628456115723,23.31460189819336,-79.78239066858951,40.45918952128061,292.64263940429686,-0.0028143550734967,0.010118524543941021,-0.5695382356643677,0.8218976855278015,-0.3382594338813823,3.923980841678801,-0.029027096308335124,0.036478694528341286,-0.08495161682367325,0.1085205078125,-0.0148906541406177,-0.2639882832951844,-9.81021634697914
29.6,2.5999999046325684,96.0,22.89249610900879,22.686410903930664,-79.78238647432177,40.459191047884815,292.6354734954834,-0.0043852967210114,0.012538166716694832,-0.5699666738510132,0.8215604424476624,-0.3399112376057059,3.9292878482328777,-0.006218574902667425,0.01716972142457962,-0.02383253537118435,0.01458496693521738,-0.08675226070918142,-0.2533717679232359,-9.895827770233154
29.7,2.700000047683716,98.0,22.85869026184082,22.57508659362793,-79.78237812203568,40.4591940779392,292.6044046936035,-0.002633014228194952,0.012945326045155523,-0.572332501411438,0.819915235042572,-0.36339760469269466,3.917135651307718,0.014626659962049562,-0.0018659355118870735,0.02871885150671005,0.0522749312222004,-0.23047312125563624,-0.2229097660817206,-9.756108552217485
29.9,2.799999952316284,98.0,22.87747001647949,22.757976531982425,-79.78237386003649,40.459195568798926,292.5826418457031,-0.0006799553520977497,0.013313673436641691,-0.5738646984100342,0.8188416361808777,-0.3750022808896599,3.919234390665834,-0.0009838209484981325,0.05251554027199745,0.08641966432332993,-0.06582619249820709,-0.08893215752206743,-0.13179735543206333,-9.779510863423347
30.0,2.799999952316284,99.0,22.837404251098643,22.392194747924805,-79.78236548054086,40.459198643770094,292.57287240600584,-0.0012407804606482387,0.015114370733499529,-0.5773195624351501,0.8163775205612183,-0.4076549171416121,3.926231055089306,0.03470568140672639,0.005108949262648821,-0.08845248818397522,0.0814257487654686,-0.08421191959641874,-0.3109818986803293,-10.128495497703552
30.19,2.9000000953674316,104.0,22.950090408325195,22.137739181518555,-79.78235708732804,40.45920163079711,292.54327989196776,-0.0005552724469453096,0.0162492822855711,-0.580138623714447,0.8143554925918579,-0.4283802394583498,3.911407720584786,0.030181216200446438,-0.0007553239120170474,-0.07088027894496918,0.13252341747283936,-0.2724794271402061,-0.2783287258632481,-9.925999402999876
30.3,3.0,103.0,22.96511459350586,22.75002479553223,-79.782352751301,40.45920316573197,292.5177938995361,-0.000476883607916534,0.01533988956362009,-0.5810689926147461,0.8137096166610718,-0.4389262186412433,3.919750720436967,-0.0015381112957798607,-0.061331778764724725,-0.05460173636674881,0.11639582365751265,-0.2823272163793445,-0.32536232158541684,-9.706900139451028
30.39,3.0,103.0,22.967618942260746,23.068096160888672,-79.7823485506469,40.459204688608864,292.5106718597412,-0.0006419627461582423,0.014666764065623285,-0.5814280509948729,0.8134654760360718,-0.44036867229777577,3.918594552170688,-0.01188844274477411,-0.0012570192338898778,-0.040358275175094604,0.037305537611246116,-0.28241660568863153,-0.1430826278217137,-9.723607973456383
30.6,3.0,103.0,22.87747001647949,23.8076114654541,-79.7823402129325,40.45920756635839,292.4728529510498,-0.00017767897224985063,0.014269676990807056,-0.5805906653404236,0.8140705823898315,-0.4238372296942372,3.8878539483006014,-0.028119004375579917,-0.06316825747489929,0.06117565929889679,0.0375412255525589,-0.2511671118065715,-0.14225919367745518,-9.813204274177552
30.8,3.0,106.0,22.753517150878906,24.63459587097168,-79.78233603912811,40.45920906238826,292.46438241577147,0.00012062213500030339,0.012051880359649658,-0.5796129703521729,0.8148028254508972,-0.4162945109869433,3.884569236047708,-0.02353460848590981,-0.05595835298299789,0.09231387078762054,0.03936293721199036,-0.3026936166733504,-0.16399249026551846,-9.872491532564164
30.9,3.0,106.0,22.85368156433105,22.153642654418945,-79.78232751602923,40.459211992096975,292.42935395812987,-0.0002792160667013377,0.01067181210964918,-0.5785139203071594,0.815602719783783,-0.382761366933604,3.890871905247865,-0.00947408216305629,0.002603000029921532,-0.09922312200069427,0.0726245865225792,-0.2201252488978208,-0.220835338421166,-10.00724763393402
31.09,3.0999999046325684,104.0,22.88122749328613,22.75002479553223,-79.78231914431419,40.45921498470639,292.39472604370116,-0.0008145226747728884,0.01027453038841486,-0.5773259401321411,0.8164488077163696,-0.38666931614677796,3.8860270156178247,-0.016179042469458886,-0.02370570227503777,-0.0625760555267334,0.006549859419465065,-0.16077664956450466,-0.2087110819481313,-9.852683504819868
31.19,3.0999999046325684,103.0,22.89124298095703,22.36833953857422,-79.7823149726236,40.4592164712376,292.3885786590576,-0.00329026160761714,0.007982379756867886,-0.5760617256164551,0.8173606395721436,-0.3786854193166637,3.886737598007248,-0.02320898305823071,-0.06356021761894226,0.020406698808073997,-0.05695013701915741,-0.14841145126149058,-0.1277749096043408,-9.753869653344157
31.4,3.0999999046325684,101.0,23.04399299621582,21.382320404052734,-79.78231080435106,40.45921795833565,292.38125253295897,-0.004847874399274589,0.0069530317559838295,-0.5743029713630676,0.8185989856719971,-0.3679189742260377,3.88278433211898,-0.02603044291530845,-0.0601685605943203,0.049603212624788284,-0.013057231903076172,-0.28389445289969445,-0.05590641200076789,-9.692787884473804
31.5,3.0999999046325684,97.0,22.953845977783203,21.15966987609864,-79.78230233540134,40.459220867587035,292.35177445983885,-0.002637188648805023,0.009893568232655523,-0.5715702772140503,0.8204892873764038,-0.33129025246910226,3.889441537466688,-0.032135037280701134,0.06857658177614212,0.002732274821028113,-0.015712486580014232,-0.009209054019302129,-0.14417320663109426,-9.747257621884346
31.7,3.0999999046325684,96.0,22.92254447937012,22.2331600189209,-79.78229380204832,40.45922367946432,292.3319323120117,-0.003281417069956661,0.0108478469774127,-0.570850670337677,0.8209757804870605,-0.31513316766073274,3.8944623174987054,-0.03500391748026388,-0.02236481197178364,-0.0295720249414444,-0.10760994255542757,-0.18999036222696306,-0.14930483272299172,-9.609784904122352
31.8,3.0999999046325684,95.0,22.873714447021484,21.80376434326172,-79.78228957180106,40.45922515603311,292.319463973999,-0.004796528723090887,0.00945448875427246,-0.5713087916374207,0.8206667900085449,-0.31968749567908816,3.8907601796894737,-0.029449916921570517,-0.0035787888336926703,-0.06694421172142029,1.624990181881003e-05,-0.198057162668556,-0.18709233596920968,-9.730836886167527
31.9,3.2000000476837163,95.0,22.8712100982666,22.400146484375,-79.78228540658678,40.4592266480952,292.309698348999,-0.004611250478774309,0.009707181714475157,-0.5721045732498169,0.8201103806495667,-0.32626241320824306,3.885801580713245,-0.03643238202567279,0.008448535576462746,0.04442837834358215,0.012868141755461693,-0.2858821773156524,-0.13961035930551588,-9.668950540423394
32.1,3.2000000476837163,96.0,22.84867286682129,22.89315795898437,-79.7822769339042,40.459229580191455,292.28981614685057,-0.0044277305714786035,0.009395791217684746,-0.5746115446090698,0.8183603882789612,-0.3458366534119986,3.8921329205183564,-0.026280052060800942,0.047175101935863495,-0.05118132010102272,0.01026979461312294,-0.20118416223675006,-0.05744423428550361,-9.801518613696096
32.3,3.2000000476837163,95.0,22.861194610595703,23.91893577575684,-79.78226850592618,40.45923254406442,292.2682802734375,-0.0031656876672059298,0.011184991337358952,-0.5766956806182861,0.8168764114379883,-0.3869660527143677,3.8886452594870846,0.010069947874945948,-0.050781920552253716,0.020661886781454086,0.10695721954107283,-0.3029262993112207,-0.16966275455430152,-9.897670812606814
32.4,3.299999952316284,95.0,22.83489990234375,22.320629119873047,-79.78226434332042,40.4592340514652,292.2635786590576,-0.003757703583687544,0.01160852424800396,-0.5770124793052673,0.8166442513465881,-0.3976206722028833,3.8841853726442412,0.027212442512755272,0.01894535683095455,0.06654395908117294,-0.0791972428560257,-0.3027389874123037,-0.041906117498874663,-9.959256026744844
32.59,3.299999952316284,100.0,22.96511459350586,21.27099609375,-79.78225588363543,40.45923698713421,292.24620652770994,-0.005466958973556757,0.014152478426694868,-0.5758598446846008,0.8174077272415161,-0.3916568225105434,3.8962803255729055,0.02265823163454604,-0.060733024030923836,-0.07101145386695862,0.0001955380430445075,-0.1975378202833236,-0.28459261044859885,-9.645945255160331
32.69,3.299999952316284,96.0,22.95134162902832,21.907136917114254,-79.78225171351896,40.45923849718017,292.2389452514648,-0.0071977274492383,0.013517155312001705,-0.5751422643661499,0.8179101347923279,-0.3899830434444757,3.895475528212154,0.007200891462111534,-0.008666279725730421,0.05347558483481407,-0.05786761641502381,-0.2809296404756606,-0.16488612754270435,-9.535690156817434
32.9,3.4000000953674316,97.0,23.02896881103516,21.27099609375,-79.7822475340478,40.459240034571295,292.2229120788574,-0.00709595112130046,0.013892823830246924,-0.5750176906585693,0.8179923295974731,-0.3945358122714067,3.8904988011143855,-0.004468077696890775,0.06100825965404511,0.07084339112043381,-0.0009122492047026752,-0.3165135108679533,-0.2187814308330417,-9.528434346914292
33.0,3.4000000953674316,97.0,22.88122749328613,22.14569091796875,-79.78223920047105,40.45924308637125,292.19894242858885,-0.00715638091787696,0.014893697574734688,-0.5771799683570862,0.8164498805999756,-0.41020729378860094,3.909168891609696,-0.03724837118054354,-0.014936359599232675,-0.018975544720888138,0.0957593396306038,-0.1815399296209216,-0.23920845944434405,-9.669511873126028
33.19,3.4000000953674316,95.0,22.85368156433105,22.63870048522949,-79.78223066828733,40.459246040127184,292.180662399292,-0.008123571053147316,0.015421945601701738,-0.5797516703605652,0.814606785774231,-0.4202253338406184,3.9346277305108384,0.012187842358876686,-0.011610129848122595,-0.01984896697103977,-0.017154406756162643,-0.2283040600642562,-0.22955772137269376,-9.731032767891882
33.3,3.4000000953674316,95.0,22.90251159667969,21.87532997131348,-79.7822264277859,40.45924755366003,292.17007661437987,-0.00702049070969224,0.013873698189854622,-0.5801376104354858,0.8143701553344727,-0.4327204619538355,3.9422908276712265,0.03911011356609435,0.012028356082737446,0.007328883744776248,-0.026139147579669952,-0.10561323137953878,-0.16635790826752786,-9.887003152370452
33.41,3.4000000953674316,96.0,22.94257736206055,21.65267944335937,-79.78222220522926,40.459249084627096,292.16249681091307,-0.005179842934012413,0.011520733125507832,-0.5796635150909424,0.8147581219673157,-0.439684270365333,3.945995333754529,0.02685662117429841,-0.06061542406678201,-0.004014425911009312,0.008129561319947244,-0.18003032471984626,-0.2232605259306729,-9.873980233669279
33.59,3.4000000953674316,96.0,22.76603889465332,23.49749183654785,-79.78221379991835,40.45925213951882,292.13854623413084,-0.004292073659598827,0.009117289446294308,-0.5779401063919067,0.8160170316696167,-0.4348866073796188,3.9406490331153945,-0.010783508363485579,-0.013981467112898828,-0.039680909365415566,-0.06421183794736862,-0.16757169887423518,-0.01766284877434373,-9.917878789901732
33.8,3.4000000953674316,96.0,22.8323974609375,22.424001693725586,-79.78220958676138,40.459253687507896,292.13230348205565,-0.00731476303189993,0.009838275611400604,-0.5771312117576599,0.8165594339370728,-0.44248931746696857,3.943256735986104,0.012872258484899387,-0.07069762796163559,-0.12198564410209654,0.02203007973730564,-0.1420597853511572,-0.200354277882725,-9.951994954347613
33.9,3.4000000953674316,93.0,22.8424129486084,22.718217849731445,-79.78220110836703,40.45925673984033,292.1060602722168,-0.010534108616411686,0.011194306425750256,-0.5776054263114929,0.8161713480949402,-0.4303720003354421,3.950529671023282,0.050032560341169284,-0.03986214846372605,0.003373099956661463,0.04621685668826103,-0.1907988128811121,-0.065638197963126,-9.849403216838835
34.1,3.4000000953674316,91.0,22.77229881286621,23.42592620849609,-79.78219257739764,40.45925980091564,292.0845606384277,-0.005492978729307652,0.01286384090781212,-0.5788924098014832,0.8152839541435242,-0.4310548073941127,3.967094494198944,0.04117888729487881,0.025739226490259167,0.05734865739941598,0.03724096715450287,-0.3054498114064336,-0.01488928598351777,-9.779317905306817
34.2,3.299999952316284,90.0,22.862445831298828,22.75002479553223,-79.78218833176912,40.459261350502146,292.07894158935545,-0.0030313299503177404,0.012986316345632076,-0.5785092711448669,0.8155668377876282,-0.4367986751085998,3.969363242406345,0.034088565605624316,-0.020807750523090363,0.03732239454984665,-0.04501846060156822,-0.2466319017112255,-0.03309156781062484,-9.8280632185936
34.3,3.299999952316284,93.0,22.813615798950195,24.491464614868164,-79.78218411141623,40.459262896172376,292.0626871643066,-0.002826438983902335,0.012924080714583395,-0.5775210857391357,0.8162685632705688,-0.4277180694620243,3.965400037281487,0.016576702198046786,0.03152526915073395,-0.0030805531423538928,-0.03489939868450165,-0.19533369407057768,-0.03061057593673468,-9.880073032379153
34.5,3.2000000476837163,94.0,22.81862449645996,23.29869842529297,-79.7821756086458,40.45926596958049,292.05537438964836,-0.0009027865016832948,0.013041443191468716,-0.5760060548782349,0.8173409104347229,-0.3856126073474079,3.967296341016662,0.04828211234976479,-0.01049742940813303,0.09918262809515,0.011132626794278622,-0.3012302047759295,0.0006995279900729657,-9.965428347587585
34.7,3.2000000476837163,91.0,22.82863998413086,22.92496490478516,-79.7821669708172,40.45926901303261,292.03846765136717,0.0006519797607325017,0.01189207285642624,-0.5764021873474121,0.8170794248580933,-0.3593789247578936,3.97639687337893,0.043520606431114786,-0.022535741329193115,-0.002944479929283261,-0.0027579481247812514,-0.2343132435902953,-0.09857468208298087,-9.977791700363161
34.8,3.0999999046325684,91.0,22.953845977783203,21.06424903869629,-79.78216264571894,40.45927053087677,292.0243036804199,-0.0009261544328182936,0.0092480992898345,-0.5768377780914307,0.8168059587478638,-0.3625087995390752,3.9802327117693257,0.03419968206224449,-0.09274441003799436,0.04868120700120926,0.0388399213552475,-0.2305855339765549,-0.07491026029922067,-9.869433438777923
34.9,3.0999999046325684,86.0,22.92880439758301,22.654603958129893,-79.78215836887819,40.4592720366973,292.0228788909912,-0.003011152846738696,0.006752952467650175,-0.5773625373840332,0.8164544701576233,-0.3616760356416488,3.9800452990460533,0.018888809907788545,-0.1005210354924202,0.028634803369641307,-0.020903516560792926,-0.11781363870017232,-0.006185367442667485,-9.682202085256577
35.09,3.0,88.0,22.813615798950195,22.51942443847656,-79.78214980071495,40.45927506158153,292.00885034179686,-0.007217034231871366,0.0025160054210573435,-0.5784728527069092,0.8156659603118896,-0.38460427380307705,3.9755139162971935,0.03695000377414255,-0.08171332627534866,-0.07831650972366333,0.10200609266757964,-0.2197637265175581,-0.0830195809621364,-9.880922048091891
35.3,3.0,86.0,22.833648681640625,23.29869842529297,-79.78214553300404,40.45927657514872,292.00747132873533,-0.0067666107788681975,0.0029821493662893768,-0.578783392906189,0.8154479265213013,-0.390649843487386,3.970919791861224,0.04478244158050485,0.03031098656356335,-0.018783761188387867,-0.03226006031036377,-0.13436825738288466,0.0907110175676644,-9.822729388475418
35.39,2.9000000953674316,85.0,22.72096443176269,24.42784881591797,-79.7821369294909,40.459279553415655,291.9910547790527,-0.004211392253637314,0.00310381012968719,-0.5782953500747681,0.8158107399940491,-0.39287075822379497,3.9737862397845856,0.036861436926108535,-0.03222968801856041,0.020305808633565903,0.005175877828150989,-0.1346206561010331,-0.0475985509576276,-9.878382017612457
35.6,2.9000000953674316,83.0,22.95760154724121,22.20135307312012,-79.78213266623243,40.45928107227323,291.9904272613525,-0.003586625447496772,0.00155298865865916,-0.5774210691452026,0.8164371848106384,-0.39717625682031815,3.9711730513622885,0.04960921385988765,-0.06285443156957626,-0.029508410021662712,-0.01338169351220131,-0.06688373255543413,-0.08052936145104468,-10.004435123205186
35.69,2.9000000953674316,86.0,23.03022003173828,19.704496383666992,-79.78212409078336,40.45928408264325,291.9818918762207,-0.003927880898118019,0.0015097549185156822,-0.5755378603935242,0.817764401435852,-0.3830403879046632,3.9640911502089358,0.06333998768454513,0.04959000647068024,-0.01043544989079237,0.05437467619776727,-0.047126721767708664,-0.06866249667014927,-9.871267125606536
35.9,2.9000000953674316,86.0,22.889991760253906,22.439905166625977,-79.7821155331891,40.45928714615762,291.97307038879393,-0.0026871147565543647,0.007280382327735423,-0.573874294757843,0.8189067244529724,-0.3770047727821681,3.9597406044329966,0.02374288812414373,0.06994222104549408,-0.04047645255923271,0.022023959085345268,-0.14731714485213165,-0.1239772161282599,-9.67973923802376
36.0,2.9000000953674316,85.0,22.90126037597656,21.81966781616211,-79.78211129304748,40.45928867429056,291.9715693054199,-0.00253881118260324,0.007377240806818006,-0.5732877850532532,0.8193170428276062,-0.3672358624528281,3.9546863501733034,0.03396833373647603,-0.010176161304116249,0.0450487844645977,0.039994534105062485,-0.16043350936844947,-0.12060742006637155,-9.822774996757508
36.1,2.9000000953674316,80.0,22.94883728027344,21.93894386291504,-79.78210699542856,40.45929016568275,291.97067094421385,-0.0014060850953683255,0.006471618078649044,-0.5729671120643616,0.8195516467094421,-0.3570780506803731,3.9445967422423847,0.05439507794937226,-0.02196849323809147,0.09038138389587402,0.08636817336082457,-0.2725682865455747,-0.05399287413340062,-9.815175955295564
36.3,3.0,81.0,22.829893112182607,22.70231437683105,-79.782098438374,40.45929316289549,291.9662573394775,2.5494555302429944e-06,0.006072414107620715,-0.573123574256897,0.8194465637207031,-0.3358280306345184,3.9476651467652095,0.02615551602456656,-0.0019889676477760077,0.04423656687140465,0.02149705030024052,-0.22338026594370605,-0.05731970686465504,-9.717524530291556
36.5,3.0,81.0,22.889991760253906,22.877254486083984,-79.78209420313459,40.45929466522917,291.96681047058104,-0.0011246195062994957,0.00589038897305727,-0.5738086104393005,0.8189675807952881,-0.3328437920654284,3.940644793756775,0.02977400670483342,0.01619056612253189,0.043886832892894745,-0.032467108219861984,-0.2674841873534024,-0.010110731218010188,-9.717073125243187
36.59,3.0,82.0,22.92880439758301,22.344484329223643,-79.78208576031501,40.459297620170304,291.96639276123045,-0.0008011949830688536,0.008131015114486217,-0.5751838088035583,0.8179834485054016,-0.3408275160331933,3.9164600453512106,0.05872059323516436,0.042481280863285065,-0.02341526374220848,0.009072805754840374,-0.16623562837019565,-0.12605202751234176,-9.840032469034195
36.8,3.0,82.0,22.80610275268555,24.14953804016113,-79.78207731484194,40.45930060537661,291.96405625915526,-0.004067599773406982,0.006298553198575974,-0.5753329396247864,0.8178850412368774,-0.34830895798341965,3.907015473491888,0.07269619507319361,-0.0646638497710228,-0.09273532032966614,0.0828939750790596,-0.19770126823335887,-0.17191592428833247,-9.829390536546708
37.0,3.0,85.0,22.83990859985352,23.083999633789066,-79.78207311868529,40.45930208972639,291.96738076782225,-0.0060808369889855385,0.005373221822082996,-0.5753620266914368,0.8178586363792419,-0.351162622889879,3.907323096973837,0.09281280217277524,-0.0921252816915512,-0.059863209724426276,-0.050840385258197784,-0.040085733085870746,-0.0758913682680577,-9.966543996334076
37.1,3.0999999046325684,86.0,22.94758605957031,22.32858085632324,-79.78206892441754,40.45930358091247,291.97220063781737,-0.009100303053855896,0.004214768763631582,-0.5752593278884888,0.8179096579551697,-0.36479366455833184,3.905277997485938,0.11827247087367662,-0.07057737559080124,-0.04068084061145783,0.02528760954737664,-0.15078649889677764,-0.1390638456400484,-9.916632163524627
37.19,3.0999999046325684,87.0,22.76228141784668,23.1953239440918,-79.7820604397268,40.45930664289814,291.97811723327635,-0.010653124190866949,0.003003149060532451,-0.5738804340362549,0.8188644051551819,-0.3793245272780239,3.9153671044361436,0.16626468831683458,0.0694117620587349,0.06777936965227127,-0.05876955762505531,-0.2157731662876904,0.017096820026636126,-9.942681509256364
37.4,3.2000000476837163,84.0,22.92254447937012,21.899185180664066,-79.78205196236688,40.45930960933042,291.9918787536621,-0.0067391968332231045,0.007943539880216122,-0.5736274719238281,0.8190500736236572,-0.37436925823563294,3.9217069373458666,0.14860820758501753,0.07836423069238663,-0.0633556917309761,-0.07950248569250107,-0.17511038610711693,-0.04784415228758008,-9.88753992676735
37.5,3.2000000476837163,84.0,22.89499855041504,22.17749786376953,-79.78204776544565,40.45931113832218,291.99832940673826,-0.00781535729765892,0.00951074343174696,-0.573875367641449,0.8188501000404358,-0.3776119409185179,3.9233391395531236,0.12780730319471986,0.0251859650015831,-0.021640101447701454,0.04561132937669754,-0.29627704666927457,-0.12535634589381514,-9.595584356188775
37.7,3.299999952316284,85.0,22.856185913085927,23.338457107543945,-79.78204351752345,40.45931270467303,291.9944536743164,-0.006827110424637794,0.01091480627655983,-0.5745876431465149,0.8183417916297913,-0.3843644459640854,3.926849720749389,0.11776604527291434,0.0021498920395970345,-0.04204379022121429,0.05727790668606756,-0.17199522715061905,-0.13211080273613335,-9.57530913591385
37.8,3.299999952316284,85.0,22.81987571716309,23.20327568054199,-79.78203511810419,40.45931579338549,291.9979288635254,-0.001960880821570754,0.012459255754947662,-0.5774651765823364,0.8163179159164429,-0.4015992115881352,3.920477019278092,0.07531269754537202,0.06561251729726791,0.03661241754889488,-0.07959222048521042,-0.10918773480691016,-0.06596569228917361,-9.623942767381669
38.0,3.299999952316284,86.0,22.84366607666016,23.44978141784668,-79.78203092208243,40.45931732266925,291.9976370391845,-0.0013768963981419802,0.011928917840123177,-0.5788031220436096,0.8153790235519409,-0.4152021083079645,3.926244909433983,0.05933733072464935,-0.06091117858886719,-0.02353909052908421,0.0579063780605793,-0.09442345133051276,-0.1606735558435321,-9.793309122920038
38.1,3.299999952316284,89.0,22.887487411499023,22.11388397216797,-79.7820224257883,40.45932046093617,292.003998046875,-0.006984948646277189,0.006763353943824768,-0.579871416091919,0.8146500587463379,-0.4330277647261016,3.927797467030101,0.10926678500938952,-0.015794336795806885,0.02600409835577011,-0.025808518752455708,-0.0819388053752482,-0.052631445899605764,-10.00669565677643
38.3,3.299999952316284,90.0,22.813615798950195,23.02833747863769,-79.78201390196982,40.4593235390335,292.0078413543701,-0.007829018868505955,0.00907704047858715,-0.5795435905456543,0.8148531317710876,-0.4322543189325317,3.9379425173167935,0.12336623670861467,0.0920218899846077,0.011157176457345486,-0.025213301181793213,-0.15050649949349465,-0.015124554187059403,-9.928015522956848
38.4,3.299999952316284,89.0,22.85368156433105,21.676536560058594,-79.78200968103226,40.45932507237094,292.01187348937987,-0.005948560312390328,0.0109298313036561,-0.5794349908828735,0.8149235248565674,-0.4339830260623641,3.941458054849144,0.1320492237219624,0.03808765485882759,0.00549276452511549,0.033060699701309204,-0.16341968240216376,-0.08631422203034163,-9.849162311553957
38.5,3.4000000953674316,86.0,22.82738876342773,23.05219268798828,-79.78200546153391,40.459326604712146,292.0161993560792,-0.002612129086628557,0.011474609375,-0.5794157385826111,0.814947247505188,-0.4337425207519012,3.937118730995892,0.1277526252927259,-0.00014255789574235678,0.04625650495290756,0.06841900199651718,-0.2467445702478289,-0.19613551178947086,-9.801147900223732
38.69,3.299999952316284,82.0,22.940073013305664,22.56713485717773,-79.78199696209155,40.459329637927006,292.03172898864744,0.0013693793443962932,0.011870145797729492,-0.5788236856460571,0.815365195274353,-0.40950847437140825,3.9333574690605198,0.113113099563405,0.06557665020227432,-0.0128882247954607,0.03455209359526633,-0.24720032416284085,-0.14170149721205236,-9.781063883900645
38.89,3.299999952316284,83.0,23.00518035888672,21.0483455657959,-79.7819884865756,40.45933274963893,292.0303194580078,-4.850501863984391e-05,0.010683206841349602,-0.5783951878547668,0.8156868219375609,-0.4040171379000768,3.9273003018363255,0.06101813107956835,-0.08629298955202103,-0.012363140471279621,0.030218794941902164,-0.16940173119306565,-0.2071764619275928,-9.744179062843322
39.0,3.299999952316284,82.0,22.950090408325195,21.859426498413086,-79.78198427526254,40.459334256850774,292.0313246307373,-0.0011900459649041295,0.00893049594014883,-0.578380286693573,0.8157175779342651,-0.39346718488658944,3.9206162462805576,0.0369742217880988,-0.008171197958290577,-0.03418537974357605,0.06032540649175644,-0.25142566837370395,-0.05946460261009634,-9.544534070491787
39.2,3.299999952316284,85.0,22.773550033569336,23.71219062805176,-79.781979936582,40.4593357605586,292.0265410003662,-0.0022325641475617886,0.007624555379152299,-0.5787762999534607,0.8154476284980774,-0.3771429325440165,3.922563295618189,0.01920623492339714,-0.06792299449443817,-0.05782477930188179,0.11077694594860077,-0.16151657816022635,-0.2021840178407729,-9.520611357092855
39.3,3.299999952316284,87.0,22.859941482543945,21.604969024658203,-79.78197140026064,40.459338775428854,292.0253737030029,-0.004366193432360888,0.006626419723033905,-0.5800735950469971,0.8145254254341125,-0.3830575819086676,3.9208022252021935,0.042150604023922365,-0.02417823299765587,0.030921872705221176,-0.002344636945053935,-0.17597849663347007,-0.06350391400046647,-9.781434012651443
39.5,3.2000000476837163,87.0,22.89875602722168,21.80376434326172,-79.7819671821115,40.459340263849505,292.0247805175781,-0.005047814920544624,0.005573946516960859,-0.5806074738502502,0.8141489028930664,-0.3940672503191163,3.9175317691272795,0.05363541050729166,0.005045299883931875,0.07458584010601044,-0.035317014902830124,-0.2116790920682252,-0.022889469279907645,-9.794109022021292
39.59,3.2000000476837163,87.0,22.85243034362793,22.670507431030273,-79.78195869975943,40.459343292873285,292.0270178375244,-0.007746739313006402,0.005210038274526596,-0.580357551574707,0.8143082857131958,-0.4154245871508521,3.922767827601928,0.06860931712097311,0.05829013511538505,-0.09314803779125214,-0.03776604682207108,-0.18236811462789776,-0.1169471178855747,-9.78775719165802
39.8,3.2000000476837163,85.0,22.94508171081543,20.094133377075195,-79.78195448718711,40.45934480163103,292.02763009643553,-0.008660599589347841,0.005956451874226332,-0.5795883536338806,0.8148416876792908,-0.42368491887749177,3.922456313394944,0.08238706906441552,-0.03955744951963425,-0.048730071634054184,-0.06681434065103531,-0.16695752196013927,-0.0931112356390804,-9.851915180683138
39.9,3.2000000476837163,86.0,22.873714447021484,22.805686950683594,-79.7819460456718,40.459347803928026,292.02251649475096,-0.00933906901627779,0.0056716264225542545,-0.5783305764198303,0.8157293796539307,-0.4185880019282097,3.9184580776723776,0.0604886034077116,0.000926725915633142,-0.00845317728817463,0.03991534560918808,-0.18814224008470776,-0.06034889804665,-9.569149094223976
40.09,3.0999999046325684,86.0,22.807355880737305,23.23508262634277,-79.7819375642192,40.45935084782675,292.0134680328369,-0.007879787124693394,0.0053729363717138785,-0.5773825645446777,0.8164180517196655,-0.4179930110648809,3.929415260100091,0.06375284518672232,-0.005302902311086655,0.03939955309033394,0.0423743911087513,-0.2055317497998476,-0.0431270435359329,-9.888718725442887
40.2,3.0999999046325684,86.0,22.724720001220703,24.22110366821289,-79.78193335497498,40.45935237850181,292.0123655853272,-0.006186416372656822,0.006673761643469335,-0.5773307681083679,0.8164597153663635,-0.409761107744314,3.9368819373619934,0.07380264578565644,0.054831329733133316,-0.019843384623527527,0.04369502514600754,-0.16509487314149734,-0.09248409435153007,-9.935602869987488
40.3,3.0999999046325684,84.0,22.867454528808594,22.90110969543457,-79.78192905146443,40.45935384102015,292.0104639587402,-0.005560519639402628,0.009027929976582529,-0.5773307085037231,0.8164416551589966,-0.3855644839523393,3.944690117451632,0.08199274238336157,0.07034415006637572,-0.031151307746767998,-0.01015458069741726,-0.18696216233074667,-0.048550381734967236,-10.012631750106813
40.5,3.0999999046325684,84.0,22.98639869689941,20.746177673339844,-79.78192057720774,40.45935686647121,292.0159227905273,-0.0040266672149300575,0.01074779499322176,-0.5771062970161438,0.8165884613990784,-0.3855855671881338,3.947848749194733,0.1053942732725194,0.02722669206559658,0.033542048186063766,-0.03956110030412674,-0.16606699101626873,-0.08627088868059217,-9.768146799802778
40.7,3.2000000476837163,83.0,22.68966293334961,24.865196228027344,-79.78191630113156,40.45935840515058,292.0076716003418,-0.004459384828805924,0.009774151258170605,-0.5768710970878601,0.8167645335197449,-0.3838155953037941,3.9433734520313823,0.0574617175047296,-0.020495321601629257,0.0721408799290657,-0.031779222190380096,-0.15865401891991496,-0.043011912773363296,-9.625697516798974
40.8,3.2000000476837163,83.0,22.80109596252441,22.59099006652832,-79.78190783829838,40.459361494086316,292.0057947692871,-0.003470567287877202,0.004130050539970398,-0.5757930278778076,0.8175777196884155,-0.3863376700752985,3.9488515613645028,0.060184676458543016,-0.09907389432191847,-0.016466133296489716,0.030681714415550232,-0.07042790355160833,-0.09705166513100268,-9.940873550176619
41.0,3.2000000476837163,83.0,22.728477478027344,23.48158836364746,-79.78189938356059,40.45936453152664,292.0071432647705,-0.004872596357017756,0.004766435362398624,-0.5747721791267395,0.8182851672172546,-0.3722411859853972,3.935643824214413,0.06598606480091214,0.09123456478118896,0.01841304451227188,-0.049718212336301804,-0.2621849471703172,-0.06486419106367976,-9.80366629600525
41.2,3.2000000476837163,83.0,22.86620140075684,21.756053924560547,-79.78189505756283,40.45936597728063,292.0096838531494,-0.003054166678339243,0.005763089284300804,-0.5747367143630981,0.8183125257492065,-0.3454405833285547,3.9386334822533082,0.10120951934615638,0.08129823952913284,0.05892531201243401,-0.06906677782535553,-0.11208866639994083,0.015560514363460244,-10.081003242731095
41.3,3.2000000476837163,83.0,22.81987571716309,22.765928268432607,-79.78189082340279,40.45936747607593,292.0159208831787,-0.002607081551104784,0.007592990528792144,-0.5752875804901123,0.8179119229316711,-0.3496125278905872,3.9404156311700804,0.1191356105057969,0.03923379629850388,0.00974198617041111,-0.024986345320940014,-0.18770887004211545,-0.05074040153995157,-10.056885817050935
41.4,3.2000000476837163,82.0,22.883729934692386,21.756053924560547,-79.781882354633,40.459370537357366,292.02157426452635,-0.0034492143895477057,0.011777670122683048,-0.5774549245834351,0.8163303732872009,-0.36119942620147655,3.931666222240912,0.11996033308643562,0.03218014165759086,0.031120849773287777,0.0033660621847957373,-0.2283921885676682,-0.00538555970415473,-9.7331810349226
41.59,3.2000000476837163,80.0,22.829893112182607,22.217256546020508,-79.78187380284044,40.45937354796784,292.0204393920898,-0.006389590911567211,0.009698487818241121,-0.5790932178497314,0.8151786327362059,-0.3707892426117009,3.946574635498732,0.07696782484672013,-0.04950963705778122,0.057141847908496864,-0.051339954137802124,-0.10711920004338027,-0.12073402142152193,-9.617281034588816
41.69,3.2000000476837163,79.0,22.814868927001953,22.376291275024414,-79.78186955662727,40.459375040339104,292.01935983276366,-0.007248708512634039,0.006340023130178452,-0.5790854096412659,0.8152101039886475,-0.3844540922157248,3.948561816735239,0.06638243020876336,-0.0342005267739296,-0.0019070727284997704,-0.015095905400812624,-0.12729872697964312,-0.07870939730666578,-9.632622959017754
41.8,3.0999999046325684,80.0,22.85243034362793,22.121835708618164,-79.78186528369929,40.45937649176136,292.02109170532225,-0.008271257393062116,0.002781737595796585,-0.5786592364311218,0.8155227899551392,-0.3728878338928305,3.9395786621550055,0.07129605327211166,-0.0670112669467926,-0.010172429494559765,0.009283656254410744,-0.1070412310771644,-0.12767479430884124,-9.767179085612296
42.0,3.0999999046325684,80.0,22.89249610900879,22.71026611328125,-79.78185680170702,40.459379470457726,292.0219805297852,-0.006476912647485733,0.004520700313150883,-0.5791755318641663,0.8151646256446838,-0.3717280041154749,3.9419431113933614,0.07731594781913563,0.08607111126184464,-0.03068373538553715,0.12281227111816405,-0.2637088777497411,-0.04556263726204634,-9.861511631011963
42.09,3.0999999046325684,83.0,22.861194610595703,22.288822174072266,-79.78185243334337,40.45938103397445,292.02245736694334,-0.006295778322964907,0.007377285975962876,-0.5809080600738525,0.8139114379882812,-0.3942895787602427,3.9582000551205616,0.08464368421669513,0.007080899551510811,-0.05375170707702637,0.0031059663742780685,-0.07879823843948544,-0.03330743056721985,-9.877411379814149
42.31,3.0,85.0,22.883729934692386,21.756053924560547,-79.7818439034084,40.459384070762056,292.01953340148924,-0.009555302560329436,0.008427953347563744,-0.5853323936462402,0.8106933832168579,-0.4287729304294824,3.9557158595598696,0.10168109340850133,-0.04012646153569222,0.030136970803141594,0.10652410238981247,-0.1879413151368499,-0.05570675242692232,-9.783139645457268
42.5,3.0,83.0,22.628313064575195,26.08976936340332,-79.78183536555791,40.459387073265184,292.02133203125,-0.007791487034410237,0.003162011271342635,-0.5883619785308838,0.80855393409729,-0.4598355307119228,3.967801991761367,0.0995305843696991,-0.09457680583000183,0.05412876233458519,0.0763971284031868,-0.1732428402453661,-0.03266990590374917,-9.746539583802225
42.6,3.0,82.0,22.777305603027344,23.36231231689453,-79.78183095680723,40.45938857013671,292.0221350250244,-0.006913007237017155,0.001035008579492569,-0.5884274244308472,0.8085198402404785,-0.45033810914922995,3.980454943652453,0.11979649355252722,0.0063730026595294476,0.04316208884119988,-0.004137192852795124,-0.10769896974787116,0.03013690121937543,-10.090199743509293
42.8,2.9000000953674316,82.0,22.829893112182607,22.503520965576172,-79.7818266518575,40.45939006267975,292.0289290008545,-0.00638505769893527,-0.0008432469330728054,-0.587039053440094,0.8095330595970154,-0.4565272760907221,3.987275408083459,0.13162304495642269,-0.06041324138641356,0.028627347201108926,-0.03135112673044205,-0.0332064655981958,0.016062616598792375,-10.054191420078276
42.89,2.9000000953674316,83.0,22.85493278503418,21.883281707763672,-79.78181811589594,40.45939318091875,292.031679397583,-0.009046648629009724,-0.002787786070257425,-0.5817488431930542,0.8133134245872498,-0.4551004088333344,3.988249554867254,0.1238462336547838,-0.09725119918584824,0.028382174670696262,-0.11442168802022935,-0.1215976369008422,0.12982415769249198,-9.897450957298279
43.09,2.799999952316284,81.0,22.79859161376953,23.131710052490234,-79.78180945256688,40.459396198296815,292.03551507568363,-0.012818988412618635,-0.005491208750754596,-0.5746778249740601,0.8182609081268309,-0.39084641753901816,3.9931317759329934,0.12740975019551995,0.005140224937349558,-0.021416479721665386,-0.08070313185453415,-0.1233729612082243,0.0879677232541144,-9.819463133811947
43.19,2.799999952316284,79.0,22.77229881286621,23.322553634643555,-79.78180515832103,40.45939772955588,292.0414221343994,-0.01207639928907156,-0.004768420476466417,-0.5721986293792725,0.8200123906135559,-0.3667618083931106,4.005440708674264,0.12139984051588412,0.047226350754499435,-0.04618549719452858,-0.06335862725973129,-0.07658419023267925,0.11758580742403865,-9.734848660826684
43.39,2.700000047683716,73.0,22.85869026184082,22.718217849731445,-79.78179656955953,40.459400874075094,292.0439035949707,-0.008656424470245838,-0.0035166225861758,-0.5710010528564453,0.8208962678909302,-0.35015230074202763,4.015150886972823,0.07553795887998394,0.012619064189493656,0.007077863905578852,0.022056711837649345,-0.0028339992463588715,0.06291533692739905,-9.669525321722027
43.5,2.700000047683716,71.0,22.63707733154297,24.21315193176269,-79.7817922751338,40.459402434396964,292.04521585083006,-0.008122681640088558,-0.003863436868414283,-0.5719116926193237,0.8202659487724304,-0.3599165207926562,4.019032069607731,0.057910542169216074,0.021746020764112483,-0.02361370623111725,-0.03534714877605438,0.02671537100337446,0.08207030377350748,-9.796857213377953
43.6,2.5999999046325684,69.0,22.747257232666016,22.52737617492676,-79.78178795480281,40.45940405098936,292.05343461608885,-0.006851312704384327,-0.0036738526541739694,-0.5729535818099976,0.8195510506629944,-0.3836479817527799,4.0191190278931215,0.10243889203269242,0.011529350653290749,0.004866526927798986,0.0015758606605231762,-0.03287016847170888,0.050425396501086656,-10.04001309156418
43.8,2.5999999046325684,68.0,22.76854133605957,22.217256546020508,-79.7817793133313,40.459407214883775,292.0671923217773,-0.005871414206922054,-0.005944917444139719,-0.574665367603302,0.8183459043502808,-0.4004138467399612,4.020182151383601,0.09654991823472207,-0.048829764127731316,0.002622901229187846,0.06444864720106125,-0.08285780495032669,0.05275309996213765,-9.760631958246226
44.01,2.5999999046325684,70.0,22.88873863220215,21.86737823486328,-79.78177502933963,40.45940879351589,292.07426286315916,-0.005185036454349756,-0.0052556931041181105,-0.575524091720581,0.8177515864372253,-0.4164213656817951,4.010771864371583,0.08729626624893966,0.017351889982819557,-0.017025889828801155,0.030118007212877274,-0.05903252078220249,0.05672221278771759,-9.717159079313276
44.1,2.5999999046325684,72.0,22.76854133605957,23.083999633789066,-79.7817664311335,40.45941197960247,292.0850603637695,-0.0037597797345370046,0.0004316811100579798,-0.5767937898635864,0.8168810606002808,-0.4372090108908969,4.0072597121958005,0.06583309243150155,0.06650857627391815,-0.057138778269290924,-0.021580018103122708,-0.10280548978596926,0.04481376882176846,-9.701715998053553
44.3,2.5999999046325684,76.0,22.932559967041016,21.756053924560547,-79.78175782051444,40.45941520261871,292.09506631469725,-0.0006858925917185843,0.0025349471252411604,-0.5778071880340576,0.8161690831184387,-0.4405324741560507,4.000032351208969,0.07226426867212757,-0.01737259887158871,-0.00785045325756073,0.05555154010653497,-0.0703813176881522,-0.01829345270991325,-9.72114804983139
44.4,2.5999999046325684,77.0,22.83990859985352,22.614845275878906,-79.78175354983519,40.45941677784987,292.09894967651366,0.0001819738099584356,0.0028916860464960337,-0.579069972038269,0.8152727484703064,-0.4443584492715765,3.9929671231306023,0.04804915004569037,0.05485371127724648,-0.04832252115011215,-0.03155272826552391,-0.07868340460583569,0.03930599317420274,-9.669166887402532
44.5,2.5999999046325684,79.0,22.88498306274414,22.344484329223643,-79.78174927807655,40.45941834724098,292.10231423950194,-0.000665711413603276,0.003923461772501469,-0.5808976888656616,0.8139668703079224,-0.4492350527895682,3.9942247232234513,0.0421147635285095,0.029455091804265976,-0.05388786271214485,-0.022698003798723217,-0.004381601912900806,0.021361623806878925,-9.818895953893662
44.7,2.700000047683716,79.0,22.953845977783203,22.392194747924805,-79.78174081983076,40.45942155479829,292.1083986816406,-0.00020201932056806984,0.002828853903338313,-0.584256112575531,0.8115644454956055,-0.4849323201950227,3.9618214898914212,0.04162269273054451,0.02300112321972847,0.08952043950557709,0.03248617425560951,-0.18513839749619365,0.08168243237771095,-9.61754006624222
44.9,2.700000047683716,81.0,22.95134162902832,21.39027214050293,-79.78173660393033,40.4594231467251,292.11373162841795,0.0005315792514011264,0.003138493746519089,-0.5852141976356506,0.8108726143836975,-0.4843199326058432,3.962164791297825,0.024207137325934068,-0.03851326182484627,-0.04978085309267044,0.11758067458868028,-0.09294103598222136,-0.10965281685814264,-9.580251787304881
45.0,2.700000047683716,82.0,22.873714447021484,21.771957397460934,-79.78172811843004,40.45942623277518,292.11087632751463,-0.0051955441012978545,0.001042763120494783,-0.5859857201576233,0.8103040456771851,-0.4955557948935041,3.9507791639183747,-0.020607629976315392,-0.029469845816493038,-0.05449859797954559,-0.016876155510544773,-0.04226157339289785,-0.008673590677790345,-9.513817477226258
45.2,2.700000047683716,85.0,22.859941482543945,21.64472770690918,-79.781719453302,40.45942938224125,292.1084044036865,-0.008827470242977142,-0.0011766237439587712,-0.5851436257362366,0.8108808398246765,-0.4910960897447718,3.970952439831314,-0.005994300509266512,0.02191542088985443,0.05641353502869606,-0.09876446425914764,-0.17805535454303026,0.05156606493517757,-9.553702504634858
45.3,2.700000047683716,86.0,22.814868927001953,23.577009201049805,-79.78171518855937,40.459430930436454,292.10852265930174,-0.008577039465308191,-0.0006325228605419397,-0.5847740769386292,0.8111506104469299,-0.4669960379641762,3.9689631909922825,0.016566819653166275,0.055269766598939896,0.03588597849011421,-0.024507131427526474,-0.12523300618864594,0.12805799706839024,-9.60467151403427
45.5,2.700000047683716,85.0,22.70719146728516,24.594837188720703,-79.78171091994895,40.45943245527147,292.10380387878416,-0.006238779984414578,0.000804615905508399,-0.584371030330658,0.8114623427391052,-0.4596726057958955,3.9679693651989454,0.0070619400198752265,0.14477619528770447,0.03855553269386292,-0.14474625885486606,-0.13605977464467287,0.20604674331843853,-9.684714049100878
45.59,2.700000047683716,85.0,22.90251159667969,22.81363868713379,-79.78170241178155,40.45943552421366,292.1027529296875,-0.0019320293795317407,0.0001021446951199323,-0.5828114748001099,0.8126052021980286,-0.4624641276797513,3.9673018025209066,0.04090866495786645,0.01134941354393959,-0.02377454377710819,-0.051191475242376334,-0.09166669014841318,0.04247332939412445,-9.899382877349854
45.8,2.5999999046325684,83.0,22.761030197143555,23.847370147705078,-79.7816938885028,40.459438572063,292.09208322143553,-0.006694793235510589,-0.0002778436755761504,-0.5787061452865601,0.8155086636543274,-0.4361038433125137,3.962294963138846,0.0342440587809725,0.009218230843544006,0.008088897913694382,-0.1294931024312973,-0.10550773481838406,0.057829789635725326,-9.938498411178587
45.89,2.5999999046325684,83.0,22.847421646118164,22.455808639526367,-79.78168963905145,40.45944010352819,292.09291673278807,-0.007864974439144135,-0.00265687913633883,-0.5761823654174805,0.8172790408134459,-0.4196735406208839,3.9601417977828826,0.05792056501874561,-0.0036361978854984045,-0.028635872527956963,-0.09929433465003967,-0.12585849381051958,0.025267102480866017,-9.922930784225462
46.0,2.5999999046325684,82.0,22.862445831298828,21.28689956665039,-79.78168539292824,40.459441639287526,292.0942251739502,-0.007362174801528455,-0.004294268786907196,-0.5742262601852417,0.8186523914337158,-0.3984261193126232,3.964693964535413,0.05581766924486447,0.03694453090429306,-0.015726538375020027,-0.0518823079764843,-0.03341644459404052,0.04152931926771999,-9.85465050816536
46.19,2.5999999046325684,83.0,22.826135635375977,22.193401336669922,-79.78167694187835,40.45944477882553,292.08232522583006,-0.004679410252720118,-0.002200436545535922,-0.5736821889877319,0.8190617561340332,-0.38968501466114097,3.965259015385004,0.023755898993932642,0.03686152398586273,0.025219740346074104,0.07000816613435745,-0.15381855430081487,0.10081359009258448,-9.807432487607002
46.3,2.5,81.0,22.751012802124023,24.10182762145996,-79.78167267164885,40.459446326471074,292.0738527832031,-0.004349647555500269,0.0008978230762295426,-0.5749960541725159,0.8181442022323608,-0.3800173238556211,3.9750273822460116,-0.0027669100385424514,-0.005806030705571175,0.004980381578207016,0.050758704543113715,-0.02007231732364744,0.08142512748017908,-9.737307415008548
46.5,2.5,78.0,22.747257232666016,23.39411926269531,-79.78166418318024,40.459449408707954,292.0691435394287,-0.0022594525944441557,0.0009967390215024352,-0.578174889087677,0.815909206867218,-0.4072192475084094,3.961792131170656,0.02354682155885893,-0.028883848339319236,-0.016099421307444572,0.07742485404014587,-0.007119962638244033,-0.088136634696275,-9.891028375625613
46.7,2.5,76.0,22.8424129486084,22.090028762817386,-79.78165564838801,40.459452425639405,292.05892396545414,-0.004354021046310663,0.0003743045963346958,-0.5797227621078491,0.8148021101951599,-0.4064868371243199,3.9577693613018967,0.013509173124632123,-0.04105362296104431,-0.0565943755209446,0.05030149221420288,-0.04376045230776072,0.012364581604488195,-9.916363191604617
