time,wind_speed,wind_angle,battery_voltage,battery_current,position_x,position_y,position_z,orientation_x,orientation_y,orientation_z,orientation_w,velocity_x,velocity_y,velocity_z,angular_x,angular_y,angular_z,linear_acceleration_x,linear_acceleration_y,linear_acceleration_z
0.0,1.2000000476837158,125.0,23.35325050354004,0.0,-79.78280255650297,40.45892229927513,268.53954809570314,-0.011095777153968813,0.001849115127697587,-0.9845588803291321,0.17469239234924314,-0.021229462830922842,-0.00768939171936095,0.008849821284782441,0.007455833256244659,0.004100073594599961,0.005959478672593832,-0.09151236020028593,0.15633187031373386,-9.810836151838306
0.1,1.100000023841858,123.0,23.3494930267334,0.0,-79.78280253567846,40.4589223124061,268.5404084291458,-0.011074339970946312,0.001850285450927913,-0.9845560789108276,0.17470937967300415,-0.026051036237397192,-0.009440596316294632,0.009177945201181837,-0.008778753690421581,-0.004115782678127289,-0.012297039851546288,-0.0989028844702989,0.1821857545897365,-9.80576486170292
0.3,1.100000023841858,123.0,23.34698867797852,0.015903547406196594,-79.78280262199438,40.45892225641523,268.52920967006685,-0.011056376621127129,0.0018636378226801753,-0.9845548272132874,0.17471736669540405,-0.027250433626970792,-0.007361586507694678,0.008948010047979758,-0.011089107021689415,-0.001761638559401035,-0.01121949590742588,-0.09704926229082048,0.18324252918362616,-9.805577750802039
0.4,1.100000023841858,121.0,23.34573745727539,0.0,-79.78280259384256,40.45892227253788,268.5300431814194,-0.011092130094766615,0.0018801048863679173,-0.9845495223999025,0.17474514245986938,-0.029550086072351968,-0.00965380797421475,0.008874919079878306,0.008287468925118445,0.003120288252830505,0.007650791201740503,-0.09048843051306904,0.15519226625561716,-9.810408135652544
0.6,1.0,120.0,23.354501724243164,0.0,-79.78280270565048,40.45892219677084,268.5189354982376,-0.011064335703849792,0.0019378690049052238,-0.9845449328422546,0.1747722029685974,-0.024953538579311967,-0.007314365313905542,0.008614890943827933,0.0069309184327721604,0.002698064548894763,0.009919329546391964,-0.10232964520342648,0.18193165652453894,-9.806278247237207
0.7,1.0,116.0,23.35074615478516,0.007951773703098297,-79.78280267842591,40.45892221217021,268.5197675790787,-0.011073336005210876,0.0019394997507333753,-0.9845430254936218,0.17478200793266296,-0.029779811922583437,-0.009024101227156932,0.009038060260339702,-0.008614453487098217,0.0010558931389823556,-0.008784304372966291,-0.09621657310053706,0.18343563348054887,-9.807057096362117
0.9,1.0,116.0,23.34573745727539,0.0,-79.78280283022622,40.45892214667261,268.51105790996553,-0.011030543595552444,0.0019630733877420425,-0.9845388531684875,0.17480754852294922,-0.0214665899508062,-0.010802884548781557,0.0122120517480259,-0.0006360667757689952,0.00024007624597288668,-0.005033636000007391,-0.09167354235425593,0.15506421223282815,-9.810299377441408
1.0,1.0,116.0,23.355754852294922,0.007951773703098297,-79.78280294766859,40.458922055803335,268.4990085926056,-0.011048275977373123,0.0019821731839329004,-0.9845336079597472,0.1748359501361847,-0.018247679319178187,-0.004590165873522811,0.010723179888422273,-0.0008145784377120433,0.0018270034343004227,0.0075006550177931786,-0.0924601573124528,0.15584711786359548,-9.81116125702858
1.2,1.100000023841858,115.0,23.35074615478516,0.0,-79.78280290594716,40.458922078935366,268.50110500717165,-0.011032738722860813,0.0019673304632306108,-0.9845271110534668,0.17487379908561707,-0.02569813951157381,-0.008331601546674061,0.011077604945971363,-0.0013265493325889108,-0.00013691670028492808,0.0019568230491131553,-0.09985087344422937,0.17758604239672424,-9.806310406923297
1.3,1.100000023841858,113.0,23.348241806030273,0.0,-79.78280305532165,40.45892197889325,268.49125152492525,-0.01097133383154869,0.001989072421565652,-0.984529972076416,0.1748613864183426,-0.016507730330443133,-0.003923992707360097,0.012779466656729164,0.005359440576285124,0.002639754442498088,-0.0007925938698463143,-0.0966387420706451,0.1724906324967742,-9.807289815545085
1.5,1.100000023841858,115.0,23.354501724243164,0.015903547406196594,-79.78280313550772,40.45892190232106,268.48123031520845,-0.010959203355014324,0.0020140239503234625,-0.9845304489135742,0.1748589277267456,-0.02068259052703151,-0.0008469689800119268,0.011556000655241252,0.006260720081627369,-0.0008766492246650159,-0.0001348000077996403,-0.09244769543409348,0.16426705358549953,-9.811107462644577
1.6,1.100000023841858,116.0,23.35325050354004,0.007951773703098297,-79.78280311177849,40.45892190968204,268.4823568429947,-0.01097689289599657,0.0020142288412898783,-0.9845276474952698,0.17487388849258426,-0.02517301264005793,-0.002372905704834768,0.011841115472523324,-0.007080846931785345,-0.000439672963693738,0.0005822950042784214,-0.09778115096502006,0.16651422992348672,-9.808825879096986
1.8,1.2000000476837158,118.0,23.35325050354004,0.007951773703098297,-79.78280322027484,40.458921861370456,268.4722134437561,-0.010971317999064922,0.0020042627584189177,-0.9845252633094788,0.17488761246204376,-0.02575515467042511,-0.006570102054072827,0.010757800730221777,-0.008103173226118088,-0.0018884961027652023,-0.004631267394870521,-0.0961270558834076,0.1646308417618275,-9.809410015940667
1.9,1.2000000476837158,120.0,23.3494930267334,-0.007951773703098297,-79.78280319342798,40.45892187631033,268.47323971652986,-0.010993663221597672,0.0019985074177384377,-0.9845249652862548,0.1748877614736557,-0.0279063104079308,-0.008897356024898365,0.01075824960204278,0.007900459691882133,0.003338559763506055,0.005116946529597044,-0.0967955296766013,0.16403802545741195,-9.808448733687401
2.1,1.2000000476837158,123.0,23.35199737548828,0.0,-79.7828034081565,40.4589217424958,268.4649541940689,-0.010919569060206413,0.002032021526247263,-0.9845228791236876,0.174904003739357,-0.009713102611165227,-0.002882319427552921,0.012993554969135823,0.009644189849495888,0.0046760039404034615,0.006714426912367344,-0.0980473180487752,0.17360759686678648,-9.80851656138897
2.2,1.2999999523162842,125.0,23.35074615478516,0.015903547406196594,-79.78280339583844,40.45892174939623,268.46624773406984,-0.010923044756054878,0.002014040946960449,-0.9845181703567504,0.17493030428886416,-0.014592212509693031,-0.004407097632735826,0.013289866934276513,-0.007646483834832906,-0.0031258908566087484,-0.007216821890324355,-0.09707400332204998,0.17254037037491798,-9.807077561616898
2.4,1.2999999523162842,126.0,23.348241806030273,0.0,-79.78280350381934,40.45892168682458,268.4562804069519,-0.010923955589532852,0.002019310602918268,-0.9845178127288818,0.17493228614330292,-0.01905938945901935,-0.0056018549718094435,0.012114879350761748,-0.009591265581548214,-0.0012671409640461204,-0.009502398781478405,-0.09657064941711724,0.1623519808240235,-9.808917680382725
2.5,1.399999976158142,128.0,23.35700607299805,0.015903547406196594,-79.78280364854778,40.45892158343865,268.4454572763443,-0.0109085813164711,0.0020512642804533248,-0.9845175743103028,0.17493444681167605,-0.011490251544161794,0.0006505456651460719,0.010763010353437559,0.0068142227828502655,0.001440349849872291,0.00553214643150568,-0.09286664843559267,0.16063845427706838,-9.810397610664367
2.7,1.399999976158142,127.0,23.3494930267334,-0.007951773703098297,-79.78280361554788,40.458921593788354,268.44758206272127,-0.010911201126873491,0.002051356714218855,-0.9845139384269714,0.17495474219322205,-0.01819988084931267,-0.002877933559569257,0.010852532470416506,0.006675560958683491,0.0031572533771395683,0.004943987354636192,-0.09839965847320856,0.17501747019588948,-9.807183980941774
2.8,1.399999976158142,128.0,23.35199737548828,0.007951773703098297,-79.78280379321367,40.458921520882825,268.4369752969742,-0.0108873900026083,0.00205115438438952,-0.984511375427246,0.1749705821275711,-0.012457873177586742,-0.004530140519510386,0.010122311546142931,-0.009290157817304134,-0.002612617565318942,-0.011199616827070713,-0.10033387172967197,0.17874492399394512,-9.806461265087126
3.0,1.399999976158142,128.0,23.35325050354004,0.0,-79.78280391150635,40.45892143485117,268.4251366224289,-0.010893243364989758,0.0020678346045315266,-0.9845098853111268,0.1749780774116516,-0.014632421341670516,-0.0010611895677784702,0.0061471932009849704,-0.008662781678140162,-0.0039313826709985724,-0.012707064859569073,-0.09382409345358612,0.15755390184000134,-9.810300546884537
3.1,1.5,127.0,23.35199737548828,0.0,-79.7828038961989,40.458921440245426,268.42571478748323,-0.01088613923639059,0.002077608834952116,-0.9845107197761536,0.17497389018535614,-0.016343843306378104,-0.002893454274497551,0.006010100154968865,0.005778651218861342,0.0024838163517415524,0.009623831138014792,-0.0928898911178112,0.15343218125402927,-9.809706469774246
3.3,1.5,127.0,23.35074615478516,0.007951773703098297,-79.78280401450422,40.45892136471994,268.4159782495499,-0.010864725336432457,0.0020972327329218388,-0.9845110774040222,0.1749730259180069,-0.01646061885613365,-0.0029250652893674325,0.0066195214552678535,0.006068151444196701,0.002677035517990589,0.004207971505820751,-0.09638104431331156,0.182797245439142,-9.807684502601624
3.4,1.5,126.0,23.36076164245605,0.039758868515491486,-79.78280399522325,40.4589213736982,268.4166204299927,-0.010861028917133808,0.0020821632351726294,-0.9845112562179564,0.1749727427959442,-0.020867518801795583,-0.004447037298815829,0.006943721114335897,-0.005218141246587038,0.0031349966302514076,-0.007555021904408931,-0.0999887124169618,0.1823892742395401,-9.8064179956913
3.6,1.600000023841858,125.0,23.355754852294922,0.007951773703098297,-79.78280408318108,40.458921326289456,268.40516322517396,-0.010876200161874294,0.0020861567463725805,-0.9845093488693236,0.17498211562633514,-0.026836710533212443,-0.006933039176731718,0.004527533328557987,-0.007457310799509288,0.003101711394265294,-0.011397584341466429,-0.09194044947624208,0.15366177583113313,-9.810798729658126
3.7,1.600000023841858,124.0,23.35074615478516,0.0,-79.78280405545019,40.45892134162224,268.4055553045273,-0.010898995213210584,0.0020823031663894653,-0.9845054745674132,0.17500266432762146,-0.028890625658613327,-0.008821955324500736,0.004367896701060076,0.008603629656136036,-0.0019004895584657788,0.007149579469114542,-0.09245979186147453,0.15697581321001053,-9.808885520696641
3.9,1.600000023841858,125.0,23.348241806030273,-0.015903547406196594,-79.78280420580991,40.45892126983133,268.39377802276607,-0.010865173302590849,0.0021091890521347523,-0.9845026135444641,0.1750205010175705,-0.023017434557017057,-0.008815672080245269,0.002128779372230076,0.009138274006545544,0.0014028687728568912,0.008819606155157091,-0.09374626153148713,0.1566683227568865,-9.809374347925187
4.0,1.600000023841858,125.0,23.35199737548828,0.02385532110929489,-79.7828043806887,40.45892114923284,268.38429599666597,-0.01082243211567402,0.002128002233803272,-0.9845033288002014,0.1750188171863556,-0.01230899265684817,-0.0014660527562884516,0.004149572874825452,-0.004548828583210707,-0.0011317741591483355,-0.011140316724777222,-0.09743041852489116,0.18086304131895306,-9.80575375199318
4.2,1.600000023841858,125.0,23.344486236572266,0.07951773703098297,-79.78280435158891,40.458921162773905,268.3850612010956,-0.010822996497154236,0.002110048895701766,-0.9844954609870912,0.1750633418560028,-0.018591633410580344,-0.0047379765641864715,0.004312756221848595,-0.006715100258588791,-0.0024628106039017443,-0.013972776941955093,-0.09281381336040796,0.1570061273686588,-9.810229210853578
4.3,1.600000023841858,124.0,23.344486236572266,0.08746951073408127,-79.78280451389458,40.45892109755921,268.37401264572145,-0.010782362893223764,0.002129187574610114,-0.9844968914985656,0.17505766451358795,-0.01264802704390078,-0.008916580390700465,0.002421674302846316,0.004900116007775068,0.0018932968378067017,0.005244689527899028,-0.09175278126262128,0.16082487082108854,-9.80987311542034
4.5,1.600000023841858,125.0,23.35074615478516,0.09542128443717957,-79.78280460661442,40.45892102135551,268.36682873630525,-0.010805465281009674,0.0021438782569020987,-0.9844915270805359,0.17508620023727414,-0.01750419726479523,-0.0041646424503186215,0.007113804527559798,0.00558124016970396,0.003378779860213399,0.008057372644543648,-0.09603600377216936,0.16062526149675252,-9.809388381242751
4.6,1.600000023841858,124.0,23.34573745727539,0.11132483184337616,-79.78280458805304,40.45892103055439,268.3675116863251,-0.010814226232469082,0.00214391085319221,-0.9844877123832704,0.1751069873571396,-0.02178693885517889,-0.005393050700333279,0.007292896886144755,-0.006654929835349321,-0.001904776552692056,-0.007399471942335367,-0.09770473516546192,0.17114040076732634,-9.808113688230515
4.8,1.600000023841858,123.0,23.34698867797852,0.09542128443717957,-79.78280471866373,40.45892095905492,268.3617208566666,-0.010807840153574944,0.0021387943997979164,-0.984484612941742,0.17512460052967072,-0.018916948908149742,-0.0061615994732501615,0.010944445376657685,-0.0073960768058896065,-0.0035948797594755892,-0.002696550916880369,-0.09723625442013144,0.16663362275809052,-9.808323603272438
4.9,1.5,124.0,23.34698867797852,0.10337305814027786,-79.78280469910659,40.45892097129163,268.3627771701813,-0.010800558142364023,0.0021341482643038034,-0.9844842553138732,0.17512747645378113,-0.021328119690585862,-0.007965234609886587,0.01089554295468959,0.006867879070341587,-0.0015248687705025075,0.0005014468333683908,-0.095268392264843,0.17246912570670248,-9.808092053532599
5.1,1.5,122.0,23.34698867797852,0.039758868515491486,-79.78280481243978,40.45892086892128,268.3573763933182,-0.010781047865748405,0.0021526648197323084,-0.9844878315925598,0.17510820925235748,-0.02077952699062481,-0.003506662841127359,0.013415859515858485,0.00012653396697714925,5.5607702961424366e-05,-0.0043417001143097895,-0.09351966365240516,0.15930527083575727,-9.808796058297158
5.2,1.399999976158142,121.0,23.341981887817386,0.04771064221858978,-79.78280478910759,40.458920879423424,268.35867958927156,-0.01079217903316021,0.002152771456167102,-0.9844833016395568,0.17513327300548553,-0.023529022250611417,-0.005187652425560841,0.013524958078885685,0.0001855751761468128,1.880994750536047e-05,0.0072384276427328595,-0.09177678225561976,0.15696625666692854,-9.811073548793793
5.4,1.399999976158142,121.0,23.3394775390625,0.05566241592168808,-79.78280490577416,40.458920778045005,268.3540757265091,-0.0107467258349061,0.00218308181501925,-0.9844773411750792,0.17516878247261047,-0.020358973471609,-0.002028701295289868,0.014805981407951582,0.006101912818849087,0.0037112738937139507,0.008060579188168049,-0.0932383577618748,0.15793888617306948,-9.810439710617066
5.5,1.2999999523162842,125.0,23.341981887817386,0.07951773703098297,-79.78280505858709,40.45892066338747,268.3501953449249,-0.010713007301092148,0.0021797416266053915,-0.9844749569892884,0.17518481612205505,-0.012300925969281336,0.0019946041002891607,0.018690628553866242,-0.006327735260128975,-0.002863154280930757,-0.006520623341202736,-0.09849832110106946,0.17409183768555522,-9.808177422881126
5.7,1.2999999523162842,124.0,23.34573745727539,0.06361418962478638,-79.78280502631941,40.45892067081045,268.35385852718355,-0.010718426667153835,0.002177321817725897,-0.9844725728034972,0.17519740760326385,-0.01781120147647922,-0.0011560294936355233,0.01868157783292523,-0.006861497648060322,-0.001704024849459529,0.0001050526334438473,-0.09676755440421404,0.16366002123802895,-9.808670927882195
5.8,1.2000000476837158,124.0,23.348241806030273,0.07951773703098297,-79.7828051553662,40.45892059558985,268.3484287824631,-0.010702185332775116,0.0021964190527796745,-0.9844727516174316,0.1751970797777176,-0.016883268999722343,-0.004496072914612501,0.018682737721921857,0.0015929292421787975,-0.0010482737561687827,0.0005064464057795703,-0.09589755266904833,0.172364953905344,-9.808226539492606
6.0,1.2000000476837158,124.0,23.33446884155273,0.05566241592168808,-79.78280528539402,40.45892047798493,268.3453431692124,-0.0106803011149168,0.0021994754206389197,-0.9844724535942078,0.17520073056221008,-0.013193246866431634,0.0009142366591323974,0.018737976990173648,-0.004384960513561964,0.00010999097139574587,-0.009972785599529743,-0.0959573769941926,0.17999688595533372,-9.807361736297608
6.1,1.100000023841858,124.0,23.341981887817386,0.07951773703098297,-79.78280527028264,40.458920481299465,268.34718900585176,-0.010680613107979298,0.002194825792685151,-0.9844716191291808,0.17520521581172946,-0.014804772353342316,-0.0007624839331207187,0.018753428310851267,0.006979199592024088,0.002401552861556411,0.003723435802385211,-0.09410315182060004,0.1592496491968632,-9.810573027133943
6.3,1.100000023841858,125.0,23.341981887817386,0.07951773703098297,-79.7828054030293,40.4589203795582,268.3451086845398,-0.010644610039889812,0.002180863870307803,-0.9844767451286316,0.17517849802970886,-0.011430729828598591,-0.0015258063573782366,0.018789302629656668,0.0024229763075709343,0.0010533954482525587,0.002332509262487293,-0.0982472745515406,0.16705274021252992,-9.807722509503368
6.4,1.100000023841858,126.0,23.34698867797852,0.10337305814027786,-79.7828053887914,40.4589203856575,268.3469775285721,-0.010673405602574348,0.0021751187741756444,-0.9844720363616944,0.17520354688167572,-0.014767092973378809,-0.003048838186073167,0.018959267992619457,-0.0018119094893336296,0.0015864905435591936,0.003087491262704134,-0.09502790724858642,0.15875811763107778,-9.809845048785213
6.6,1.100000023841858,126.0,23.338224411010746,0.11132483184337616,-79.7828054707297,40.458920292305386,268.3457328643799,-0.010681623592972755,0.002201168332248926,-0.984467387199402,0.17522861063480374,-0.0194102594023548,-0.0026420647518070875,0.01896702533449016,0.00884248036891222,0.003345176810398698,0.00978516973555088,-0.1006588398758322,0.17988012436777354,-9.805413444042207
6.7,1.2000000476837158,126.0,23.344486236572266,0.08746951073408127,-79.78280544796354,40.458920301734274,268.34760313892366,-0.010679472237825394,0.002189813181757927,-0.9844653010368348,0.175240620970726,-0.02345549066272581,-0.003982571191146193,0.019343634880295408,-0.007282351143658161,-0.005568549502640964,-0.011612608097493649,-0.09724684336222708,0.17962264588102694,-9.807233097553254
6.9,1.2999999523162842,129.0,23.34698867797852,0.07951773703098297,-79.78280558340444,40.45892018332741,268.3470587100983,-0.01067405752837658,0.002205371856689453,-0.9844624996185304,0.1752568483352661,-0.018667099373471288,-0.0020788441105737366,0.01932363509615518,-0.006321858149021864,0.002399803372099996,0.0009543640189804137,-0.09409822736866773,0.1625612015090883,-9.80900129556656
7.0,1.399999976158142,130.0,23.34323310852051,0.09542128443717957,-79.78280571077947,40.45892007126301,268.3459941711426,-0.010670648887753487,0.0022054545115679502,-0.9844664931297302,0.17523428797721866,-0.016327165142990728,-0.0010726464522081661,0.019416385463748284,-0.004506898578256369,0.002954673254862428,-0.002955006202682853,-0.09701446222141387,0.17636474177241326,-9.807232512831687
7.2,1.399999976158142,131.0,23.34573745727539,0.07156596332788467,-79.78280567088865,40.4589200862979,268.34981900119783,-0.01067748200148344,0.0022136878687888393,-0.984464943408966,0.17524266242980954,-0.022353780725954748,-0.003848327965027826,0.019678592547749046,-0.007349949330091475,-0.0035877174232155085,-0.008592179976403713,-0.09346563172526658,0.1595817162282765,-9.808794304132462
7.3,1.399999976158142,133.0,23.35074615478516,0.04771064221858978,-79.78280582720956,40.45891995109877,268.3498627510071,-0.010635650716722013,0.002235018415376544,-0.9844647645950316,0.17524591088294986,-0.01298528826686235,-0.00011013177161567746,0.01949988460161129,0.005112039856612682,0.001825505285523832,0.004523365292698145,-0.09214922248385847,0.1640759775415063,-9.808518900275233
7.5,1.399999976158142,135.0,23.35325050354004,0.0,-79.78280593344947,40.45891983420399,268.35241990947725,-0.010621276684105395,0.0022471456322818995,-0.984463095664978,0.17525561153888702,-0.014305368830539816,0.002008150398772416,0.019852793061236624,0.0026456157211214304,0.00017830902652349323,-0.002473907545208931,-0.0968575192987919,0.1772014235146344,-9.807200937867165
7.6,1.5,137.0,23.35199737548828,0.0,-79.78280591605143,40.45891983711435,268.35438233280183,-0.01063060387969017,0.002246640622615814,-0.9844621419906616,0.1752607524394989,-0.016576331303355018,0.0006042096880141089,0.019935957605748983,0.002385223517194391,0.002187247853726149,0.003676704131066799,-0.09289839698933064,0.15910182427614927,-9.809646243453026
7.8,1.5,138.0,23.35199737548828,0.007951773703098297,-79.78280607591687,40.45891971334893,268.3554907407761,-0.010583886876702309,0.002254736842587591,-0.9844619631767272,0.1752646267414093,-0.009332622409805768,0.00034649965111926235,0.016682136028318983,0.007816400378942491,0.005774989258497953,0.00808190181851387,-0.0996262307278812,0.18036867750808605,-9.805674814581874
7.9,1.5,140.0,23.35074615478516,0.0,-79.78280606311465,40.45891971714979,268.35714774990083,-0.010587993077933788,0.002237692009657621,-0.9844603538513184,0.17527322471141815,-0.013243714503930852,-0.0008815114110582289,0.016941036943526513,-0.00533639220520854,-0.00032181094866245985,-0.0040604989044368284,-0.09563673030585053,0.16744008170440794,-9.809038717746736
8.1,1.5,141.0,23.35074615478516,0.0,-79.78280620644433,40.45891958820938,268.3609072532654,-0.010563415475189686,0.0022411260288208727,-0.984460175037384,0.17527605593204498,-0.010393799865620536,0.0005359908714218603,0.0180300965938994,0.00028359467978589237,0.00013926510291639718,0.001598807284608483,-0.0973888484761119,0.17209864977747202,-9.808541704416275
8.2,1.5,143.0,23.35074615478516,0.0,-79.78280619326334,40.45891959204352,268.3626958694458,-0.01054887194186449,0.002226519165560603,-0.9844605326652528,0.1752750426530838,-0.013276940672354978,-0.0010087576532458137,0.0182696666441818,-0.006421755533665419,-0.00012427696492522958,-0.006931148003786802,-0.0996698473021388,0.18061674563214186,-9.8066097843647
8.4,1.5,143.0,23.3394775390625,-0.05566241592168808,-79.7828063426828,40.45891947834895,268.36708086395265,-0.010527631267905235,0.0022195498459041123,-0.9844537377357484,0.1753147393465042,-0.010917402536457815,-0.0015900183390085785,0.019040596806143503,-0.006298064719885589,-0.005200888030230999,-0.008276534266769886,-0.09356640483252704,0.15762302689254284,-9.809464395046234
8.5,1.399999976158142,142.0,23.338224411010746,-0.07951773703098297,-79.78280650764862,40.45891935893994,268.36981683635713,-0.0105086462572217,0.0022360703442245717,-0.9844549894332886,0.17530807852745056,-0.0035199434928285967,-0.00039977308658595214,0.019266198074040692,0.0021156466100364928,0.00036384371924214065,0.004961824510246515,-0.09414677753113213,0.16579716028645636,-9.809267343878746
8.7,1.399999976158142,140.0,23.348241806030273,-0.04771064221858978,-79.7828064949455,40.45891936520028,268.3736810054779,-0.01051640510559082,0.002254305174574256,-0.9844501614570618,0.17533475160598755,-0.008925704768748072,-0.003362936634179536,0.01954220324860169,0.0039646648801863185,0.00308068236336112,-0.0023657542187720537,-0.09405673041008414,0.16362079007551075,-9.810033913850782
8.81,1.399999976158142,139.0,23.33321762084961,0.007951773703098297,-79.78280660576294,40.45891924264527,268.3764354553223,-0.01053991075605154,0.002288608113303781,-0.9844478368759156,0.17534571886062622,-0.012195586691353002,0.002298407202532284,0.02006282516837112,-0.001610645093023777,0.0018482900923117995,0.008217957802116871,-0.09289372835308314,0.15743164021521808,-9.811137868165972
9.0,1.399999976158142,137.0,23.354501724243164,0.0,-79.78280679930505,40.45891911003445,268.38164502048494,-0.010526594705879688,0.002299014478921891,-0.984445095062256,0.17536209523677826,-0.0018147416032906754,0.0036025576178335315,0.02015653127418161,0.006259008776396513,0.002012265147641301,0.00760526768863201,-0.09985290169715882,0.18059909434989094,-9.8066922301054
9.1,1.399999976158142,136.0,23.3494930267334,0.007951773703098297,-79.78280679512312,40.45891910755189,268.38366669082643,-0.010527161881327627,0.0022823633626103397,-0.9844416975975036,0.17538118362426758,-0.005351030739741233,0.002633968518042895,0.02048868973165073,-0.008472869172692299,-8.505606092512608e-05,-0.008096796460449696,-0.09758648436516523,0.17654463501647116,-9.807627784609798
9.3,1.399999976158142,136.0,23.34573745727539,0.0,-79.78280690280994,40.45891898320836,268.39148610496517,-0.010537690483033657,0.002259578090161085,-0.9844372868537904,0.17540577054023745,-0.011331183052082769,0.005828070935077213,0.024327886106186785,-0.0039969338104128855,0.0004550540179479867,-0.004918841179460287,-0.09330776603892446,0.16537870064377785,-9.809731612801553
9.4,1.399999976158142,132.0,23.35325050354004,0.007951773703098297,-79.78280688672879,40.4589189828686,268.39388280773164,-0.010533669963479042,0.002241187496110797,-0.9844356775283812,0.17541535198688507,-0.013218049009750208,0.004203149698564773,0.02422847246991416,0.0026738035958260298,-0.0018508384237065913,-0.0007875396404415369,-0.09485338613390924,0.1730121127702296,-9.807239529490472
9.6,1.399999976158142,130.0,23.35199737548828,-0.007951773703098297,-79.78280707078272,40.45891887523737,268.39979141616817,-0.01048122625797987,0.002251034369692207,-0.9844321608543396,0.17543785274028778,-0.007889070755363388,0.0014264409388533431,0.02341910584027612,-0.0040724375285208225,0.002894469536840916,-0.009725691750645638,-0.09162961514666676,0.15718543589115144,-9.81056834936142
9.7,1.399999976158142,128.0,23.34698867797852,0.0,-79.78280706012029,40.45891887740967,268.40211254024507,-0.010489356704056265,0.0022438906598836184,-0.9844266176223756,0.17546862363815308,-0.009657191463967528,-0.00012219877946168596,0.02336924993876568,0.004841238260269165,0.0026588174514472485,0.001836100942455232,-0.092157710082829,0.15618983779102566,-9.810363696813585
9.9,1.399999976158142,125.0,23.35325050354004,-0.007951773703098297,-79.78280718536817,40.458918767389285,268.4107679691315,-0.010479311458766459,0.002262416994199157,-0.984423577785492,0.1754857897758484,-0.011426182708489621,0.0012163134758080814,0.02581072055110119,0.006631296593695879,0.0016518643824383614,0.004009985830634832,-0.09798196627758443,0.1813060044497252,-9.807036046385765
10.0,1.399999976158142,125.0,23.35325050354004,-0.007951773703098297,-79.78280735432054,40.45891865821914,268.4148748483658,-0.010473111644387243,0.0022794143296778198,-0.9844193458557128,0.17550991475582126,-0.008321367488811154,0.0032616190897210872,0.02428580973611453,-0.010215752758085728,-0.0002999234420713037,-0.006540845613926649,-0.09790017834864558,0.17244657738134267,-9.807611412405967
10.2,1.399999976158142,125.0,23.35074615478516,-0.007951773703098297,-79.7828073303408,40.458918660716726,268.4197000827789,-0.01049683429300785,0.002287783194333315,-0.9844105243682858,0.1755579262971878,-0.012866903092293812,0.00036115801369849014,0.02451205124202179,-0.007832197472453117,-0.0050348592922091475,0.001086190459318459,-0.09686190471053124,0.16327933095395564,-9.808928205370904
10.3,1.399999976158142,123.0,23.35074615478516,0.0,-79.78280748621407,40.45891855141561,268.42391305828096,-0.010453486815094948,0.0022960065398365264,-0.9844110608100892,0.1755571812391281,-0.01022890000977189,0.003273351533938944,0.023381129678582458,0.006946591194719076,0.0013240035623311994,-0.0009516261634416877,-0.0965961396228522,0.17375958792865276,-9.809079063534737
10.5,1.399999976158142,121.0,23.35074615478516,0.07951773703098297,-79.78280765037881,40.458918462680785,268.4292139377594,-0.010430390015244484,0.002289085881784559,-0.9844087958335876,0.17557141184806824,-0.00745626164005397,0.001832825806913589,0.020409284987587737,0.002818593988195061,-9.356367809232324e-05,-0.001785019296221435,-0.09400526577606798,0.15779623238369822,-9.810595246553422
10.6,1.399999976158142,121.0,23.35325050354004,-0.007951773703098297,-79.78280764103751,40.45891846325728,268.43123644256593,-0.0104532390832901,0.002311301650479436,-0.98440283536911,0.17560340464115146,-0.00920822352579894,0.0005507701351740141,0.02043055160067991,-0.00014857176574878397,0.0027757857460528608,0.008026563562452793,-0.09262864848598837,0.15527944458648565,-9.81106653213501
10.8,1.399999976158142,121.0,23.354501724243164,0.015903547406196594,-79.78280780895476,40.458918390447295,268.4349812831879,-0.010436932556331158,0.0023014068137854338,-0.9843977093696594,0.17563343048095706,-0.007485170125014784,-0.0020451579167483627,0.015936299620701797,0.0032876159530133013,0.0004991450114175677,0.008265670388936995,-0.09362263860180976,0.1555885247513652,-9.81047245502472
10.91,1.399999976158142,119.0,23.340728759765625,-0.007951773703098297,-79.78280779963384,40.45891839554713,268.4365673627853,-0.01043523848056793,0.00228880625218153,-0.9843956232070924,0.17564527690410614,-0.010818523766327215,-0.003286927515800612,0.01615663164151402,-0.0029196038376539946,-0.0001713792880764231,-0.007822410203516483,-0.09532724814489484,0.18346923669800164,-9.806875247955325
11.1,1.5,122.0,23.348241806030273,-0.007951773703098297,-79.7828079425496,40.45891831594489,268.4429737892151,-0.010415677912533285,0.0023047234863042827,-0.9843905568122864,0.17567451298236847,-0.012450161943988559,-0.0011502979365895175,0.0177106851291294,-0.004124954342842102,-0.00028554582968354225,-0.006418832577764988,-0.09148458592593672,0.15514075594022872,-9.810958943367005
11.2,1.600000023841858,122.0,23.35074615478516,-0.007951773703098297,-79.78280792835247,40.458918321583106,268.4447135295868,-0.010432610288262369,0.002296855906024575,-0.984386146068573,0.17569826543331146,-0.013779382126502818,-0.00263372409708433,0.01757649233510902,0.0044153514318168155,0.0014576023677363992,0.00846084114164114,-0.09160042474977673,0.15194274924695492,-9.81051923274994
11.4,1.600000023841858,121.0,23.3494930267334,0.0,-79.78280807190842,40.45891822181071,268.45105391407014,-0.01040828786790371,0.0023133042268455037,-0.9843852519989014,0.1757047474384308,-0.012884426094630143,0.002628278527210079,0.01865470845891471,0.00538750644773245,0.0003394657978788018,0.013173175975680351,-0.09611229166388513,0.1836141380108893,-9.807181642055511
11.5,1.7999999523162842,123.0,23.35325050354004,0.0,-79.78280824940731,40.45891816357185,268.45373123550416,-0.01038112957030535,0.0023127663880586624,-0.9843830466270448,0.17571841180324554,-0.009418582979681204,-1.1807531762543467e-05,0.01688692515348457,-0.003673989325761796,-0.0022109535057097678,-0.01243527978658676,-0.09865061365999282,0.18386995369568468,-9.806548973321917
11.7,1.8999999761581416,122.0,23.35199737548828,0.0,-79.78280822610219,40.45891817196154,268.4570645656586,-0.010374033823609352,0.002312304452061653,-0.9843789339065552,0.17574167251586914,-0.013912823690014384,-0.002601558920562561,0.01704933421044746,-0.009064135141670704,-0.0033859938848763704,-0.010622100904583931,-0.09196446874178947,0.15822313394397494,-9.809218227267266
11.8,2.0,123.0,23.34698867797852,0.007951773703098297,-79.78280837911187,40.45891808230829,268.4594315853119,-0.010366180911660194,0.002332251286134124,-0.9843801259994508,0.17573536932468414,-0.009869784502718304,0.0036583784959077453,0.014899688738440891,0.007215825375169516,0.0005226957728154957,0.006820905022323132,-0.09476755083538592,0.16365576373413207,-9.80922875225544
12.0,2.0999999046325684,124.0,23.3494930267334,-0.007951773703098297,-79.78280856639552,40.458918028253024,268.4655590620041,-0.010354071855545044,0.0023271550890058283,-0.9843750596046448,0.17576482892036438,-0.005588503591588292,-0.0011403786628726524,0.016858907177284242,0.0007008488173596562,0.002722370671108365,-0.0029823989607393733,-0.09479814821854234,0.16310455402359367,-9.809562628269196
12.1,2.200000047683716,125.0,23.348241806030273,-0.007951773703098297,-79.78280856005202,40.458918031109704,268.4672432508469,-0.0103696221485734,0.002343328204005957,-0.9843710064888,0.17578630149364471,-0.007464288831004689,-0.0024798019209142435,0.01698576313955754,0.002671159338206053,0.0015992776025086641,0.0076190410181880015,-0.09306420209817587,0.15783983068540694,-9.81154249548912
12.3,2.200000047683716,126.0,23.35074615478516,-0.02385532110929489,-79.78280871438494,40.45891798451175,268.4732677307129,-0.010354907251894474,0.002347537083551288,-0.9843643307685852,0.17582453787326813,-0.009564544054979151,-0.003143441347895159,0.0181496039683783,0.008497061207890509,0.0049236631020903605,0.004987714812159538,-0.09752582863904537,0.18226754251867533,-9.806814436912537
12.4,2.4000000953674316,130.0,23.34323310852051,-0.039758868515491486,-79.78280870314698,40.45891799123102,268.47508126163484,-0.01034569088369608,0.002339261118322611,-0.9843611121177672,0.17584308981895447,-0.012968009107663759,-0.004351832616941952,0.0185052381050121,-0.008520976640284061,-0.0021393438801169395,-0.012172660790383816,-0.09931888645514847,0.17728262672200798,-9.806944245100023
12.6,2.5,131.0,23.35199737548828,-0.015903547406196594,-79.78280886092324,40.458917954248186,268.4790688123703,-0.010337930172681808,0.002331077121198177,-0.9843538403511048,0.17588430643081665,-0.012442180286295705,-0.006012353474057397,0.016697384901559437,-0.007935496978461742,-0.0006240442744456233,-0.00043276211363263444,-0.09644106050021947,0.16178105503320694,-9.809709393382072
12.7,2.5999999046325684,129.0,23.34323310852051,-0.02385532110929489,-79.78280884887505,40.45891796409576,268.48072033786775,-0.010335809551179407,0.0023204206954687834,-0.9843542575836182,0.17588232457637787,-0.013784464600116259,-0.007659095158491254,0.016779189892350683,0.005455946084111929,0.003217744641005993,0.0006073686527088284,-0.09889626980759204,0.17137746881693602,-9.808503112792973
12.9,2.5999999046325684,128.0,23.3494930267334,-0.007951773703098297,-79.78280904554425,40.458917894027046,268.486396607399,-0.0103216003626585,0.0023323844652622947,-0.9843491315841676,0.1759118288755417,-0.008024422743828266,-0.0037019188249028116,0.01803881811375372,-0.00259196013212204,0.001422315021045506,-0.007275948766618967,-0.09458698150701822,0.15948277037590744,-9.809364407658578
13.0,2.5,128.0,23.34698867797852,-0.007951773703098297,-79.78280920870621,40.45891785333194,268.487923201561,-0.010328170843422413,0.0023444632533937693,-0.9843454360961914,0.17593161761760712,-0.008446295902916696,-0.002559154620261463,0.01508945679997371,0.005138840992003679,0.0010933785233646633,0.010329831391572952,-0.0936718739848584,0.15594931622967126,-9.811431398391726
13.2,2.5,127.0,23.344486236572266,-0.03180709481239319,-79.78280918782616,40.45891786580537,268.49094479942323,-0.010326152667403221,0.0023484465200454,-0.9843403697013856,0.1759602427482605,-0.012329081824654007,-0.005161596896686847,0.015340738738263072,0.00823630578815937,0.002316596452146769,0.006295090075582266,-0.10062807803973556,0.17892421424388885,-9.806936643719672
13.3,2.700000047683716,129.0,23.34573745727539,-0.015903547406196594,-79.7828093611263,40.45891780672325,268.49239021205904,-0.010317296721041204,0.002360215410590172,-0.9843370914459229,0.17597879469394684,-0.011841606987146263,-0.00031511642794298687,0.014015952401770802,-0.003852915018796921,-0.0007735781255178154,-0.003941818606108427,-0.09508358370512723,0.16804188810288906,-9.810794051885603
13.5,2.799999952316284,130.0,23.35325050354004,0.007951773703098297,-79.78280951311844,40.458917784412996,268.4940119352341,-0.01029933150857687,0.0023782977368682623,-0.9843329191207886,0.17600283026695251,-0.013205686747663998,-0.0019195662815683727,0.010893516138773474,0.0013656853698194027,-0.0026950433384627104,0.009053284302353859,-0.09527075855992737,0.17278566107153892,-9.808125967383383
13.6,2.799999952316284,134.0,23.35199737548828,0.015903547406196594,-79.7828094993373,40.45891779016072,268.495078619957,-0.010299182496964931,0.0023880749940872192,-0.9843334555625916,0.17600016295909882,-0.015585716026547219,-0.0029597570586863487,0.011015461274382564,-0.00420795613899827,-0.001053687185049057,-0.007296621333807706,-0.09605840591713788,0.1813500961102545,-9.806517398357393
13.8,2.799999952316284,135.0,23.33572196960449,0.3101191818714142,-79.78280971552539,40.4589177693341,268.497387465477,-0.010277560912072659,0.002394260838627815,-0.9843251705169678,0.1760471761226654,-0.00809058789261177,-0.007274079704185484,0.010837113223242436,-0.006207957863807678,-0.0018099721055477851,-0.010616801679134369,-0.09350981474854053,0.14932821244932712,-9.810046777725221
13.9,2.799999952316284,136.0,23.336973190307607,0.2862638533115387,-79.78280970934074,40.4589177781049,268.498456653595,-0.010301031172275543,0.0023791929706931114,-0.9843321442604064,0.17600706219673154,-0.00851138561397787,-0.008437606393146859,0.010775551705254693,0.003457068232819438,0.0044036670587956905,0.012454416602849959,-0.09915315443649887,0.15069914697669448,-9.809966670870784
14.1,2.799999952316284,134.0,23.33446884155273,0.3021674156188965,-79.78280984815045,40.45891773864489,268.50050168895723,-0.010308306664228441,0.002373679308220744,-0.9843268394470216,0.17603671550750732,-0.013132145425865807,-0.0034733296697603967,0.010703126106156024,0.006880870554596186,0.001704865018837154,0.008152693510055542,-0.09870271783322096,0.1868626865744591,-9.807018504738807
14.2,2.5999999046325684,136.0,23.33572196960449,0.2942156493663788,-79.78280983335532,40.458917746322825,268.50155681037904,-0.010302040725946426,0.002370239468291402,-0.9843111634254456,0.1761244684457779,-0.015884224403024998,-0.004142497976731442,0.010972848574969728,-0.005894763395190239,0.0026572041679173712,-0.012644181959331036,-0.09792982555925847,0.1819532729499042,-9.80505617916584
14.4,2.5999999046325684,135.0,23.32570457458496,0.3021674156188965,-79.78281005789809,40.45891770678606,268.50306015872957,-0.010280944406986237,0.002383431186899543,-0.9843067526817322,0.17615044116973874,-0.008652549603017576,-0.0035658838468450626,0.0107423453581403,-0.004834141582250595,-0.00362720200791955,-0.00958904344588518,-0.09344715817831456,0.15293413552455604,-9.808662741780283
14.5,2.5,141.0,23.33196449279785,0.3578298389911652,-79.7828102607611,40.458917677212796,268.5051987733841,-0.010272709652781488,0.0023878107313066717,-0.9843194484710692,0.1760796159505844,-0.0018601051835208566,-0.002920738090804338,0.013092283847342713,0.008473481982946396,0.0031246866565197698,0.008861524052917956,-0.08945731971412897,0.1538371740281582,-9.810058472156523
14.7,2.5,139.0,23.321949005126953,0.41349223256111145,-79.78281025492285,40.45891768584511,268.50786882305147,-0.010286598466336729,0.002409087494015693,-0.984312891960144,0.17611539363861084,-0.005594318404459222,-0.006041306761439538,0.01358638606022133,0.007411003112792969,0.005309549625962973,0.005226559471338986,-0.09353784483857454,0.18590410865843296,-9.80911823987961
14.8,2.299999952316284,140.0,23.328208923339844,1.805052638053894,-79.7828104028083,40.45891764365725,268.50918990039827,-0.010287324897944929,0.0024473066441714764,-0.9842982292175292,0.17619666457176208,-0.009611766427688524,0.0018585483720164387,0.01568813037580507,-0.0105256550014019,-0.001150071038864553,-0.0033003778662532572,-0.10007098456844687,0.17846984904259444,-9.808632336258887
15.0,2.0999999046325684,139.0,23.314435958862305,0.4930099844932556,-79.78281039291042,40.45891764629976,268.51079100036617,-0.010224854573607443,0.002391154877841473,-0.9842995405197144,0.1761934757232666,-0.00799077444435125,-0.002479429455749231,0.016404957623020376,0.012834295630455015,-0.003494570730254054,0.0031522989738732576,-0.1234870641399175,0.15972014905884865,-9.807614336013792
15.11,1.8999999761581416,138.0,23.33321762084961,0.2385532110929489,-79.78281055334298,40.45891762554668,268.5130538311005,-0.010174822993576528,0.002355256350710988,-0.9842992424964904,0.17619875073432922,-0.011959680223144321,0.002651056002410684,0.01655413473147661,0.0021592273842543364,-0.025620069354772568,0.007112117018550634,-0.07832878011278809,0.1150528484210372,-9.810394102334977
15.3,1.7999999523162842,138.0,23.20050048828125,1.8448115587234497,-79.78281080482185,40.458917627807004,268.5126256313324,-0.01009293831884861,0.002367859007790685,-0.9842872023582458,0.17627039551734924,0.0012174244005656607,-0.0040036787005747095,0.0141086882135741,0.0026131118647754192,-0.03695927932858467,-0.018815824761986732,-0.09692692757584156,0.15327414197847247,-9.818243404626848
15.4,1.7000000476837158,138.0,23.314435958862305,0.5486723780632019,-79.78281080561311,40.45891763262343,268.5140156116486,-0.01007096003741026,0.0023661467712372537,-0.9842843413352966,0.1762874573469162,0.0035073472529961497,-0.0065444438983039786,0.013056354202122328,0.059450320899486535,-0.007055349182337522,0.007342751137912273,-0.08525930210016669,0.06475245899520815,-9.81047479391098
15.6,1.600000023841858,138.0,23.33446884155273,0.2465049922466278,-79.78281095941266,40.458917613358274,268.51601570510866,-0.010079772211611273,0.0023901958484202623,-0.9842780828475952,0.17632171511650085,-0.0050665113067651,-0.0027879322872370192,0.015677759819381992,-0.005054878536611795,-0.006173124071210623,0.011204006150364876,-0.12441467922180892,0.14827656330540778,-9.803368088006971
15.7,1.5,137.0,23.31694030761719,0.6997560858726501,-79.78281095389066,40.458917617181136,268.51753860378267,-0.0100929606705904,0.002382261911407113,-0.9842871427536012,0.1762707233428955,-0.006936244225931508,-0.0035398239741707576,0.015759453627894975,-0.005756354425102472,0.0039047948084771633,-0.004871000535786153,-0.10233245003968476,0.19593193732202047,-9.802343071103095
15.9,1.399999976158142,138.0,23.14165306091309,4.500703811645508,-79.78281109384795,40.45891764801957,268.5166552629471,-0.0100537920370698,0.002336096949875355,-0.9842852354049684,0.1762840449810028,-0.011749585309476326,-0.007577188820788756,0.01373615377086893,-0.0019166723359376192,-0.018321173265576363,-0.006316947285085917,-0.10313101524487138,0.1599623516947031,-9.815483518838882
16.0,1.2999999523162842,138.0,23.12287330627441,5.375399112701416,-79.78281126486002,40.458917652148926,268.51604526901247,-0.01005771104246378,0.002356927143409848,-0.9842768907546996,0.17633041739463806,-0.006431753131360153,-0.0063738091658433384,0.016029960732614174,0.00648087402805686,-0.005619852337986231,0.015363250859081743,-0.0617754176678136,0.131581565765664,-9.825614404678346
16.2,1.399999976158142,138.0,23.015195846557607,7.013464450836183,-79.78281125157152,40.45891767204854,268.5192690458298,-0.009902284480631351,0.002397823380306363,-0.9842745661735536,0.17635126411914825,-0.014565480008883774,-0.0072019231853258855,0.020120431606455928,-0.05720902234315872,-0.08167928457260132,-0.05768784135580062,-0.13386237272992732,0.19256207730621105,-9.817238852977754
16.3,1.2999999523162842,136.0,22.95760154724121,8.556108474731445,-79.78281141510097,40.458917666922936,268.51670270824434,-0.009445398114621641,0.0025065469089895487,-0.9842695593833924,0.17640317976474762,-0.004556062552416079,-0.0055162270457280605,0.01776566133210809,-0.057863056659698486,-0.042290594428777695,-0.018968181684613228,-0.10846054217778146,0.14229738330468536,-9.801527384519575
16.5,1.2999999523162842,134.0,22.83990859985352,11.172242164611816,-79.78281154788627,40.45891768783545,268.5142045583725,-0.008327751420438291,0.002606607973575592,-0.9842779040336608,0.17641152441501615,-0.012161327068860176,-0.005225489564312179,0.012324107533884328,-0.012965823523700236,-0.1594037115573883,-0.03637323155999184,0.04098025658167899,0.10888608243316412,-9.838774148225783
16.6,1.2999999523162842,133.0,22.773550033569336,12.54789924621582,-79.78281154386528,40.45891769698843,268.51559143924715,-0.007455661892890929,0.002549469703808427,-0.9842708706855774,0.17649002373218536,-0.0046534451385651975,-0.00468610915532155,0.01719103418857731,0.016579834744334214,0.1402677744626999,-0.08784878998994827,-0.03361254558898509,0.3694733144715429,-9.838573004007339
16.8,1.2999999523162842,132.0,22.62330436706543,15.90354824066162,-79.78281165450213,40.458917703608925,268.5103382434845,-0.005602883640676737,0.002969480585306883,-0.9842979311943054,0.17640133202075958,0.00556369350066835,-0.0052653822395691725,0.01290147623751647,0.04261104390025139,0.033681720495224,0.03698669373989105,0.06550488144624979,0.22450223699212074,-9.851195973157882
16.9,1.399999976158142,131.0,22.55819702148437,17.088361740112305,-79.7828116482788,40.45891771290147,268.51164191627504,-0.0049669393338263035,0.002901146654039621,-0.984263002872467,0.17661669850349426,-0.010979824671709026,-0.008968511413885258,0.014756335010738334,0.01300358958542347,0.005760580766946077,0.08460764586925508,-0.13622472094371915,-0.033991728387773035,-9.864457458257677
17.1,1.399999976158142,128.0,22.39417839050293,20.865455627441406,-79.78281179540247,40.45891774731745,268.51041870975496,-0.004187031649053097,0.0023546726442873482,-0.9843126535415648,0.17636772990226746,-0.012254544293442042,-0.011440957687030259,0.034233983292556884,-0.010875404812395573,-0.003721722867339849,0.06122491136193276,-0.0407900210749358,-0.03392123746220023,-9.843450751304626
17.2,1.399999976158142,126.0,22.30152702331543,22.71026611328125,-79.78281179592248,40.458917768235324,268.5145937767029,-0.0019332441734150048,0.0002714957809075713,-0.984379231929779,0.17605061829090118,0.0009402132810525564,-0.032417153826653645,0.04644643111718578,0.061796475201845176,0.1093645915389061,-0.02123327553272248,-0.14012872410938146,0.21642291985452167,-9.96801983356476
17.4,1.5,124.0,22.137508392333984,26.84518814086914,-79.78281197860258,40.458917818991104,268.5197831954956,0.0086212158203125,-0.016447573900222782,-0.9834238290786744,0.18036848306655884,0.002397678765422197,-0.06943142730527342,0.12137954452149065,-0.17537742853164673,0.32527270913124084,-0.1400844156742096,-0.15643426967784765,0.15357996962964535,-10.271831803321838
17.5,1.600000023841858,123.0,22.054872512817386,28.30036354064941,-79.78281228988956,40.45891756393154,268.5058011379242,0.006657190155237913,-0.031438212841749184,-0.9828175902366638,0.18176054954528809,0.03565770489488778,-0.09781978663386856,0.1780655941256616,0.014469108544290066,0.2319343239068985,0.005324861500412226,0.1146643557585776,-0.07622230240143836,-10.60914948821068
17.7,1.600000023841858,124.0,22.29526710510254,22.81363868713379,-79.7828124965213,40.458917784634686,268.56108492279054,0.004640941042453051,-0.031156279146671295,-0.9821296334266664,0.18555109202861786,0.061941799058028074,-0.13600923611591142,0.3432548425927768,0.12810838222503662,-0.3733314573764801,0.03657502308487892,0.5015518661588431,-0.06393800124060363,-10.741276681423187
17.8,1.7000000476837158,123.0,22.37790298461914,20.706418991088867,-79.78281283874219,40.45891822041725,268.57460862064363,0.0018080477602779863,-0.012700103223323822,-0.9823167324066162,0.18678708374500275,0.043653900509727436,-0.18833864715945972,0.30582789894828066,-0.04043372720479965,-0.323496550321579,-0.0435890220105648,0.14740239542908967,-0.0415842237090692,-9.848446612358094
18.0,1.7999999523162842,123.0,22.312795639038086,21.636775970458984,-79.78281375384323,40.45891896995556,268.57337540054317,-0.007186209317296743,0.013222630135715008,-0.982251226902008,0.18696555495262146,0.07285176217199772,-0.2271614038614225,0.1313304540391567,-0.0954415425658226,-0.0683642029762268,-0.0545106865465641,0.07909270970150829,0.05833073156420144,-9.464659935235977
18.11,1.7999999523162842,123.0,22.310291290283203,21.73219871520996,-79.78281392452503,40.45891912792332,268.5830705728531,-0.012330822646617893,0.01635727658867836,-0.9822798371315002,0.18629755079746246,0.06624755981618745,-0.21094752808596168,0.0560387338296704,-0.07891128957271576,0.03858690708875656,-0.03419005498290062,-0.16582763889804486,0.07109345373697579,-9.165580117106439
18.3,1.7999999523162842,119.0,22.230159759521484,23.29074668884277,-79.78281434983037,40.45891955996784,268.6099088754654,-0.01107201911509037,0.010857869870960712,-0.9827190041542052,0.1844533383846283,0.08611427178940498,-0.15773843600135054,-0.00404158645507215,0.2277348190546036,0.08874063938856125,0.12862847745418549,-0.1154590745922178,0.14557230829261245,-9.171529659032824
18.4,1.8999999761581416,120.0,22.161296844482425,26.01820373535156,-79.78281448954594,40.4589196595336,268.60818212890626,-0.003960351459681989,0.0047929678112268465,-0.9830432534217834,0.18326878547668451,0.07003306065421401,-0.14303405419355486,-0.040092462544646566,0.1415906548500061,0.231148049235344,0.013825797475874424,-0.05675818230025473,-0.024473722111433744,-9.38464839041233
18.6,1.8999999761581416,121.0,22.20261573791504,23.322553634643555,-79.78281517618021,40.45891986730759,268.60913628005983,-0.0018057185225188726,0.00016181849059648812,-0.9835689067840576,0.1805240511894226,0.05165796333946867,-0.1117268154578446,0.03315235886711103,-0.014558686874806881,0.04051031917333603,0.08625243604183197,0.045854705683887005,-0.07229129697661847,-9.759066658616069
18.7,1.8999999761581416,123.0,22.157541275024414,24.68230628967285,-79.78281527102965,40.458919940476115,268.6126415100098,-0.004849437158554792,0.0009255733457393943,-0.983772873878479,0.17935092747211456,0.04517452300683123,-0.1042357486576215,0.032340033508017035,-0.048118732869625085,-0.03890163078904152,0.04793281480669975,0.019986219357233496,-0.017780400649644434,-9.855849187374117
18.9,1.8999999761581416,126.0,22.05988121032715,26.36808204650879,-79.78281561944014,40.458920052735905,268.6369720067978,-0.005506569519639015,0.007210087031126021,-0.9839047193527222,0.17846369743347168,0.04762314504603593,-0.06670377707555182,0.08445545851730467,-0.050676409155130386,-0.04230838641524315,0.041214615106582635,0.04964313497766853,0.07322747274767608,-9.87302947640419
19.0,1.8999999761581416,127.0,22.157541275024414,24.85724449157715,-79.78281576782872,40.4589200756103,268.6485049095154,-0.004450704902410507,0.008254311978816986,-0.9837575554847716,0.17925746738910675,0.033907632249589995,-0.055482307982876025,0.10754074621308976,0.003185964887961745,0.0235428586602211,-0.02929355576634407,-0.10220465183258057,-0.009514383743517102,-9.872673965692519
19.2,1.8999999761581416,128.0,22.150028228759766,24.21315193176269,-79.78281585892701,40.458920131185714,268.670841750145,-0.0070747802965343,0.003133115591481328,-0.983080506324768,0.183010995388031,0.0047786625745601646,-0.02811007653934914,0.11303523269325814,-0.12266796827316286,0.0009532922413200141,-0.11136256158351898,-0.0057679927325807534,-0.21159854667261244,-9.876072367429732
19.3,1.7999999523162842,130.0,22.04986572265625,26.30446815490723,-79.78281605141996,40.45892012834621,268.6739923324585,-0.007899805903434753,0.0006979097379371524,-0.9827713966369628,0.1846553087234497,0.02640228116017416,-0.023403611492285942,0.09120929642978544,0.10528549551963806,-0.0007510293507948518,-0.013337163254618643,0.03721171695739031,0.08579597599804402,-9.748967347741127
19.5,1.7999999523162842,131.0,22.04110145568848,26.94061088562012,-79.78281623136645,40.45892016591088,268.6873140897751,-0.002380996476858855,0.0027236302848905325,-0.9826139807701112,0.18562567234039307,0.02298527783774856,-0.0007806957134060479,0.11014368597137954,0.12225182354450224,0.0313277393579483,0.03679018095135689,0.09725505687296393,0.30999613121151925,-9.878542231321337
19.6,1.7999999523162842,133.0,22.491838455200195,17.52570915222168,-79.78281624168385,40.45892015146053,268.6975452270508,-0.00015833016368560493,0.00643905671313405,-0.9827429056167604,0.1848646849393845,0.014189800747895857,0.02269453036631516,0.06857380579345976,-0.008365103043615818,-0.1414649337530136,0.02072612382471561,0.020547746205702426,-0.10607750030234456,-9.327476069927217
19.8,1.7999999523162842,132.0,21.823244094848643,31.14709854125977,-79.78281613287689,40.45892011745517,268.6964157190323,0.00020736567967105657,0.0045585110783576965,-0.9831671118736268,0.18265147507190704,0.027043137014560552,0.02720871025410052,-0.044406129187693516,0.09015263617038727,0.15523025393486026,0.10978928953409196,-0.034726376216858625,-0.059543293341994284,-9.015457533001902
19.9,1.7999999523162842,135.0,21.804462432861328,31.616252899169922,-79.78281613448473,40.45892008478475,268.69480758571626,-0.0006125428481027484,-0.0029041185043752193,-0.9834730625152588,0.18103039264678955,0.00940958682042517,0.03582994143452678,0.02360027949991323,-0.08670778572559358,0.10084117203950882,0.06855671852827072,-0.03147706934250892,-0.21298024373129013,-10.27783104658127
20.1,1.7999999523162842,137.0,21.649208068847656,35.69551467895508,-79.78281611348031,40.4589200272657,268.7153500881195,-0.00013131124433130026,-0.0070629334077239045,-0.98384028673172,0.17890900373458862,-0.013908976569171715,0.05078729624938437,0.3163329799000864,-0.030426653102040287,-0.08518552780151367,-0.13370974361896515,0.1354445744678378,-0.06589707429986448,-10.938703240156174
20.2,1.7999999523162842,139.0,21.632932662963867,36.32370376586914,-79.78281608646198,40.4589199916452,268.75621825122835,0.0015608735848218205,-0.0008572665974497795,-0.9840192198753356,0.17805364727973938,-0.006628628595245632,0.05043689300323278,0.5054150933618655,0.04962871968746185,-0.1291118711233139,0.024306483566761017,0.16534946456551552,-0.02396085734479129,-11.680638892650606
20.4,1.7999999523162842,140.0,21.415075302124023,39.11477661132813,-79.78281604681291,40.45892004703649,268.8732041683197,0.003689207835122943,0.006330298259854318,-0.9843592643737792,0.17602060735225675,-0.005000777815546715,0.03598702047308064,0.95300265951964,0.002715976210311055,0.02919293940067292,0.02993827685713768,-0.05318524117581547,-0.08506060640327633,-11.93533074259758
20.5,1.8999999761581416,141.0,21.415075302124023,39.71911239624024,-79.78281611410573,40.45892005402415,268.9659001197815,0.004458786454051733,0.004114561714231968,-0.9845083951950072,0.17523249983787534,0.0029458400212017,0.037590043294615134,1.2041082729873536,-0.042101848870515816,0.057641994208097465,-0.06333640217781067,-0.14448012149892747,0.012200800180435182,-12.39721400141716
20.6,1.8999999761581416,141.0,21.410066604614254,39.99742126464844,-79.78281611845979,40.45891999918304,269.09893709087373,0.004667045548558235,0.0008844558033160865,-0.984485924243927,0.1753995418548584,0.018541131563331908,0.05195126289594262,1.4567370836378069,0.003339623799547553,0.04844345897436142,-0.15727980434894562,-0.048176826881244784,0.1508332035318017,-12.328906828165055
20.91,2.0,141.0,21.281105041503906,43.00319290161133,-79.78281630946016,40.45891989215299,269.60787444972993,-0.0007069556741043925,-0.007361749652773142,-0.9845857024192808,0.17474676668643951,0.06227843492112348,0.07539756828684391,2.17526434977135,-0.10743267834186554,-0.027304138988256454,-0.00628080265596509,0.116099308161065,0.07063424631021918,-12.341232758760452
21.01,2.0,142.0,21.32743263244629,40.951637268066406,-79.78281645644891,40.4589199824847,269.76789825820924,-0.00754066649824381,-0.009415238164365292,-0.98448383808136,0.1750601828098297,0.07960019533003501,0.053027351637035716,2.3777313755337586,-0.15017135441303253,0.03606656938791275,0.0434185191988945,0.09965586880221963,0.054351655631326136,-12.404989628791812
21.1,2.0999999046325684,143.0,21.281105041503906,43.01909637451172,-79.78281650912227,40.45891994587709,270.0178831782341,-0.014879773370921612,-0.007675222121179105,-0.9842438101768494,0.17602264881134033,0.08770329588205893,0.07001441585679583,2.6123291791673755,-0.16808567941188812,-0.12244831770658493,-0.08316683769226074,0.21793555799871686,0.08836140532046557,-12.211142735481262
21.3,2.200000047683716,139.0,21.537776947021484,35.49671936035156,-79.7828166379962,40.45892010031025,270.4669676836729,-0.026991240680217743,0.013994619250297543,-0.9831178784370422,0.18043000996112826,0.08807021357786697,0.047302138351694514,2.9604725911404635,-0.06304610520601273,-0.3813691437244415,-0.1240949034690857,0.12290367647074164,0.00471938825212419,-12.196397227048873
21.4,2.4000000953674316,135.0,21.00189781188965,33.11118698120117,-79.78281654796322,40.45892004839399,270.77041434907915,-0.0285683311522007,0.027319123968482014,-0.9824331402778624,0.182380959391594,0.08671508374728862,-0.022854239863853938,3.0943266704681256,0.13513785600662231,-0.10675930231809616,-0.09611938148736954,-0.2330255039781332,0.3184563944488764,-11.272579253911973
21.5,2.4000000953674316,132.0,21.077022552490234,31.822999954223643,-79.78281656368316,40.45892016818678,270.99657934570314,-0.020158261060714718,0.02531852200627327,-0.9824119806289672,0.1839006245136261,0.060931100715156186,-0.10028623268697424,3.094889945526832,0.15046769380569458,0.2294958084821701,-0.0588521733880043,-0.3472443567216397,0.2547343701682985,-10.728914498090743
21.7,2.5999999046325684,120.0,21.05198097229004,32.75335693359375,-79.78281624701894,40.45892002906817,271.6237794723511,-0.005247449036687613,-0.003387003904208541,-0.9824466109275818,0.18643994629383087,-0.04902006355273796,0.0484299209968351,3.1604953252023065,0.08154703676700592,0.2785155475139618,0.0795309916138649,-0.03180169031023978,-0.05747585493139923,-10.064599463939668
21.8,2.700000047683716,125.0,21.15089225769043,30.10541534423828,-79.78281621893667,40.45892007637681,271.8724306192398,-0.002882219385355711,-0.012337524443864822,-0.982376217842102,0.18648454546928409,-0.054079931861777036,0.13166944867214445,3.12118707658153,0.0889994278550148,0.09229167550802232,0.0984642207622528,0.043685945989564066,0.20714263943955305,-9.979952831268314
22.0,2.799999952316284,120.0,21.71556663513184,31.47312164306641,-79.78281606556298,40.45892004880622,272.45969217681886,-0.003888119012117386,-0.004803814459592104,-0.9828547835350036,0.1842778325080872,-0.04480793771532664,0.1372948997303544,3.156046352215308,-0.08583556115627289,-0.21223339438438416,-0.0227341391146183,-0.09395504367537796,0.13976552065461875,-10.143913435935977
22.2,2.799999952316284,119.0,21.83952140808105,28.483253479003906,-79.78281585297638,40.458920007579174,273.093196805954,-0.019161472097039226,-0.001465223147533834,-0.9829002618789672,0.18313342332839969,-0.00826080661838477,0.020446092630731688,3.174660927569973,-0.0696026086807251,0.08373360335826874,-0.10274037718772888,-0.1237465708795935,0.14351424369961024,-9.918601505756376
22.3,3.0,120.0,21.994773864746094,25.35820770263672,-79.78281590930249,40.458919997289854,273.406157907486,-0.01952676847577095,-0.006895411293953657,-0.9824396967887878,0.18542802333831787,0.012853546077016371,-0.0014292748763731894,3.129343345188909,0.03889534994959831,0.03146044164896012,-0.05812013521790505,-0.14979649219661953,0.11321492236107587,-9.5926092928648
22.41,3.0999999046325684,120.0,21.799455642700195,29.42951583862305,-79.78281577771746,40.45892002587762,273.7161590423584,-0.015758926048874855,-0.0077123851515352735,-0.9822168350219728,0.18692876398563385,-0.001752685353204342,0.029569368136533037,3.0750204572620365,0.11311422288417815,-0.044131070375442505,-0.019749682396650314,-0.0018263732409104707,0.2275262342020869,-9.365389416217806
22.6,3.2000000476837163,122.0,21.902122497558594,27.24277687072754,-79.78281576188087,40.45892026486096,274.2520410385132,0.004658855963498354,0.0006161872879602015,-0.9824846982955932,0.18628403544425964,-0.09210303758095366,-0.03289204555431089,2.9377039464561836,0.14211001992225647,-0.05383275821805,0.03862062469124794,-0.14333752987906334,-0.033384988401085135,-9.397410523295402
22.8,3.299999952316284,125.0,21.749372482299805,30.28035545349121,-79.78281534890692,40.458920203958115,274.8292819824219,0.011302254162728786,0.002013723598793149,-0.98251074552536,0.1858518272638321,-0.18507007132629225,-0.05955266317833194,2.79724826912361,0.03845501318573952,-0.01262184139341116,0.13045091927051544,-0.04810337123461069,-0.2374678712524473,-9.381909554600718
22.9,3.4000000953674316,134.0,21.793193817138672,28.77746963500977,-79.78281522414535,40.45892031138376,275.1073910560608,0.009489352814853191,9.490243246546015e-05,-0.9825167059898376,0.1859326958656311,-0.20984572223786727,-0.08061619840033987,2.755581481615038,-0.07146863639354706,0.08925467729568481,0.06758657842874527,-0.138730837572366,-0.27685155473649503,-9.386016054153444
23.0,3.4000000953674316,141.0,21.82574844360352,28.483253479003906,-79.78281498012166,40.458920196951134,275.57985418701173,0.008575150743126871,-0.002672733971849084,-0.9825639128684998,0.18570812046527865,-0.2008394484586632,-0.08543242596866052,2.7924968944438,0.02849426120519638,0.04730680584907532,-0.011590825393795969,-0.17200803620740773,-0.1595483505539596,-9.361711517572404
23.2,3.5999999046325684,151.0,21.779422760009766,28.91264915466309,-79.78281473185073,40.45892051628551,276.1316568222046,0.012185581028461456,-0.010147676803171636,-0.9821200966835022,0.18758636713027954,-0.22695166250798984,-0.09732527142858892,2.72078239080114,0.008022940717637539,0.009779783897101879,-0.14886099100112915,-0.05210093441884965,-0.12029816631227733,-9.443242753744126
23.3,3.700000047683716,156.0,21.67550277709961,31.56854248046875,-79.78281447775984,40.45892036713792,276.5430342521668,0.016609745100140568,-0.0018683720845729113,-0.982089340686798,0.1876733899116516,-0.2296336175039245,-0.08116528870626986,2.7496315160321205,0.20750124752521515,-0.2368967682123184,-0.04652911052107811,-0.04336243964731693,-0.235082700625062,-9.515187479853633
23.5,3.799999952316284,169.0,21.706802368164066,30.82902717590332,-79.78281419726059,40.45892038674017,277.2037870254517,0.02613448351621628,0.016303351148962975,-0.9824644923210144,0.18388815224170685,-0.2894504478706158,-0.18784877607520226,2.770689356579102,0.010204834863543507,-0.0965566784143448,0.07196446508169174,-0.3321712945774198,-0.3184416667744517,-9.644302187561989
23.7,3.9000000953674316,174.0,21.516490936279297,34.71744537353516,-79.78281409076558,40.458920562884,277.4811360206604,0.028836190700531006,0.01805306226015091,-0.9827741384506226,0.1816523522138596,-0.2838478781099042,-0.22518370687165065,2.7335176261840823,0.0484822690486908,0.05194083601236344,0.06546077877283096,-0.21389354227110746,-0.23382448945194484,-9.494480150341989
23.8,4.099999904632568,180.0,21.70179557800293,31.234567642211914,-79.78281378227967,40.458920852903034,278.13848322296144,0.028895951807498925,0.0033759763464331627,-0.9834957718849182,0.17857685685157776,-0.2630089582097793,-0.20218509636508114,2.7609946223242656,-0.117871031165123,0.16919511556625366,-0.11836162954568866,-0.1683211109228432,-0.1371132967248559,-9.599945209622383
23.9,4.099999904632568,183.0,21.71431541442871,29.739633560180664,-79.78281377399877,40.45892102385631,278.4150325622559,0.027482755482196808,-0.003459928324446082,-0.9837155342102052,0.17758525907993314,-0.22695574117227565,-0.16938747119026273,2.7501962859189533,-0.1182500571012497,0.01685304567217827,-0.04035130515694618,-0.09605867086909713,-0.2914515588618815,-9.648779985308648
24.1,4.199999809265137,192.0,21.55280113220215,34.168773651123054,-79.78281342271133,40.45892113293253,279.0711604919434,0.02018541470170021,-0.001115086954087019,-0.9839577674865724,0.17725276947021484,-0.1748255381966656,-0.14282131340220794,2.7655845643339716,-0.04269200563430786,-0.0916820541024208,0.12971559166908264,-0.13861304358579218,-0.4649181099236012,-9.683591383695603
24.2,4.300000190734863,191.0,21.480182647705078,35.09912872314453,-79.782813459513,40.45892131240379,279.3488103713989,0.018942274153232568,0.004928936716169119,-0.9839199781417848,0.17753459513187408,-0.1414226822964154,-0.1789671787759608,2.7910585080756247,0.06142357736825942,-0.09463610500097276,0.002804926130920649,-0.08588507294654847,-0.2378453090228141,-10.032274886369708
24.4,4.300000190734863,193.0,21.74812126159668,29.83505630493164,-79.78281328334573,40.458921206820605,280.0499278869629,0.0214013047516346,0.01038195379078388,-0.9836851358413696,0.1783192753791809,-0.1371808037843844,-0.21595515166406765,2.9446196247764247,0.09739842265844344,-0.015398696996271609,0.013847172260284424,-0.10759752055630087,-0.4452542160451413,-10.151724146604536
24.6,4.300000190734863,194.0,21.594118118286133,33.11913681030273,-79.78281333866556,40.45892127129135,280.68914812469484,0.020238230004906654,0.009368221275508406,-0.9832762479782104,0.1807499378919601,-0.12828861568875916,-0.17770436417232255,2.953674053447372,-0.061396680772304535,-0.03215442970395088,-0.05286739766597748,-0.013322165950667113,-0.3749091054126621,-9.914569265842438
24.7,4.300000190734863,195.0,21.67174530029297,30.900592803955078,-79.78281341713733,40.458921381091386,280.98506372833253,0.018577352166175842,0.008885540068149567,-0.983216404914856,0.1812774091959,-0.10622816911677056,-0.1698216967107413,2.9588027341552325,-0.05442173406481743,0.006415791343897581,0.02654273994266987,0.012539337978232652,-0.39194204460829496,-9.797782827615741
24.8,4.300000190734863,197.0,21.6817626953125,30.72565460205078,-79.78281350925037,40.45892139609058,281.31397932434083,0.015778491273522374,0.0077535444870591155,-0.9832749366760254,0.18127700686454773,-0.07997441448655063,-0.15929899770903092,2.9564748682299196,-0.05458521470427513,0.04364026710391045,-0.030259739607572562,0.08127246033400297,-0.2325354342162609,-9.687568075060843
25.0,4.199999809265137,197.0,21.580345153808594,32.093360900878906,-79.78281377919048,40.45892144563351,281.94575708770753,0.01441241055727005,0.003665926167741418,-0.9833475351333618,0.18112564086914065,-0.011382225118298523,-0.14400593819111376,2.9777812107353023,0.09782131761312483,0.09474733471870422,-0.01999751664698124,-0.08620794888585806,-0.212813780810684,-9.90883665561676
25.2,4.199999809265137,197.0,21.5991268157959,31.059629440307607,-79.78281389635845,40.45892152117189,282.24399393463136,0.015032395720481873,0.0024050245992839336,-0.9832988977432252,0.1813605576753617,-0.027355588791839504,-0.11993565119666545,2.984324169753672,0.003717829706147313,-0.029359564185142517,-0.12452667951583862,0.03744881698396057,-0.178012085147202,-9.814013528823851
25.3,4.199999809265137,198.0,21.630428314208984,31.210712432861328,-79.78281408235121,40.458921557118465,282.8779079284668,0.011539544910192491,0.0067073507234454155,-0.9834112524986268,0.18089812994003296,-0.02234415508005911,-0.11891030751650207,3.0023864672599045,-0.008815263397991656,-0.027737721800804138,-0.06365218013525009,-0.03849030659068376,-0.2143855489231646,-9.696095069646837
25.5,4.199999809265137,199.0,21.547792434692386,33.53263092041016,-79.78281418665088,40.45892162614288,283.17773931884767,0.009195941500365734,0.007743195164948702,-0.9833149909973145,0.1815134882926941,-0.019659802590945533,-0.13332378612575735,2.991897538645293,0.03145970031619072,0.03865280747413635,-0.025615369901061055,-0.05720376754179597,-0.2278799907490611,-9.683703065514567
25.6,4.300000190734863,199.0,21.534019470214844,33.03166961669922,-79.78281434937782,40.458921575254,283.50346678161617,0.010089993476867676,0.005448716692626475,-0.9832243323326112,0.1820398271083832,-0.006036134895050257,-0.13931618085014502,2.982639774116868,0.08812679350376129,0.14684508740901947,0.11209850758314133,-0.189480064753443,-0.4624748508632183,-9.989856845140457
25.7,4.300000190734863,199.0,21.58159828186035,32.68178939819336,-79.78281451100713,40.4589217366995,284.1041433181763,0.011565147899091244,-0.002555374056100845,-0.983025312423706,0.1830875128507614,-0.04789681115342903,-0.11195110169706536,3.02790983465443,0.034655552357435226,0.04243287816643715,-0.11462730914354324,-0.05639983020722866,-0.2876449483819306,-9.94521101474762
25.9,4.199999809265137,197.0,21.58660697937012,31.47312164306641,-79.78281470842612,40.458921785052155,284.7355253067017,0.016924088820815086,0.0058825057931244365,-0.9827471375465392,0.18408435583114624,-0.08527193372089459,-0.09581169392746887,3.0646761492248213,0.043083984404802315,-0.1256607621908188,-0.06048952415585517,-0.04428082709200682,-0.29598792012780906,-9.964657684564589
26.1,4.199999809265137,198.0,21.683013916015625,30.80517196655273,-79.78281487483817,40.45892183451994,285.0551530685425,0.015175112523138525,0.013543793931603432,-0.982800841331482,0.1835453510284424,-0.09215904124240988,-0.12780809476743876,3.0720093334729732,0.022395314648747444,-0.11090462654829024,0.05006692185997963,-0.00272411270532757,-0.3671269364655018,-10.014031573534012
26.2,4.300000190734863,199.0,21.51899528503418,34.431182861328125,-79.78281498921774,40.458922000160825,285.67266958618166,0.013709863647818564,0.015040948055684563,-0.9830448627471924,0.1822328120470047,-0.08236480222609305,-0.1759642855112614,3.0871585566311066,0.044039871543645866,0.07790697365999223,0.03816760331392288,-0.13273230694234373,-0.4228077053278685,-9.859562169313431
26.4,4.300000190734863,199.0,21.58785820007324,31.520832061767567,-79.78281497924465,40.45892218532587,286.2971603240967,0.017516741529107094,0.008850641548633575,-0.9832453727722168,0.1812278330326081,-0.13651974900748426,-0.12604482193614938,3.0799138344695414,-0.09322932362556458,0.007829301990568638,0.09090284258127213,-0.030043131066486237,-0.4734382340312005,-9.902534526586534
26.5,4.400000095367432,199.0,21.604135513305664,31.385652542114247,-79.78281506133546,40.458922167227904,286.6177112426758,0.013884571380913258,0.007875030860304829,-0.9833539128303528,0.1809984594583512,-0.13194179129664568,-0.09421455375217848,3.064206291087986,-0.07581956684589386,0.03638667240738869,0.012164733372628687,0.070398667473346,-0.43356142926961183,-9.749623405337337
26.7,4.5,200.0,21.576589584350586,31.60034942626953,-79.78281507066481,40.458922221764134,286.9235793914795,0.011724172160029413,0.008708707056939602,-0.9831843972206116,0.18203085660934448,-0.1183200241399626,-0.08263466070908025,3.045591674695648,-0.04015316814184189,0.028489783406257636,-0.04189679026603699,0.002516595935449004,-0.2537327238544822,-9.628021785020831
26.8,4.5,200.0,21.58660697937012,31.00396728515625,-79.78281508827227,40.458922307592616,287.55219000244136,0.01865413226187229,0.006430406589061022,-0.9830755591392516,0.1821352839469909,-0.11717471033807544,-0.08938315557219109,3.0388118991242488,0.14172010123729706,0.09967583417892456,-0.02621115371584893,-0.08045841827988624,-0.3637935484573245,-9.727334988713263
27.0,4.5,201.0,21.50397109985352,33.05552291870117,-79.78281510697315,40.458922371221455,288.1776134338379,0.0241272896528244,0.004732148721814157,-0.983436405658722,0.17957815527915955,-0.15396373735043695,-0.05565921385079745,3.0203789113913166,0.07519733905792236,-0.03699271380901337,0.05545458942651749,-0.0041465164348483095,-0.2777518432214856,-9.74174018919468
27.1,4.5,203.0,21.5064754486084,33.71552276611328,-79.78281510737934,40.45892241730464,288.4806453552246,0.025312840938568115,0.004596767481416464,-0.9834749102592468,0.17920757830142975,-0.1569684270779583,-0.054947437318176216,3.034089044726038,0.0864877924323082,0.03612242266535759,0.08636689931154251,-0.06752862105611712,-0.5224308114498853,-9.86921007514
27.2,4.5,205.0,21.427595138549805,35.01961135864258,-79.78281511790894,40.45892246509637,288.7857276763916,0.02543770708143711,0.004549764562398195,-0.9834696054458618,0.17922011017799375,-0.15779941278817305,-0.055568965718175725,3.0614525632127463,0.06828732043504715,0.003023511730134487,0.012986451387405396,-0.10762161291204393,-0.4219465566426516,-10.020526660680767
27.4,4.400000095367432,206.0,21.534019470214844,31.4810733795166,-79.78281510978124,40.45892243637656,289.43059080505367,0.024692507460713387,0.008594762533903122,-0.9836545586586,0.17815788090229034,-0.1440636643084102,-0.046326486428089945,3.166318795014402,0.03624771907925607,-0.026603767648339268,-0.04676879197359085,0.02264493689406664,-0.3234275144711137,-10.24793189406395
27.6,4.5,207.0,21.576589584350586,30.80517196655273,-79.78281531577068,40.45892239580303,289.7502014007568,0.022978326305747032,0.009059019386768341,-0.9836854338645936,0.17819346487522125,-0.1289092227699392,-0.05651732814469319,3.1807258898427797,-0.02459608018398285,0.008365020155906677,-0.043855756521224976,0.013573676166124643,-0.4905288779363036,-10.149544304609297
27.71,4.599999904632568,207.0,21.629175186157227,30.2962589263916,-79.78281539813274,40.458922412342474,290.3911907043457,0.019409716129302985,0.004975298419594765,-0.9837284684181212,0.17854100465774536,-0.10451880490476884,-0.03209708684810715,3.2068087716309552,0.012129985727369784,0.033969540148973465,-0.035795170813798904,0.04294164111837745,-0.5913366664946079,-9.818069157600403
27.9,4.599999904632568,208.0,21.57158088684082,31.31408500671387,-79.78281549090211,40.45892233110175,291.02499311828615,0.028453946113586426,-0.0002665079664438963,-0.983145534992218,0.18059700727462769,-0.118908899606908,-0.0024320242431648265,3.119709354380986,0.1499488204717636,-0.010359362699091434,0.0995071679353714,0.014819082850590347,-0.24698125457391146,-9.673520724177363
28.0,4.699999809265137,209.0,21.53902816772461,32.053600311279304,-79.7828155976304,40.458922331585114,291.352656539917,0.03386077657341957,-0.0015866942703723907,-0.98280930519104,0.18148517608642573,-0.1392282969156969,0.004499806326681441,3.0838281768240883,0.06858459115028381,0.015791863203048706,-0.046358872205019004,0.2452154137194157,-0.6160955317318441,-9.437559260129927
28.2,4.699999809265137,209.0,21.56782531738281,31.250471115112305,-79.78281564594127,40.45892234805505,291.6598369445801,0.034690648317337036,0.00030137674184516067,-0.9828183650970459,0.18128597736358645,-0.17481811899761587,0.010743663000303563,3.04974533092327,-0.08511964976787567,-0.1456364244222641,0.04087429866194725,0.15804113935679198,-0.5840876905247571,-9.423338831663132
28.3,4.699999809265137,214.0,21.401302337646484,34.66178131103516,-79.78281549229071,40.458922237820225,292.30011480712886,0.0214808639138937,0.00989297777414322,-0.9830135703086852,0.18200309574604034,-0.13151340173720216,-0.02440267696680925,3.0308882447854177,0.033027879893779755,-0.01506589353084564,0.07251913845539093,-0.03775411929935217,-0.5796281287819147,-9.576932322978974
28.5,4.699999809265137,212.0,21.577842712402344,31.783241271972656,-79.78281560241597,40.45892215593537,292.9328433837892,0.02235744521021843,0.007774851284921168,-0.9825998544692992,0.18422089517116547,-0.12209611966707598,-0.02006170291462267,3.0839717555972097,0.018858740106225014,0.10563074797391893,-0.034827321767807014,-0.0074204912502318626,-0.6968895070999861,-9.91398337483406
28.6,4.699999809265137,216.0,21.437612533569336,33.548534393310554,-79.78281560162047,40.458922130205906,293.2413913574219,0.02643481455743313,0.004613440483808518,-0.9823452830314636,0.18514254689216614,-0.13344394843442753,0.007939768242366536,3.0886741459965337,0.11477958410978314,0.13052970170974731,-0.01375566516071558,0.13072936149314046,-0.5424258039146662,-9.918313822746278
28.7,4.699999809265137,217.0,21.542783737182614,31.98203468322754,-79.78281559632475,40.45892209218658,293.5506069030762,0.029763974249362942,0.0009141414775513114,-0.982252597808838,0.18518401682376864,-0.1494534352186478,0.039988997185580376,3.086407423278255,0.07364178448915483,0.13170023262500766,0.03500605374574661,0.22262414786964652,-0.5132570051774383,-9.814804072380069
28.9,4.699999809265137,221.0,21.39379119873047,34.77310562133789,-79.78281555657165,40.45892192590533,294.1871749725342,0.03122586198151112,-0.0070792785845696935,-0.9825344085693359,0.18330562114715576,-0.15483922318032112,0.10638161402276693,3.1265430510168533,0.05455944687128067,0.07935559749603271,0.0077482499182224265,0.056251566745340834,-0.5797640034556389,-10.021049401760102
29.0,4.699999809265137,224.0,21.510231018066406,31.616252899169922,-79.78281558205101,40.45892182564206,294.5127422180176,0.03261755406856537,-0.010495780035853386,-0.9828032851219176,0.1814490109682083,-0.1509592938380121,0.1220773198709924,3.159285961144042,-0.009639030322432518,0.08408500999212265,0.18345807492733,0.18931643407791854,-0.6481091105192901,-10.139675374031068
29.2,4.699999809265137,225.0,21.314910888671875,36.30780029296875,-79.78281564772618,40.458921740090005,295.14776724243166,0.03099745698273182,-0.00984488520771265,-0.983708918094635,0.1768023818731308,-0.12215741124972886,0.13682163883408188,3.1763186388384157,0.03432762995362282,-0.1339704692363739,0.07182571291923523,0.2534711523167789,-0.3431567875295878,-9.877694385051726
29.4,4.699999809265137,226.0,21.49896240234375,32.419384002685554,-79.78281580987269,40.45892159285786,295.7939578857422,0.02342313714325428,-0.0042905681766569614,-0.984488606452942,0.17382527887821198,-0.09079339060611127,0.08318721844916037,3.2048734208038634,-0.061820924282073975,0.012335884384810923,-0.09525612741708757,0.2974007901549339,-0.4122394843026996,-10.041663175821304
29.5,4.599999904632568,228.0,21.43260383605957,33.198657989501946,-79.78281589328601,40.45892155958814,296.1138927307129,0.021630553528666496,-0.0057206018827855604,-0.98456472158432,0.17358514666557312,-0.06797778532240736,0.06250053763919647,3.1906575998982185,-0.09047236293554306,0.02264658361673355,0.02083805948495865,0.12048704051412645,-0.2817813605256379,-9.733406737446783
29.6,4.5,228.0,21.430099487304688,32.39552688598633,-79.78281597721934,40.45892142677066,296.43671148681636,0.021432898938655853,-0.008260831236839294,-0.9845851063728333,0.17339149117469788,-0.0557651483770629,0.07537718758490995,3.16354724937627,-0.05527155101299287,0.05243198573589325,0.09679672867059708,0.11289526239037515,-0.3883389903232456,-9.639824389815331
29.8,4.5,229.0,21.45889663696289,32.252395629882805,-79.78281626655746,40.45892121519231,297.0750629272461,0.024748871102929115,-0.012297568842768669,-0.9841257929801941,0.17530742287635806,-0.0319403667300182,0.10402493281352512,3.091657095101493,0.040567975491285324,-0.055320821702480316,-0.05625177919864655,0.26190106485039005,-0.4651485267654061,-9.359405960440636
30.0,4.5,229.0,21.342456817626953,34.83672332763672,-79.78281640446701,40.45892099894622,297.7190124359131,0.020448565483093255,-0.0057632899843156355,-0.9836574792861938,0.17879247665405273,-0.051128025159780204,0.0905008938600626,3.1092821134707096,0.012116055935621263,-0.05779069662094116,0.02524137310683728,0.350014328956604,-0.4363647671788931,-9.56466252565384
30.1,4.5,230.0,21.35247230529785,35.01961135864258,-79.78281647723969,40.45892097304903,298.03151434326173,0.018766989931464195,-0.0012342080008238554,-0.9833190441131592,0.18091455101966852,-0.06386627635845228,0.06291849397089838,3.1375466640315377,-0.0872856006026268,-0.07770966738462448,0.012783217243850231,0.14063146588392555,-0.4996719863265753,-10.034720191955566
30.2,4.599999904632568,227.0,21.3987979888916,33.85070037841797,-79.78281653639499,40.45892095169046,298.3473846282958,0.018047619611024857,0.00014469817688222977,-0.9829369783401488,0.18305528163909912,-0.07373016510437225,0.03190423082251337,3.1788712384077287,-0.07787016034126283,0.06075737252831459,-0.1672811359167099,0.0425813475670293,-0.2407271640747785,-10.082077960968018
30.4,4.599999904632568,228.0,21.47266960144043,31.98203468322754,-79.78281667673595,40.45892075901066,298.9988223876953,0.024629386141896248,-0.006031355354934932,-0.9822804927825928,0.18569362163543696,-0.08085691105987798,0.05336697499918951,3.217298864665631,0.0010344026377424598,0.11980870366096495,-0.01946109160780907,0.1734670078754425,-0.5877282766252756,-9.997584525346756
30.5,4.699999809265137,227.0,21.594118118286133,29.64421272277832,-79.7828167171173,40.45892072934131,299.32022970581056,0.02406900748610496,-0.008505431935191154,-0.9823092818260192,0.1855175942182541,-0.1108697458330852,0.08550962708766965,3.2053336024669155,-0.024299869313836098,-0.021185968071222302,-0.0010342730674892664,0.20970784949138765,-0.6780861040949822,-9.817485605478288
30.7,4.699999809265137,230.0,21.44512367248535,31.4810733795166,-79.78281678279667,40.4589206818389,299.95461767578126,0.027665317058563232,-0.0078979367390275,-0.9822850227355956,0.1851714849472046,-0.09819908321800544,0.0724982242221251,3.130630661872389,0.11076156049966812,-0.003678001696243882,-0.07210788130760193,0.24165270522236826,-0.4208425292372704,-9.538302108049393
30.9,4.699999809265137,228.0,21.35247230529785,33.89841079711914,-79.78281683233871,40.45892061938585,300.281611618042,0.032564051449298866,-0.006554435007274151,-0.9822906851768494,0.1843955218791961,-0.12974356902487866,0.0577746754116409,3.1064194315644165,0.06590019166469574,0.017644360661506653,-0.005523675121366978,0.1821720319055021,-0.4038426633551717,-9.535407736301423
31.0,4.699999809265137,226.0,21.38001823425293,33.779136657714844,-79.78281694929022,40.45892055836335,300.920226272583,0.034187089651823044,-0.004382103681564331,-0.9825881719589232,0.18257206678390506,-0.1525776956708233,0.05088438552333262,3.0849776960926603,-0.050373319536447525,-0.03702378273010254,0.09252045303583144,0.2693466899916529,-0.5105982031300664,-9.709539572596553
31.1,4.699999809265137,226.0,21.430099487304688,32.26034545898437,-79.78281702387733,40.45892055938858,301.2299415435791,0.0270567499101162,-0.002995882881805301,-0.9831239581108092,0.18090446293354034,-0.13863477387260273,0.03955716313250919,3.103201544867619,-0.14982792735099792,-0.011709834448993206,0.037708580493927,0.2071616063453257,-0.591740782186389,-9.896870913505557
31.3,4.699999809265137,229.0,21.41632652282715,32.999862670898445,-79.78281712538015,40.45892047091996,301.86931913757326,0.017554450780153275,-0.005422404035925865,-0.9837466478347778,0.17861998081207275,-0.06948408670251438,0.02113605009092717,3.1289467702247262,-0.06650692224502562,-0.006856071762740612,-0.0604848861694336,0.011878773914650084,-0.27105687266215683,-9.829534378051758
31.4,4.599999904632568,224.0,21.34746551513672,34.82081985473633,-79.78281719895676,40.45892047459093,302.1823665466309,0.019643811509013176,-0.005679034162312746,-0.9837496280670166,0.17837761342525482,-0.056419087063689276,0.02730371443541261,3.1304780229779188,-0.02802969515323639,-0.023886127397418026,-0.032387297600507736,0.14070957189425826,-0.26649715907871724,-9.80735647380352
31.6,4.599999904632568,224.0,21.5352725982666,30.26445198059082,-79.7828173483952,40.458920483689155,302.8196803894043,0.02451309375464916,-0.002297670813277364,-0.9833818078041076,0.17987242341041565,-0.09053571451448224,0.01767420028487421,3.1551628758455235,0.025055564939975745,-0.05023614317178726,0.028127226978540417,0.10753891135565938,-0.5632746725901961,-9.828533334732057
31.8,4.599999904632568,223.0,21.378765106201172,33.564437866210945,-79.78281752332283,40.45892044243849,303.45891302490236,0.021221864968538284,0.0007868019747547804,-0.9830697178840636,0.1819972097873688,-0.09020277345592044,0.007905013922132886,3.1605509258779736,-0.02043065614998341,-0.0019708131439983845,0.007524714339524507,0.1881472650356591,-0.4686852882429958,-9.854227169752123
31.9,4.599999904632568,222.0,21.405059814453125,33.5723876953125,-79.78281759881787,40.45892044899029,303.77600973510744,0.01960987970232964,3.1453859264729545e-05,-0.9830029010772704,0.18254004418849945,-0.07069856534916974,-0.0141712368754058,3.177158277534508,-0.0010823881020769477,0.0384589433670044,-0.08062493801116942,-0.09881180495023728,-0.3316779723018408,-9.8802858710289
32.0,4.5,220.0,21.358732223510746,34.184677124023445,-79.78281770270435,40.4589204165566,304.0972225036621,0.01982639729976654,-0.002818002365529537,-0.9829293489456176,0.1828906089067459,-0.056494393547285075,-0.01594363952972039,3.1835059122219325,0.02308780699968338,0.06399542838335037,-0.07764926552772522,0.11418380599468947,-0.3342927009612322,-10.029861155748367
32.2,4.5,219.0,21.46640968322754,32.212635040283196,-79.78281785896485,40.458920446638174,304.7364398803711,0.017564682289958,-0.0037689136806875467,-0.9828157424926758,0.18371330201625824,-0.06288184549573306,0.0037662142079602015,3.1809239189421485,-0.0023386930115520954,-0.05203642696142197,-0.07705153524875641,0.09420567909255624,-0.37364552211016416,-9.601994073987008
32.4,4.5,218.0,21.296131134033203,35.80683898925781,-79.7828181665822,40.45892041515616,305.049096282959,0.016919167712330818,-0.0017815063474699855,-0.982940137386322,0.183137521147728,-0.021399853118188608,-0.011709255122814585,3.128647353071273,0.07653531432151794,0.011984895914793016,-0.04125222191214562,0.12869425635784865,-0.3194722750782967,-9.472288212776185
32.5,4.599999904632568,217.0,21.35622978210449,33.254318237304695,-79.78281836330555,40.458920428635494,305.686059173584,0.01792469434440136,8.253780833911151e-05,-0.982935905456543,0.18307320773601526,-0.05434989110651926,-0.0452072554973321,3.1062011026146483,0.06370273977518083,0.03457382693886757,0.013404167257249357,0.05899046651087704,-0.4472808609902859,-9.741037353873251
32.6,4.699999809265137,217.0,21.477678298950195,31.79914474487305,-79.78281843996145,40.458920469965065,305.99720114135744,0.017840735614299774,2.2595631889998913e-05,-0.9826373457908628,0.1846770495176316,-0.07529263897789593,-0.05156216583525183,3.114140601747016,0.05431909114122392,-0.05647308751940727,0.0011018216609954834,0.07477021948434412,-0.4773410677537322,-9.868582084178923
32.8,4.699999809265137,216.0,21.427595138549805,31.830951690673828,-79.7828185905622,40.458920440944674,306.63353079223634,0.023311397060751915,0.006854977924376726,-0.9821500778198242,0.1865234225988388,-0.10125071054864396,-0.04548223512132744,3.1035749952702005,0.05969084054231644,-0.13483664393424988,0.04435160383582115,-0.08511621890589595,-0.6369965502619743,-9.667442543506624
33.0,4.800000190734863,215.0,21.343708038330078,34.14491653442383,-79.78281864387084,40.458920484208754,306.94307821655275,0.027809463441371918,0.009183506481349468,-0.9820080995559692,0.18655428290367126,-0.13083668562572634,-0.0780779841531868,3.0803950081493885,0.05668026953935624,0.05602443218231201,0.08632202446460724,-0.2366260366514325,-0.6500579144060612,-9.578371907472613
33.1,4.800000190734863,215.0,21.48644256591797,30.78131675720215,-79.78281874191345,40.45892055845727,307.5719692077637,0.02791502699255944,0.0006404693704098463,-0.9819638729095459,0.18699568510055545,-0.18690353816100794,-0.06444020734309683,3.0721090056822766,-0.03697796165943146,0.0677231103181839,0.017002824693918228,0.07330831507220864,-0.6878514658659697,-9.743031839132307
33.3,4.800000190734863,215.0,21.48894691467285,30.96420669555664,-79.78281876551232,40.45892061666285,307.8791515197754,0.02605156600475312,-0.0028733108192682266,-0.9820563197135924,0.18675796687603,-0.17336170421773292,-0.04059867088054512,3.057030136477598,0.02213911339640617,0.0405450202524662,0.00876583345234394,0.14357228645123546,-0.5383698827773333,-9.67989535868168
33.4,4.900000095367432,214.0,21.46515655517578,32.037696838378906,-79.78281871833146,40.45892073814163,308.51101797485353,0.02872717566788197,0.00263790343888104,-0.9822276830673218,0.18546336889266968,-0.17159968410336812,-0.02755250478268673,3.0750085671416763,0.03784715384244919,-0.09201566874980928,0.0921439602971077,0.044124651616439234,-0.6649439021945001,-9.677091618776323
33.5,4.900000095367432,214.0,21.39754676818848,32.51480484008789,-79.78281871206597,40.45892074268162,308.8302585449219,0.029776358976960182,0.007246465422213077,-0.9824378490447998,0.18405672907829285,-0.1952321366527686,-0.04870830107240079,3.085258611425461,0.03676346316933632,-0.09315823018550873,-0.06688383221626283,0.09882447696290912,-0.5413841955363751,-9.855193129777913
33.7,4.900000095367432,215.0,21.314910888671875,33.92226791381836,-79.7828187405263,40.45892085104393,309.45002478027345,0.031210796907544136,0.009634996764361858,-0.982927680015564,0.18107014894485474,-0.20849265894853092,-0.07804842202425426,3.1099945091144128,-0.06793951988220215,0.019145717844367027,-0.10134341567754744,0.0008199783484451474,-0.4456164145097137,-9.952627623081208
33.8,4.900000095367432,216.0,21.297382354736328,34.72539520263672,-79.78281875984277,40.458920900461,309.76648443603517,0.028807640075683594,0.009874737821519377,-0.9833534955978394,0.17913289368152618,-0.197477107112036,-0.06944780712678747,3.1478135637282474,-0.024615725502371788,-0.004068705253303051,-0.006743210833519697,0.1055217224545777,-0.4224516098946333,-10.165065153837203
34.0,4.800000190734863,216.0,21.57909393310547,27.370006561279297,-79.78281886737638,40.458920977354715,310.3947879638672,0.026237865909934044,0.010666503570973871,-0.9837988615036012,0.1770242601633072,-0.17842843118263346,-0.07198711662779571,3.184225320729158,-0.01654636114835739,-0.011814054101705551,0.040113937109708786,0.09029063930734993,-0.5691786427795887,-10.130554887056352
34.2,4.800000190734863,216.0,21.42634391784668,32.013843536376946,-79.7828189035498,40.45892101752539,311.0283977355957,0.02573199383914471,0.009197736158967018,-0.9835355877876282,0.1786368191242218,-0.15931947306664535,-0.050236403884864216,3.1465095751734604,-0.034592341631650925,0.05585739389061928,-0.16702818870544436,-0.09600224523805084,-0.5617702936381102,-9.656129350662233
34.3,4.599999904632568,214.0,21.443872451782227,32.18082809448242,-79.78281904398494,40.45892101477392,311.3426181640625,0.025934536010026932,0.009573271498084068,-0.9832559823989868,0.18012058734893802,-0.15241526325254093,-0.04574780186211056,3.1316632975551046,-0.0795094445347786,-0.03646831586956978,-0.06012644246220589,-0.17766417581588032,-0.4351980283856392,-9.652481857538225
34.4,4.599999904632568,212.0,21.342456817626953,33.6280517578125,-79.78281908297768,40.45892101461396,311.65580099487306,0.026442062109708786,0.010239624418318272,-0.9829946160316468,0.18143245577812195,-0.13596378068215773,-0.03839237773631503,3.131418562097321,-0.0034309220500290394,0.033182356506586075,-0.08262702077627182,-0.0674663070961833,-0.4569286206364632,-9.788486339449882
34.6,4.599999904632568,212.0,21.527759552001953,29.35795021057129,-79.78281922025056,40.45892096071327,312.28260153198244,0.02682244032621384,0.012158551253378393,-0.982611358165741,0.18332402408123016,-0.12126017290995166,-0.02796902232079919,3.136145384161958,0.07056726515293121,0.027102014049887657,0.045225095003843314,0.01240329656749964,-0.5388755207508803,-9.805187156796457
34.8,4.599999904632568,212.0,21.351221084594727,32.983959197998054,-79.7828192642186,40.45892093044301,312.5954524841309,0.02399805374443531,0.010622003115713595,-0.9825900793075562,0.1839241534471512,-0.12830784911418006,-0.023196168854580413,3.1115312894122304,-0.008990757167339325,-0.04154022037982941,0.1453673094511032,-0.11114938429556788,-0.7812439982593059,-9.571679184436796
34.9,4.599999904632568,211.0,21.437612533569336,31.60034942626953,-79.7828193553661,40.45892084040759,313.2183086242676,0.019597949460148808,0.00764257600530982,-0.9826743006706238,0.18414358794689176,-0.10207091588964914,0.006908735502356336,3.100479405970177,-0.09835892915725708,0.04779909923672676,-0.1344463974237442,0.009549023928120732,-0.4032127355039121,-9.783233785629273
35.1,4.599999904632568,211.0,21.38627815246582,32.673839569091804,-79.78281935704139,40.458920765225905,313.84412496948244,0.0215123500674963,0.006406840868294239,-0.9828040599822998,0.18328237533569336,-0.10830697783380924,0.02014285367285467,3.1095793137057686,0.017272533848881718,0.02520490251481533,0.10191351920366287,-0.07995663581416011,-0.3914906030148268,-9.773365439772606
35.2,4.699999809265137,210.0,21.376262664794922,32.626129150390625,-79.78281935907225,40.458920730937116,314.1559268798828,0.023613279685378075,0.005957260262221098,-0.9829076528549194,0.18248192965984344,-0.12612037576891005,0.019283440166315082,3.12118142458494,0.034639809280633926,0.031083954498171806,-0.08746422082185745,-0.06993409705348314,-0.3963126190379262,-9.936724365949633
35.3,4.699999809265137,209.0,21.391286849975586,31.902517318725586,-79.78281939840792,40.45892066616633,314.47253149414064,0.02377411536872387,0.006225280929356813,-0.9829922914505004,0.18199522793293,-0.13918726256764968,0.026942233015322743,3.1382702578002712,0.03475290536880493,0.016207154840230942,0.03273499011993408,0.04341977890580893,-0.5631253493204713,-10.019470653533936
35.5,4.699999809265137,210.0,21.43260383605957,32.49094772338867,-79.78281938548764,40.4589206189103,315.10122412109376,0.024597981944680214,0.005833331495523453,-0.9829502701759338,0.18212546408176425,-0.15056811117454555,0.01286253905892057,3.135594189514165,0.03417495265603065,0.02826869674026966,-0.10507594048976898,-0.1128854408953339,-0.4915493267029524,-9.71483890414238
35.6,4.699999809265137,210.0,21.363740921020508,32.872634887695305,-79.78281937451672,40.458920596073476,315.4147121276856,0.02515326626598835,0.0060963560827076435,-0.9829009175300598,0.1823072135448456,-0.15793625166979494,0.017561220453316814,3.1329170861572986,0.009032434783875942,0.014499020762741566,0.0258442685008049,-0.11279041450470688,-0.5894913583248854,-9.771715940237046
35.8,4.699999809265137,209.0,21.388782501220703,32.10131072998047,-79.78281934715406,40.45892056366285,316.0439235534668,0.025352770462632183,0.007240024395287038,-0.9827739596366882,0.18292121589183807,-0.1784485109139626,0.009700467729985285,3.1295976806617616,-0.01962514966726303,-0.027352659031748768,0.09882033616304398,-0.10284439204260708,-0.6051086866110563,-9.826650531291962
36.0,4.699999809265137,209.0,21.425090789794922,31.33794021606445,-79.78281932626629,40.458920519992965,316.6741496887207,0.02222913131117821,0.006913427263498306,-0.9828779101371764,0.1827816218137741,-0.16218769080407774,0.008469347485232644,3.120049827604105,-0.038915779441595084,-0.011304889805614948,-0.04486162960529328,-0.1133804533816874,-0.6652470803260804,-9.782568957209588
36.1,4.699999809265137,209.0,21.37375831604004,32.610225677490234,-79.78281930368776,40.45892050144493,316.98614614868166,0.02124827355146408,0.005953704006969929,-0.9828816652297974,0.1829117834568024,-0.1572814559115494,0.007543722857237845,3.1120911812278007,0.0024436230305582285,0.02309264056384564,0.05201621726155281,-0.020372411962598563,-0.4549929729849101,-9.823394801616667
36.2,4.699999809265137,207.0,21.44011688232422,31.16300201416016,-79.782819275316,40.45892048605632,317.2974788513184,0.021649237722158432,0.00590760027989745,-0.982844352722168,0.18306700885295868,-0.15811145426116693,0.0127693659173223,3.1085040316813037,-0.009663775563240051,0.025178397074341767,-0.0475701130926609,0.0051145595312118534,-0.3993843441456557,-9.732156602740286
36.4,4.699999809265137,207.0,21.511484146118164,29.739633560180664,-79.7828192171628,40.45892043325277,317.9281360473633,0.024092786014080048,0.006961440201848745,-0.9827433824539183,0.18326660990715027,-0.16966404170184493,0.010080058007539259,3.0740472957179343,0.040108487010002136,-0.0672530084848404,0.07431883364915848,-0.051321235620416704,-0.6942505855858326,-9.542565312981608
36.6,4.699999809265137,207.0,21.314910888671875,33.33383560180664,-79.78281927235332,40.45892031828124,318.56117742919923,0.029594222083687782,0.008250556886196136,-0.9827276468276978,0.18248997628688807,-0.17335359066259384,0.019897121447538683,3.0513305885788204,0.042632292956113815,-0.007297557778656483,0.11201329529285432,0.05225561611354351,-0.3044934261962772,-9.54261150598526
36.7,4.699999809265137,207.0,21.4138240814209,31.20276069641113,-79.78281925513518,40.45892029014168,318.86684912109376,0.02963494323194027,0.007712992373853922,-0.9828221201896667,0.1819973737001419,-0.18803479858180927,0.02018099885757281,3.0497121847807644,-0.03100980632007122,-0.02987650223076344,-0.004337737336754799,-0.0958445074595511,-0.61558075748384,-9.700678701996804
36.8,4.599999904632568,209.0,21.43260383605957,31.4810733795166,-79.78281917890371,40.458920307560355,319.1834384765625,0.02582200989127159,0.005784072447568178,-0.9829124212265016,0.18216176331043246,-0.1932883415492116,0.03371988224413205,3.0597180406745994,-0.08437122404575348,-0.0017998948460444808,-0.07926106452941895,0.119521199259907,-0.5429494220763446,-9.662181218862534
37.0,4.599999904632568,209.0,21.456392288208008,29.98613929748535,-79.78281909525427,40.45892021222704,319.807885345459,0.02224061638116836,0.004663461353629828,-0.982852339744568,0.1829889863729477,-0.14005530748877507,0.0595146063120517,3.0683384874758874,0.04173550754785538,0.017745064571499825,-0.007037850096821784,0.0436255003977567,-0.37553640201687816,-9.673678598999977
37.1,4.599999904632568,209.0,21.41883087158203,31.28227806091309,-79.78281907069125,40.458920171903365,320.11404531860353,0.024196753278374672,0.004305172245949507,-0.9827197790145874,0.18346081674098969,-0.14584857370125745,0.04723728040597247,3.0474790679487302,0.028086286038160324,-0.02036563865840435,0.12518538534641266,-0.10310910645872357,-0.5541364612430334,-9.579111580252649
37.3,4.5,208.0,21.40631103515625,32.16492462158203,-79.78281906997168,40.45892008311432,320.7385684814453,0.02608109638094902,0.004021236672997475,-0.9825900793075562,0.18390318751335144,-0.16601953526772964,0.05821069431636897,3.0610612514221787,-0.028758449479937564,-0.03386259824037552,-0.10863419622182846,0.05690860192291439,-0.4286216649413109,-9.780953956246377
37.5,4.5,211.0,21.4426212310791,30.025897979736328,-79.78281904457522,40.45892004159421,321.04558294677736,0.023972459137439728,0.0035470235161483288,-0.9826887845993042,0.183672696352005,-0.16518922900179062,0.0562573722825048,3.0672198182734083,-0.03129737451672554,-0.039663057774305344,0.10196287930011748,-0.011204905151389541,-0.592134080529213,-9.800709943771363
37.6,4.5,211.0,21.37250518798828,32.14902114868164,-79.7828189358807,40.45891996233335,321.6683055725098,0.023372745141386986,0.0023547192104160786,-0.9828911423683168,0.1826831698417664,-0.14144134529967706,0.054887249669917,3.071368786562941,0.06841982901096344,0.032426707446575165,0.12075970321893692,-0.009431163703557104,-0.5013733068108559,-9.781374955773352
37.8,4.400000095367432,211.0,21.44011688232422,31.24251937866211,-79.78281891221016,40.45891992146753,321.97583883666994,0.02483363449573517,0.0018940290901809926,-0.9828864932060242,0.18252111971378326,-0.13965051008434692,0.060317262366476436,3.0728484775186247,0.04161262139678002,-0.0027611763216555123,-0.015099375508725643,0.041668948950245976,-0.5093553774431349,-9.837333394289015
37.9,4.5,210.0,21.395042419433594,31.68781852722168,-79.7828188797429,40.458919862723576,322.59606665039064,0.023833651095628745,0.002670954214408993,-0.98277348279953,0.18325188755989075,-0.15108280772585522,0.0552228531718348,3.0768805943592166,0.012078732252120972,-0.016672585159540176,0.0714108943939209,0.012073576416587458,-0.544202480390668,-9.793794441819193
38.0,4.5,211.0,21.377513885498047,33.03961944580078,-79.78281891636607,40.45891980745788,322.90699880981447,0.02213987149298191,0.0031668634619563822,-0.9827847480773926,0.18339571356773374,-0.1358255300041977,0.05193067406364051,3.0696382438684857,-0.07839716225862503,0.00687751080840826,0.027317151427268985,-0.09925027303397656,-0.5389065475389362,-9.75682483613491
38.2,4.5,211.0,21.455141067504886,30.38372802734375,-79.78281889172014,40.458919752048345,323.52454107666017,0.017628991976380348,-0.000229140350711532,-0.9830126762390136,0.1826889663934708,-0.13463202176504208,0.03483149750613426,3.0986328958956766,-0.0182731281965971,0.02931992337107658,0.12558704614639282,-0.031358421114273366,-0.5126129709184171,-9.901615344285963
38.4,4.5,211.0,21.45889663696289,30.773365020751953,-79.78281885533168,40.458919781052096,324.1397029724121,0.021519137546420097,0.0020975400693714623,-0.9830647706985474,0.1819784641265869,-0.15211067387115085,0.02488050102045781,3.061736455348448,0.05874644592404365,-0.0568622499704361,0.10652367770671843,-0.11003159766085446,-0.6351055607199669,-9.651818783283234
38.5,4.5,210.0,21.36624526977539,32.04565048217773,-79.78281887056956,40.45891978802257,324.44947164916994,0.02292562834918499,0.0039291689172387114,-0.9830946922302246,0.1816146820783615,-0.16643835336521196,0.016882899971969536,3.0503351763322932,0.05352110415697098,-0.0020238438155502077,0.036248281598091125,-0.0206267612753436,-0.5098755603656173,-9.747617225646973
38.6,4.5,210.0,21.507726669311523,29.12734794616699,-79.78281883210667,40.45891979320829,324.7547504272461,0.0254229698330164,0.005758964456617832,-0.982981264591217,0.1818470358848572,-0.1788978523471738,0.003185557482819727,3.044556319774136,0.07003721594810486,0.0146675705909729,-0.041837681084871285,-0.1322804085351527,-0.5448709633201361,-9.695772888064383
38.8,4.599999904632568,210.0,21.44011688232422,30.852882385253906,-79.78281880171104,40.45891983615085,325.366723236084,0.027496287599205967,0.007271183654665947,-0.9827054142951964,0.18297874927520752,-0.19894489723887232,-0.00952958823171048,3.0124593514911897,-0.0013010706752538679,0.007385123055428266,0.034948300570249564,-0.07550304005853832,-0.4944821073487402,-9.708035668730735
39.0,4.599999904632568,210.0,21.3599853515625,32.02179336547852,-79.78281876624739,40.458919842938826,325.6678821411133,0.027102448046207428,0.006858726032078265,-0.982629120349884,0.18346276879310608,-0.20211370877222284,-0.01224869704918245,2.9944877922973707,0.0072568999603390685,0.0073200054466724404,0.01025797612965107,-0.06655050978530197,-0.5852976987138391,-9.591787174344065
39.1,4.599999904632568,211.0,21.39379119873047,31.86275863647461,-79.7828186509023,40.45891987823082,326.27536505126955,0.026797320693731308,0.004991328809410335,-0.9825088977813721,0.18421027064323425,-0.1969550556580739,0.00567935014412221,2.9946407994623,-0.1017156019806862,0.06717754155397415,-0.07590535283088684,-0.15230437212623654,-0.4285314350947738,-9.737939499020577
39.3,4.599999904632568,212.0,21.391286849975586,31.29022979736328,-79.78281858304025,40.45891993113688,326.88275640869136,0.02514326013624668,0.0036906506866216655,-0.9826747179031372,0.1835882067680359,-0.18451676896730007,-0.003506399444585931,3.032712272110666,-0.0015056239208206534,0.054409626871347434,-0.013865167275071144,-0.07028495283331722,-0.39704553097486495,-9.866111050844193
39.4,4.699999809265137,212.0,21.38627815246582,31.95022773742676,-79.78281855004596,40.45891994265272,327.1874477233887,0.02488086558878421,0.0011041890829801562,-0.9826973080635072,0.18353688716888428,-0.191255895986082,-0.0020652087378433027,3.047709219624027,-0.021021084859967232,-0.038655880838632584,0.023125363513827324,-0.09323896075598896,-0.5718573984503746,-9.962234598398213
39.5,4.699999809265137,212.0,21.256065368652344,34.319854736328125,-79.78281856549745,40.45891995791144,327.48635977172853,0.02433229796588421,0.0005302072386257348,-0.9826899766921996,0.18365246057510376,-0.17078529769076325,0.015039982768796156,3.0480817270522818,0.05528006330132485,0.00822489056736231,0.002878054976463318,0.046921959584578884,-0.5074600390344859,-9.953995871543883
39.7,4.699999809265137,214.0,21.361236572265625,31.60830116271973,-79.7828185058882,40.45891999421793,328.1023303833008,0.02347649075090885,0.005466454662382603,-0.9826934337615968,0.18366484344005585,-0.17597543102453106,-0.003305408961008973,3.0934852630859573,0.057627275586128235,-0.005099239759147167,0.030195543542504318,-0.0072982387617230434,-0.6156998945027591,-9.995380125045775
39.9,4.699999809265137,213.0,21.334943771362305,32.936248779296875,-79.78281848209257,40.458920083991934,328.4038631286621,0.025428298860788345,0.005719059612601996,-0.9826693534851074,0.18352609872818,-0.1826303380767617,-0.01910374378875597,3.0629101281996616,-0.021254561841487885,0.06969859451055528,-0.07981155812740326,-0.07730210954323412,-0.3552680522203446,-9.679952661395074
40.0,4.599999904632568,213.0,21.37250518798828,31.560590744018555,-79.78281844383628,40.45892017103917,329.0138942565918,0.0259985625743866,0.005002092104405165,-0.9827767610549928,0.18289057910442352,-0.18723196375898235,-0.00989119351527069,3.0392807850259937,0.02453654073178768,-0.014882137067615988,-0.045074135065078735,0.10492236457765104,-0.40960673891007904,-9.769762385487557
40.2,4.599999904632568,213.0,21.32617950439453,31.425411224365234,-79.78281839386699,40.45892021164249,329.6227733459473,0.023570498451590538,0.004748119506984949,-0.9830245971679688,0.18189196288585666,-0.17771268124968112,-0.01549630559010918,3.045628297458092,0.04087134823203087,0.01126076653599739,0.13440993428230286,0.04033799475990237,-0.5214160637184978,-9.77913547217846
40.31,4.599999904632568,214.0,21.40756225585937,29.763490676879893,-79.78281838968437,40.45892029504935,329.9269039001465,0.02219105139374733,0.003706095740199089,-0.9831739068031312,0.18128147721290588,-0.17635990002861013,-0.017202404624231296,3.0408252601356627,-0.08109454065561295,0.05111908167600632,-0.1059792935848236,0.12023063097149135,-0.4873446670174599,-9.857334380149842
40.5,4.599999904632568,215.0,21.29362678527832,32.999862670898445,-79.78281835982423,40.45892031946964,330.23059957885744,0.02161963097751141,0.0030727179255336523,-0.9832756519317628,0.1808100789785385,-0.17767526536572845,-0.012072950530274414,3.0243505906921317,-0.04924992099404335,-0.027334677055478096,0.03503664210438728,-0.03605776894837618,-0.4082011048123241,-9.633269076347352
40.6,4.599999904632568,215.0,21.342456817626953,31.67191505432129,-79.78281832221727,40.45892041210785,330.8380252685547,0.025263214483857155,0.0031662294641137123,-0.9832329750061036,0.18056777119636536,-0.16327124257997835,-0.01654112318305454,3.0279920845019186,0.13198818266391754,0.017198791727423668,0.020449472591280937,0.0554976550815627,-0.5297435220703482,-9.867367032766342
40.8,4.599999904632568,215.0,21.336196899414066,31.830951690673828,-79.7828182679164,40.45892052316204,331.44327658081056,0.02294420450925827,0.00208780518732965,-0.9829732775688172,0.1822986602783203,-0.2009428186573204,-0.005848425863833676,3.008959582621584,-0.07652976363897324,-0.07399777323007584,-0.1609273999929428,0.05937774404883385,-0.578204185590148,-9.743320106863976
40.9,4.5,214.0,21.286113739013672,32.944198608398445,-79.78281823222784,40.45892055729678,331.7444850769043,0.01884680986404419,0.003352331928908825,-0.9828222990036012,0.1835593283176422,-0.17896798530514754,-0.013674458312829523,3.0048520123027167,-0.044824697077274316,-0.06079079583287239,0.006231564097106457,0.026192632208112628,-0.5776454841345549,-9.761970970630648
41.01,4.5,212.0,21.251056671142575,33.691665649414055,-79.78281820786161,40.45892064422807,332.0485011901856,0.01813375577330589,0.005197550635784864,-0.9826186895370485,0.1846748888492584,-0.15729130676508535,-0.02772872322468881,3.022193145811772,0.05470411479473114,-0.020323587581515312,-0.014274206943809988,0.0609987566806376,-0.4641001575440168,-9.891752260923386
41.2,4.5,211.0,21.354976654052734,30.78131675720215,-79.78281813676703,40.458920721766965,332.65677755737306,0.02305629663169384,0.00663262652233243,-0.9822920560836792,0.18581369519233704,-0.1822400933632304,-0.04789904016984277,3.0456571682107727,-0.005321475211530924,0.059290245175361626,-0.02920600213110447,-0.07104534211568535,-0.450416795834899,-9.971591312885288
41.3,4.5,211.0,21.288618087768555,32.053600311279304,-79.78281807794765,40.45892078909332,332.95813864135744,0.023510783910751343,0.005645068362355232,-0.9823139309883118,0.1856738775968552,-0.1963689655581172,-0.037859484234987695,3.0296452662847484,-0.0184988770633936,0.07048643380403519,0.0015944321639835837,-0.2097065155953169,-0.4150206027925015,-9.717209365367893
41.5,4.5,210.0,21.343708038330078,31.918420791625977,-79.78281804822524,40.458920910080145,333.563988861084,0.023959605023264885,0.003648347686976194,-0.9824923276901244,0.18472029268741608,-0.18106864635086006,-0.02577618735004504,3.048462184755322,0.0015862113796174526,-0.039943430572748184,-0.03910617530345917,0.03250314605422318,-0.4061377320438624,-9.996226801872254
41.7,4.5,212.0,21.32367515563965,32.45914077758789,-79.78281799549003,40.45892098135444,334.17426031494136,0.025184839963912964,0.0029887992423027754,-0.9826059341430664,0.1839633285999298,-0.193660879004904,-0.027975292334873118,3.0311098426183034,0.009222782216966152,-0.023088568821549416,-0.017072098329663277,-0.013768205721862615,-0.4504018488898874,-9.815062519311903
41.8,4.5,211.0,21.25982093811035,33.707569122314446,-79.7828179944753,40.45892105044809,334.4779636230469,0.02495454251766205,0.003305989317595959,-0.9826289415359496,0.18386590480804446,-0.1756852747471389,-0.02232988326796753,3.033129009616014,0.0955844223499298,0.010946257039904594,0.1594180315732956,-0.0889219066221267,-0.7502398681640625,-9.809155077338222
41.9,4.5,211.0,21.322423934936523,32.20468521118164,-79.78281798218465,40.45892108688717,334.782681640625,0.025865588337183,0.004893032368272543,-0.9826326370239258,0.1836850643157959,-0.17315853681759066,-0.024787430059391127,3.0487517343881114,0.02373172715306282,-0.03154414892196655,0.03000886924564838,-0.005954171733465046,-0.6688703075051308,-9.968909779787065
42.1,4.400000095367432,211.0,21.455141067504886,29.381805419921875,-79.7828179115623,40.45892118569553,335.39368170166017,0.0238150916993618,0.010853287763893604,-0.9827412366867064,0.18312512338161469,-0.19548850011223107,-0.0384437636957097,3.056367287664356,-0.09660572558641434,-0.029359053820371624,0.0629025399684906,-0.011716650724411007,-0.5726147225126624,-9.836503089666367
42.3,4.400000095367432,211.0,21.23728370666504,33.67576217651367,-79.78281790850407,40.45892130479482,336.0041934814453,0.020380523055791855,0.010029259137809277,-0.9825827479362488,0.1844322234392166,-0.15730202072025656,-0.057151296561742886,3.0402781134228287,0.04139958694577217,0.044675659388303764,0.04937706887722016,-0.1308343007415533,-0.3776807952672243,-9.683204882740977
42.4,4.400000095367432,211.0,21.336196899414066,31.64010810852051,-79.78281789187761,40.45892131900792,336.30954473876955,0.022150475531816486,0.007978525944054127,-0.9824784994125366,0.1848831623792649,-0.15308805796381025,-0.042721312633231104,3.0572705830282545,0.07855316996574402,-0.026115238666534424,0.003739400999620557,-0.051478484608232976,-0.4701649261638522,-9.94672427415848
42.6,4.400000095367432,211.0,21.278602600097656,33.09528350830078,-79.78281786662734,40.45892134876798,336.9241077270508,0.02650000900030136,0.004338064696639775,-0.9823424816131592,0.18515470623970032,-0.1646983272130265,0.008275286235540686,3.0840266080421235,0.00854849349707365,-0.01785213127732277,-0.020624477416276932,0.10680273776873947,-0.5511478396877647,-9.994325287342074
42.7,4.400000095367432,209.0,21.302391052246094,32.45119094848633,-79.78281785493964,40.45892134430126,337.234341796875,0.027063949033617973,0.0038037677295506,-0.9823466539382936,0.18506285548210144,-0.16953625736062966,0.017084246608240573,3.111246211322136,-0.013354916125535963,0.003813301213085651,-0.0012788154417648911,0.06275961369741709,-0.5114218930900097,-10.025110877752306
42.8,4.400000095367432,210.0,21.25731658935547,32.912391662597656,-79.78281783576091,40.45892137475133,337.54392736816413,0.027034124359488487,0.0038815685547888283,-0.9823659658432008,0.1849629431962967,-0.1672309083920854,0.023406926824375764,3.1230360090160723,-0.03238856792449951,0.0037926426157355313,-0.05861399695277214,0.07265553739853202,-0.4055433991178871,-10.007427728176117
43.0,4.400000095367432,209.0,21.497711181640625,28.44349479675293,-79.78281785318984,40.45892140610748,338.1643573608398,0.02177377231419086,0.005945580080151558,-0.9824537038803101,0.1851361244916916,-0.15355293719192714,0.009417243252004277,3.104578224304942,-0.10920215398073196,-0.010661117732524872,0.02433443069458008,-0.02988606023602188,-0.4047603838518262,-9.738065214157103
43.2,4.400000095367432,209.0,21.35622978210449,31.17095375061035,-79.78281785948906,40.458921392179946,338.47353094482423,0.01922297105193138,0.005305633880198003,-0.9824826121330258,0.18528445065021515,-0.12432700671192635,0.0012418470385918616,3.0765972670611044,-0.012650870718061924,0.05442290753126144,-0.07524283975362778,0.030339792750310155,-0.3068969607353211,-9.652243291139603
43.3,4.400000095367432,209.0,21.321170806884766,30.94035148620605,-79.78281784189991,40.45892140085332,339.09364813232423,0.018313396722078323,0.004433722700923681,-0.9825907349586488,0.18482552468776706,-0.11265320761088565,0.017782463316851075,3.0699009536262767,-0.017483778297901154,0.03280089423060417,-0.02296799048781395,-0.005505809064488858,-0.6125353813916445,-9.729707788825037
43.4,4.400000095367432,208.0,21.481433868408203,28.1015682220459,-79.78281782507669,40.45892138316116,339.40017431640626,0.017739808186888698,0.003337552072480321,-0.982758402824402,0.18401159346103668,-0.13392710016720696,0.014839546643808437,3.0533682652074634,-0.08454858511686325,0.05826326832175255,-0.028377341106534008,-0.08252606682479383,-0.2836663566716016,-9.609033536911012
43.6,4.400000095367432,208.0,21.6917781829834,23.83146667480469,-79.78281780304489,40.45892138339331,340.01465338134767,0.020194191485643387,-0.00013328238856047392,-0.9829331636428832,0.1828513890504837,-0.14441050107205414,0.03477000859787767,2.942065702222873,-0.12153304368257525,0.0023525364231318235,-0.08855754882097244,-0.06875843212008477,-0.21117447735741726,-8.9850011408329
43.7,4.400000095367432,208.0,21.72683525085449,23.250986099243164,-79.78281776795788,40.45892137638365,340.3028461303711,0.02316427230834961,0.0009546576184220613,-0.983026921749115,0.1819911897182465,-0.13797004927244585,0.03672068413424093,2.808843840131425,0.04424428567290306,-0.100404754281044,0.03236987441778183,-0.02201185931218788,-0.43427197560668,-8.59536841750145
43.9,4.300000190734863,209.0,21.73810386657715,22.996530532836914,-79.78281767977728,40.45892140306749,340.85597723388673,0.02922131307423115,0.0006566187948919832,-0.9830036759376526,0.1812443435192108,-0.15297099500193326,0.008881889425029273,2.5506745897065874,0.1184907779097557,-0.0002263195492560044,0.15452784299850464,-0.08773057297803462,-0.7099221467971802,-8.389827092885973
44.1,4.300000190734863,211.0,21.629175186157227,24.53122329711914,-79.78281764267066,40.458921473030976,341.35065954589845,0.0283694788813591,0.00011342910875100642,-0.982873797416687,0.1820831298828125,-0.14425084825034853,0.0019549711208942874,2.2674004414951647,0.04870675131678581,-0.04032047837972641,0.04417414218187332,0.0171180618647486,-0.5781764844059945,-8.327719722390174
44.2,4.199999809265137,210.0,21.68927383422852,23.219179153442386,-79.78281764201853,40.45892149945289,341.5715457763672,0.0265898872166872,0.0015723961405456064,-0.9829051494598388,0.1821761578321457,-0.11931147567606168,-0.01735245064066546,2.14243846498543,0.061216119676828384,-0.04646309465169906,0.1120188683271408,-0.13882401843555273,-0.6102065815776587,-8.461008172631264
44.3,4.199999809265137,209.0,21.72683525085449,23.02833747863769,-79.78281762971102,40.45892153611498,341.8006488647461,0.025161664932966232,0.002720159711316228,-0.9829221367836,0.18227359652519226,-0.10791949398776393,-0.028436171903142026,2.034486166364017,0.04940065741539002,-0.08152987062931061,0.12189193069934845,-0.1808323617093265,-0.5548827121406794,-8.441189619898797
44.5,4.099999904632568,206.0,21.58284950256348,25.49338722229004,-79.78281760733067,40.45892158821509,342.2237216796875,0.023879775777459145,0.0033383024856448174,-0.982685387134552,0.18370674550533286,-0.08742073654565723,-0.04739955384194127,1.875282793632106,0.08697349578142166,0.012327517382800579,0.12914447486400604,-0.09875562599860133,-0.6588198939710855,-8.923792487382887
44.7,4.099999904632568,205.0,21.733097076416016,23.65652656555176,-79.78281762946226,40.45892167752613,342.58459204101564,0.0214166846126318,0.003328328253701329,-0.9823844432830808,0.1856101155281067,-0.1010231033399974,-0.045787374495773095,1.7124041092168794,-0.11750536412000655,-0.03997207060456276,-0.09669356793165207,-0.057005524090491234,-0.3984342081472278,-8.972919623851777
44.8,4.0,205.0,21.62166404724121,25.159412384033203,-79.78281758749276,40.45892164507874,342.80615728759767,0.021978622302412987,0.004198988899588585,-0.9823679924011228,0.18561361730098724,-0.0908982314337336,-0.04050256983925793,1.6687646342473412,-0.013775469735264778,0.03309692442417145,-0.05715856328606605,-0.022874906058423215,-0.2855435138940811,-8.789947382211686
44.9,4.0,204.0,21.602882385253906,26.137481689453125,-79.78281759222071,40.458921687057256,342.9688388671875,0.023810051381587986,0.004734231624752283,-0.9824504256248474,0.18493781983852384,-0.07901069485237494,-0.04732661749065326,1.581058265461578,0.1309838443994522,0.0691373348236084,-0.10124893486499786,-0.07593534115701914,-0.2589120412990451,-8.868681895136834
45.1,3.799999952316284,202.0,21.56907844543457,26.24880599975586,-79.78281751843187,40.4589216394322,343.3533298339844,0.02424632199108601,0.006253442261368036,-0.9827554225921632,0.18320707976818085,-0.0940868341865771,-0.03864470086697951,1.5007388141518383,-0.03735021501779556,-0.0787845179438591,0.0030720937065780163,-0.1543770182132721,-0.4976484111696482,-9.004610947966576
45.2,3.799999952316284,202.0,21.574085235595703,26.42374420166016,-79.78281751581494,40.45892167817858,343.5006000366211,0.022103071212768555,0.007253108080476522,-0.9827849268913268,0.1832834631204605,-0.07696964812797794,-0.04449743317323444,1.4386880253595848,0.0791446790099144,-0.11955255270004272,0.1426858752965927,-0.07001043062657117,-0.7553019489347935,-9.175429167151453
45.4,3.799999952316284,202.0,21.597875595092773,26.04205894470215,-79.78281736822888,40.45892156494831,343.8754016723633,0.01732013374567032,0.01274361740797758,-0.9827268719673156,0.18380846083164207,-0.09461823052215228,-0.03353199451562352,1.3884301249081659,-0.09112177789211273,0.013163141906261444,-0.014760763384401797,-0.05107449682429433,-0.18086636692285532,-9.16636832177639
45.6,3.700000047683716,201.0,22.326568603515625,13.351028442382812,-79.78281726241272,40.4589214533764,344.0937854614258,0.01818108558654785,0.013020725920796394,-0.9826869368553162,0.18391959369182587,-0.09692929353485356,-0.024703923057078917,1.3968206200210591,-0.036595117300748825,0.028052184730768204,-0.044711463153362274,-0.1732594682648778,-0.254459678940475,-9.161896371245383
45.7,3.700000047683716,199.0,21.751876831054688,21.54135513305664,-79.78281714184358,40.45892149254843,344.3363620605469,0.02152407541871071,0.00811370275914669,-0.9792913794517516,0.20114542543888086,-0.12760938303445107,-0.01889456470075544,0.959938920218388,0.03732655942440033,-0.008049770258367063,-0.7017692923545837,-0.14749473575502633,-0.678491316139698,-7.4815346467494965
45.8,3.700000047683716,201.0,21.730592727661133,23.02833747863769,-79.78281705201158,40.45892153371401,344.45126837158205,0.02366435155272484,0.00775561248883605,-0.9709054827690125,0.2381649166345597,-0.14139421907143004,-0.014759065342432112,0.7894623907171961,0.018795885145664208,0.00959869846701622,-0.8868876695632935,-0.10558627936989068,-0.4943851532042027,-7.747692886590956
46.0,3.700000047683716,204.0,21.862056732177734,19.386425018310547,-79.78281713166393,40.45892177498264,344.5209934082032,0.02160538174211979,0.010872755199670792,-0.9382588267326356,0.3450876474380493,-0.1536718512008181,-0.023966016935710783,0.5133923608473692,-0.07884387671947479,-0.01678892970085144,-1.3545905351638794,-0.16368415927514435,-0.3997113496810198,-8.551730062365532
46.1,3.700000047683716,206.0,21.85454559326172,20.36449241638184,-79.7828170282792,40.45892185196225,344.5665866699219,0.021209027618169785,0.012180297635495664,-0.9128307700157166,0.4076049029827118,-0.13519674735656206,-0.00545815586356866,0.3838511656793599,0.05904510989785194,-0.14305807650089264,-1.3929986953735352,-0.08697413513436912,-0.5620869934558869,-8.467609679102898
46.3,3.799999952316284,200.0,21.837017059326172,20.762081146240234,-79.7828170622854,40.45892221256419,344.5386401977539,0.02654803730547428,0.015539024956524372,-0.8440527915954591,0.5353772044181824,-0.11044762366163306,0.03721325492440475,0.10491902950810206,0.11932609230279922,-0.043032635003328316,-1.5002737045288086,0.1620111795142293,-0.4318237464129925,-8.436373853087424
46.5,3.799999952316284,185.0,21.753129959106445,21.962799072265625,-79.78281695294017,40.458922270798475,344.5431033935547,0.029120286926627163,0.015004004351794718,-0.8019938468933105,0.5964334011077881,-0.09559563660911237,0.06935227994528803,-0.024904309185664004,0.03861924633383751,-0.12091229856014253,-1.433092713356018,0.1641679067350924,-0.4884353920072317,-8.402316745519638
