time,wind_speed,wind_angle,battery_voltage,battery_current,position_x,position_y,position_z,orientation_x,orientation_y,orientation_z,orientation_w,velocity_x,velocity_y,velocity_z,angular_x,angular_y,angular_z,linear_acceleration_x,linear_acceleration_y,linear_acceleration_z
0.0,0.8000000119209291,142.0,25.801008224487305,-0.05566241592168808,-79.7828101038505,40.458930896323366,269.79825623989103,-0.014455992728471756,-0.0064158150926232355,-0.9871473908424376,0.15902821719646454,-0.01766013034913938,-0.02029316174076169,0.0034770065559446713,0.0010897261090576649,5.451442484627478e-05,0.00514398654922843,0.04523583272472024,0.2494192876853049,-9.809675479531286
0.11,0.8000000119209291,144.0,25.809772491455078,-0.05566241592168808,-79.782810075179,40.45893094632792,269.79890295028684,-0.014464250765740871,-0.006417520809918642,-0.9871437549591064,0.15904992818832395,-0.025237359058803414,-0.027258283291937403,0.004640660475058737,0.007901799865067005,0.0014473359333351257,0.003848687279969454,0.044541622046381235,0.2496382293663919,-9.809592449069022
0.3,0.8000000119209291,146.0,25.78973960876465,-0.10337305814027786,-79.7828102074153,40.45893091150426,269.80163111448286,-0.014450332149863243,-0.0063996114768087855,-0.9871405363082886,0.15907227993011475,-0.016119190021454784,-0.017005141588973326,0.0006572784594230317,-0.007218419574201106,0.0004369657544884831,-0.005650055594742297,0.04102052471134812,0.2564616376720369,-9.808283257484437
0.4,0.8999999761581421,144.0,25.79850578308105,-0.06361418962478638,-79.78281029528671,40.45893091573614,269.8064673757553,-0.014434552751481531,-0.006367448251694441,-0.9871378540992736,0.15909144282341006,-0.014570025103853725,-0.01336213241556561,0.0015943488343185981,0.00011263160558883101,0.0011863976251333954,0.005660779308527708,0.04324724949896337,0.2488369598239661,-9.809909368157387
0.6,0.8999999761581421,145.0,25.808521270751953,-0.05566241592168808,-79.7828102836343,40.45893093150479,269.806598803997,-0.014420604333281515,-0.006365702953189611,-0.987135112285614,0.15910930931568146,-0.019169693417412467,-0.016460658509691226,0.002337350016106861,-0.002696162788197398,-0.0030882619321346287,-0.008870418183505535,0.04183805225417018,0.2655847193486989,-9.80832711160183
0.7,0.8999999761581421,146.0,25.804765701293945,-0.05566241592168808,-79.78281037734658,40.45893094509443,269.81055369138716,-0.014437308534979819,-0.006368640810251236,-0.98712819814682,0.15915124118328094,-0.0176111735714454,-0.015283253464558775,0.002872409075149174,-0.0036381720565259452,-0.002795000560581684,-0.0009798659011721607,0.04262407792266459,0.2538132692500949,-9.809408846497536
0.9,1.0,149.0,25.796001434326172,-0.06361418962478638,-79.78281036358267,40.45893096287596,269.81078865289686,-0.014416768215596674,-0.006374227348715067,-0.9871246218681335,0.15917494893074036,-0.02128042935428581,-0.018634308649986258,0.003346964349415923,0.0002685559738893062,-0.0011029175948351624,-0.0018578912131488323,0.03952492115087807,0.2636136046797037,-9.806677027344703
1.0,1.0,150.0,25.79975700378418,-0.06361418962478638,-79.78281044596862,40.45893100131397,269.811471722126,-0.014417956583201885,-0.006360571831464768,-0.9871187806129456,0.15921147167682648,-0.022695882786033825,-0.02010097258019828,0.0006004391446153343,-0.007426419761031865,-0.0016796753043308856,-0.005508499220013618,0.04154823592398317,0.25917140185832976,-9.808206074237825
1.2,1.100000023841858,151.0,25.796001434326172,-0.06361418962478638,-79.78281042693376,40.4589310270284,269.81146325826643,-0.01443473622202873,-0.006377368234097958,-0.987118661403656,0.15921004116535187,-0.02612031409812006,-0.023895751908907952,0.0010764072535794304,0.003580137388780713,0.0007824552594684062,0.0008152939262799919,0.04195403725840152,0.25940085025504234,-9.808224785327912
1.31,1.100000023841858,151.0,25.80601692199707,-0.06361418962478638,-79.78281055357427,40.458931053467744,269.8118484830856,-0.014399948529899119,-0.006366797257214786,-0.9871131777763368,0.15924739837646484,-0.02115514881143144,-0.024108309814508,-0.0006854710843716232,-0.004381108097732067,-0.0023362345527857533,-0.009223733097314836,0.0409675754327327,0.2658660252392292,-9.807561126351358
1.5,1.2000000476837158,152.0,25.80601692199707,-0.007951773703098297,-79.78281062680828,40.458931030543695,269.81085988044737,-0.014398299157619475,-0.006335866637527943,-0.9871112704277042,0.15926072001457214,-0.01828197924958734,-0.012756149792839648,-0.0040199241254643145,0.002739971736446023,0.0029704393818974486,0.00533140590414405,0.0434694665344432,0.2488282255455852,-9.80932464659214
1.6,1.2999999523162842,152.0,25.804765701293945,-0.039758868515491486,-79.78281058945376,40.458931068944395,269.8100327467918,-0.014395191334187984,-0.006353216711431743,-0.98710697889328,0.15928669273853302,-0.02666412482542361,-0.01948521593630826,-0.0026434756055321988,-1.631878512853291e-05,0.0013109012506902218,-0.0024132211692631245,0.04075176749378443,0.2630902423337102,-9.808213090896606
1.8,1.399999976158142,147.0,25.79474830627441,-0.06361418962478638,-79.7828106917911,40.45893109186145,269.80951043128965,-0.014383646659553053,-0.006354854442179203,-0.9871044158935548,0.15930362045764926,-0.021605205407925262,-0.01982037319096531,-0.003885208760628596,0.0047123152762651435,-0.0019196964567527173,0.004384103231132031,0.04485926290042699,0.2494229787401855,-9.810036252737046
1.9,1.399999976158142,148.0,25.80601692199707,-0.06361418962478638,-79.78281077553099,40.45893110270928,269.80789514541624,-0.014339049346745012,-0.0063196406699717045,-0.987099587917328,0.15933912992477414,-0.016239742039080504,-0.01541298051624801,-0.0048996874087980005,0.007356474176049232,0.0031195012852549553,0.0002255667641293257,0.0428052730858326,0.2540153270959854,-9.809015913605693
2.1,1.5,146.0,25.801008224487305,-0.03180709481239319,-79.78281076263987,40.45893112011508,269.80736853837965,-0.014338767156004906,-0.006318220403045416,-0.987097442150116,0.15935225784778595,-0.020696375870404914,-0.018374126640440552,-0.0042792501594772145,-0.0035442069638520475,-0.002663275226950645,-0.00150177045725286,0.04243938356637955,0.251198851224035,-9.809728689193728
2.2,1.5,144.0,25.802261352539066,-0.03180709481239319,-79.78281081245387,40.45893115632092,269.8054486131668,-0.01436114404350519,-0.006335144862532616,-0.9870927333831788,0.15937861800193787,-0.02351904998695616,-0.017833280895756073,-0.005043867819394845,0.0043486645445227606,0.0025783134624361988,0.0018746437272056933,0.044809451932087546,0.2477226267009973,-9.810415152311323
2.31,1.5,141.0,25.807270050048828,-0.04771064221858978,-79.78281079251126,40.4589311783915,269.80488278627394,-0.014354110695421697,-0.0063077546656131744,-0.98708838224411,0.15940792858600614,-0.028006336361560486,-0.020904825405238255,-0.004373657975549746,-0.007909858599305153,-0.002332779811695218,-0.00898778811097145,0.04048820424824953,0.2635835280641913,-9.807179303169251
2.51,1.5,142.0,25.80601692199707,-0.06361418962478638,-79.78281091664464,40.45893119450879,269.80003287553785,-0.014316389337182043,-0.0062737734988331795,-0.9870829582214355,0.1594460755586624,-0.018613129030215697,-0.02049839291168493,-0.00853530409920247,0.0022561131045222282,-0.000579739105887711,0.0025390437804162502,0.043266645809635525,0.25112722283229233,-9.809638057351114
2.7,1.5,139.0,25.80601692199707,-0.05566241592168808,-79.7828109021427,40.458931219195314,269.7991262292862,-0.014294086024165154,-0.006287002470344305,-0.987079918384552,0.15946601331233978,-0.0228405983134644,-0.02386705539997485,-0.007946551232589173,-0.0006747912266291678,-0.003529176115989685,-0.0066179251298308355,0.04137358690146357,0.26660584419965744,-9.807396819591524
2.8,1.5,138.0,25.797252655029297,-0.06361418962478638,-79.78281098508009,40.45893124249322,269.7963066911697,-0.014248706400394441,-0.006257526110857725,-0.9870723485946656,0.15951822698116302,-0.020858943445373868,-0.02282817986762651,-0.0074989578688197936,-0.00585914496332407,8.280421025119722e-05,-0.0063993697986006745,0.04181891632732005,0.2626219351775944,-9.807238360047341
2.9,1.600000023841858,140.0,25.797252655029297,-0.07156596332788467,-79.78281106119037,40.458931214378616,269.7940883851051,-0.01424422301352024,-0.00623294897377491,-0.9870702624320984,0.15953268110752106,-0.013887962588912126,-0.011674375098461304,-0.008061655916082931,0.002165409503504634,0.003932345192879438,0.005039589945226908,0.04390140675008297,0.25444522535428404,-9.809104791283607
3.1,1.600000023841858,140.0,25.80601692199707,-0.02385532110929489,-79.78281103382034,40.45893124736278,269.7924773311615,-0.014268836937844753,-0.006237561814486981,-0.987067937850952,0.15954473614692688,-0.02167477988744056,-0.017960576921338397,-0.006791183445040254,9.880415018415081e-05,-0.0030564176850020885,-0.007224320899695158,0.0397051889821887,0.2651877116784453,-9.807700874805453
3.3,1.5,138.0,25.80351257324219,-0.05566241592168808,-79.7828111111767,40.45893123699617,269.79021998405454,-0.0142581257969141,-0.006230167578905821,-0.9870636463165284,0.15957212448120114,-0.016926011397588682,-0.012805233786443037,-0.0074225907954734265,0.005161286797374487,0.0017267515650019052,0.007785684429109096,0.04521333008073272,0.24977790473029016,-9.810435032844543
3.4,1.5,141.0,25.80601692199707,-0.06361418962478638,-79.78281118855134,40.45893124568806,269.78654815912245,-0.014211284928023815,-0.006204930599778891,-0.9870585203170776,0.15960945188999176,-0.012988467284365113,-0.012782273905786744,-0.0076812808980410065,0.006098661106079817,0.003940636292099953,0.0044827070087194425,0.044322369731962685,0.25174982339143753,-9.809495970010758
3.5,1.600000023841858,140.0,25.79975700378418,-0.02385532110929489,-79.78281117810026,40.4589312604347,269.7857547020912,-0.014196433126926422,-0.00619457196444273,-0.9870548248291016,0.15963363647460938,-0.017428167334419084,-0.015564761769888871,-0.00704867752852302,-0.006700654048472643,-0.003931564744561911,-0.003086031414568424,0.0417867429368198,0.2565113938227296,-9.808414235115052
3.7,1.600000023841858,142.0,25.80601692199707,-0.04771064221858978,-79.78281119190598,40.45893129264592,269.7823492503166,-0.014216343872249125,-0.006214176770299673,-0.9870439171791076,0.1596987098455429,-0.02464535133073286,-0.01660946977099166,-0.006750066389152273,0.002111328765749932,0.00012745187268592417,0.0010725990869104862,0.04259218318853528,0.2484218440577388,-9.808915341496466
3.9,1.600000023841858,143.0,25.796001434326172,-0.06361418962478638,-79.78281117113046,40.45893131338451,269.78160866260527,-0.014195714145898819,-0.006210578605532646,-0.987043559551239,0.15970289707183838,-0.02809270259037101,-0.019584269500759185,-0.00617101516783026,-0.0012588847894221544,-0.0022680715192109338,-0.008186118677258492,0.03994497964158655,0.2675644586607814,-9.806726143956183
4.01,1.600000023841858,144.0,25.797252655029297,-0.05566241592168808,-79.78281124468229,40.45893134181365,269.77805527210234,-0.01416700053960085,-0.0061900331638753405,-0.987034797668457,0.15976034104824066,-0.02407649389976247,-0.02141660258188811,-0.006251091828813005,-0.0058563086204230785,-0.004152648150920868,-0.01079938467592001,0.04149588507134468,0.2648817378468812,-9.807421962618827
4.1,1.600000023841858,145.0,25.79850578308105,-0.04771064221858978,-79.78281122517346,40.45893136870979,269.7773535466194,-0.0141645185649395,-0.006205433048307896,-0.9870312213897704,0.15978191792964935,-0.02665681295170908,-0.024927542961466303,-0.005872711567055048,0.0059222131967544564,-4.151606481173077e-05,0.00531237293034792,0.04432642166968435,0.2511638410203159,-9.80935680627823
4.3,1.600000023841858,143.0,25.80601692199707,-0.04771064221858978,-79.78281131594622,40.45893131619235,269.7740026926994,-0.014150312170386313,-0.006153742782771586,-0.9870285391807556,0.15980170667171478,-0.01750405035765673,-0.013588854946735856,-0.006593989449220143,0.0005381606752052903,-0.0019145968835800886,-0.0018467736663296817,0.0401935913739726,0.2621549436450005,-9.807016165852547
4.5,1.5,143.0,25.804765701293945,-0.05566241592168808,-79.78281142963799,40.45893130625382,269.7709964132309,-0.014131488278508188,-0.0061461650766432285,-0.9870238304138184,0.1598329246044159,-0.007644736781030256,-0.011891324071761146,-0.00743507695724809,0.005913198459893465,0.002280876971781254,0.006756772752851248,0.04490770799573511,0.2481633788533509,-9.810653718709947
4.6,1.5,144.0,25.79975700378418,-0.039758868515491486,-79.7828114175803,40.45893133613277,269.7695368146896,-0.014127121306955813,-0.006161486729979515,-0.9870209693908693,0.15985043346881864,-0.01405382371334125,-0.01817459808372885,-0.0063605405185575645,0.005377221852540971,0.002514192368835211,0.0060322005301713935,0.04350213328376413,0.2499962982349098,-9.809686004519463
4.8,1.5,147.0,25.796001434326172,-0.06361418962478638,-79.78281149661811,40.45893134604608,269.76681216716764,-0.014104929752647875,-0.006158120930194855,-0.9870191812515259,0.15986379981040955,-0.012551512894084248,-0.01818284490743844,-0.0067196422895458435,-0.0043894187547266475,-0.0021378726232796907,-0.004350044298917054,0.041613962282426656,0.2565011794678867,-9.809497724175452
4.9,1.399999976158142,146.0,25.796001434326172,-0.06361418962478638,-79.78281153113416,40.458931319491604,269.7628133511543,-0.014104648493230345,-0.0060974545776844025,-0.9870126247406006,0.1599062830209732,-0.013928285421817588,-0.007564437943725428,-0.0073763713942885155,0.0020416744519025087,0.0012659468920901418,0.007634838111698627,0.0451313594263047,0.2486135230958462,-9.80982282936573
5.01,1.399999976158142,145.0,25.79850578308105,-0.05566241592168808,-79.78281151901076,40.458931329596,269.7620548224449,-0.014074098318815231,-0.00609198585152626,-0.9870117306709292,0.1599147915840149,-0.0174758728258934,-0.010371275059893372,-0.006720297537425292,-0.006757548078894615,-0.001977050909772516,-0.00878238957375288,0.0403879336360842,0.266961866542697,-9.807305603027343
5.21,1.399999976158142,147.0,25.797252655029297,0.007951773703098297,-79.78281161194741,40.45893136293577,269.7580219721794,-0.014072435908019544,-0.006161307916045189,-0.9870022535324096,0.15997067093849182,-0.013480431011341509,-0.01848055210938717,-0.006994687272960236,-0.006713848561048508,-0.0007352426182478666,-0.0038620876148343095,0.04099831899628043,0.2592610835283995,-9.80765058875084
5.3,1.399999976158142,146.0,25.7872371673584,0.03180709481239319,-79.78281160408322,40.45893138267114,269.7572771525383,-0.014081149362027643,-0.006157508585602045,-0.9870020151138306,0.15997140109539032,-0.015999865785383368,-0.021731884010562863,-0.006617709262269561,0.0013354336842894554,0.001944124000146985,0.004388829227536918,0.041622691992670297,0.2594904405623675,-9.807924238443377
5.5,1.5,148.0,25.807270050048828,0.06361418962478638,-79.78281166807994,40.4589313348668,269.7529040789604,-0.014086638577282429,-0.006116040050983429,-0.986996054649353,0.16000950336456302,-0.01402174835869958,-0.011612461369614902,-0.007147876771296494,-0.005298187490552664,0.0013709644554182887,-0.0044088466092944145,0.04185936718247831,0.26805547859519724,-9.807210293412213
5.7,1.5,150.0,25.79099273681641,0.03180709481239319,-79.78281165606828,40.458931350518704,269.7521543717384,-0.014094373211264609,-0.006126281805336475,-0.9869913458824158,0.16003738343715668,-0.01657264532900589,-0.014970512572486041,-0.00675851843881791,0.006266901269555092,0.0020990753546357155,0.005026271566748619,0.04514092053752393,0.2502848948724568,-9.809945620894432
5.8,1.600000023841858,152.0,25.79224395751953,0.039758868515491486,-79.78281174513185,40.45893135597469,269.74616499900816,-0.014075121842324734,-0.0061243241652846345,-0.9869884252548218,0.16005738079547882,-0.014376754501220291,-0.017364004447962194,-0.009114920184377772,-0.0023375132586807013,-0.0014830393483862279,-0.002950343070551753,0.04058535025455058,0.2626825086772442,-9.807585684657095
6.0,1.600000023841858,156.0,25.79349708557129,0.11132483184337616,-79.78281179411309,40.45893134583217,269.74474724292753,-0.014091344550251959,-0.006114404182881117,-0.9869832992553712,0.16008774936199188,-0.015746085174226456,-0.01304661972074581,-0.005297728838591354,0.002438741270452738,0.001962214009836316,0.006659976206719875,0.04545301567297429,0.2484038455970585,-9.808525916934013
6.11,1.7000000476837158,156.0,25.79099273681641,0.03180709481239319,-79.78281176501329,40.45893138191108,269.7436597561836,-0.014094867743551731,-0.0061030774377286425,-0.9869768619537354,0.1601274460554123,-0.021965031087232703,-0.019059179637837646,-0.004342992843726125,0.00331667298451066,0.0015887162880972028,0.003011414548382163,0.044842575495131314,0.2513124516606331,-9.808988431692123
6.3,1.7999999523162842,159.0,25.79850578308105,-0.007951773703098297,-79.78281188165775,40.45893136048944,269.73984410524366,-0.014079127460718157,-0.006103051826357842,-0.9869714379310608,0.16016234457492828,-0.013002175267780624,-0.01612661905044346,-0.005709465794770496,-0.00626587588340044,-0.003853413509204985,-0.003140191780403257,0.042432791744358836,0.25528620114549994,-9.808503697514537
6.4,2.200000047683716,164.0,25.78973960876465,-0.007951773703098297,-79.78281197522016,40.45893136492074,269.7351879096031,-0.0140710286796093,-0.006043051835149528,-0.9869672060012816,0.16019143164157867,-0.009977557421241316,-0.017137120930637368,-0.0067321388026080654,0.0004008339310530573,-0.0013166434364393351,0.0036155269481241694,0.043527390514500434,0.24855974698439245,-9.810230380296707
6.5,2.4000000953674316,161.0,25.7872371673584,-0.015903547406196594,-79.78281197068442,40.45893138244597,269.7344867801666,-0.014043283648788929,-0.0060347835533320895,-0.9869653582572936,0.16020537912845612,-0.013568052637627469,-0.01983690804573809,-0.00630469293459751,-0.00487715657800436,-0.0009544948698021473,-0.007961532101035118,0.03970782936550677,0.26654203645884994,-9.80638115823269
6.7,2.5,164.0,25.78973960876465,0.039758868515491486,-79.78281203452444,40.45893136105333,269.7299204683304,-0.014064615592360495,-0.006002857349812985,-0.9869569540023804,0.16025646030902865,-0.013625077044934113,-0.013901370881172177,-0.0069101083440059295,-0.004288942087441683,0.0014301369665190578,-0.0011163778835907578,0.04108053176198155,0.2524664362147451,-9.808527086377145
6.91,2.5,166.0,25.78598403930664,-0.007951773703098297,-79.78281202497688,40.458931376535354,269.7291958546638,-0.014048697426915169,-0.005991789046674967,-0.9869542717933656,0.16027480363845825,-0.01651676302769776,-0.0166875904473088,-0.006413512909500992,-0.0005247704102657735,-0.00015380953846033665,-0.0036401550751179452,0.04046127964742482,0.2649078675918281,-9.80735647380352
7.0,2.5999999046325684,172.0,25.79474830627441,0.015903547406196594,-79.78281211716755,40.45893140312685,269.7243287181854,-0.014035820029675959,-0.005981743335723877,-0.9869498014450072,0.16030383110046387,-0.0159932358460301,-0.021245558031861518,-0.006825883872922211,-0.005602757912129164,-0.0013226554729044435,-0.004989205859601498,0.0433043238054961,0.2590370620787144,-9.807908450961113
7.2,2.700000047683716,173.0,25.78347969055176,-0.02385532110929489,-79.78281210669138,40.458931427444355,269.7235898590088,-0.01404570322483778,-0.005982762668281794,-0.9869480729103088,0.16031403839588165,-0.01873091385675731,-0.02425388825700211,-0.006571012003643981,0.004416464827954769,0.0010802606120705605,-0.002324312459677458,0.04272632197011264,0.25924794556573033,-9.806425597071648
7.31,2.700000047683716,177.0,25.797252655029297,-0.02385532110929489,-79.78281225985425,40.45893139505627,269.71894838571546,-0.014006040059030056,-0.005957676563411951,-0.9869401454925536,0.16036690771579742,-0.008531462416192747,-0.019814860493950003,-0.007047039780935235,-0.0070540662854909906,-0.002677102573215961,-0.007219262886792419,0.04027711976319552,0.2641858095489443,-9.808110764622688
7.5,2.5999999046325684,181.0,25.79850578308105,-0.007951773703098297,-79.78281236900587,40.458931361150476,269.7150875544548,-0.014007172547280787,-0.005945021286606789,-0.9869363903999328,0.16039039194583893,-0.003360111363646734,-0.014458315372613575,-0.00802980812084365,0.00348354852758348,0.003975330851972103,0.002391429618000984,0.043197319759055976,0.2542410478927195,-9.808364533782004
7.61,2.5999999046325684,184.0,25.801008224487305,0.02385532110929489,-79.78281236771147,40.458931392394156,269.7135079717636,-0.0140127781778574,-0.005913732573390007,-0.9869291186332704,0.16043592989444733,-0.010224544016285598,-0.019618229870458886,-0.007152184992440848,-0.0027406117878854275,-0.0005498082027770579,-0.002342109568417073,0.04018450991716236,0.2663129352405668,-9.80653610944748
7.7,2.700000047683716,185.0,25.79099273681641,0.03180709481239319,-79.78281245044069,40.45893138072428,269.70969327449797,-0.01402950007468462,-0.005902050063014031,-0.9869216680526732,0.16048046946525574,-0.010216165465067036,-0.01753150257964454,-0.007768295081532641,0.008037508465349674,0.0016865762881934645,0.00923242513090372,0.04607567561790348,0.2489141613431275,-9.80935680627823
7.91,2.5999999046325684,181.0,25.79474830627441,0.015903547406196594,-79.78281257172874,40.45893137132063,269.704589805603,-0.013990025036036968,-0.005868207197636366,-0.9869193434715272,0.16049964725971222,-0.005147786432333268,-0.016292100983309618,-0.008239458627015734,0.0046959593892097464,0.0035639861598610882,0.0015532252145931125,0.04350398337934167,0.25588402412831784,-9.808030073046686
8.1,1.8999999761581416,177.0,25.78473281860352,-0.06361418962478638,-79.78281257175156,40.458931386320636,269.7037607645988,-0.01399707980453968,-0.0058560981415212154,-0.9869145154953004,0.16052883863449094,-0.008763663928780967,-0.018585573003129248,-0.007787114569040547,-0.0044935145415365705,-0.003312620567157865,0.002499535446986556,0.04140188194345683,0.2501338722556829,-9.808407218456267
8.2,2.0,181.0,25.77346420288086,-0.05566241592168808,-79.78281264100852,40.45893135622858,269.7006004667282,-0.014006937853991984,-0.005819383542984724,-0.98690527677536,0.16058632731437686,-0.012659290974473152,-0.01142351024437498,-0.004249567645004457,0.0046344725415110605,0.0007004135404713452,0.0077701322734355935,0.04423182925209403,0.2481044133380056,-9.809108299613
8.4,1.7999999523162842,177.0,25.78973960876465,-0.12722837924957275,-79.78281263095886,40.458931369713824,269.7001527762413,-0.014000631868839264,-0.005804638843983412,-0.9869040846824646,0.160594642162323,-0.01655453023070015,-0.01358216468613325,-0.0036791490617566532,-0.005949425045400858,-0.002440394600853324,-0.006347107701003552,0.04127132001332938,0.2640184147283435,-9.807162930965424
8.51,1.7000000476837158,175.0,25.79975700378418,-0.11927660554647446,-79.78281276801707,40.458931292569424,269.69396176099775,-0.013980048708617687,-0.005768102593719959,-0.9868962168693542,0.1606464385986328,-0.00806316668343726,-0.003485724198740317,-0.005846467634621569,-0.005651090294122696,-0.00032951761386357253,0.001195776043459773,0.04203305689617992,0.2545963210612536,-9.809129934310914
8.7,1.7000000476837158,174.0,25.778472900390625,-0.14313192665576935,-79.78281275957033,40.458931299296474,269.69336380720137,-0.013986589387059212,-0.005767554044723511,-0.9868931174278259,0.16066506505012512,-0.010856784346816594,-0.006179679780017355,-0.0054275361966506785,0.0011314944131299851,-0.0017715938156470656,-0.0019886400550603867,0.03964366530999541,0.2622218394465745,-9.80753481388092
8.8,1.600000023841858,172.0,25.78473281860352,-0.15108370780944824,-79.78281291737821,40.45893130161613,269.6877173399925,-0.013961213640868664,-0.005770448129624128,-0.9868829846382141,0.16072891652584076,-0.00762434429321059,-0.011824877033614069,-0.006454491709612752,-0.010229939594864844,-0.003328913589939475,-0.010446134954690931,0.04138376471120864,0.2639587183110416,-9.806866477131843
9.0,1.600000023841858,167.0,25.78347969055176,-0.12722837924957275,-79.7828130395594,40.45893129412821,269.68281914949415,-0.01396432053297758,-0.005775283090770246,-0.98688006401062,0.16074690222740173,-0.005168852602119229,-0.012743921975839671,-0.007385537200786031,0.010465958155691624,0.001995930913835764,0.005248375702649355,0.04483825403731317,0.2507660476304591,-9.808555737733842
9.1,1.600000023841858,164.0,25.782228469848643,-0.09542128443717957,-79.78281303309191,40.45893132295993,269.68134590148924,-0.013984509743750095,-0.0057653295807540425,-0.9868730306625366,0.16078832745552066,-0.011561412579895671,-0.017480851664123682,-0.006655218946808338,0.003205560846254229,0.0023292684927582736,0.000989730004221201,0.04078774614259601,0.2603463998436928,-9.807491544485092
9.2,1.5,160.0,25.782228469848643,-0.16698725521564484,-79.78281314950759,40.45893127253427,269.676205060482,-0.013995841145515442,-0.0057340487837791426,-0.986866533756256,0.16082847118377686,-0.0087425809447966,-0.008168478682900882,-0.0076961425748910016,-0.001713903620839119,-0.00227236095815897,0.0066124070435762405,0.04363829118199647,0.24824750566855075,-9.80970354616642
9.4,1.5,161.0,25.78598403930664,-0.12722837924957275,-79.78281326892252,40.45893126840948,269.6718726968765,-0.013987034559249878,-0.005718289874494076,-0.9868603348731996,0.1608675867319107,-0.009321628857088706,-0.009731775713996459,-0.004588836735782942,0.004738185554742813,0.0003875370020978153,0.006082501728087664,0.044285714998841284,0.2473897008597851,-9.810057302713394
9.6,1.5,161.0,25.7872371673584,-0.11927660554647446,-79.78281326168867,40.45893127957749,269.67139580011366,-0.01398483943194151,-0.00570374121889472,-0.9868572354316713,0.16088765859603882,-0.013146168183800476,-0.011743738111120594,-0.00409316566177807,-0.007862173020839691,-0.002980564953759313,-0.008967187255620956,0.04072887198999525,0.26603727556765083,-9.806724974513054
9.7,1.5,160.0,25.78347969055176,-0.11132483184337616,-79.78281338795341,40.45893123929139,269.66497971773146,-0.01396168116480112,-0.005664628464728594,-0.986846089363098,0.1609593629837036,-0.011006940986544032,-0.005008486852961213,-0.006208018563211208,-0.006331701297312975,-0.003384412499144673,-0.005972164217382669,0.04121393050532788,0.25729691242799163,-9.8063624471426
9.9,1.5,158.0,25.802261352539066,-0.11927660554647446,-79.78281337801971,40.45893124675167,269.66433288812635,-0.013967539183795452,-0.00565874669700861,-0.986842691898346,0.1609797328710556,-0.013175101248829993,-0.007368032223907181,-0.0058962606490709606,0.005831614602357149,0.001100150402635336,0.001369597390294075,0.04228272386826575,0.2568237082287669,-9.807524873614312
10.0,1.600000023841858,160.0,25.804765701293945,-0.04771064221858978,-79.78281350850287,40.45893123573154,269.6582344985008,-0.013964829966425896,-0.005651623010635376,-0.9868334531784058,0.161036878824234,-0.012701429741783524,-0.008954813354080451,-0.006376550000856479,-0.0003343811258673668,0.002180316485464573,-0.009445808827877043,0.04021659651305527,0.2636643840931356,-9.807088086605072
10.2,1.600000023841858,161.0,25.802261352539066,-0.04771064221858978,-79.78281349659065,40.45893124829971,269.65756644964216,-0.0139910439029336,-0.005665319506078959,-0.9868257641792296,0.16108107566833496,-0.015468070616955163,-0.011241620218790277,-0.006048162059769682,0.002519077155739069,0.004584041889756918,0.005540197249501944,0.04526388565544039,0.2482467930391431,-9.809735121130943
10.3,1.7000000476837158,163.0,25.79349708557129,-0.05566241592168808,-79.78281366889294,40.45893123247228,269.6505173063278,-0.013961674645543098,-0.005630632862448692,-0.986819863319397,0.16112114489078522,-0.009388681988116376,-0.01237148939309927,-0.007137429004576655,0.0071351020596921435,0.001428756513632834,0.0041643735021352785,0.04402681125327945,0.2499346466548741,-9.808477385044098
10.5,1.7000000476837158,165.0,25.797252655029297,-0.04771064221858978,-79.78281381743646,40.45893119457937,269.64429899215696,-0.01395217049866915,-0.005615735426545143,-0.9868163466453552,0.16114388406276706,-0.007343812862332854,-0.0062173464324586074,-0.008226570832365917,-0.008153996430337429,-0.004870939999818803,-0.004083231091499329,0.0416448520263657,0.2605475075170398,-9.807902603745461
10.6,1.7999999523162842,165.0,25.80351257324219,-0.04771064221858978,-79.78281380385877,40.45893121320202,269.6426571822166,-0.01394728757441044,-0.005604632198810577,-0.9868051409721376,0.1612132042646408,-0.012836229928229376,-0.010389752772080738,-0.007466930352625709,-0.0015561957843601706,-0.0007608385058119893,0.0018613762222230434,0.04352144279982895,0.24972628477960826,-9.809032870531082
10.7,1.7999999523162842,168.0,25.79850578308105,-0.04771064221858978,-79.78281399884708,40.458931160280926,269.635921857357,-0.013919232413172722,-0.0055871489457786075,-0.98680180311203,0.1612367480993271,-0.002697058875676686,-0.006033440725492837,-0.008539923348148926,0.0008772232686169448,-0.002176252892240882,-0.0067553073167800895,0.04102856006473303,0.26510650847107176,-9.806747193932534
10.9,1.8999999761581416,169.0,25.79850578308105,-0.06361418962478638,-79.7828141729747,40.45893115527021,269.628790102005,-0.013898094184696673,-0.00558886444196105,-0.9867976307868958,0.16126391291618347,-0.0018891369801974363,-0.010244953006513412,-0.008589898012768516,-0.003653931664302945,0.0006034577381797135,-0.01104156766086817,0.04003721946850418,0.2624223258532584,-9.807108551859855
11.1,2.0,170.0,25.80601692199707,-0.05566241592168808,-79.7828141758186,40.45893116428577,269.62792970895765,-0.01389085128903389,-0.005570512264966965,-0.9867958426475524,0.16127607226371765,-0.0036453887501987953,-0.012423055616556879,-0.008337156331207352,0.008432928472757341,0.0025641368702054024,0.0005844870465807617,0.04321965338196606,0.2532319281063974,-9.809048658013344
11.2,2.0999999046325684,171.0,25.802261352539066,-0.04771064221858978,-79.78281434444598,40.4589311256666,269.6210713601112,-0.013882500119507313,-0.005555914714932443,-0.9867883324623108,0.16132332384586334,-0.0016497012409357845,-0.007065335412044492,-0.008760669114881795,-0.0036664505023509264,-0.0008009744342416525,-0.009776848368346693,0.04019596223719418,0.26653412444517016,-9.806630249619484
11.4,2.200000047683716,175.0,25.79975700378418,-0.05566241592168808,-79.78281434550217,40.45893113224444,269.6201963639259,-0.013884351588785648,-0.005533649120479822,-0.9867842197418212,0.16134917736053467,-0.003681901214360279,-0.009092177416853994,-0.008555116573881022,0.004612295422703028,0.0004826123185921461,0.004960043355822563,0.044194356822408735,0.2486440199799836,-9.80861128628254
11.51,2.200000047683716,175.0,25.79474830627441,-0.03180709481239319,-79.7828145270488,40.45893112723692,269.6159264063835,-0.013870301656425,-0.005534696392714977,-0.9867772459983826,0.16139313578605652,-0.003645375866578443,-0.011592225616122649,-0.005515377063887417,0.004218769259750843,0.001986597664654255,-0.0018486016197130086,0.04077070242259652,0.25965145826339725,-9.80669456899166
11.7,2.200000047683716,175.0,25.79224395751953,-0.05566241592168808,-79.78281452609238,40.45893113938882,269.615367732048,-0.013901300728321077,-0.0055573713034391395,-0.9867716431617736,0.16142363846302032,-0.006427184259415407,-0.013652374384749876,-0.005223270336722239,0.0013351056259125473,-0.0006635128520429133,0.003175921039655805,0.0445967594627291,0.2499707897566259,-9.808945162296297
11.8,2.200000047683716,174.0,25.79474830627441,-0.05566241592168808,-79.78281471354538,40.45893108972109,269.6089345431328,-0.013904028572142124,-0.005538329016417265,-0.9867672920227052,0.1614508181810379,-0.0032417872660796213,-0.008835594472503256,-0.0066158968060544285,0.005006202496588229,0.0021141066681593657,0.005040981341153382,0.04275418303906918,0.2535784852690995,-9.808427683711054
11.91,2.200000047683716,171.0,25.802261352539066,0.007951773703098297,-79.78281486786635,40.458931061149705,269.6056114053726,-0.013918067328631878,-0.005525763146579266,-0.9867638945579528,0.16147097945213318,-0.0036906353539963533,-0.005460859247283617,-0.0044882956508665054,-0.0020305910147726536,-0.0005259919562377036,0.00341350631788373,0.0427549550542608,0.2514287381619215,-9.808635844588279
12.1,2.200000047683716,171.0,25.79975700378418,-0.039758868515491486,-79.78281486140972,40.4589310762541,269.60474833011625,-0.013906762935221195,-0.005518305581063032,-0.986760139465332,0.16149497032165527,-0.008503699864244936,-0.009650997895750087,-0.003886121014045629,0.006684959400445223,0.003954853862524033,0.005606331862509251,0.04495414767879993,0.2505560046806932,-9.80782892882824
12.3,2.299999952316284,170.0,25.78973960876465,-0.07951773703098297,-79.78281504581852,40.4589310505292,269.6017698264122,-0.01388219464570284,-0.005503739695996046,-0.9867586493492126,0.1615065485239029,-0.005116985729337989,-0.007537791841983788,-0.002720673432447871,-0.0056999726220965385,-0.002536081476137042,-0.003869237145408989,0.04168508817907423,0.2542962675355375,-9.80720503091812
12.41,2.299999952316284,167.0,25.78973960876465,-0.14313192665576935,-79.78281521491145,40.45893101986602,269.5991960978508,-0.013871687464416029,-0.005487825255841017,-0.9867562651634216,0.16152247786521912,-0.00467196568208141,-0.004941984416600232,-0.0017320952542660961,0.0031734879594296217,0.002009221352636814,0.0060749314725399035,0.04580352427437902,0.2485605327039957,-9.807512009739877
12.51,2.299999952316284,165.0,25.782228469848643,-0.13518016040325165,-79.78281521112238,40.45893102566447,269.5990219926834,-0.013852445408701895,-0.005474943667650223,-0.9867548942565918,0.16153348982334134,-0.008249574499910482,-0.0065849586016827645,-0.0013357962476786733,-0.006016726139932871,-0.0031957875471562147,-0.00999043509364128,0.04229297933634371,0.2627836837805808,-9.805658442378043
12.71,2.299999952316284,163.0,25.77972412109375,-0.15108370780944824,-79.78281540705935,40.45893099703135,269.5967815732956,-0.013846348039805887,-0.0054531055502593535,-0.9867546558380128,0.16153618693351746,-0.004457755278646857,-0.006142390824262832,-0.0006554006948006647,-0.007306036073714496,0.0005312087014317513,-0.0031100520864129066,0.04235966957174242,0.25321467882022264,-9.808380905985834
12.8,2.200000047683716,161.0,25.78598403930664,-0.15903547406196594,-79.78281540456328,40.4589310036065,269.59670617341993,-0.013837209902703762,-0.005438141990453005,-0.9867554903030396,0.16153202950954434,-0.006795592419731369,-0.007973084424093255,-0.00035706085149666265,-0.0012979261809960008,-0.00190038129221648,0.0017956924857571719,0.0411748729320243,0.26121491236612204,-9.807279875278473
13.01,2.200000047683716,160.0,25.775968551635746,-0.11927660554647446,-79.78281558702271,40.458930984726734,269.5945047354698,-0.013839324936270714,-0.005413557402789593,-0.9867502450942992,0.16156506538391113,-0.006440693068979309,-0.008186353858270951,0.00020725228649252643,0.00025339057901874185,0.0007566554704681039,-0.008033312857151031,0.04022856046445668,0.2650818039849401,-9.80654604971409
13.2,2.0999999046325684,159.0,25.7872371673584,-0.15903547406196594,-79.78281558213808,40.45893099467842,269.5945116496086,-0.013849033042788506,-0.005431382916867733,-0.986747145652771,0.16158254444599152,-0.008305105953583443,-0.010182308253699587,0.00044594193167561653,0.005030748900026083,0.0014714690623804927,0.00575146172195673,0.04435029932297766,0.2475000853277743,-9.808771499991416
13.31,2.0999999046325684,160.0,25.77346420288086,-0.17493902146816254,-79.78281579533257,40.45893095220071,269.59058722019194,-0.013829455710947514,-0.005428105127066374,-0.9867414236068726,0.16161932051181793,-0.0023650617961264147,-0.007901300062714228,-0.002268122411207384,0.00582388276234269,0.0006861683214083314,0.0031345614697784185,0.04296692575793713,0.2518335482105613,-9.808646369576453
13.4,2.0999999046325684,160.0,25.78347969055176,-0.15108370780944824,-79.7828159931402,40.45893094861375,269.5893597817421,-0.013815953396260737,-0.005430174991488457,-0.9867355227470398,0.16165591776371002,-0.0010107719469730702,-0.011971146571938393,-0.0011418257699067188,-0.006367780733853579,-0.0016722838627174494,-0.003428339958190918,0.04302544359583408,0.2569644799456001,-9.807631877660752
13.6,2.0999999046325684,161.0,25.78347969055176,-0.17493902146816254,-79.78281599766434,40.45893097326432,269.58914568185804,-0.013820022344589232,-0.005423247814178467,-0.9867275953292848,0.16170434653759005,-0.005909665109374893,-0.015608030330747045,-0.0005299438606202413,-3.3264693684031954e-06,-0.000374891038518399,0.0014151243958622215,0.04312311036977917,0.25334468800574544,-9.808959195613859
13.8,2.0,160.0,25.78347969055176,-0.17493902146816254,-79.7828161724149,40.458930921040476,269.58820428609846,-0.013827741146087643,-0.005417782347649336,-0.9867239594459534,0.1617264747619629,-0.004022716155602268,-0.008991467570411015,-0.00022836760180667247,0.0024010143242776394,0.0023479382507503037,-0.0022796296980232,0.04076416541822255,0.2641666599176824,-9.805859001874923
13.91,2.0,160.0,25.78347969055176,-0.13518016040325165,-79.78281637179876,40.45893091143716,269.58712627649305,-0.013820274733006954,-0.005415588617324829,-0.9867168664932252,0.16177046298980713,-0.0025825504091796163,-0.011927346022350066,0.00014998088754747968,-0.0037245738785713907,-0.00041541826794855297,-0.005911708809435368,0.03986697413027287,0.2654571038670838,-9.805922736525536
14.0,1.8999999761581416,161.0,25.775968551635746,-0.13518016040325165,-79.78281637364832,40.458930922389655,269.58713533639906,-0.013831020332872871,-0.005411009769886732,-0.98671293258667,0.1617935746908188,-0.004458451887674134,-0.01378470505238284,0.00034932404839789293,0.0016753018135204911,0.0027702385559678078,0.008799418807029724,0.045921053308993584,0.2478357520513237,-9.808679698705674
14.2,2.0,162.0,25.78347969055176,-0.14313192665576935,-79.78281656735275,40.45893086260061,269.5842099404335,-0.013838937506079674,-0.005368668120354414,-0.9867067337036132,0.16183175146579742,-0.0004749223183089704,-0.005443992043177441,-0.0026722364458092503,0.00369060761295259,0.0007910591666586697,0.005777845159173012,0.043235020595602684,0.2483572140522301,-9.809368500709533
14.3,2.0,164.0,25.775968551635746,-0.20674611628055573,-79.7828165683225,40.45893086754532,269.5839593029022,-0.013822076842188835,-0.005344923585653305,-0.9867066740989684,0.16183440387248993,-0.003999275610137259,-0.0069180475186505575,-0.0021770378998104624,-0.007846686989068985,-0.005017971619963646,-0.008357496000826359,0.03767426369246096,0.2666771254129708,-9.806006351709367
14.51,2.0,164.0,25.77972412109375,-0.11132483184337616,-79.78281669977896,40.45893086738563,269.58305599451063,-0.013852473348379135,-0.0053377654403448105,-0.986700177192688,0.1618720144033432,-0.013489602680204956,-0.00919016099612575,-0.0008282297539757735,-0.0073141809552907935,0.00029716116841882467,-0.007485073525458573,0.04219760119915009,0.26479463260620834,-9.806418580412863
14.6,2.0999999046325684,164.0,25.788488388061523,-0.07951773703098297,-79.78281668775394,40.45893088025654,269.58293142080305,-0.013873087242245674,-0.005358635913580656,-0.9866939187049866,0.16190752387046814,-0.01501117730264796,-0.011228916962249544,-0.000685926042049045,0.005840891972184181,0.00023083545966073868,0.005000368691980839,0.04681668686214835,0.2489418259821833,-9.808719459772108
14.8,2.200000047683716,166.0,25.76970863342285,0.15108370780944824,-79.78281687615141,40.45893080939235,269.58199878692625,-0.013838005252182484,-0.005331477615982294,-0.9866716861724854,0.16204649209976196,-0.010408926203485555,-0.004170187784660619,-0.00029771776736135477,0.010420294478535652,0.0008374007302336395,0.010389181785285471,0.05679218751378357,0.2703667367622257,-9.806800988316537
15.0,2.200000047683716,165.0,25.76970863342285,0.13518016040325165,-79.78281707449099,40.45893076049703,269.5829220628738,-0.013813536614179613,-0.005332533270120621,-0.9866957664489746,0.16190221905708313,-0.005288861929944125,-0.0022815499738454105,0.002613961934094553,-0.001247859443537891,-0.004160864278674126,-0.02675502747297287,0.04359251387882978,0.2431477651745081,-9.805924490690233
15.11,2.200000047683716,165.0,25.76720428466797,0.15903547406196594,-79.78281706444206,40.45893076899112,269.5834205365181,-0.013790084049105644,-0.005304623860865831,-0.9866698384284972,0.1620628535747528,-0.010323802919480929,-0.005825117161026792,0.003248673710259101,-0.004807899706065655,-0.00014995141827967018,-0.01773226633667946,0.03264455731026829,0.254892263263464,-9.808532933592796
15.3,2.299999952316284,164.0,25.76720428466797,0.14313192665576935,-79.7828172558802,40.45893072448817,269.58434411048887,-0.013783455826342106,-0.0053078308701515215,-0.9866958260536194,0.1619051992893219,-0.0029759341811872045,-0.00411868270679535,0.005001672622122111,0.007368613034486771,3.521290273056365e-05,0.005563999991863966,0.03904605702962727,0.2371755835600197,-9.804531683921814
15.4,2.299999952316284,165.0,25.75969123840332,0.18289080262184146,-79.78281742828015,40.45893066496858,269.5839476203918,-0.013766162097454071,-0.005271054804325104,-0.9866739511489868,0.16204144060611725,-0.002241372977717049,0.0024535224147912327,0.0036690339778529452,0.011594342067837715,-0.0016041452763602138,-0.014058390632271768,0.05145304465200752,0.2394855809211731,-9.810937893390657
15.51,2.200000047683716,169.0,25.760942459106445,0.2624085247516632,-79.7828174253779,40.45893066437948,269.5843175268173,-0.013759160414338112,-0.005254218354821204,-0.986677885055542,0.16201835870742798,-0.0040544333968043035,0.001195186547062659,0.0038345320911455077,-0.012048033997416495,-0.0042078224942088144,0.0063901166431605825,0.04729354557115585,0.2622114789113402,-9.805252645611764
15.7,2.299999952316284,169.0,25.748422622680664,0.3101191818714142,-79.7828176236184,40.4589306233081,269.5862906193733,-0.013742417097091677,-0.0052350861951708785,-0.9866681694984436,0.1620793640613556,-0.0010260138442064652,-0.000123017485591823,0.006372573966259079,-0.003906681668013334,-0.002911551855504513,-0.018617508932948112,0.0444416072499007,0.2629648743756116,-9.805176631808283
15.9,2.4000000953674316,174.0,25.623218536376953,2.4332427978515625,-79.78281762255169,40.45893062430729,269.58694054841993,-0.013742804527282715,-0.005252896808087826,-0.9866641163825988,0.1621038317680359,2.7666375497113928e-05,-0.0024019527246889644,0.007135280837591475,0.0070562497712671765,0.012791105546057224,0.024181034415960312,0.03544204571982846,0.2736099497415125,-9.810284174680714
16.01,2.4000000953674316,171.0,25.75343132019043,0.37373337149620056,-79.78281777871801,40.45893059139613,269.5868259882927,-0.013421379029750824,-0.005381090566515922,-0.9866326451301576,0.16231760382652285,-0.006995095351089289,-0.0013303501957199126,0.004884529596439519,0.0008500609546899796,0.022405274212360386,0.004809510428458452,0.03670163647038862,0.3175143714621663,-9.799083248376848
16.2,2.4000000953674316,173.0,24.37116622924805,18.797992706298828,-79.78281777179127,40.45893059521336,269.587267062664,-0.013552848249673843,-0.005325894337147474,-0.9866421222686768,0.16225050389766693,-0.013993985698352591,-0.0003074784968461453,0.0043654665939792505,-0.021027710288763046,-0.022102201357483864,-0.03918582573533058,0.050246083410456784,0.3415150355547667,-9.791415794491767
16.3,2.5,174.0,25.68957710266113,1.7493902444839478,-79.78281792253115,40.45893057055797,269.5869688606262,-0.013380539603531359,-0.005433475598692894,-0.986604869365692,0.16248831152915955,-0.011730682857696394,-0.002070211218992496,0.0036604494478129908,-0.041954636573791504,-0.047244172543287284,-0.040101006627082825,0.0496439161291346,0.2794794944487512,-9.784665768742565
16.5,2.5,178.0,25.774715423583984,0.198794350028038,-79.78281812521288,40.45893049521713,269.587577483654,-0.013493223115801813,-0.005409264471381903,-0.9866235852241516,0.16236551105976105,-0.0044870370865809145,0.005374732044251189,0.002854454037337125,-0.06088980287313461,-0.06626851856708528,-0.047764260321855545,0.03601572609739378,0.3627539135143161,-9.789838215708732
16.6,2.5,179.0,25.77721977233887,0.2306014448404312,-79.78281812229166,40.458930491980944,269.5881204819679,-0.013597674667835236,-0.005329860839992762,-0.9866292476654052,0.16232545673847198,-0.0027507625548590666,1.2882356422617958e-05,0.003339209470471463,0.004562634043395518,-0.01188478618860245,-0.0027634452562779192,0.040560787380672994,0.2519581304490566,-9.809810550212859
16.7,2.5999999046325684,182.0,25.669544219970703,2.0038471221923837,-79.78281830102806,40.458930452294155,269.58787294387815,-0.013595616444945335,-0.005319471936672926,-0.9866232872009276,0.16236181557178495,0.0002868654411202898,0.002041171642975912,0.0026294392864920427,-0.026975784450769424,-0.01500178687274456,-0.011263547465205193,0.039768544477410614,0.2966251935437322,-9.801811559200287
16.9,2.5,183.0,25.46170234680176,4.890340805053711,-79.78281845019104,40.458930414085614,269.5882495856285,-0.013569727540016173,-0.005308973602950573,-0.9866197109222412,0.16238659620285034,0.0006682129627931478,-0.0032921287588967532,0.0016389881767995668,-0.007871477864682673,-0.013347700238227844,0.0026102124247699976,0.026054482602048668,0.2568273261934519,-9.803011992573738
17.0,2.5999999046325684,182.0,25.38783264160156,6.122866153717041,-79.78281845178483,40.458930415301936,269.58851285934446,-0.013408781960606577,-0.005422067828476429,-0.9866082668304444,0.162465438246727,-0.00037690819547505874,-0.002709821770512505,0.002974201664921634,0.0006259691435843706,0.02769792638719082,-0.05000094324350357,0.06140668219886721,0.2832699337229133,-9.815440249443057
17.21,2.700000047683716,177.0,25.22506523132324,8.953697204589844,-79.78281860542978,40.458930361141725,269.58945586442945,-0.012608839198946951,-0.005245532374829054,-0.9866061806678772,0.16254782676696775,0.007743440430731162,-2.2793429679212685e-05,0.003798952824062457,0.07406789064407349,0.0681660920381546,-0.03585723042488098,0.05714835146907717,0.14251502763479948,-9.825143119096756
17.3,2.799999952316284,177.0,25.132413864135746,10.416823387145996,-79.78281860725545,40.458930360795776,269.58990939617155,-0.012103212065994741,-0.005249583628028631,-0.986619472503662,0.1625053435564041,-0.004237676857371493,0.0028745970951771,0.005639746480097257,-0.06082791090011596,-0.09327249974012376,0.05033278837800026,0.16927382335066796,0.3591462180018425,-9.895191593170166
17.5,2.799999952316284,175.0,24.93584251403809,13.589581489562988,-79.78281874942002,40.458930321863406,269.59222485780714,-0.009767191484570505,-0.004832489416003227,-0.9866429567337036,0.1625332534313202,-0.010264899715501404,-0.00036812337064061785,0.006639133465530514,-0.10197516530752182,-0.07296053320169449,0.07740531116724014,0.12062914612703025,0.16991403864696622,-9.838518040180208
17.6,2.799999952316284,175.0,24.81940078735352,15.23559856414795,-79.78281875612821,40.458930323139036,269.59310027122496,-0.00827211607247591,-0.0047543044202029705,-0.9866425395011902,0.16262061893939972,0.009326870102561748,-0.009691188812846334,0.009600682536662823,0.06647355854511261,-0.033177703619003296,0.07707706838846208,-0.08010185689665378,0.1738303392380476,-9.791747916340828
17.8,2.799999952316284,176.0,24.566486358642567,19.48184585571289,-79.78281892511433,40.458930312927826,269.59478726148603,-0.005398142617195846,-0.006000685039907694,-0.9867653250694276,0.16195374727249146,0.009102379916155678,-0.022657701116820368,0.021423559932694763,-0.02692677639424801,0.029352810233831406,0.02807273529469967,-0.14157176211476327,0.22464021300897,-9.877293266057967
18.0,2.9000000953674316,176.0,24.324840545654297,23.441829681396484,-79.7828190166954,40.45893027929793,269.59650757074354,-0.003826651489362121,-0.008548637852072716,-0.9868101477622986,0.1616106629371643,-0.002720335009077228,-0.025783392539869405,0.033420250129030465,0.03400644287467003,0.0811498761177063,0.016605325043201447,0.2207029172591865,-0.028803914207965138,-9.914543538093568
18.1,2.9000000953674316,176.0,24.165830612182607,25.64447021484375,-79.78281897658465,40.4589303662429,269.60741867780683,-0.0077322861179709435,-0.015322237275540829,-0.986825704574585,0.16087409853935242,-0.06372696945763416,-0.05662025624944302,0.11325461252739714,-0.040852140635252,0.0926177129149437,-0.03346159681677818,0.0559728464204818,0.1633099009282887,-10.414506204128266
18.3,2.9000000953674316,174.0,24.4074764251709,21.533403396606445,-79.78281911219909,40.4589302861997,269.61295910835264,-0.0057852016761898994,-0.017091384157538414,-0.9868909120559692,0.1603769212961197,-0.04985489413730693,-0.07849752601071472,0.20806792823207368,0.1020628660917282,-0.0012192081194370985,-0.02504044771194458,-0.0367522537149489,-0.09691161517985164,-10.77310541510582
18.4,2.9000000953674316,173.0,24.545202255249023,19.529556274414066,-79.7828191211251,40.45893061689613,269.65983214139936,0.0005005972925573587,-0.005748589523136616,-0.986858367919922,0.16148489713668826,-0.10073299572483776,-0.0895710181004992,0.3305208835827292,-0.015502785332500938,-0.1897719353437424,-0.2117727845907212,0.0754487431794405,0.21172895785421134,-10.205394569635393
18.51,2.9000000953674316,176.0,24.42375373840332,21.35846519470215,-79.78281904768413,40.45893074413229,269.6921034073829,0.002484490629285574,0.0019208054291084407,-0.9867448210716248,0.16224923729896545,-0.10485670267660184,-0.10967719208978954,0.3126502971939468,0.04931747913360597,-0.2470109164714813,0.12192578613758087,-0.08346295522525908,-0.4380970779061318,-9.81635241508484
18.7,2.9000000953674316,177.0,24.319833755493164,22.72616958618164,-79.78281921891967,40.458930994899305,269.7261529779434,0.005331475753337146,0.007701997645199299,-0.9867428541183472,0.16202084720134735,-0.09140745915736324,-0.08233602644814697,0.16309154850637206,0.01556883193552494,0.019532768055796627,0.06579522043466568,0.045667275013402106,-0.11433325717225673,-9.272642050981524
18.8,2.9000000953674316,176.0,24.29980087280273,22.996530532836914,-79.78281914652577,40.45893108153161,269.74083872795103,0.004653292708098888,0.009684083051979542,-0.9868420958518982,0.161329984664917,-0.10778117261059447,-0.06431803119531562,0.1343792928513862,-0.225457027554512,-0.035442039370536804,-0.051326651126146317,-0.10241958268918096,-0.009249673895537854,-9.437331803441046
19.0,2.799999952316284,174.0,24.38744354248047,21.98665428161621,-79.78281930244755,40.45893126245886,269.7726572370529,0.005672966130077839,0.009736797772347929,-0.9870120882987976,0.1602504402399063,-0.06964252553252175,-0.06619465522618123,0.14081461682473184,-0.08120197057723999,0.04694174230098725,-0.04193810001015663,-0.1543354847095907,-0.13531477541662754,-9.874141616821287
19.2,2.799999952316284,174.0,24.103227615356445,25.79555511474609,-79.78281925513384,40.45893133362203,269.7862810707092,0.004394394811242819,0.007629402447491884,-0.9870075583457948,0.16043299436569214,-0.05843251453603316,-0.06632127987464413,0.13251126472757596,0.015151980333030226,0.1140209436416626,-0.08544182032346725,-0.025537604726850988,-0.069769653249532,-9.808698994517327
19.31,2.799999952316284,173.0,24.404972076416016,20.984731674194336,-79.78281910403204,40.458931465259965,269.8245485639572,0.0025936320889741182,0.005726112984120846,-0.9867665767669678,0.16202595829963684,-0.0820767663415738,-0.0557972156347376,0.17450646690231705,-0.02091049961745739,0.0930146425962448,0.019143369048833847,-0.06964885799679905,0.002154762921854854,-9.938373280763628
19.5,2.799999952316284,174.0,24.22092056274414,23.91098403930664,-79.78281912658035,40.45893161744487,269.84581109046934,0.0021788927260786295,0.007031579967588186,-0.9866251945495604,0.16283920407295227,-0.08448125114289368,-0.06845678667146167,0.1354112119719404,-0.016958869993686676,-0.07752945274114609,0.09014914184808732,-0.06940919981338084,-0.2841681391373277,-9.534762203693392
19.61,2.799999952316284,172.0,24.20214080810547,23.537250518798828,-79.7828189795719,40.45893176053315,269.8684144234657,0.0036938583943992853,0.00987111683934927,-0.9865200519561768,0.16330084204673767,-0.10167321258774388,-0.05239201390285346,0.10126330396613714,-0.1438101828098297,0.045725241303443916,0.0013782210880890489,-0.2540789338387549,-0.3371314876154065,-9.711502482891085
19.71,2.799999952316284,172.0,24.289783477783203,22.352436065673828,-79.78281897100501,40.45893164684315,269.90389712810514,0.0020420749206095934,0.00820655096322298,-0.9867324233055116,0.1621348261833191,-0.08853658615642951,-0.0303393702682504,0.12534506922349953,-0.05869396775960922,0.029156660661101338,0.09168348461389544,-0.1654734072647989,-0.4075981837883592,-9.729406072497367
19.9,2.9000000953674316,171.0,24.13703346252441,24.69025802612305,-79.78281880917051,40.4589316444089,269.93949200868605,0.0035370169207453728,0.00990085769444704,-0.9873030781745912,0.1584997922182083,-0.10697384476335284,-0.008529717298272978,0.11658775477927932,-0.05056608468294144,0.037638626992702484,0.04914641380310058,-0.13444222466088832,-0.0664535510726273,-9.729481501579283
20.1,3.0,172.0,24.083194732666016,25.692180633544922,-79.78281870368603,40.4589316751695,269.95204355478285,0.004493418615311384,0.009053600020706657,-0.9873936176300048,0.15796124935150144,-0.09913713090026954,-0.007899320778420125,0.1366450924776064,0.037764888256788254,0.025507356971502304,0.04501764103770256,-0.08293538105674088,-0.3672160334140063,-10.000774766206742
20.21,3.0,171.0,24.72299385070801,18.97293281555176,-79.78281855774013,40.458931651803155,269.9993780469894,0.0065963082015514365,0.009812206961214542,-0.9872766137123108,0.1585724949836731,-0.09621958387688756,0.01846474896193237,0.14821689874280627,0.06694117188453674,-0.019432146102190014,0.028380850329995155,-0.19643907364457847,0.06867404035292568,-9.351073093414307
20.3,3.2000000476837163,171.0,23.920429229736328,28.78542137145996,-79.78281844756145,40.458931660342344,270.0071043586731,0.010915439575910568,0.010865010321140293,-0.98689067363739,0.16065433621406555,-0.09848939164984068,0.00950960269495068,0.02630145034878379,-0.012045961804687977,0.06002425402402878,-0.022167842835187912,-0.30605726402252914,0.012190631506964564,-8.950109635591508
20.5,3.2000000476837163,172.0,23.89413642883301,28.610483169555664,-79.78281838675406,40.45893168039468,270.0364282941818,0.013228166848421095,0.00824520457535982,-0.9865069389343262,0.1629759669303894,-0.09345939718746588,0.006260679691806942,0.09205444504665744,0.010448013432323931,0.058818064630031586,-0.000383331993361935,-0.29817547313869003,-0.09451377253979447,-9.908382911682132
20.6,3.299999952316284,176.0,23.801483154296875,29.93842887878418,-79.78281820910195,40.458931695703576,270.07501789093016,0.011681612581014631,0.0058171339333057395,-0.9857670664787292,0.16760961711406708,-0.0650918065898358,0.003196323152647616,0.3011544120996481,-0.039888981729745865,0.04676653817296028,-0.06339115649461746,-0.1855489999428392,-0.10816192304715516,-10.783892358541491
20.8,3.299999952316284,174.0,23.65624618530273,31.830951690673828,-79.78281830099152,40.45893157855115,270.1548832273483,0.00797572173178196,0.0069775348529219645,-0.9851641058921814,0.17128749191761014,-0.035776629546784566,-0.007141667418897094,0.617562766696516,0.002116878516972065,0.0260428823530674,-0.014726669527590275,-0.17959872711449862,-0.04303854044526816,-11.705709414482115
20.9,3.5,175.0,23.58487892150879,33.69961929321289,-79.78281840088442,40.458931540875895,270.2207420682907,0.0065476680174469965,0.00724808545783162,-0.9851595759391784,0.17136311531066895,-0.032352976044675644,-0.007428931525780558,0.7947185355192592,0.020702529698610302,-0.01235981099307537,0.10409241169691086,-0.16689212450757626,-0.24792530581355096,-11.812169669866565
21.1,3.5,176.0,23.52352905273437,34.26419448852539,-79.78281835612022,40.45893153582518,270.4200346088409,0.007040344644337893,0.015768086537718773,-0.984974443912506,0.17183485627174375,-0.03696119654594068,-0.0076927319726525145,1.208853068859166,0.03984559327363968,-0.07877158373594284,-0.01190725527703762,-0.1853480567224324,-0.31597132779657844,-11.886605894565587
21.3,3.5999999046325684,176.0,23.18797874450684,39.89405059814453,-79.7828184152994,40.45893153647762,270.54383285999296,0.006420203950256109,0.01951446384191513,-0.984763205051422,0.17268310487270355,-0.048402051535808656,-0.011095189809451605,1.4171146457468,-0.06754862517118454,-0.04500490427017212,-0.040448274463415146,-0.36003086518496275,-0.43348070114851,-12.003723285198214
21.41,3.5999999046325684,176.0,23.29315185546875,38.79670333862305,-79.7828184126684,40.45893143503104,270.8637408828735,0.007510995492339134,0.01827574521303177,-0.9854186177253724,0.16899655759334564,-0.054448320856291615,-0.01735903579915551,1.9343224204329617,-0.03595312312245369,0.0696718618273735,-0.004911272786557674,-0.3769971095770598,-0.34975273914635185,-12.4319768679142
21.5,3.5999999046325684,179.0,23.14666175842285,39.369232177734375,-79.78281837915198,40.4589313800348,271.0696520423889,0.009168240241706371,0.01292399503290653,-0.9860668182373048,0.16559378802776334,-0.06436825414082754,0.0011259335161703694,2.179938395065764,-0.0878981202840805,0.09099803119897842,-0.12186665832996367,-0.12136835295706988,-0.23619568157941104,-12.364635654687884
21.7,3.5999999046325684,179.0,23.14666175842285,39.77477264404297,-79.78281832031925,40.45893122124174,271.5244121170044,0.009845738299190998,0.01026302669197321,-0.986025094985962,0.1659887731075287,-0.07296627745260352,0.043473333906373465,2.6483025104500846,0.009433431550860405,-0.004912653937935829,-0.03930038958787918,-0.16978264074772598,-0.4161666570603848,-12.309435600042345
21.8,3.5999999046325684,185.0,23.29941177368164,35.79093551635742,-79.78281826639785,40.458931141869776,271.8007356739044,0.01135033182799816,0.014382281340658663,-0.985365092754364,0.16946975886821747,-0.0852321070306497,0.05289873926199392,2.870325753380369,0.0320889838039875,-0.09895388036966324,-0.09876441955566406,-0.09154346921481192,-0.14840357579290867,-12.049860155582433
22.0,3.700000047683716,185.0,23.49723625183105,32.97600555419922,-79.78281824525287,40.45893101611321,272.05266877174375,0.014211742207407953,0.01826007664203644,-0.9846678972244264,0.1728983372449875,-0.08098441687502443,0.04822172125271658,2.9791940330776847,0.02107548899948597,0.049444589763879776,-0.03233325108885765,-0.2895074327476323,-0.33176772706210617,-11.483370208740235
22.1,3.799999952316284,190.0,23.597400665283203,31.457218170166016,-79.78281813732573,40.4589307633894,272.6680204486847,0.01086139865219593,0.006905865389853716,-0.9835736751556396,0.18004807829856873,-0.08742011211286957,0.08968677695566825,3.162016378487447,-0.10644453018903732,0.2369734346866608,-0.07714191824197769,-0.11123267970979214,-0.14963634244166316,-10.661521829366684
22.31,3.9000000953674316,191.0,23.74138641357422,28.47530174255371,-79.78281811230877,40.458930374087785,273.2433423614502,0.007828645408153534,-0.0066338563337922105,-0.9829190969467164,0.1837524026632309,-0.0376397757849217,0.17915721574684906,3.208122349569692,0.04301751777529717,0.17262865602970126,-0.013566360808908941,-0.028280798541381963,-0.08475917330011726,-10.254933350086214
22.4,3.9000000953674316,197.0,23.73011779785156,28.825180053710927,-79.78281818840955,40.45893008511048,273.4967736816406,0.011027286760509014,-0.0065538380295038215,-0.9831133484840392,0.18254803121089933,-0.02573222616228757,0.2129378804766429,3.161101557805308,0.06940263509750366,0.05620963498950005,0.1317804455757141,0.035899955795612185,-0.1543947060406208,-9.987116839885713
22.6,3.9000000953674316,200.0,23.61492919921875,31.115291595458984,-79.78281813252472,40.458929935897004,273.81300493240354,0.013149813748896122,-0.0024813674390316014,-0.9834639430046082,0.18060919642448425,-0.04798475617457988,0.2189109065563,3.1594180985994806,0.02553156390786171,-0.07638761401176453,-0.037188008427619934,0.017449315767735243,-0.2922688168846071,-9.854809552431108
22.7,3.9000000953674316,199.0,23.666261672973643,29.97818756103516,-79.78281823126305,40.45892948601339,274.3864440536499,0.016471749171614647,-0.002585978247225285,-0.9846557974815368,0.1737099587917328,-0.06014311106823321,0.16003004796357612,3.083560258356998,-0.03261224180459976,0.05433027446269989,0.10821175575256348,-0.16368969585746526,-0.3556834968924523,-9.57983838915825
22.9,3.9000000953674316,199.0,23.636213302612305,30.32011413574219,-79.78281820552719,40.45892935824368,274.6934952354431,0.014025137759745121,-0.003467530477792025,-0.985299587249756,0.17022362351417542,-0.06201547518803064,0.16633493952289746,3.0516920438591053,-0.012796073220670223,0.016788851469755173,0.13777901232242584,-0.05820237147621811,-0.2880900128558278,-9.519202762842179
23.0,3.9000000953674316,201.0,23.68754768371582,28.62638664245605,-79.78281830754864,40.45892895435503,275.23195119857786,0.010248681530356407,-0.0064041977748274794,-0.98612242937088,0.16557954251766205,-0.0225375898865667,0.13722744248084556,2.9443226361653347,-0.0711575523018837,0.023136211559176445,0.06061499938368797,-0.09326575744897128,-0.14321840199641886,-9.571190941929816
23.2,4.0,200.0,23.7251091003418,28.69795227050781,-79.78281832787493,40.45892886823279,275.5253481483459,0.008230441249907017,-0.008272510021924974,-0.986226499080658,0.16498848795890808,-0.01127290615940198,0.1251018387803025,2.914444167934589,-0.119577094912529,0.002174959285184741,0.01302636694163084,-0.1237544463481754,-0.20565163599327207,-9.45942667722702
23.3,4.099999904632568,203.0,23.54731750488281,31.56854248046875,-79.78281852943653,40.45892858091921,276.0005268669128,0.007564730476588011,-0.012911823578178884,-0.9859873056411744,0.16614800691604614,0.01572403454482747,0.1002014373144378,2.7791861924606067,-0.005289097782224418,-0.07308575510978699,-0.09845829755067824,0.03938639238942415,0.04787453496828675,-9.500483486652373
23.5,4.099999904632568,202.0,23.642473220825195,29.69987487792969,-79.78281878513525,40.4589281888594,276.5804285621643,0.009091961197555063,-0.00528563978150487,-0.985658884048462,0.16842246055603027,0.0199443810150022,0.047318076378111945,2.727361833285745,0.04524167627096176,-0.07005349546670914,-0.07565388083457948,0.014770249463617803,-0.2018676652014256,-9.641363961696623
23.7,4.099999904632568,202.0,23.57736778259277,30.35192108154297,-79.782818844767,40.458928185774695,276.8522872543335,0.0074238493107259265,-0.0035641801077872515,-0.9856532216072084,0.16858215630054474,-0.0005335039899558761,0.010152563941173892,2.711770672735418,-0.03106771968305112,0.01230868976563215,-0.01659674011170864,-0.08199709480628371,-0.12280549806542695,-9.665547460913661
23.81,4.099999904632568,199.0,23.59113883972168,30.50300407409668,-79.78281895012779,40.45892794610227,277.5745801544189,0.006497133057564497,-0.004070175811648369,-0.9856025576591492,0.168905109167099,0.01066800872120774,-0.019876495618873242,2.7657363313218406,0.052825964987277985,0.06275355070829391,0.12813998758792874,-0.06493034225888551,-0.37792513579130177,-9.75955607056618
23.9,4.099999904632568,198.0,23.644977569580078,29.469274520874023,-79.78281922084092,40.458927938512026,277.9720630264282,0.008683241903781891,-0.0052390722557902345,-0.9856193065643308,0.16867642104625702,0.01644520079560921,-0.022022863853225525,2.802803933985539,0.09507635980844498,-0.011727397330105305,-0.014090372249484062,-0.031204378958791495,-0.2896295847371221,-9.784596771597863
24.1,4.099999904632568,196.0,23.778947830200195,27.06783866882324,-79.78281929129109,40.458927973500494,278.2517652130127,0.011469922959804537,-0.005422315094619989,-0.9855926632881165,0.16866014897823334,-0.0006075929035786365,-0.034331803010200175,2.790599675831787,0.0980166122317314,0.053651213645935066,0.07100000977516174,-0.09867287876084448,-0.2669274958781898,-9.732042582035065
24.2,4.099999904632568,198.0,23.397071838378906,33.604198455810554,-79.78281940287873,40.45892802526021,278.9235181427002,0.011642226949334145,-0.0031216696370393038,-0.9853218197822572,0.1702810376882553,-0.03459113984757039,-0.04555083284818397,2.803467538969444,-0.0943184420466423,-0.08086621761322021,-0.11018098890781404,-0.06084031540900469,-0.2973175769671798,-9.615929158329962
24.4,4.099999904632568,198.0,23.65374183654785,28.87289047241211,-79.78281948114319,40.45892809565851,279.20451160430906,0.009218784049153328,-0.002046858426183462,-0.9852955341339112,0.17059768736362454,-0.022151964515482847,-0.07475074771393847,2.8223521170905714,0.02962538227438927,-0.0029353909194469448,0.10174797475337982,0.034471190935000784,-0.2517367950640619,-9.962539823055268
24.5,4.099999904632568,199.0,23.57736778259277,30.34396934509277,-79.78281951821047,40.458928174166154,279.8797940826416,0.007000352256000042,0.0013739692512899635,-0.9852390885353088,0.1710355430841446,-0.01849827089299674,-0.10368200421477412,2.8784875398353766,-0.008696329779922962,-0.045989830046892166,-0.03369373083114624,-0.02776241089683026,0.007751635517925025,-9.670421115159993
24.7,4.099999904632568,200.0,23.49347877502441,31.47312164306641,-79.7828193896317,40.458928354053896,280.5379991149902,0.005483090411871672,0.004604120273143053,-0.9846037030220032,0.17465515434741974,-0.04049154552257375,-0.11828411021373447,2.907733702013281,-0.016306245699524883,0.018127407878637317,-0.06320196390151978,-0.03444783404935151,-0.17320691641420127,-9.789351142644884
24.8,4.099999904632568,200.0,23.52352905273437,30.741558074951172,-79.78281942482128,40.4589284451509,280.8300590133667,0.003763229353353381,0.006084612105041742,-0.9842235445976256,0.17678524553775787,-0.05386274762732692,-0.11775043592440795,2.937953377812823,-0.07053910195827484,-0.007302205543965101,-0.054957941174507134,-0.03604801597539336,-0.3213265733420849,-10.026302540302275
25.01,4.099999904632568,200.0,23.522275924682607,30.176982879638672,-79.7828193712955,40.458928527379896,281.1864575958252,0.0038391777779906992,0.005404239520430565,-0.983927845954895,0.17844359576702118,-0.062244247484912675,-0.12567589010363275,2.9837314686065044,0.004663144238293171,0.01984871365129948,-0.07141764461994171,-0.0689537245547399,-0.27775540636852386,-9.996795151233671
25.2,4.0,202.0,23.70883178710937,27.27458381652832,-79.78281936213199,40.458928701593116,281.78181167602537,0.008507953956723213,-0.0009504076442681252,-0.9838531613349916,0.17877264320850372,-0.0950610392638074,-0.08964345940964467,2.9719615144641107,0.014162518084049225,0.0217027086764574,-0.017230574041604996,0.046426056311465805,-0.15437120754271744,-9.774850632548333
25.3,4.0,203.0,23.47595024108887,31.49697685241699,-79.78281949812241,40.45892876565517,282.13652797698967,0.011510725133121014,-0.002436201553791761,-0.9840182662010192,0.17767871916294098,-0.07767266271941807,-0.0628234997262229,2.9756604056474343,0.0828508585691452,0.021457169204950333,0.04327917844057083,0.17508524307981135,-0.34808898702263835,-9.667019205093382
25.5,3.9000000953674316,209.0,23.643726348876953,28.992168426513672,-79.78281944238024,40.458928895224794,282.7835816955566,0.011826911941170692,-0.003854271024465561,-0.9845418930053712,0.1747073233127594,-0.13459011593558906,-0.05727740944876749,2.9845406980337823,-0.048361018300056464,0.024906167760491368,0.12166197597980499,-0.006135766608640552,-0.4854271091893316,-9.853339562416076
25.6,4.0,211.0,23.68253898620605,27.966388702392567,-79.78281941116525,40.45892898631122,283.08354564666746,0.010599019937217236,-0.0053307805210351935,-0.984913408756256,0.17264075577259064,-0.1296601769848746,-0.055138105978877465,3.011423740110647,0.03778970614075661,0.02428755164146424,0.14556673169136047,0.047327664988115435,-0.3921830229833722,-9.97034585595131
25.7,3.9000000953674316,212.0,23.597400665283203,29.310237884521484,-79.78281928826517,40.45892916552201,283.7300777053833,0.01739620417356491,-0.0049894144758582115,-0.9856403470039368,0.16788607835769653,-0.14185129424232296,-0.06621612812391743,3.024541536063621,0.08710979670286179,0.029002936556935317,0.07108926773071289,0.037399547339882704,-0.34207457754760984,-9.774855310320852
25.9,3.9000000953674316,212.0,23.53604888916016,30.35192108154297,-79.78281914516317,40.45892933297503,284.3717631912231,0.01680581644177437,-0.0011794522870332005,-0.9857552051544192,0.16734082996845245,-0.1686961007703965,-0.07343379725893974,3.0017262343206013,0.11835329979658127,-0.0670103058218956,-0.022918755188584328,0.07653436555992812,-0.27168537525460124,-9.649305649995805
26.1,3.9000000953674316,216.0,23.46343040466309,31.53673553466797,-79.78281911687995,40.45892945222837,284.6719626998901,0.01734210178256035,0.002500780858099461,-0.9856334924697876,0.16798710823059082,-0.1537848369279256,-0.0990966612505294,2.9967145417951144,0.07990559190511702,-0.016083484515547752,-0.04933621361851692,0.10257643424905837,-0.10045269811525942,-9.7602337628603
26.2,3.9000000953674316,216.0,23.670019149780273,27.79940223693848,-79.78281910367717,40.4589295742607,284.9722261047363,0.01794576272368431,0.003514724317938089,-0.9853893518447876,0.1693326234817505,-0.1527122693415001,-0.12071052488087372,3.0001874379432385,-0.011151022277772428,-0.012713196687400341,-0.09584192931652068,-0.022537807223852725,-0.1862182503193617,-9.740178397893906
26.4,3.9000000953674316,214.0,23.513511657714844,30.01794624328613,-79.7828189017305,40.45892959712382,285.6051244354248,0.014336690306663513,0.005014277994632721,-0.9846751093864441,0.17373652756214142,-0.14648699201108606,-0.0991536950100115,2.9876178446605435,-0.08078944683074951,-0.007154383696615695,-0.05151588097214699,-0.03358348309993744,-0.2272689749859273,-9.707467904090883
26.51,3.9000000953674316,213.0,23.619935989379893,28.92855262756348,-79.78281850339287,40.45892931247074,286.2348222351074,0.00828190054744482,0.003224191954359412,-0.983820915222168,0.178934246301651,-0.10549944248838013,-0.02799217305494538,3.017022472433016,-0.040714383125305176,-0.041702792048454285,-0.09420425444841383,-0.022531386706978084,-0.17139491910114885,-9.843786381483078
26.7,4.0,213.0,23.407087326049805,32.15697479248047,-79.7828184662792,40.45892933530929,286.5365743255615,0.00918438285589218,0.0039456384256482116,-0.98364919424057,0.17981787025928495,-0.08583692378024743,-0.021119775642338627,3.0123965090145792,0.12038204818964005,0.0007579755620099603,-0.06031019613146784,0.04046466463711113,-0.16494004983454946,-9.819258481264113
26.81,4.0,210.0,23.54982185363769,28.690000534057607,-79.78281843527013,40.458929476792115,286.8611764526367,0.012885682284832,0.005447390954941511,-0.9836975932121276,0.17928597331047058,-0.09379766851823194,-0.04642573121172997,3.0184747422692912,0.08963406831026077,-0.04333669692277908,0.0329655297100544,-0.1531693397741765,-0.3058682527765632,-9.72851027905941
27.0,3.9000000953674316,208.0,23.60491180419922,28.67409706115723,-79.78281837476419,40.45892960720554,287.4897107696533,0.01911930181086064,0.0059425970539450645,-0.9841943383216858,0.17595677077770233,-0.13922352045401967,-0.05551935638811583,3.012313200665583,-0.01604568026959896,-0.034058064222335815,0.07871945202350616,0.017167479973286392,-0.4655101405084133,-9.620885258316994
27.11,4.0,207.0,23.35700607299805,32.268299102783196,-79.78281836030634,40.45892965038361,287.7892598724365,0.01761501468718052,0.006622420158237219,-0.9844726324081421,0.17452698945999146,-0.14509842629791772,-0.052036975182693936,2.974275676084188,-0.05305781215429306,0.0337199829518795,0.04694388434290886,-0.02215027158614248,-0.2766384968161583,-9.484304240942002
27.2,4.0,207.0,23.36076164245605,31.49697685241699,-79.78281824826686,40.45892979036239,288.41811653137205,0.016468051820993423,0.005149819888174536,-0.9847773909568788,0.17296171188354492,-0.1194414750542888,-0.06047651162730575,3.0073812437812326,-0.08085476607084274,-0.032588351517915726,-0.08278930932283401,0.027287205853499474,-0.3602785313129425,-9.963139747381213
27.4,4.0,208.0,23.57110595703125,28.24470138549805,-79.78281820672954,40.458929874448536,289.0434045410156,0.012517819181084631,0.005958538968116045,-0.98479163646698,0.17318573594093326,-0.09296890221264643,-0.05454296479162798,3.04582752345122,1.4326348718896044e-05,-0.00881457794457674,0.08268338441848755,0.054402403067797415,-0.4669408445432782,-9.8794766163826
27.5,4.099999904632568,209.0,23.52352905273437,28.96036148071289,-79.78281821449113,40.4589299117875,289.34794326782225,0.011768339201807976,0.005446531809866428,-0.9848318099975586,0.17302660644054413,-0.09296846193454007,-0.05916929636901733,3.0422360096782928,-0.03760866820812225,0.0009556252043694258,-0.10013821721076964,-0.0216486901184544,-0.2703631736151874,-9.779240722060203
27.71,4.099999904632568,208.0,23.477203369140625,30.200838088989247,-79.78281821923873,40.45892994555749,289.6521272277832,0.011482198722660542,0.004253496881574392,-0.98485666513443,0.17293761670589447,-0.08580816530843659,-0.05226656065164383,3.037306400941516,-0.05073901265859604,0.049740783870220184,-0.12451287358999252,0.00940779882366769,-0.21031097151339054,-9.727385274767878
27.9,4.099999904632568,206.0,23.61492919921875,27.64831733703613,-79.7828182552646,40.45892995417572,290.27503868103025,0.013969355262815952,0.0057807243429124355,-0.9848734140396118,0.17261509597301486,-0.08742464595573092,-0.04085823813359619,3.0306665169030267,-0.038654834032058716,0.005081489216536284,-0.07568997144699098,-0.05555781288072467,-0.2607925789430738,-9.759378899931908
28.0,4.099999904632568,207.0,23.38580322265625,31.10733985900879,-79.78281817484837,40.4589299135834,290.59403129577635,0.015326011925935744,0.006993964780122043,-0.984865128993988,0.17250210046768188,-0.09519575271179913,-0.04078507669112233,3.0261943323754634,-0.005216894205659628,-0.009362914599478243,0.0978124812245369,-0.06091525113210083,-0.5183469698578119,-9.717664278745653
28.1,4.099999904632568,207.0,23.30942726135254,32.109264373779304,-79.78281817425177,40.45892994567048,291.19858070373533,0.013575888238847256,0.007850577123463154,-0.9849125146865844,0.1723412573337555,-0.09967287151374846,-0.04103715119644223,3.03814957876378,-0.0399242714047432,0.009854014962911606,0.0051912283524870855,-0.060906850327737634,-0.325368022620678,-9.971424082517622
28.3,4.0,207.0,23.54857063293457,27.84711265563965,-79.78281815474766,40.458929873346015,291.8299531555176,0.015021681785583496,0.009208315052092077,-0.9846582412719728,0.17360225319862366,-0.08228389418610582,-0.03375460020217348,3.0941649570290903,0.04760945960879327,-0.053470738232135766,0.02061696723103524,-0.07294443553313612,-0.3985578767582774,-9.929822312593462
28.5,4.0,205.0,23.33321762084961,31.441314697265625,-79.78281803567602,40.45892984161628,292.1438092803955,0.01624676026403904,0.009168832562863828,-0.9844653606414796,0.17458496987819672,-0.0945589344385113,-0.026388019393631584,3.0824363847773,0.046604234725236886,0.0065619517117738715,0.033725935965776443,-0.04845601772423834,-0.2980131398141384,-9.791480698585511
28.6,4.0,205.0,23.49222755432129,29.33409309387207,-79.78281803832039,40.4589298256089,292.45269104003904,0.017413493245840073,0.008638346567749977,-0.9842662811279296,0.1756189614534378,-0.09038176827109934,-0.01737351805952436,3.09479463468889,0.04573905095458032,-0.03897750005126,-0.014463867992162703,-0.06556448193266988,-0.34364685729146005,-9.871334953308104
28.7,4.0,205.0,23.37954330444336,31.28227806091309,-79.78281793578101,40.45892969997593,293.07497116088865,0.017965920269489292,0.006909353192895651,-0.9840633273124696,0.17677380144596105,-0.09260314123062603,0.01413473058996206,3.096623817404268,-0.011076223105192184,-0.02465210296213627,-0.07537003606557846,0.05683681364636869,-0.3097305214405061,-9.82939872264862
28.91,4.0,205.0,23.41209602355957,30.733606338500977,-79.78281819329557,40.45892937015604,293.6920022583008,0.013666529208421707,0.0030015739612281322,-0.984283447265625,0.1760406345129013,-0.01281068286646375,0.06162341732926676,3.1016666597437097,0.010239385068416595,0.003231724025681615,0.05778264999389648,0.06665159809403122,-0.3981461231410504,-9.924792537689207
29.01,4.0,203.0,23.40834045410156,30.240596771240234,-79.78281825238834,40.45892928192565,294.0031270599365,0.012364441528916359,0.00275259162299335,-0.9844344258308412,0.1752951294183731,-0.005620496043847435,0.06990405259295927,3.1239724372544284,0.04334726557135582,-0.0426626056432724,0.018712412565946586,0.04823151205200702,-0.285780965667218,-10.032984738349915
29.2,4.0,204.0,23.553577423095703,27.74374008178711,-79.78281843154286,40.45892898552908,294.6349401092529,0.01179863139986992,0.002539174631237984,-0.9846100211143494,0.17434868216514587,0.013233455622847851,0.07859624209859761,3.164622312418933,0.0515228770673275,0.0049481685273349285,0.08772262930870056,0.055219350457191466,-0.2912556771375239,-9.979564576148988
29.4,4.0,204.0,23.42336463928223,29.98613929748535,-79.78281848974667,40.458928890855105,294.95087905883787,0.01298531424254179,0.003474677447229624,-0.9846625328063964,0.1739514172077179,0.0095655383355429,0.07612191725046083,3.1518628182926567,0.11077068001031876,0.008615568280220032,0.07677097618579865,0.09026720476336778,-0.3838340761139989,-9.771697813868524
29.51,4.0,205.0,23.666261672973643,26.51916694641113,-79.78281845738834,40.4589286596588,295.27047630310057,0.01331351138651371,0.00425073504447937,-0.9846842885017396,0.17378610372543335,-0.010152501706751605,0.08709280569098835,3.110640547641998,0.09452889114618301,0.01244372595101595,0.1109212413430214,-0.08511451955884695,-0.4779448293149472,-9.505101032853126
29.6,4.0,208.0,23.62494468688965,26.65434646606445,-79.78281851955694,40.45892845600504,295.88805671691887,0.014788199216127397,0.002301986329257489,-0.9846644401550292,0.17381611466407776,-0.030993495671002007,0.09793664915741168,3.055162117878302,-0.06752178817987442,0.03917799517512322,-0.04080204293131828,0.015107862213626503,-0.3808629962056875,-9.425514580607414
29.81,4.099999904632568,207.0,23.37328338623047,30.24854850769043,-79.7828185263881,40.45892820481482,296.51084419250486,0.01448584906756878,0.00040817674016579986,-0.9845526218414308,0.17448824644088745,-0.04557605496377051,0.09533373751866796,3.0042772171684056,-0.027981840074062347,0.025742793455719948,-0.008703173138201237,-0.01875631007831544,-0.2675253554061056,-9.53079779148102
29.9,4.099999904632568,208.0,23.529788970947266,28.451446533203125,-79.78281838933867,40.45892813266366,296.84348579406736,0.014113835990428925,-0.0013915428426116705,-0.9844792485237122,0.1749275177717209,-0.04997285848815717,0.09781366697431053,3.0344477056757717,0.0038259380962699647,0.06007827818393707,-0.06000432744622231,0.07146362360101194,-0.29096766522154216,-9.6634301841259
30.1,4.099999904632568,208.0,23.52102470397949,28.41168785095215,-79.78281838786576,40.45892805201459,297.14582344055174,0.013580305501818657,-0.0022294826339930296,-0.9843598008155824,0.1756315380334854,-0.04535266359287777,0.10270858278872774,3.009243812645217,0.11693698912858964,0.0615299716591835,0.07508208602666855,0.1177613792102784,-0.3177457384765148,-9.593757686018943
30.21,4.099999904632568,209.0,23.617431640625,27.07579040527344,-79.78281839147284,40.45892789459697,297.769118270874,0.01566571556031704,-0.002751832595095039,-0.9842042922973632,0.17632083594799042,-0.06136686106972209,0.094712766159609,3.0206736570170536,0.0951194167137146,0.012853525578975676,0.19724012911319733,-0.0011140978639014069,-0.6237365269660949,-9.786025831103323
30.41,4.099999904632568,210.0,23.38329887390137,31.679866790771484,-79.78281835002552,40.4589277239296,298.3900327301025,0.013672071509063244,-0.002854335820302367,-0.9842286705970764,0.17634914815425873,-0.08618119282109099,0.08272050309768571,3.0140127405739503,-0.05687748640775681,-0.018179764971137047,-0.041842523962259286,-0.06383204329758882,-0.3353901502490044,-9.61227991104126
30.5,4.099999904632568,210.0,23.280630111694336,32.578418731689446,-79.78281833348126,40.45892768596453,298.6917142486572,0.01227384340018034,-0.0013617927907034757,-0.9842835664749146,0.17616282403469086,-0.08372576623390514,0.07036623729503039,3.0231545602944023,-0.029511213302612305,-0.00918208621442318,-0.08664069324731828,-0.01760009056306444,-0.18606607653200627,-9.897870787382127
30.61,4.099999904632568,210.0,23.370779037475586,30.646137237548828,-79.7828183130067,40.45892765748715,298.9961804962158,0.012333429418504238,0.0012258684728294607,-0.9842809438705444,0.17617477476596832,-0.08157300852876659,0.05528811963699632,3.0657235548774415,-0.005705304443836211,-0.04051722586154938,0.02119538001716137,-0.05183134580031037,-0.4735730854421854,-10.11746531009674
30.9,4.099999904632568,209.0,23.434633255004893,29.35795021057129,-79.78281820597343,40.45892753671095,299.63440795898435,0.014049810357391834,0.002514595165848732,-0.98425555229187,0.1761743575334549,-0.10977787677876892,0.02630554783854426,3.127734833476985,0.006843344774097204,0.05647936835885047,0.10666585713624954,-0.012482891790568829,-0.4197563723847271,-9.938000228405
31.0,4.099999904632568,208.0,23.394567489624023,29.81915283203125,-79.7828182149212,40.458927449405934,299.942177734375,0.013872425071895124,0.002978089032694697,-0.9842213988304138,0.17637190222740173,-0.10756472099759704,0.030960921138439467,3.0819164995413675,-0.014500610530376434,-0.045906208455562585,-0.008893804624676704,-0.05236836687661709,-0.2598354262858629,-9.585731797814367
31.1,4.099999904632568,207.0,23.453413009643555,29.07963752746582,-79.78281815489946,40.45892741488119,300.55528923034666,0.0165916197001934,0.003784264205023647,-0.9841532111167908,0.17650209367275238,-0.11365099149011232,0.019739077163676483,3.0475667558194712,0.04946186020970345,-0.0234316848218441,-0.1546834111213684,0.04603580491617322,-0.2518099400773645,-9.631466379761696
31.3,4.099999904632568,207.0,23.589887619018555,25.87507247924805,-79.78281808955526,40.45892733733359,300.8661679840088,0.01656089723110199,0.0036184061318635936,-0.9840840101242064,0.1768934726715088,-0.1328394619045528,0.02056358146600768,3.0452566252391837,-0.01930269412696361,-0.02911547571420669,0.020239096134901047,0.04480559185612947,-0.371421277821064,-9.743785545229912
31.4,4.099999904632568,207.0,23.59990310668945,26.686153411865234,-79.78281803566477,40.45892732696403,301.47969909667967,0.015554399229586124,0.0030098576098680496,-0.9839404225349426,0.17779284715652466,-0.1388998736891746,0.011245767632775436,3.0314517710683986,-0.05160301923751831,0.02678622677922249,-0.05224798247218132,0.008226237567141652,-0.2221786265820265,-9.606518649458886
31.6,4.099999904632568,207.0,23.31819152832031,31.377700805664066,-79.78281793070734,40.45892734770956,302.08218475341795,0.0163784921169281,0.00548731442540884,-0.9836674332618712,0.17916527390480042,-0.1487555324126755,-0.0049272492886955855,3.0015334618966443,0.07822467386722565,-0.06471575796604156,-0.024950854480266568,-0.039074224163778135,-0.4282194130495191,-9.76695747613907
31.8,4.199999809265137,207.0,23.41960906982422,29.62830924987793,-79.78281791095657,40.45892729026543,302.39227767944334,0.016418024897575382,0.006784670054912567,-0.983558177947998,0.17971591651439667,-0.15287489595436335,-0.0030097321561662754,3.031871046281301,0.0382692851126194,-0.05178806558251381,0.10436395555734634,-0.06277175123803318,-0.5825574376434088,-9.960219647884367
31.9,4.199999809265137,207.0,23.320695877075195,30.4711971282959,-79.78281784607901,40.458927296845815,302.696946105957,0.018334133550524708,0.008002697490155697,-0.9835914373397828,0.17929796874523166,-0.1626206683346017,-0.005340918522106063,3.048087496472684,0.051484815776348114,-0.0158979594707489,-0.004180174320936203,-0.09320904859341682,-0.2764033291116357,-9.905750495195392
32.0,4.199999809265137,207.0,23.45591735839844,28.66614532470703,-79.7828176379027,40.45892720998256,303.3070115661621,0.023060347884893417,0.0104124341160059,-0.983943521976471,0.17667804658412933,-0.195273119810052,-0.0011584688661433664,3.041958237218464,-0.002029361668974161,-0.04327607154846192,-0.04599209129810333,-0.16129465805366636,-0.38519698899239296,-9.806091136336327
32.2,4.199999809265137,209.0,23.41835594177246,29.69987487792969,-79.78281753056582,40.45892718550967,303.9159059143066,0.02147152088582516,0.009020802564918995,-0.9843937754631042,0.17443189024925232,-0.1787182105430317,0.0026719165833001828,3.0172933556092745,0.026129014790058136,-0.03336135298013687,0.0013484234223142266,-0.015186132676899434,-0.3381376837939024,-9.727376503944397
32.4,4.199999809265137,209.0,23.280630111694336,31.17890548706055,-79.78281748106384,40.45892716003698,304.2180413818358,0.02065745927393436,0.008309900760650635,-0.9846321344375608,0.17321620881557465,-0.1570749576312732,0.008778126123397265,3.0225205132791735,0.014899262227118015,0.026622598990797997,0.06543928384780884,-0.014024665514007212,-0.2926319472491741,-9.902469037771226
32.51,4.199999809265137,208.0,23.45591735839844,27.83916091918945,-79.78281742655075,40.45892707048143,304.52595611572264,0.01972111314535141,0.0067372769117355355,-0.9847640395164492,0.17264299094676971,-0.1359615303749857,0.018200096671214867,3.061654609052425,0.010499945841729641,0.03970358893275261,0.0933723971247673,0.0018098091753199696,-0.5204231334105134,-10.062251222133636
32.6,4.199999809265137,207.0,23.340728759765625,29.898670196533203,-79.78281738140777,40.45892699207953,305.14505859375,0.01752291992306709,0.005558204371482135,-0.9845128655433656,0.1743461638689041,-0.11818619378365668,0.02756431633026075,3.105701678900509,-0.03920996561646462,0.021845057606697086,-0.00885455496609211,-0.04686982800252736,-0.29588023999705915,-9.904371721744537
32.8,4.199999809265137,206.0,23.41460037231445,29.071685791015625,-79.78281742094582,40.458926925073634,305.44505401611326,0.016831014305353158,0.005621606484055519,-0.9842075109481812,0.17612729966640472,-0.11382519013734455,0.02904161734009883,3.0829268564549626,0.0009832849027588964,0.0096487645059824,-0.0311659537255764,-0.0561431511444971,-0.29358111480250954,-9.82403799533844
32.9,4.199999809265137,206.0,23.31819152832031,30.2962589263916,-79.78281735937806,40.4589268000395,306.0564469909668,0.015869572758674618,0.004781789146363735,-0.983831524848938,0.17832805216312408,-0.09926146571831193,0.030980394332410576,3.0553919945422514,0.08517448604106903,-0.042998380959033966,-0.030986420810222626,-0.08470674935728313,-0.4067513973265887,-9.721426962018011
33.1,4.099999904632568,206.0,23.49848747253418,27.47337913513184,-79.78281731647186,40.458926730379076,306.6707925415039,0.01705210655927658,0.006098942831158638,-0.9836476445198059,0.17919088900089264,-0.10875271964008973,0.03413741486976638,3.0810781251779122,4.6664692490594455e-05,0.002254845341667533,-0.08148989826440811,-0.03788089652778581,-0.2268808660469949,-9.806203402876854
33.2,4.099999904632568,207.0,23.36201477050781,29.47722625732422,-79.78281725883444,40.4589266351519,306.9782952880858,0.01831074245274067,0.006252115126699209,-0.9836252331733704,0.1791846752166748,-0.11747689681761513,0.02835903897073959,3.0642580205275234,-0.03658970445394516,-0.020410986617207527,0.0036048435140401134,-0.0747019715141505,-0.18023727960884567,-9.76201599419117
33.4,4.0,207.0,23.410844802856445,28.44349479675293,-79.78281723901061,40.458926598892106,307.28505416870115,0.0183173269033432,0.005796324927359818,-0.9836680889129642,0.17896385490894318,-0.12292457455201865,0.02697396974396244,3.0704526577002613,-0.054967720061540604,-0.0909508466720581,0.03481472656130792,-0.1815575078129769,-0.4794543611258269,-9.831279187202457
33.6,4.0,206.0,23.413349151611328,28.80927658081055,-79.78281719367929,40.458926533888615,307.9022492980957,0.017087414860725403,0.003989278338849545,-0.9838031530380248,0.17839156091213226,-0.11020479044480434,0.02617521605883994,3.0532296132246075,0.0758124515414238,-0.07306830585002899,-0.006713260430842638,0.006147634629160166,-0.4109896785020829,-9.737406232953072
33.71,4.0,206.0,23.459674835205078,27.7039794921875,-79.78281717612454,40.45892650628758,308.2075776672363,0.019602131098508842,0.004901719279587269,-0.9837834239006042,0.17821861803531647,-0.10257676242131822,0.028632662945566482,3.0454265654138863,0.11954440921545027,0.0063665867783129215,0.07345080375671388,-0.11794994277879595,-0.4581766357272864,-9.63385847568512
33.8,4.0,207.0,23.320695877075195,29.30228614807129,-79.78281713950071,40.458926306095975,308.82709213256834,0.018625985831022263,0.004145429935306311,-0.9837614893913268,0.17846383154392242,-0.1222481823142333,0.032992324882395896,3.031075909772985,-0.10406390577554704,0.060939345508813865,-0.07613268494606018,0.00945955239236355,-0.3055228102393449,-9.676553674936297
34.0,4.099999904632568,208.0,23.410844802856445,28.67409706115723,-79.78281711916034,40.45892620891013,309.447133026123,0.013311333023011684,0.00042529156780801713,-0.9837861061096193,0.17885065078735352,-0.0995458918051039,0.036790733503540125,3.0385060767896803,-0.09381227195262908,-0.02103157341480255,0.030181188136339188,-0.14154100941494108,-0.4206280826032162,-9.69265632212162
34.1,4.099999904632568,208.0,23.31944465637207,30.21674156188965,-79.7828171013983,40.45892618695965,309.7506036376953,0.012376419268548487,0.0004936124896630645,-0.9838222861289978,0.17871849238872528,-0.08651081349324287,0.035688782778148645,3.0263438569376433,0.027116376906633374,0.05250316485762596,-0.058672674000263214,0.043331906218081716,-0.19121188212186105,-9.672883377671242
34.31,4.099999904632568,209.0,23.506000518798828,26.73386383056641,-79.78281704934193,40.45892612185405,310.06330581665037,0.01214784011244774,0.001477985642850399,-0.9838329553604126,0.17867040634155273,-0.09636216978839947,0.03396456233473008,3.052512387980805,0.03892301395535469,0.01097053475677967,0.026983017101883888,0.05305671206675471,-0.3848380795866251,-9.887542265653614
34.5,4.199999809265137,208.0,23.443397521972656,28.30036354064941,-79.78281696919767,40.45892602409896,310.68675323486326,0.01654054783284664,0.005242923740297556,-0.9836614727973938,0.17919033765792847,-0.13227477273221128,0.022991868919683068,3.054212431762384,0.015514238737523556,0.049891330301761634,0.004936670884490013,-0.06773034085985273,-0.3708048716560006,-9.692459270954133
34.6,4.199999809265137,207.0,23.39581871032715,27.84711265563965,-79.7828169078337,40.45892601557668,310.990704498291,0.01876411773264408,0.004400843288749456,-0.9835513830184937,0.17959782481193542,-0.16182386122907166,0.00567774351329232,3.0197375276414724,-0.033018026500940316,0.07221738249063492,-0.14726589620113373,-0.011674322364851834,-0.3883702729269862,-9.550239198803904
34.7,4.199999809265137,207.0,23.367021560668945,28.47530174255371,-79.78281680963437,40.45892599367625,311.6058053588867,0.0207301564514637,0.0019197731744498008,-0.9833332896232604,0.1806162446737289,-0.16997010336896942,0.02471226674432184,2.9860778637843977,0.02212228253483773,0.07735110819339752,0.006966483313590288,0.05696732075884939,-0.26897950312122704,-9.551286435127258
34.9,4.199999809265137,207.0,23.27061462402344,31.2584228515625,-79.78281674768645,40.45892599673637,311.9038667297363,0.02150007337331772,0.001999872736632824,-0.9832761287689208,0.180836483836174,-0.1745815803849081,0.018545131319520583,2.966954382055568,0.00455665262416005,-0.01929465867578984,0.0684121623635292,-0.11726824879646301,-0.5350784119963646,-9.627538805007935
35.1,4.199999809265137,208.0,23.413349151611328,28.20494270324707,-79.78281657851831,40.45892600876106,312.5184869384765,0.01928077265620232,0.005110582802444696,-0.9834794402122498,0.17991746962070465,-0.18278305578346188,0.00963110007912648,2.98430768427808,-0.06494654715061188,-0.026755670085549355,-0.03286129236221313,-0.046587914549745625,-0.3465876413136721,-9.809539239406586
35.2,4.199999809265137,208.0,23.30316734313965,30.009994506835927,-79.78281651717684,40.458926022240526,312.8178414916992,0.016813622787594795,0.005866832099854946,-0.9835975766181946,0.17949603497982025,-0.17465584567242232,-0.002915527692978759,2.9905673508937856,-0.04591664299368858,-0.016381340101361275,0.016173623502254486,-0.10872926741838457,-0.41688889782875777,-9.791401761174203
35.3,4.300000190734863,208.0,23.294403076171875,29.008071899414066,-79.78281629040083,40.458926050228456,313.4287461853027,0.017899714410305027,0.00624352041631937,-0.9836800694465636,0.17892502248287198,-0.17888830277171447,-0.019304216392096167,3.001221543898714,0.0006356231751851737,-0.011922722682356834,0.03676968067884445,-0.06597008683718741,-0.4722300896421075,-9.858969261646273
35.51,4.300000190734863,208.0,23.20050048828125,32.23649215698242,-79.78281612273021,40.45892606657547,314.03695388793943,0.015571685507893562,0.005542689003050327,-0.9837020635604858,0.1790453940629959,-0.17617035184429,-0.015600270476575409,2.997463179862008,0.03911811113357544,-0.036651816219091415,-0.1132022812962532,-0.07367632877547295,-0.3962399308383465,-9.73475042760372
35.6,4.199999809265137,208.0,23.427120208740234,27.81530570983887,-79.78281603572104,40.458926089481395,314.3374108886718,0.017259789630770683,0.005811613518744707,-0.9836121797561646,0.17937497794628146,-0.17548886428147886,-0.014963561746331453,3.0042575944926098,0.06884537637233734,0.038539256900548935,-0.048738785088062286,-0.0729344404488802,-0.33759908214211465,-9.8022319740057
35.8,4.199999809265137,206.0,23.211767196655273,31.385652542114247,-79.78281594766413,40.45892609578185,314.6461457824707,0.018882093951106068,0.006512053776532412,-0.983494222164154,0.17983384430408478,-0.19963085440674674,-0.011113324164709068,2.9924456033984144,-0.07214736193418503,-0.030877521261572838,-0.10056038945913316,-0.0909664860740304,-0.32331323795020583,-9.609775548577307
36.0,4.199999809265137,205.0,23.27812767028809,30.16107940673828,-79.78281571739136,40.458926159634366,315.2502336120605,0.020068449899554253,0.005559673998504877,-0.9834821224212646,0.1798037439584732,-0.20643285643985854,-0.02080283261782226,2.97591480525142,-0.028128623962402344,0.03945326805114746,-0.020886443555355072,-0.07113853211514652,-0.3208748759329319,-9.784102681875227
36.1,4.199999809265137,205.0,23.415851593017567,27.807353973388672,-79.78281562830634,40.458926184550364,315.548752746582,0.019103951752185815,0.0047571915201842785,-0.9835666418075562,0.17946887016296387,-0.2024079668629376,-0.012321040703372886,2.9842336451251845,-0.03493904694914818,0.01930384524166584,0.07753845304250717,0.014187720604240894,-0.4829540293291211,-9.873918253183367
36.21,4.199999809265137,205.0,23.275623321533203,30.28830718994141,-79.78281543112624,40.45892620538369,316.14999862670896,0.01612863689661026,0.00609951326623559,-0.9833274483680724,0.18102434277534485,-0.1815474720244032,-0.012617076828042336,2.9909954117384947,0.022044040262699127,-0.016173776239156726,0.05614876747131349,-0.10094748219475153,-0.5776722716912628,-9.813444010019305
36.41,4.099999904632568,205.0,23.231800079345703,31.679866790771484,-79.78281519997435,40.45892621983217,316.75339599609373,0.014267458580434322,0.010249678045511246,-0.9829213619232178,0.183185875415802,-0.17461134294742972,-0.012090003003222691,3.0262489542222726,0.060413870960474014,-0.018480295315384858,0.0018314856570214035,-0.008395678913220763,-0.3735227305814624,-10.060298252105714
36.6,4.199999809265137,205.0,23.19048309326172,31.14709854125977,-79.78281509775263,40.45892623048528,317.0586633300781,0.014123708009719847,0.011422549374401571,-0.9829012751579284,0.18323542177677155,-0.18512562915007733,-0.023563449390907897,3.075580255555995,0.009086379781365395,-0.05497594550251962,-0.09000002592802048,-0.04858729228377343,-0.31540630403906106,-10.29875121474266
36.71,4.099999904632568,204.0,23.37578582763672,29.35795021057129,-79.78281499062378,40.458926235035065,317.3700646972656,0.013628543354570866,0.010414974763989449,-0.9830167293548584,0.18271273374557487,-0.18784139046656986,-0.024370116339136424,3.1419818375897366,-0.016994575038552284,0.06331990659236908,0.057117719203233726,-0.028159889085218312,-0.3058472941629589,-10.421211791038512
36.8,4.099999904632568,202.0,23.3494930267334,29.00012016296387,-79.78281483867028,40.45892619836732,317.9869241333008,0.016796601936221126,0.008278165943920612,-0.983159065246582,0.18179047107696533,-0.16802865005939002,0.008375040721870184,3.167439632902657,0.006274789571762085,-0.0101029546931386,-0.028937045484781262,-0.09408074967563153,-0.30736879449337723,-10.037640291452409
37.0,4.0,203.0,23.3494930267334,29.49312973022461,-79.78281454339205,40.45892622962269,318.59933944702146,0.016093695536255836,0.009929081425070764,-0.9833975434303284,0.18047672510147086,-0.19254567070411333,0.0010988820886254054,3.1124116094760685,-0.002519885776564479,-0.007892385125160217,0.020220467820763588,-0.05940558227710426,-0.3241892239451409,-9.751374646425248
37.1,4.0,202.0,23.2180290222168,31.099388122558594,-79.78281444309506,40.458926219185635,318.9106530761718,0.015510850585997103,0.009258974343538284,-0.9835294485092164,0.1798429787158966,-0.17700427251324632,-0.0014819632951714875,3.1085685539277748,0.03840305283665657,0.007089789025485516,0.0009716894128359852,-0.0975959860906005,-0.3764605909958482,-9.778372995257376
37.3,4.0,202.0,23.3782901763916,27.71988296508789,-79.78281436708353,40.458926135958436,319.22118850708006,0.014281914569437504,0.0068921977654099464,-0.9835870862007141,0.1797361671924591,-0.1731971985847218,0.012625809197094466,3.118907880567804,-0.027262620627880096,0.07776150852441788,-0.021127298474311832,0.007137348968535662,-0.2949449961259961,-10.018580707311633
37.5,4.0,198.0,23.42837333679199,27.02012825012207,-79.78281415754672,40.458926040306686,319.849289855957,0.012100069783627987,0.00338563765399158,-0.98350191116333,0.1804610788822174,-0.16077366467876264,0.03868580421922087,3.1480376755887853,-0.09977100044488907,-0.03561590239405632,-0.14143213629722595,-0.08002258144319058,-0.11298852548003198,-9.925968997478483
37.61,4.0,199.0,23.37954330444336,27.425668716430664,-79.78281406148929,40.45892602279823,320.16428085327146,0.010749377310276031,0.002665536245331168,-0.9834617376327516,0.18077729642391205,-0.15248479721206146,0.03697888568702358,3.1455434933983626,-0.04819426685571671,0.015577394515275957,0.002953503746539355,-0.042180644273757936,-0.23957873437553645,-9.84760578274727
37.7,4.099999904632568,199.0,23.323200225830078,28.98421669006348,-79.78281385502727,40.45892592076966,320.7933969116212,0.008791639469563961,0.004061730112880468,-0.9831696152687072,0.1824384331703186,-0.12875454265129282,0.026553085047254225,3.09707490266004,0.11092828214168547,-0.003493603086099029,-0.013878353871405123,-0.005904152914881706,-0.2783682311140001,-9.632073905467989
37.9,4.099999904632568,199.0,23.427120208740234,27.17121124267578,-79.7828137037698,40.45892572199029,321.4257821655273,0.015136536210775375,0.004695971496403217,-0.9828041195869446,0.18397018313407892,-0.15774477923351554,0.03844998452491948,3.05965155685132,-0.002247370546683669,-0.04163193702697754,-0.10545293241739273,-0.12631883413530887,-0.35025497842580083,-9.574723244905472
38.0,4.099999904632568,197.0,23.453413009643555,26.86904335021973,-79.78281360435125,40.45892570769049,321.7304734802246,0.018231365829706192,0.005082862451672554,-0.9827184677124025,0.1841365545988083,-0.1724057596045411,0.02849629511076525,3.0285508913050667,0.036759082227945335,0.04128152877092362,0.09657303243875504,-0.14855043226853012,-0.327423684373498,-9.473464087843896
38.2,4.099999904632568,198.0,23.363265991210927,28.23674964904785,-79.7828135057591,40.458925703722436,322.0318193054199,0.02021460793912411,0.005937306676059961,-0.9827263355255128,0.18386197090148929,-0.17928802416563286,0.016786388770564632,2.991101594593041,0.15678535401821134,-0.004689567256718874,-0.004883016925305128,-0.07920435497537255,-0.4052922612056136,-9.457944408059117
38.31,4.099999904632568,198.0,23.459674835205078,26.9167537689209,-79.78281331245346,40.458925707611336,322.649697265625,0.023428771644830704,0.005665061064064503,-0.9827916622161864,0.1831381916999817,-0.1934382666719172,-0.006508114441865118,2.9889018750590286,0.017173945903778076,0.08469756692647934,0.02465658448636532,-0.1375657615810633,-0.3246806458756328,-9.637620574235916
38.5,4.199999809265137,198.0,23.41960906982422,27.64831733703613,-79.78281304141636,40.45892571631088,323.2750253295898,0.024611694738268845,0.005574576091021299,-0.9827115535736084,0.1834157556295395,-0.21003381893631112,-0.009964183988870192,2.9917511327263995,-0.07127796113491057,-0.050079379230737686,-0.08024314045906067,-0.10017422446981072,-0.36621583063155416,-9.638598813414577
38.6,4.199999809265137,200.0,23.258094787597656,29.898670196533203,-79.78281299042284,40.45892574218487,323.5735215759277,0.022490315139293667,0.007356582209467888,-0.9827324748039246,0.1835130602121353,-0.19194893443700115,-0.02037427068948299,2.9678147909833545,0.008814730681478977,-0.08991865068674088,-0.004336116835474968,-0.05998293543700129,-0.299649062845856,-9.623845703601836
38.8,4.199999809265137,198.0,23.30316734313965,29.13529968261719,-79.78281277338904,40.45892581348089,323.90841384887693,0.020150816068053246,0.009369852021336555,-0.982726514339447,0.18372491002082825,-0.1878283153724687,-0.04571471650026998,3.016660113153152,0.011994005180895329,-0.04454074427485466,0.16297301650047302,-0.17756119173020124,-0.5837079138681293,-9.79998313486576
39.0,4.199999809265137,199.0,23.31819152832031,28.96036148071289,-79.78281264475334,40.45892587301859,324.5366563415527,0.01899361051619053,0.01345734391361475,-0.9826488494873048,0.18400923907756805,-0.1697310858374369,-0.07489278367619254,3.041738867571944,-0.025103079155087468,-0.06844522058963776,-0.05818527564406395,-0.2360967722721398,-0.2832248736172915,-9.780293220877649
39.1,4.199999809265137,199.0,23.27186584472656,29.59650230407715,-79.78281261173727,40.45892590276953,324.8423013305664,0.018267745152115825,0.01508381497114897,-0.982585072517395,0.1842971444129944,-0.15906163569452714,-0.08135993314563841,3.0594721546338963,0.04436585679650307,0.003912077285349369,-0.056071221828460686,-0.07641658527776599,-0.31944223500788216,-9.928696138858797
39.2,4.099999904632568,196.0,23.29816055297852,29.00012016296387,-79.78281246731555,40.45892592570015,325.46982666015623,0.020043900236487392,0.016109475865960118,-0.9825578927993774,0.1841706782579422,-0.14466542158228515,-0.062265299259401274,3.095528419497427,0.02805248461663723,0.04084672778844834,-0.017683979123830795,-0.16008470468223096,-0.3941174281015992,-9.927338415384293
39.4,4.099999904632568,197.0,23.323200225830078,28.578676223754893,-79.78281229945836,40.45892592159669,326.09708877563475,0.0212318915873766,0.014886680990457538,-0.9828535318374634,0.18255572021007532,-0.15992742765533788,-0.04550227438308252,3.1107181060686337,-0.09177136421203612,0.027000011876225468,0.027527036145329475,-0.20359683305025106,-0.3672838245704769,-9.915582003593444
39.5,4.0,197.0,23.17170333862305,31.425411224365234,-79.78281228687328,40.4589258959468,326.40900131225584,0.01895829290151596,0.01247785147279501,-0.9830723404884338,0.18180708587169647,-0.14151404651081625,-0.03289519203799722,3.1233267163210248,-0.09774933755397797,0.09832021594047546,-0.04947460815310478,-0.03446401895955205,-0.15392217792570592,-9.940249067544936
39.71,4.0,197.0,23.25308609008789,29.413612365722656,-79.78281228656864,40.45892585962192,326.7232255554199,0.017437679693102837,0.010693889111280441,-0.9831990599632264,0.18138669431209564,-0.11427749132109588,-0.011741374213892666,3.157816060559504,-0.029038898646831512,0.014684712514281271,0.005536527372896671,-0.08365607779473068,-0.3498460753262043,-10.090579812526704
39.9,4.0,197.0,23.4033317565918,27.61651039123535,-79.78281229529823,40.45892570015871,327.35956283569334,0.011241541244089605,0.01031510066241026,-0.9830979704856871,0.1824433654546737,-0.07561088411556711,0.005616207954900986,3.2078222596164867,-0.04605075344443321,0.02208491414785385,-0.043787334114313126,-0.1145383208524436,-0.35224072940647605,-10.031757992506027
40.0,4.0,194.0,23.3782901763916,27.298439025878906,-79.78281223948579,40.4589255624224,327.9879312133789,0.013386831618845465,0.01058577001094818,-0.9827386736869812,0.1842104196548462,-0.0536707362242872,0.0104589760005822,3.1393623892477502,0.05459633469581604,-0.03800390660762787,-0.0006497995927929878,-0.13174047298729422,-0.29839704606682066,-9.623498963713649
40.2,3.9000000953674316,194.0,23.341981887817386,27.38591003417969,-79.78281224598283,40.45892550192993,328.30039306640623,0.015576601959764956,0.009540878236293793,-0.9826428890228271,0.18460604548454285,-0.05346596869111055,0.008944959825133658,3.103512763258163,0.15697398781776428,0.0872882753610611,0.04945303127169609,-0.13681816765107216,-0.3784847143292427,-9.489452714323996
40.3,3.9000000953674316,194.0,23.354501724243164,28.63433837890625,-79.78281223684425,40.458925269526304,328.92203994750975,0.014484728686511515,0.004863330163061619,-0.9825569391250608,0.1853334754705429,-0.059000942587089086,0.040915994536871315,3.0480897812709142,-0.11861438304185867,0.041063301265239716,-0.06761641800403595,-0.11027233849279584,-0.15489323599264027,-9.521742793321607
40.4,3.9000000953674316,197.0,23.348241806030273,27.56879997253418,-79.7828121723458,40.458925208559045,329.24729248046873,0.012608926743268968,0.004698619246482849,-0.98253071308136,0.1856134980916977,-0.047302270414947216,0.0415995442199877,3.0601604033764604,-0.006279389839619397,-0.014817335642874241,0.05470214784145355,-0.14466430879198014,-0.3432141998782754,-9.690012211203577
40.5,3.9000000953674316,196.0,23.29816055297852,28.66614532470703,-79.78281219963678,40.458925151445534,329.5530290222168,0.010725803673267365,0.004621251951903105,-0.9825772047042848,0.18548759818077087,-0.0388743810174941,0.03270334887464483,3.0553930326252594,-0.0430096760392189,-0.0004738618736155331,-0.01956474781036377,-0.11236762426793576,-0.2875104806944728,-9.73901538670063
40.7,3.9000000953674316,196.0,23.37203025817871,27.37795829772949,-79.78281222967084,40.45892510123217,329.85859390258787,0.010894882492721079,0.004629907198250294,-0.9826140999794006,0.1852823793888092,-0.026287435853732177,0.02264564620958716,3.0527397889969223,-0.007716185878962278,0.0005281459307298063,-0.10406722873449326,-0.1178485301323235,-0.13335430450737476,-9.738494399785997
40.9,4.0,195.0,23.25183296203613,28.76951789855957,-79.78281217180718,40.45892501046299,330.4896363830566,0.013781012035906315,0.005907076410949229,-0.9824177026748656,0.1860933899879456,-0.057406597533724124,0.01985533530369681,3.0644700554831976,-0.013861420564353466,0.022827329114079475,0.001070265774615109,-0.05392556263133884,-0.29590262386947874,-9.740757856965066
41.0,4.0,195.0,23.3782901763916,27.78349876403809,-79.78281215971046,40.4589249113221,331.11802001953123,0.014974531717598438,0.0101481219753623,-0.9824963808059692,0.1854016184806824,-0.06477626664338867,-0.0011897451057306804,3.055494612109215,0.10572251677513124,-0.009759592823684216,0.0850219801068306,-0.06379937198013068,-0.3934255197644234,-9.764189404249194
41.1,4.0,195.0,23.32445335388184,27.544944763183594,-79.78281217185706,40.45892487943564,331.4233522033691,0.014414544217288494,0.011196456849575044,-0.9825323224067688,0.185194730758667,-0.08145953498017403,-0.015100905606123824,3.0534745754781665,-0.003585579572245478,-0.04866278916597366,-0.045097511261701584,-0.18212536381557584,-0.3681393818557263,-9.765483977794648
41.3,4.0,195.0,23.28689193725586,28.66614532470703,-79.78281215340529,40.458924774090775,332.0489205932617,0.01113091129809618,0.01263119839131832,-0.9826717972755432,0.18458805978298187,-0.06765642970066575,-0.009948863235362284,3.0200999423232444,-0.030077397823333737,0.008705997839570045,0.044271260499954224,-0.1911877258121968,-0.28537527853623035,-9.557646451592444
41.4,3.9000000953674316,193.0,23.402080535888672,26.646394729614247,-79.78281215634055,40.45892470655347,332.35992523193363,0.011133870109915732,0.012315645813941956,-0.9827693700790404,0.1840888559818268,-0.04386080840064725,-0.00392428638246425,3.017854457334728,0.04458029940724373,-0.040688473731279366,-0.03329618275165558,-0.06074527988210321,-0.3191622630134225,-9.664690843820573
41.6,3.9000000953674316,194.0,23.41460037231445,26.216999053955078,-79.78281216649738,40.458924645088096,332.6606607055664,0.012144196778535843,0.01031098235398531,-0.9828224778175354,0.18386463820934296,-0.04470417416328595,0.0027025989238853537,2.9992256218511666,0.04863002896308899,0.07370748370885849,0.02669888362288475,-0.0849482941813767,-0.2933746715448797,-9.632121852636338
41.8,3.9000000953674316,193.0,23.26435470581055,29.016023635864247,-79.78281208152085,40.45892455964713,333.27413269042967,0.008047739043831825,0.004301500506699085,-0.9826109409332277,0.18545256555080414,-0.06517525474264987,0.028110082468045836,3.002350658324412,-0.1300325244665146,-0.011297776363790035,-0.1428738236427307,-0.15922134501859547,-0.2376995306275785,-9.694911593198775
41.9,3.9000000953674316,193.0,23.368274688720703,27.79145050048828,-79.7828120671396,40.458924509956326,333.5740441894531,0.008160443045198917,0.0046640527434647075,-0.982382357120514,0.1866457611322403,-0.04493900862692375,0.03500447324329168,3.0011174057475447,0.07579424232244493,0.03089469484984875,0.058580711483955376,-0.1009178806655109,-0.20211827320978049,-9.785804221630094
42.0,3.9000000953674316,192.0,23.254337310791016,28.90469741821289,-79.7828119623273,40.45892443771962,334.18760009765623,0.011596815660595894,0.010078577324748041,-0.9819531440734864,0.18849919736385345,-0.07464833587346932,0.013738767358940905,3.010235970615652,0.0032635640818625693,-0.04757844656705856,-0.025604156777262688,-0.013785377349704505,-0.3266734135150909,-9.884776532649994
42.21,3.9000000953674316,191.0,23.30692481994629,29.008071899414066,-79.78281183865069,40.45892435672393,334.7987603759765,0.009007691405713558,0.009782521054148674,-0.9818870425224304,0.1890003532171249,-0.08361530640158937,-0.0010222021257465762,3.008855429652696,-0.06733754277229309,0.08279959112405777,-0.07869943976402283,-0.13300512523390354,-0.04872057225555182,-9.627766846418384
42.4,3.9000000953674316,191.0,23.230548858642567,29.715778350830078,-79.7828118065095,40.45892431806264,335.0987481689453,0.009117809124290943,0.011028846725821495,-0.98199462890625,0.1883661299943924,-0.07139965579479432,0.0016958600958880948,2.995476690069112,0.07526763528585434,-0.041736315935850136,0.15682043135166168,-0.194188133161515,-0.3835234062373639,-9.711077975034712
42.5,3.799999952316284,190.0,23.21677589416504,29.707826614379893,-79.78281159558131,40.458924271005735,335.7027291870117,0.009028158150613308,0.010622607544064522,-0.982352077960968,0.1865212619304657,-0.09255531765143432,-0.018034386411189752,2.9950211830968523,-0.0073511297814548016,0.018626103177666664,-0.0004390622489154339,-0.2816400040872395,-0.2408794474974275,-9.852239116430283
42.61,3.799999952316284,188.0,23.28313446044922,28.363977432250977,-79.78281154525506,40.45892424327413,336.0032968139648,0.0094328997656703,0.00830137822777033,-0.9824318289756776,0.18619835376739505,-0.09067253039252722,-0.007373779844192052,3.0119376027440583,0.05303943529725075,0.049342792481184006,-0.01819674856960773,-0.12272616779431698,-0.1647221314162016,-9.926364269256592
42.81,3.799999952316284,191.0,23.315689086914066,28.745662689208984,-79.78281129992553,40.458924191327,336.6091317749023,0.007728857919573785,0.011300057172775269,-0.9820312857627868,0.1882212907075882,-0.12184018401826142,0.0206983185903361,3.0018735012777764,-0.05827347934246064,-0.02772747166454792,-0.1416754126548767,-0.03672296281903984,-0.16411338144913318,-9.700757639408113
42.9,3.9000000953674316,191.0,23.310680389404297,27.41771697998047,-79.7828111544775,40.45892420658787,336.9106149291992,0.006973098497837782,0.0123464185744524,-0.9817874431610109,0.18945293128490448,-0.12103573606486395,0.0004984252377264273,2.9971350156630843,0.008675751276314259,-0.055347930639982224,0.04182295501232147,-0.11706739693880082,-0.3485527443140745,-9.836372112035752
43.1,3.9000000953674316,192.0,23.295656204223643,28.181087493896484,-79.78281105060243,40.45892417742925,337.21092315673826,0.008004407398402691,0.012141379527747631,-0.9817091226577759,0.1898309737443924,-0.12633512861192306,0.005931196921809507,3.0035506796863154,0.0490182563662529,-0.03950618207454682,0.08846572041511536,-0.13649035812355578,-0.4115319346636534,-9.787136802077294
43.2,3.9000000953674316,189.0,23.28313446044922,29.278430938720703,-79.78281070149308,40.45892416927682,337.8111581420898,0.015765054151415825,0.010405993089079857,-0.9819137454032898,0.1883845329284668,-0.16365411986216585,0.016741019215189053,2.980702164969436,0.1412803828716278,0.004752994515001774,-0.11013642698526382,-0.1108965196274221,-0.4098305045440793,-9.670252715349198
43.4,3.9000000953674316,191.0,23.35700607299805,27.32229423522949,-79.78281035355779,40.45892412090672,338.41361328125,0.01875228621065617,0.005603119265288114,-0.9824854731559752,0.18530866503715515,-0.2087447448290688,0.045547929253744734,2.964013369101832,-0.06109520420432093,0.08066791296005249,-0.03594764322042465,-0.06149938340764492,-0.15871419042348864,-9.655524163842204
43.51,3.9000000953674316,191.0,23.24056434631348,28.586627960205078,-79.78281022601709,40.458924094494755,338.709397277832,0.0189673975110054,0.004394905176013708,-0.9827072024345398,0.1841403245925904,-0.20202166429551066,0.04971171822729285,2.9437377062665973,-0.013177446089684963,0.03072265163064003,-0.030079727992415425,-0.1935862719453872,-0.2316457255370915,-9.649782782793043
43.7,3.9000000953674316,191.0,23.268110275268555,28.34012222290039,-79.7828099003225,40.458924060438655,339.3072518920898,0.01947247609496117,0.0049272021278738976,-0.9829557538032532,0.1827419102191925,-0.19148113797996189,0.028028316448275192,2.9458669653221743,-0.018401997163891792,0.01583883911371231,-0.029137365520000458,-0.25983805753290656,-0.4140528886020184,-9.718391087651254
43.9,4.0,192.0,23.21677589416504,29.827104568481445,-79.78280981352117,40.45892405364828,339.6027383422852,0.017811549827456474,0.00544743612408638,-0.9829429984092712,0.1829650551080704,-0.1749259028243803,0.019242383004735103,2.9504926635086104,-0.0039161453023552895,-0.0012088146759197116,-0.18011055886745453,-0.09508332788944243,-0.2437958193942905,-9.85491246342659
44.0,4.0,193.0,23.21051597595215,29.453371047973643,-79.7828095997631,40.45892407579722,339.9064950561523,0.016493713483214382,0.007813027128577229,-0.9828357100486756,0.18357840180397034,-0.16282869188946722,0.007150363730008084,2.970934013442492,0.029127497225999832,-0.023279426619410515,0.00619659386575222,-0.22431026559323072,-0.19369676604866984,-9.949416332244873
44.1,4.0,194.0,23.20676040649414,29.37385368347168,-79.78280946790672,40.45892408048536,340.5083016967773,0.013050048612058164,0.012614247389137743,-0.9824389219284058,0.18569962680339813,-0.14328954966824778,-0.031024679527384462,3.0417837541861275,0.07361072301864624,-0.013252024538815022,0.04275432974100113,-0.17485981464385988,-0.3239335544407368,-10.159740679264068
44.31,4.0,194.0,23.151670455932607,30.34396934509277,-79.78280923949633,40.45892410929105,341.12310119628904,0.011484825052320955,0.014397882856428625,-0.9820624589920044,0.1876542717218399,-0.1335298113528557,-0.04729397457899337,3.0896954432201933,0.0943404585123062,0.06739435344934464,-0.011678743176162243,-0.2220491290278733,-0.3167219275608659,-10.091003150939944
44.4,4.0,192.0,23.288143157958984,28.38783264160156,-79.7828090548364,40.45892410634231,341.4245538330078,0.011521329171955584,0.01273206528276205,-0.9820010662078856,0.18809349834918976,-0.13887946225607212,-0.03630300046738999,3.076168015360414,-0.010573847219347956,0.0775003507733345,-0.05530116334557533,-0.12595166553743184,-0.25209680082276464,-10.032043336629867
44.61,4.0,191.0,23.26936149597168,27.91867828369141,-79.78280897718138,40.45892408754387,341.73265167236326,0.012316596694290638,0.011351133696734905,-0.9820000529289246,0.1881367564201355,-0.1395623810008438,-0.014929600342745574,3.0731052033908366,0.016954682767391205,-0.006225510034710169,-0.022264277562499046,-0.2447070165909827,-0.322944753728807,-9.741839007139207
44.7,4.0,190.0,23.31694030761719,28.181087493896484,-79.78280885055669,40.45892402872342,342.3329553222656,0.015723161399364468,0.010707177221775057,-0.9821465611457824,0.18715348839759827,-0.12816817146659434,0.010235483204479092,2.9905393552250117,0.01502660010010004,-0.028155200183391568,-0.08421463519334793,-0.11662087066099047,-0.2687662807479501,-9.589640076756476
44.91,4.0,190.0,23.219280242919922,29.6760196685791,-79.78280867486805,40.45892393336809,342.9341973876953,0.0182870589196682,0.008740033954381944,-0.9821717739105223,0.1868899017572403,-0.12695772859954016,0.028733028916327664,2.954339145314361,0.03758781775832176,0.07758500427007675,-0.1049548014998436,-0.11857226924970747,-0.16638972077518702,-9.572870262265203
45.0,4.0,192.0,23.338224411010746,26.686153411865234,-79.78280863563391,40.45892388368586,343.22908874511717,0.019369348883628845,0.008785145357251167,-0.9821208119392396,0.1870467513799668,-0.12514952092573695,0.033072321778114866,2.9431212306703296,-0.008198881521821022,-0.02879608236253262,0.02570277638733387,-0.15675741970539095,-0.3094447022303939,-9.660391970872881
45.2,4.0,192.0,23.254337310791016,28.1015682220459,-79.78280855620045,40.45892366106673,343.8094873046875,0.02179063856601715,0.010676219128072262,-0.982057809829712,0.18701282143592834,-0.09682143216753,0.04495123604983217,2.89779647217795,-0.02918711677193642,-0.07631801813840866,-0.01737506315112114,-0.16286257065832616,-0.4723010967671871,-9.672673462629321
45.3,3.9000000953674316,192.0,23.32570457458496,27.84711265563965,-79.78280856884996,40.45892358577124,344.09951110839836,0.02027848549187184,0.01009033154696226,-0.9820870757102966,0.18706165254116056,-0.08423461373729617,0.040257225771592416,2.897219324590115,-0.035865001380443566,0.06739446520805359,-0.00429400010034442,-0.1669968444854021,-0.2543573161214589,-9.648971773982046
45.51,3.9000000953674316,193.0,23.139148712158203,30.272403717041016,-79.78280865414322,40.458923293204975,344.3731851196289,0.01808055117726326,0.009467137046158314,-0.9820911884307858,0.1872977614402771,-0.033024438712453016,0.059945270544907815,2.8762501056329954,-0.026882993057370186,0.038912899792194366,0.03897811472415924,-0.11431250869296493,-0.2492777667939663,-9.87672959446907
45.6,3.9000000953674316,194.0,23.2568416595459,28.523012161254893,-79.78280879589899,40.45892306801391,344.9549722290039,0.014699178747832775,0.007629819214344025,-0.9819467067718506,0.1884319186210633,0.004482893473281889,0.0643304541810942,2.94279268626059,-0.055969689041376114,-0.005779533181339502,-0.06416314095258713,-0.03980644631199539,-0.09396276382729413,-10.08243931889534
45.8,3.9000000953674316,195.0,23.27061462402344,28.06976127624512,-79.7828087293844,40.45892295859686,345.2258004760742,0.013905861414968971,0.008325111120939255,-0.9818947315216064,0.18873262405395508,-0.0006772546106054139,0.06567571788729931,2.908499453852881,-0.08707019686698914,-0.09878645837306976,-0.08067094534635544,-0.21442799605429166,-0.3486884728074074,-9.840499076843262
45.9,3.9000000953674316,195.0,23.380794525146484,26.050010681152344,-79.78280874574006,40.4589228176366,345.7970666503906,0.012610414996743202,0.008832896128296852,-0.981827676296234,0.18914934992790225,-0.004015479197713721,0.05465432510405797,2.8703234495428487,0.017502043396234512,-0.010192289017140864,0.13332021236419678,-0.13602938739582898,-0.4548407261073589,-9.747263469099998
46.1,3.9000000953674316,195.0,23.32445335388184,27.3063907623291,-79.78280882878128,40.45892261841545,346.36556335449217,0.014053030870854856,0.008011090569198132,-0.9817882776260376,0.18928878009319305,-0.003305603500368402,0.0608999094710463,2.8223483343011853,0.05343011394143105,0.02197644859552384,0.04215541481971741,-0.010863002920523286,-0.34627558272331954,-9.584583404660226
46.3,3.9000000953674316,195.0,23.27812767028809,28.196990966796875,-79.78280866678476,40.45892272930328,346.6667947387695,0.01547873392701149,0.0073597109876573094,-0.9818748831748962,0.18875367939472198,-0.03456587446621333,0.042141834215884966,2.8271904008155397,0.10446043312549592,0.031751811504364014,0.08032364398241043,-0.04875692549161613,-0.32058361150324344,-9.75520106434822
