time,wind_speed,wind_angle,battery_voltage,battery_current,position_x,position_y,position_z,orientation_x,orientation_y,orientation_z,orientation_w,velocity_x,velocity_y,velocity_z,angular_x,angular_y,angular_z,linear_acceleration_x,linear_acceleration_y,linear_acceleration_z
0.0,2.0999999046325684,195.0,24.117000579833984,-0.07951773703098297,-79.78283568948741,40.458914472606025,268.040749101013,0.0029175314120948315,0.009172152727842331,-0.9870800971984864,0.15993869304656982,-0.017865840417550957,0.006623880673189945,0.04266339986193764,-0.004508569836616515,-0.0034154097083956003,-0.0031958443578332663,-0.1831726366840303,-0.09394540490582587,-9.805316380262378
0.2,2.0999999046325684,194.0,24.124513626098643,-0.03180709481239319,-79.78283555496712,40.458914453340064,268.043760994494,0.002924436470493675,0.009171812795102595,-0.9870800375938416,0.15993869304656982,-0.015029461494968682,0.003085903198876512,0.04429624699631253,0.0046737235970795155,0.003817670280113816,0.009042194113135338,-0.1808336956053972,-0.101461187498644,-9.805011740326881
0.3,2.200000047683716,196.0,24.13202476501465,-0.05566241592168808,-79.78283551720627,40.45891445681106,268.05266484063867,0.002928719623014331,0.00917729642242193,-0.9870799779891968,0.15993869304656982,-0.01754989686084645,0.0012415686583938676,0.044564859712581416,-0.002108948538079858,0.0030369777232408524,-0.003698860295116901,-0.18045640401542187,-0.09695234469138088,-9.804798901677133
0.5,2.299999952316284,194.0,24.12701797485352,-0.07156596332788467,-79.78283538978418,40.4589144202158,268.0534207802713,0.0029338342137634754,0.009189264848828316,-0.9870798587799072,0.1599384993314743,-0.016312423299630216,0.0030745620969991946,0.04790335200408688,0.0031844230834394693,0.004223566967993975,0.004546645563095808,-0.17746275750920176,-0.10090453256852926,-9.805975946187974
0.6,2.200000047683716,192.0,24.118253707885746,-0.06361418962478638,-79.78283524299435,40.4589143672719,268.05892774653444,0.0029363199137151237,0.009202596731483936,-0.9870797395706176,0.1599382907152176,-0.016276473860019475,0.007002567719363761,0.051008270055699856,-0.0032508601434528828,-0.0004362136241979897,-0.0048048626631498345,-0.18101117687299847,-0.09680085612460973,-9.80461588382721
0.8,2.200000047683716,191.0,24.118253707885746,-0.05566241592168808,-79.78283522233284,40.45891436515944,268.0640346091688,0.002937681740149856,0.009207518771290779,-0.9870797991752625,0.15993820130825046,-0.01647568368673822,0.0058432576438332655,0.0510673256927252,0.007377038709819317,0.003005455946549773,0.006881214212626219,-0.1813788388296962,-0.1013682167697698,-9.806236732006074
0.9,2.200000047683716,192.0,24.13202476501465,-0.039758868515491486,-79.78283520095529,40.45891436448419,268.06915421974657,0.002937681740149856,0.009207518771290779,-0.9870797991752625,0.15993820130825046,-0.01804283795532155,0.0051918556583148215,0.05121275150134207,-0.00219677179120481,-0.0029008069541305304,0.00028525435482151806,-0.1782897548004985,-0.1015124328620732,-9.806698077321052
1.1,2.200000047683716,188.0,24.12826919555664,-0.07951773703098297,-79.78283498375394,40.458914279231905,268.08238296028975,0.002931087277829647,0.009225936606526377,-0.9870797395706176,0.15993762016296387,-0.02404103873468316,0.013907881252129498,0.06227625463757884,0.004065627232193947,0.00455096922814846,0.005718803498893976,-0.17836381344124674,-0.09749958925880492,-9.805095355510712
1.2,2.200000047683716,189.0,24.12701797485352,-0.02385532110929489,-79.7828348334062,40.45891419946381,268.09012215775255,0.002927339170128107,0.009249426424503326,-0.9870775938034058,0.1599494367837906,-0.025051670905253388,0.020803135273139425,0.07330572907182784,0.0015255154576152565,0.0019193715415894985,0.003272094065323472,-0.17972089737653732,-0.10314119305461646,-9.805474839806557
1.4,2.200000047683716,184.0,24.130773544311523,-0.04771064221858978,-79.78283476095537,40.4589141772636,268.104774538938,0.002947178203612566,0.009241105057299135,-0.9870766401290894,0.1599557101726532,-0.027232555425533947,0.019012395755316047,0.07343879543956633,-0.000758419104386121,-0.0007255610544234513,-5.1433049520710476e-05,-0.18317888589575887,-0.08931477556005121,-9.802064743638038
1.51,2.200000047683716,185.0,24.13327789306641,-0.03180709481239319,-79.78283456693336,40.45891411092382,268.1166747101098,0.0029323883354663853,0.00921783410012722,-0.98707515001297,0.1599663347005844,-0.03135984150041753,0.02055972285833861,0.07738379877901455,-0.003495927434414625,-0.0007877831812947989,-0.0021423078142106533,-0.17925889424979688,-0.10177311818115414,-9.80544735789299
1.69,2.0999999046325684,182.0,24.12576484680176,-0.015903547406196594,-79.78283450175785,40.45891407847254,268.1192266680748,0.0029589470941573377,0.009197686798870564,-0.9870750904083252,0.15996715426445007,-0.024329367325354904,0.013873662463792864,0.07803152610706036,-0.0037332500796765093,-0.002328555565327406,-0.00372145720757544,-0.1856704575754702,-0.08688782474957407,-9.804874915480614
1.8,2.200000047683716,181.0,24.124513626098643,-0.03180709481239319,-79.78283446978392,40.458914072207385,268.1270330138952,0.0029496485367417336,0.009184022434055805,-0.9870745539665222,0.15997172892093658,-0.024407517844523458,0.01278057185611241,0.07814621551042991,0.007824782282114029,0.0037839701399207115,0.003762255655601621,-0.18154952270910146,-0.10030391388572753,-9.806240240335462
2.0,2.0999999046325684,177.0,24.13578224182129,-0.02385532110929489,-79.782834401203,40.45891403085553,268.13520610523227,0.0029515100177377467,0.009212825447320938,-0.9870704412460328,0.15999481081962585,-0.017332297156196018,0.006786800817360024,0.07576918533645961,-0.005322270095348358,-0.0010518344352021813,-0.0048606060445308685,-0.18174721341580152,-0.08666814303025604,-9.805355556607246
2.1,2.0999999046325684,178.0,24.13452911376953,-0.02385532110929489,-79.78283433215759,40.45891401930132,268.1414113324583,0.002964042592793703,0.009199578315019608,-0.9870704412460328,0.15999528765678406,-0.012855106304114216,-0.003222639348024979,0.07051269229540094,0.0040852921083569535,0.0001683842419879511,0.00584053248167038,-0.17877165673300624,-0.09333442568778992,-9.806255443096159
2.29,2.200000047683716,180.0,24.13327789306641,-0.02385532110929489,-79.78283431907498,40.458914024859155,268.1484968085289,0.002968610264360905,0.009203430265188215,-0.9870703220367432,0.15999570488929749,-0.014303846715341476,-0.0044456279448522856,0.07084675421206002,-0.004233336541801691,-0.0018335131462663406,-0.005368399899452925,-0.18518647257238627,-0.0940205507632345,-9.80494683623314
2.4,2.200000047683716,178.0,24.123260498046875,-0.02385532110929489,-79.78283421215556,40.45891396883729,268.15237014931444,0.002971465233713389,0.009218080900609492,-0.9870701432228088,0.15999604761600494,-0.013850725117577465,-0.0019013994810494921,0.06392307985327522,0.0037391646765172477,0.0033746766857802872,0.004894167184829712,-0.185198422819376,-0.08653473515063524,-9.803416619896892
2.6,2.4000000953674316,178.0,24.12952041625977,-0.04771064221858978,-79.7828341967027,40.45891397387687,268.1587897371948,0.002971465233713389,0.009218080900609492,-0.9870701432228088,0.15999604761600494,-0.015590605620845868,-0.0026809632342328807,0.06412420643087458,-0.0048412964679300785,-0.0017394851893186571,-0.002284170826897025,-0.18186490690335635,-0.09547060542739927,-9.805305270552637
2.7,2.5,179.0,24.12200927734375,-0.015903547406196594,-79.7828341393815,40.45891394028053,268.1610582564473,0.002982192207127809,0.009221027605235577,-0.9870700240135192,0.1599964201450348,-0.010827563801937126,-0.006687003726280223,0.057062266086684965,0.0029731900431215767,0.0039695450104773045,0.006121024489402771,-0.18271532960236075,-0.08746131783351302,-9.804324107766153
2.9,2.5,179.0,24.12952041625977,-0.007951773703098297,-79.78283412907746,40.458913948778246,268.1668037940264,0.002982192207127809,0.009221027605235577,-0.9870700240135192,0.1599964201450348,-0.012618029080593998,-0.007626195532454472,0.057328879308203816,-0.0036565531045198436,-0.0037988154217600814,-0.001215055352076888,-0.1820271854102612,-0.09309916662052274,-9.80492461681366
3.0,2.5,181.0,24.13202476501465,-0.04771064221858978,-79.78283405490919,40.45891386748437,268.1666228641272,0.002991258399561048,0.009238168597221376,-0.9870697855949402,0.1599966585636139,-0.009172428027150068,-0.0035603675413011476,0.0490112462704738,0.004857528954744339,0.0008179047144949436,0.0054486417211592215,-0.18334209630265835,-0.0876876598969102,-9.804241662025452
3.19,2.5,183.0,24.12576484680176,-0.015903547406196594,-79.78283398766979,40.45891383913802,268.16014920365814,0.002992807887494564,0.00923105888068676,-0.9870697855949402,0.1599970906972885,-0.01033195518226911,-0.008675703046346283,0.03923715718102308,-0.002877977676689625,-0.0029005336109548807,-0.0057003814727067965,-0.18279406601563092,-0.09451662305742503,-9.805713406205177
3.29,2.5,181.0,24.13452911376953,-0.02385532110929489,-79.7828339713666,40.45891385995285,268.16807151776555,0.0029875177424401045,0.009231457486748695,-0.9870687127113342,0.16000407934188846,-0.010981511874102982,-0.010643167646427216,0.03951283103128575,0.007466034032404424,0.00263093481771648,0.0042170309461653215,-0.181373777333647,-0.08519191293977202,-9.804386088252068
3.5,2.5,184.0,24.124513626098643,-0.02385532110929489,-79.78283392496152,40.45891379527532,268.1639163066149,0.002992243738844991,0.00923600047826767,-0.9870683550834656,0.160005584359169,-0.007866247542462344,-0.00899399101656053,0.034701040851118,-0.0030565299093723297,0.0008314375299960375,-0.0031806123442947865,-0.17973308516666295,-0.09891025744378568,-9.807362321019172
3.6,2.5,187.0,24.12826919555664,-0.04771064221858978,-79.78283383910063,40.45891373787743,268.1623219382465,0.00297102564945817,0.009237515740096569,-0.9870697855949402,0.1599973738193512,-0.009464556097510972,-0.006631349440584997,0.02815381086571265,0.0032106463331729174,0.0027028867043554787,0.006204322446137668,-0.1850009696558118,-0.0863867914583534,-9.804513557553292
3.79,2.4000000953674316,191.0,24.13327789306641,-0.02385532110929489,-79.78283383033767,40.45891374607549,268.1651758347154,0.0029660854488611217,0.00923988688737154,-0.9870670437812804,0.1600141078233719,-0.010793947965043878,-0.007451672822573896,0.028357150043083142,-0.00020830973517149687,0.0038203329313546415,0.0017557749524712565,-0.17656347401440145,-0.10342139345593752,-9.806345490217213
3.9,2.299999952316284,188.0,24.13578224182129,-0.015903547406196594,-79.78283379124656,40.45891369633718,268.162405664146,0.002973750699311495,0.009250150993466377,-0.987064778804779,0.16002720594406128,-0.007124081766022944,-0.00991935264134225,0.02225877110231491,0.0017960841068997981,0.0012472454691305757,-0.0031653721816837788,-0.18359105978161092,-0.08861858231015504,-9.805055009722713
4.1,2.200000047683716,188.0,24.12200927734375,-0.04771064221858978,-79.78283378676036,40.45891370698049,268.1646600533724,0.002942445920780301,0.009247488342225552,-0.987064778804779,0.16002827882766724,-0.0075536426639586296,-0.011011661374819879,0.02224042243372489,0.004462551791220903,0.0030926470644772053,0.006588940043002367,-0.1802600289322436,-0.10042100437916816,-9.805140963792805
4.2,2.0,189.0,24.12701797485352,-0.015903547406196594,-79.78283375007467,40.458913611637904,268.1601567883492,0.0029511968605220322,0.009259114973247051,-0.987066388130188,0.16001781821250916,-0.002892310590321427,-0.00525123410951516,0.018350997468577226,-0.00046140330960042775,-0.001878026290796697,-0.0008030324243009089,-0.17795885721221566,-0.10057224626652896,-9.8058964240551
4.39,2.0,190.0,24.130773544311523,-0.02385532110929489,-79.7828337465744,40.4589136231261,268.1638648082018,0.0029627801850438122,0.009261444211006165,-0.9870667457580566,0.16001489758491516,-0.004567004424135835,-0.006955324049944722,0.018406800947681105,0.001536219846457243,0.0003649258869700134,-3.018797315235133e-06,-0.18195504538714888,-0.09051351872272788,-9.80362302660942
4.5,1.8999999761581416,191.0,24.12200927734375,-0.02385532110929489,-79.7828336625947,40.45891355924674,268.16193851646784,0.0029610733035951853,0.009271892718970777,-0.987066686153412,0.16001510620117188,-0.008344635581764723,-0.005430919437789455,0.016301085727652397,-0.00406067306175828,-0.002405873499810696,-0.0016779067227616904,-0.17733141442760825,-0.10155998717062176,-9.805263755321503
4.7,1.8999999761581416,189.0,24.12952041625977,-0.03180709481239319,-79.78283364754941,40.45891349697568,268.15818740245703,0.00297385361045599,0.009271131828427315,-0.9870665669441224,0.16001534461975098,-0.0025687215279584646,-0.00827088896799534,0.01411616436994488,-0.00287873181514442,-0.004173054825514555,-0.009473420679569244,-0.18175676995888354,-0.08681590399704874,-9.803835280537603
4.81,1.8999999761581416,189.0,24.12701797485352,-0.04771064221858978,-79.7828336479422,40.45891351378943,268.16105440822247,0.002976023824885488,0.009275146760046482,-0.9870665073394777,0.1600153148174286,-0.003524713797623924,-0.010190734857897472,0.014101604972456432,0.002728520194068551,0.00263034226372838,0.0033880739938467732,-0.17939094996079805,-0.09375590943731367,-9.806051375269892
5.0,1.7999999523162842,187.0,24.12701797485352,-0.03180709481239319,-79.78283354675563,40.45891341624851,268.15729930442575,0.0029678961727768183,0.009294134564697742,-0.987066388130188,0.1600152552127838,-0.008848022844502475,-0.0024060961304263,0.01293444101515461,-0.002633907832205296,-0.0006496596615761517,-0.0006743157282471657,-0.17810355752706528,-0.09405860334634784,-9.805977115631103
5.11,1.7999999523162842,186.0,24.12952041625977,-0.03180709481239319,-79.78283353791466,40.458913421155785,268.15859987404946,0.0029678961727768183,0.009294134564697742,-0.987066388130188,0.1600152552127838,-0.009803823255252215,-0.0034308176912030345,0.01295125077911165,-0.0037809428758919243,-0.0026395109016448264,-0.009054679423570631,-0.1840328534692526,-0.08419175583869219,-9.803271024227145
5.3,1.7999999523162842,182.0,24.13202476501465,-0.039758868515491486,-79.78283350563012,40.45891334806735,268.1562344450951,0.002980058081448078,0.009302782826125622,-0.9870661497116088,0.16001571714878082,-0.004904674429324676,-0.003820487716035661,0.011801756388901371,0.006303789559751749,0.003735298290848732,0.0046326606534421435,-0.1775615023635328,-0.1035659293178469,-9.806306898593904
5.4,1.7999999523162842,181.0,24.13452911376953,0.0,-79.78283344621413,40.45891329440713,268.15367138576505,0.002984173595905304,0.009306884370744228,-0.9870660305023192,0.1600160449743271,-0.0065592433215753395,-0.005851047559331525,0.01125290831497826,-0.0009265833650715648,-0.00328718381933868,-0.003703842405229807,-0.1826280781812966,-0.09268146528862416,-9.80470943927765
5.6,1.7999999523162842,181.0,24.12952041625977,-0.04771064221858978,-79.78283344094652,40.45891330145168,268.1548099574149,0.002984173595905304,0.009306884370744228,-0.9870660305023192,0.1600160449743271,-0.0066844257648351075,-0.006788733653054311,0.011164746255982743,0.004511317703872919,0.003011515596881509,0.0011823619715869427,-0.18133387008681887,-0.09981435575522483,-9.805019926428796
5.7,1.8999999761581416,181.0,24.12075614929199,-0.02385532110929489,-79.78283338853599,40.45891321237118,268.1507561486662,0.002986756386235357,0.009318525902926922,-0.9870659112930298,0.1600160002708435,-0.005422365794165746,-0.0018753323617427208,0.010614260181287905,-0.001717607257887721,0.0007517734775319695,0.007854118943214417,-0.17771192198619248,-0.10249871196225288,-9.805793513059617
5.9,1.8999999761581416,180.0,24.118253707885746,0.11132483184337616,-79.7828333769087,40.458913219882994,268.15290868100533,0.002990036504343152,0.00932207331061363,-0.9870657920837402,0.16001635789871216,-0.006938506814181355,-0.00343395531307366,0.01071922565087587,0.0012923509348183868,0.003581676166504621,-0.0022579499054700136,-0.1793829100392759,-0.0893356519471854,-9.80403642475605
6.0,1.8999999761581416,180.0,24.12826919555664,0.04771064221858978,-79.78283332240616,40.45891314066453,268.15074832555655,0.0029944379348307852,0.009330925531685352,-0.9870657920837402,0.160016268491745,-0.005804686785098179,-0.0022957700834328877,0.013126112081312095,0.0032675007823854685,0.003683191258460283,0.005281594581902027,-0.1783749779686332,-0.1026231662929058,-9.805373098254202
6.2,1.8999999761581416,179.0,24.11950492858887,0.02385532110929489,-79.78283325791439,40.458913047201705,268.1490941960812,0.0029974014032632113,0.009341694414615631,-0.9870656728744508,0.16001614928245544,-0.00547061690396561,0.0014233563694474212,0.014881281820961188,-0.004555624444037676,-0.00248916051350534,-0.006870841607451439,-0.18131263738498093,-0.08690570443868638,-9.804322353601457
6.3,1.8999999761581416,181.0,24.124513626098643,0.06361418962478638,-79.78283324466383,40.45891304869674,268.15207895827297,0.002998961368575692,0.0093446746468544,-0.9870656132698059,0.16001613438129425,-0.0063204043840459105,-0.00019200066093682524,0.014882805937195319,0.007455035578459501,0.0019222435075789688,0.007730354554951191,-0.17987177381291986,-0.09420645567588508,-9.806698662042619
6.49,1.7999999523162842,181.0,24.11574935913086,0.02385532110929489,-79.78283319397778,40.458912930441116,268.1467099283338,0.003003678983077407,0.009363624267280102,-0.9870654940605164,0.16001607477664948,-0.004231713940593225,0.007153092360121434,0.013606796005496658,-0.006104734726250172,0.00010695194214349611,-0.0040371958166360855,-0.1831589870899916,-0.09224976718425752,-9.804552733898165
6.6,1.7999999523162842,181.0,24.12200927734375,0.03180709481239319,-79.78283318695686,40.458912925663206,268.1480559204221,0.003003678983077407,0.009363624267280102,-0.9870654940605164,0.16001607477664948,-0.004503948413612135,0.006154445751490958,0.01354893210069952,0.0002733923029154539,0.004259331617504357,0.0010963722597807646,-0.18423668375238772,-0.08763461468741299,-9.804133488535882
6.8,1.7999999523162842,178.0,24.11950492858887,0.007951773703098297,-79.78283310449153,40.45891284998387,268.1435365882218,0.00300327455624938,0.009368198923766613,-0.9870653748512268,0.16001653671264648,-0.008079063966878538,0.005335976115547292,0.012265659186644313,-0.0012719493824988606,-0.001625995384529233,0.0006903371540829539,-0.18029728665947914,-0.09951625739224257,-9.80478077530861
6.9,1.8999999761581416,180.0,24.124513626098643,0.05566241592168808,-79.78283309366397,40.45891284790189,268.1447596010268,0.0030158269219100475,0.009368868544697763,-0.9870665669441224,0.16000854969024658,-0.008737496396120006,0.004630719051699891,0.012251048921510832,-0.0025762207806110373,-0.00016899409820325673,-0.00429093511775136,-0.1827136850729585,-0.08453284037299455,-9.802718462347984
7.1,2.0,180.0,24.1144962310791,0.015903547406196594,-79.78283300771031,40.45891275243818,268.13946248781684,0.003025846090167761,0.009366342797875404,-0.9870651364326476,0.16001756489276886,-0.009618645712321957,0.0066615909099925295,0.011293750048589679,0.0010108064161613584,-0.0013405471108853815,0.0027904813177883625,-0.17824087573215364,-0.1020013057719916,-9.807092764377595
7.21,2.0999999046325684,181.0,24.12701797485352,0.04771064221858978,-79.78283301138205,40.45891269348596,268.129903277427,0.003028380451723933,0.009357307106256485,-0.9870690703392028,0.15999352931976318,-0.002275417755298449,-4.2566735086683755e-05,0.0068874087156786685,-0.004775379784405232,-0.0017142421565949915,-0.005048033315688372,-0.18243499215692285,-0.08618111564777793,-9.804348081350328
7.4,2.0999999046325684,182.0,24.123260498046875,0.015903547406196594,-79.78283300640466,40.458912696009506,268.13128648702804,0.002996903378516436,0.009370073676109314,-0.9870662093162536,0.1600109487771988,-0.003189904226013041,-0.001654583163611721,0.0069313951566563935,0.0003095465363003313,0.004665649961680174,0.004389180336147547,-0.17681839434430005,-0.10380011030472816,-9.806067162752152
7.51,2.0999999046325684,180.0,24.11950492858887,0.03180709481239319,-79.78283296454481,40.458912624204224,268.12242272686956,0.003008856903761625,0.009353241883218287,-0.9870635867118835,0.16002833843231198,-0.0021727901705890246,-0.001582909304216504,0.0050269427334679465,-0.004912931006401777,-0.0007893627043813468,-0.008068674243986607,-0.1799330964870751,-0.08939446214586498,-9.805615757703784
7.7,2.0999999046325684,182.0,24.11074066162109,0.039758868515491486,-79.78283290079933,40.45891256514049,268.1133780777902,0.003006036626175046,0.009347454644739628,-0.9870618581771852,0.1600392460823059,-0.0033218134194765705,-0.00411312192679669,0.002917418168920057,0.005143469199538231,0.0014597957488149405,0.00419129990041256,-0.17835834994912148,-0.10369433965533972,-9.805810469985008
7.81,2.299999952316284,186.0,24.1144962310791,0.04771064221858978,-79.78283289806294,40.458912569737116,268.11368703287843,0.0030051032081246376,0.00933930464088917,-0.9870597124099731,0.1600530594587326,-0.004762841195016413,-0.0045738216000102356,0.003074899834548257,-0.005448807030916214,-0.002010517753660679,-0.0012758952798321845,-0.17975049890577793,-0.09611400928348304,-9.806705678701402
8.0,2.4000000953674316,183.0,24.12576484680176,0.06361418962478638,-79.7828328741661,40.45891251259381,268.1038642272335,0.0030097649432718754,0.009341741912066936,-0.9870601892471312,0.1600499004125595,0.00031601667256254663,-0.008350372098406467,0.0013005654677889847,0.0070639788173139095,0.0009586223168298602,0.0018585333600640297,-0.18041733730584386,-0.09801868496462704,-9.805181894302367
8.1,2.4000000953674316,180.0,24.12576484680176,0.05566241592168808,-79.78283287672262,40.45891252006656,268.10401833737086,0.0030097649432718754,0.009341741912066936,-0.9870601892471312,0.1600499004125595,-0.0008864481079480506,-0.009024610384558112,0.0013872944042460046,-0.001002049189992249,0.003113164799287915,0.004014984238892794,-0.17862266236916186,-0.10349817470647396,-9.806315669417382
8.29,2.5,177.0,24.11074066162109,0.07156596332788467,-79.78283280443414,40.45891246615675,268.0938401120231,0.003008452244102955,0.009347333572804928,-0.9870600700378418,0.160050168633461,-0.0034180793670608,-0.009308711442045113,0.0002714821240614745,0.0007813823758624494,0.0026922873221337795,-0.0029645997565239672,-0.1818665148876608,-0.08990823140367868,-9.803959826231004
8.4,2.5,178.0,24.11199188232422,0.039758868515491486,-79.78283280374968,40.45891247547089,268.09388633635643,0.003008452244102955,0.009347333572804928,-0.9870600700378418,0.160050168633461,-0.00383199005468364,-0.010062890886839848,0.000147884452176514,0.003274151124060154,0.0038669360801577572,0.007085574325174094,-0.17668330539017918,-0.10314694890752436,-9.805257908105851
8.59,2.5,177.0,24.123260498046875,0.03180709481239319,-79.78283275062377,40.4589124165402,268.08386864703897,0.0030123419128358364,0.009356046095490456,-0.9870598912239076,0.16005076467990875,-0.003603017172617461,-0.009117820258596688,-0.0003806126202509808,-0.005673166364431381,-0.0012177424505352974,-0.003959471359848976,-0.18448305252939465,-0.08703026840463281,-9.804091388583183
8.7,2.4000000953674316,171.0,24.12576484680176,0.07156596332788467,-79.78283268475326,40.45891233263361,268.072813702792,0.003012586850672961,0.009368910454213621,-0.9870597720146179,0.16005069017410278,-0.0019283662992557282,-0.003085313279945275,-0.0008332383433943775,0.0065636713989079,0.0017683458281680942,0.0045130359940230855,-0.18157833851873875,-0.09606573320925237,-9.805650840997695
8.9,2.299999952316284,170.0,24.117000579833984,0.039758868515491486,-79.7828326808187,40.45891234038458,268.07265932489935,0.0030145549681037664,0.009371984750032423,-0.9870597124099731,0.1600508689880371,-0.0041286058905676964,-0.004123849289378135,-0.0008108872567080593,-0.006449527107179165,-0.002800506539642811,-0.0009218569612130524,-0.1793028945475817,-0.09183687153272332,-9.806068916916848
9.0,2.299999952316284,168.0,24.123260498046875,0.02385532110929489,-79.78283263596667,40.458912241937135,268.0608501080871,0.003023569937795401,0.009387679398059843,-0.987059473991394,0.16005119681358335,0.0006212939389313348,0.001631992818193556,-0.0013361481833927328,-0.002944154664874077,-0.0010674430523067713,-0.00331188109703362,-0.1815395093522966,-0.08820493748411537,-9.804214764833453
9.2,2.200000047683716,166.0,24.123260498046875,-0.015903547406196594,-79.78283256743424,40.45891218502232,268.0485281777084,0.0030220651533454657,0.009389655664563179,-0.987059473991394,0.16005119681358335,-0.0015574049971690091,0.0011797765884748626,-0.00174221170929515,-0.005210239905864,-0.0027364864945411678,-0.0030896821990609173,-0.17903651732951406,-0.09786470219492913,-9.80600342810154
9.3,2.200000047683716,163.0,24.130773544311523,-0.039758868515491486,-79.78283256566127,40.45891218466113,268.04834707644585,0.00302478251978755,0.00939189363270998,-0.9870593547821044,0.16005165874958038,-0.00207045074381816,0.0003950572703259064,-0.0017700797619348886,-0.0016281027346849446,-0.0035202810540795326,-0.005658264271914959,-0.1821402193978429,-0.08716644457541406,-9.804256864786147
9.5,2.0,160.0,24.117000579833984,-0.03180709481239319,-79.7828324769445,40.45891212948414,268.03695261669156,0.0030193980783224106,0.009398573078215122,-0.9870592951774596,0.1600514054298401,-0.006383993694343176,0.001279307477509337,0.0006688476895117438,-0.006467374041676521,-0.0017082423437386751,-0.0031511413399130106,-0.17977814527228475,-0.09149772388860583,-9.806469451189043
9.6,2.0,158.0,24.117000579833984,-0.039758868515491486,-79.78283246962563,40.45891213060297,268.0370149035454,0.0030193980783224106,0.009398573078215122,-0.9870592951774596,0.1600514054298401,-0.006542210795498715,0.0004863157290303002,0.0005959843484396808,0.0020654338877648115,-0.0015659007476642726,-0.0016389747615903616,-0.18104373855516315,-0.09041477386839687,-9.804979580640794
9.79,1.8999999761581416,157.0,24.12075614929199,-0.02385532110929489,-79.78283240848026,40.45891205452793,268.025451371491,0.003020656295120716,0.00941496528685093,-0.9870570302009584,0.16006477177143094,-0.005817904801613049,0.004661798274982211,0.002320390078452064,-0.004912527743726969,-0.002661597914993763,-0.008982942439615726,-0.18257263926789166,-0.08643652020022273,-9.80452115893364
9.91,1.8999999761581416,157.0,24.12952041625977,-0.02385532110929489,-79.78283240055914,40.45891205241777,268.0256745536328,0.003019640455022455,0.00941241905093193,-0.9870545864105223,0.16007961332798004,-0.005563124747480996,0.003815053309824064,0.00222158410996715,0.005614290479570627,0.003791837021708489,0.003504130523651839,-0.18201589297503235,-0.0977045250311494,-9.805442680120473
10.1,2.0,158.0,24.12075614929199,0.0,-79.78283234369052,40.458912027339004,268.0112509225011,0.003011995693668723,0.009406608529388905,-0.9870523810386658,0.16009394824504852,-0.007303197366612861,-0.0006072687213500508,0.0007895891586144982,-0.0006277232896536589,-0.0011854523327201605,-0.0013630156172439456,-0.18345673827454448,-0.08472123035229744,-9.803504328131675
10.2,2.0,159.0,24.123260498046875,-0.007951773703098297,-79.78283229702826,40.45891197144947,267.998182499826,0.003015153808519244,0.009415111504495144,-0.9870525598526,0.16009275615215302,-0.00451888354996011,0.0024852895217633893,0.002605982580716707,0.005887730978429318,0.0021852534264326096,0.0076688951812684545,-0.1776175442710519,-0.10211196432821452,-9.80466383099556
10.39,2.0,161.0,24.12576484680176,-0.03180709481239319,-79.7828322828417,40.45891197083698,267.9987199474573,0.003016739618033171,0.009416108950972557,-0.9870518445968628,0.16009658575057986,-0.006134017660260257,0.001358577365095699,0.002715796572688183,0.0014937430387362838,0.0007237412501126528,0.004990282468497753,-0.17924259513616564,-0.09540532674640416,-9.806175336241722
10.5,2.0999999046325684,162.0,24.117000579833984,-0.02385532110929489,-79.782832265639,40.45891193404026,267.98478964906934,0.0030127835925668482,0.009423411451280115,-0.9870509505271912,0.16010165214538574,-0.00276419502425325,2.3889992399266416e-05,0.0038440776715314533,0.000252086843829602,0.0007021963247098029,0.002140699652954936,-0.18043557330966,-0.10109670496545732,-9.805839121341704
10.7,2.0999999046325684,165.0,24.12701797485352,-0.02385532110929489,-79.7828321938628,40.45891191854394,267.9705153126717,0.0029969590250402693,0.00938914343714714,-0.987052083015442,0.16009698808193207,-0.008362426325016123,-0.0013409374482386213,0.004389397093912159,0.005730003118515015,0.0026731863617897034,0.005814090371131897,-0.17796868784353134,-0.10515468176454308,-9.807642402648929
10.8,2.200000047683716,168.0,24.13202476501465,-0.02385532110929489,-79.7828321844716,40.4589119223392,267.97097255480287,0.00299059902317822,0.009390040300786495,-0.987050473690033,0.16010713577270508,-0.010106702721445605,-0.0018432490558375047,0.004537398351957782,-0.00589137291535735,-0.0015805508010089395,-0.003990264143794775,-0.1810008528828621,-0.09589574368670584,-9.80625193476677
10.99,2.200000047683716,163.0,24.130773544311523,-0.039758868515491486,-79.78283216288814,40.458911853383455,267.95601640832433,0.003007010091096163,0.009413163177669048,-0.9870475530624392,0.1601233184337616,-0.0027505582304622623,0.0049489685739277185,0.005100728568516047,0.003807267406955362,0.003795697120949626,0.0011181151494383812,-0.17780017839744688,-0.10217330527491868,-9.806139668226242
11.11,2.200000047683716,165.0,24.1144962310791,-0.039758868515491486,-79.78283215715814,40.4589118502611,267.9565249253512,0.003028134116902948,0.009413834661245346,-0.987048864364624,0.16011519730091095,-0.004565982348313002,0.00479479332318929,0.005227005124037602,-0.0004495480679906905,-0.0017188863130286336,-0.006415054202079773,-0.17927903059870007,-0.0905415944941342,-9.805532727241516
11.29,2.299999952316284,166.0,24.11950492858887,-0.03180709481239319,-79.78283206937529,40.45891181076807,267.94271984887126,0.0029894579201936717,0.009417076595127584,-0.9870483875274658,0.1601184904575348,-0.008801225474991856,0.0066520290479475785,0.008105785284334522,0.001777280936948955,0.0012652627192437649,0.0035377496387809515,-0.18002197416499258,-0.10351951704360546,-9.806851274371148
11.4,2.4000000953674316,168.0,24.13202476501465,-0.02385532110929489,-79.78283205945986,40.45891179288496,267.92811654698846,0.0029821242205798626,0.009421143680810928,-0.9870466589927672,0.1601293534040451,-0.004547424243348905,0.0028918343145361448,0.0104617526750338,0.0036855284124612813,0.003558180527761578,0.0032712819520384073,-0.18275174679234624,-0.08674919092096389,-9.805242705345156
11.59,2.4000000953674316,173.0,24.12826919555664,-0.039758868515491486,-79.78283205275306,40.458911791945404,267.9291599859,0.002978873439133168,0.00944241974502802,-0.9870434403419496,0.1601477712392807,-0.005555261570459139,0.002417104456297079,0.010395766469103323,0.0010133885079994798,0.0010150816524401307,0.0013234203215688467,-0.17664253933355212,-0.10408189128153028,-9.806139083504675
11.71,2.4000000953674316,171.0,24.11950492858887,-0.02385532110929489,-79.78283199058451,40.45891177236901,267.91340010058883,0.0029824492521584034,0.00946035236120224,-0.9870445728302002,0.16013960540294647,-0.009300441380327082,0.00508174187075435,0.011510407471968563,-0.0037021264433860783,-0.0007574665360152721,-0.004866222850978375,-0.18158212093636394,-0.08619558750651778,-9.804491922855377
11.9,2.299999952316284,171.0,24.118253707885746,-0.007951773703098297,-79.78283196541575,40.45891176974117,267.91568938088415,0.002974379342049361,0.00945328176021576,-0.9870464205741882,0.16012895107269287,-0.01066881522026474,0.0039608078472015504,0.011427184599205982,-0.0006345171714201572,0.0004195100627839565,0.004068599548190832,-0.17703894400969147,-0.10433936063200236,-9.806486992836
12.0,2.4000000953674316,170.0,24.130773544311523,0.02385532110929489,-79.78283194739932,40.45891174884964,267.89948739302156,0.002990974811837077,0.009465282782912254,-0.9870468974113464,0.1601245105266571,-0.008610311530759399,0.005168377099431257,0.012541280281348658,-0.0049999267794191855,-0.005724018905311823,-0.007618948817253113,-0.1814113456942141,-0.08866799128241838,-9.804858543276787
12.19,2.299999952316284,166.0,24.12701797485352,-0.02385532110929489,-79.78283194069253,40.45891176444525,267.8817561734915,0.00295853428542614,0.00943436287343502,-0.9870503544807434,0.16010604798793793,-0.004713999363833995,-0.0016240225189293545,0.010251342121058405,0.0014769656118005516,0.0041014356538653365,0.004881174769252539,-0.17754438098520042,-0.1025032070092857,-9.807236605882645
12.3,2.299999952316284,166.0,24.12200927734375,-0.03180709481239319,-79.78283193554014,40.458911767168715,267.88279812228683,0.002967288950458169,0.009434216655790806,-0.9870505332946776,0.16010461747646332,-0.006435219494757118,-0.001881821920054937,0.010391722758889131,-0.004110680893063545,-0.0010114700999110935,-0.003304234938696027,-0.17743156626820564,-0.0932141283620149,-9.805982378125194
12.5,2.299999952316284,169.0,24.117000579833984,-0.03180709481239319,-79.78283193511851,40.458911769583366,267.86183755290506,0.002977537689730525,0.009437003172934057,-0.9870504140853882,0.16010499000549314,-0.0020896987233477164,-0.00358361761850955,0.005489380773140154,0.006537224166095257,0.0030918456614017487,0.007048570085316896,-0.18044615311548115,-0.10239688818342983,-9.80674251616001
12.6,2.200000047683716,170.0,24.12576484680176,-0.04771064221858978,-79.7828319331214,40.45891177350144,267.8624062855244,0.002977537689730525,0.009437003172934057,-0.9870504140853882,0.16010499000549314,-0.0037839892056348353,-0.0040100488948026135,0.005663338994080622,-0.0033514155074954037,-0.0018808521563187237,0.00037373599479906266,-0.18280146639794112,-0.0989181329123676,-9.807276951670648
12.8,2.0999999046325684,168.0,24.11950492858887,-0.03180709481239319,-79.78283190563504,40.458911832544274,267.8424299676418,0.002977208001539111,0.00942966528236866,-0.9870505332946776,0.16010506451129913,-0.006159055018242671,-0.01130702022412973,0.002827751641693307,0.005265034269541502,0.0027940233703702693,0.006065817084163427,-0.1801380231231451,-0.10057494146749378,-9.805771878361703
12.91,2.0999999046325684,168.0,24.13327789306641,-0.04771064221858978,-79.78283189563949,40.45891186721785,267.8203353304864,0.0029844606760889287,0.009431719779968262,-0.9870504140853882,0.16010546684265134,-0.0050846511904342785,-0.012719320381755873,-0.0019228956159402669,-0.004600125830620527,-0.00014721915067639202,-0.007386473938822745,-0.18038082875311376,-0.09901324152946472,-9.806266552805901
13.09,2.0,167.0,24.12701797485352,-0.03180709481239319,-79.782831894636,40.45891187989261,267.8201679606438,0.0029844606760889287,0.009431719779968262,-0.9870504140853882,0.16010546684265134,-0.005057502171340146,-0.013468296765330243,-0.0019568801009487683,0.005510748829692602,0.0051275347359478465,0.0064082378521561605,-0.1792258026637137,-0.10156291991472244,-9.806858291029931
13.2,2.0,166.0,24.130773544311523,-0.015903547406196594,-79.78283187964692,40.45891188073914,267.79812571597097,0.0029825849924236536,0.009445307776331902,-0.9870483279228208,0.16011738777160645,-0.0022657681212532644,-0.008837440667058728,-0.005323839334729166,-0.002122026169672609,-0.001969817094504833,-0.003620222210884095,-0.18263739718124272,-0.09578233511187136,-9.805876543521881
13.4,2.0999999046325684,167.0,24.12952041625977,-0.03180709481239319,-79.78283188086684,40.45891189830953,267.79708400559434,0.0029641441069543357,0.009442761540412905,-0.987045168876648,0.16013748943805695,-0.002966321334267433,-0.010044992198843696,-0.005500599767421907,0.004400236997753382,0.002687822794541717,0.00707794027402997,-0.17925058024004106,-0.10372066126205028,-9.806085289120675
13.5,2.0999999046325684,167.0,24.118253707885746,-0.039758868515491486,-79.7828318174615,40.45891188821345,267.7767641861439,0.002951333299279213,0.00945432111620903,-0.9870409965515136,0.16016273200511932,-0.0064388728990281965,-0.002919281979966696,-0.005049680574915528,-0.007723689544945954,-0.0034897918812930584,-0.005350264720618725,-0.18269848231226207,-0.08915733014233411,-9.80549179673195
13.69,2.200000047683716,167.0,24.12200927734375,-0.02385532110929489,-79.78283179578388,40.45891190956973,267.7567282934189,0.0029293792322278023,0.00945967249572277,-0.9870395660400392,0.16017156839370728,-0.003649365844531826,-0.002275569727861732,-0.005184955593671619,0.0008899714448489248,0.004405919462442398,0.002951788017526269,-0.17964102806523444,-0.10321212708950044,-9.806457172036172
13.8,2.0999999046325684,168.0,24.12576484680176,-0.07156596332788467,-79.7828317879232,40.45891191687747,267.7557207067013,0.002954525640234351,0.009434930980205536,-0.9870395660400392,0.1601726859807968,-0.005009891440743915,-0.003372915405156649,-0.005195575563558538,0.005727109964936972,0.000557567342184484,0.0027978045400232077,-0.18380090173333885,-0.08699254472739995,-9.804852696061133
14.0,2.200000047683716,168.0,24.113245010375977,-0.07156596332788467,-79.7828317714134,40.45891193478114,267.73588797640804,0.002947040367871523,0.009428336285054684,-0.9870392084121704,0.16017550230026245,-0.002379872548883161,-0.0015749558490858366,-0.004973895342647153,-0.002470128471031785,-0.0029881135560572147,-0.00030227447859942913,-0.1789010811969638,-0.09922015987336637,-9.806951261758805
14.1,2.200000047683716,168.0,24.12075614929199,-0.04771064221858978,-79.78283176910146,40.45891193730042,267.7353959102631,0.002935970434919,0.009431584738194942,-0.9870395660400392,0.16017308831214905,-0.0033743468759850717,-0.002123868881725588,-0.004909918812939477,-0.0026143747381865983,0.0017019271617755294,-0.006719571538269521,-0.17930419189855454,-0.08587028131820262,-9.805305855274199
14.3,2.200000047683716,169.0,24.12075614929199,-0.039758868515491486,-79.78283175416436,40.458911999998065,267.7150878627301,0.002919090446084737,0.009427043609321116,-0.9870339035987854,0.16020867228507996,-0.003118892640612048,-0.006782999787988875,-0.00476296214659896,-0.0041974131017923355,-0.0039473166689276695,-0.0067421137355268,-0.17952088605612518,-0.0948469998780638,-9.807761685848236
14.4,2.200000047683716,170.0,24.12200927734375,-0.03180709481239319,-79.78283175322271,40.458912007062956,267.71461960864065,0.0029231344815343627,0.00944443978369236,-0.9870337247848512,0.16020847856998446,-0.0036872802823204993,-0.007309446417662745,-0.004871349569882083,0.0001409533288097009,-0.005018751136958599,-0.0035542594268918037,-0.18068402515724305,-0.08729461736977101,-9.804129395484924
14.6,2.200000047683716,168.0,24.113245010375977,-0.09542128443717957,-79.78283170931653,40.45891208022525,267.6939620096684,0.0029002756346017122,0.009437859989702702,-0.9870302677154541,0.16023066639900208,-0.006754689197973265,-0.009513988798781344,-0.004718461200055096,-0.005097261164337397,-0.0004647657042369247,-0.001825341023504734,-0.17926333447918294,-0.09493444316089154,-9.807145974040033
14.7,2.200000047683716,170.0,24.1144962310791,-0.06361418962478638,-79.7828316805133,40.45891211777389,267.6725206394196,0.002883738838136196,0.009438932873308659,-0.9870306253433228,0.16022889316082,-0.0037907083471199992,-0.007409563478331491,-0.007101989828006987,-0.0006385747692547739,0.0013519295025616884,-0.0006235918262973428,-0.1814972084015608,-0.08809068837203086,-9.805034544467926
14.9,2.0999999046325684,169.0,24.13202476501465,-0.03180709481239319,-79.78283167550569,40.45891213417853,267.67112615895275,0.0028778824489563704,0.009453004226088524,-0.987029492855072,0.1602349728345871,-0.006451271775655964,-0.008301289404423358,-0.0071046090397437235,-0.008023152127861977,-0.0035980769898742437,-0.009471995756030084,-0.18188708977773788,-0.0898689545597881,-9.805684170126916
15.0,2.0999999046325684,169.0,24.130773544311523,-0.03180709481239319,-79.78283163128187,40.45891218225252,267.6492219884396,0.00288912164978683,0.009460541419684887,-0.9870292544364928,0.160235658288002,-0.005621527234078889,-0.007094127352210434,-0.00928490056848473,0.0046649379655718795,5.6392509577563026e-05,0.001458945102058351,-0.17933554759249093,-0.09249144905246796,-9.805967175364495
15.2,2.0999999046325684,168.0,24.13452911376953,0.007951773703098297,-79.7828316222083,40.45891226158577,267.62620783042905,0.0028919766191393137,0.009470663964748384,-0.9870253801345824,0.16025879979133606,-0.0026458353493013552,-0.011019587822782987,-0.010993393124620644,-0.007296690251678228,-0.005269869696348906,-0.00679277814924717,-0.1821365648880601,-0.08862052833661438,-9.806081780791283
15.3,2.0,168.0,24.12075614929199,0.12722837924957275,-79.78283162391452,40.458912272069306,267.6251245458126,0.002894529839977622,0.009484067559242249,-0.9870256781578064,0.1602565199136734,-0.002617121300986563,-0.011724420277427448,-0.011150933654692623,0.005336064845323564,0.0008092642528936268,-0.0001028180486173369,-0.1808569382876158,-0.0927816719468683,-9.805131608247756
15.5,2.0,167.0,24.103227615356445,0.2862638533115387,-79.78283154703233,40.4589123352146,267.6040667016506,0.0028741417918354273,0.009495147503912449,-0.9870249032974244,0.16026099026203156,-0.008465530855854045,-0.007957904854886502,-0.008874572214989955,-0.010269112884998322,-0.0044397059828042975,-0.004531842656433582,-0.19014852941036225,-0.08581285983324051,-9.807162346243857
15.61,2.0,166.0,24.094463348388672,0.2703603208065033,-79.78283147358505,40.458912377250655,267.58392667961124,0.002899981802329421,0.009501720778644085,-0.9870235919952391,0.16026796400547028,-0.008978643795610317,-0.0010712978068600726,-0.00801146604176127,-0.0021187409292906523,-0.004535127896815538,0.009682226926088331,-0.18181767236441373,-0.09020567195490004,-9.805708728432657
15.8,1.8999999761581416,164.0,24.103227615356445,0.2624085247516632,-79.78283146384248,40.45891238162998,267.5831465740204,0.002903613494709134,0.00951036997139454,-0.9870216846466064,0.1602790355682373,-0.0105767698941834,-0.0015178387635817734,-0.007907123037488323,-0.006194979418069124,-0.003932028077542782,-0.0112951984629035,-0.17932571696117522,-0.08602854900062085,-9.804682542085649
15.9,1.8999999761581416,162.0,24.10197639465332,0.3021674156188965,-79.78283145285049,40.458912386688155,267.5823660511971,0.002915417775511741,0.009486363269388677,-0.9870212078094482,0.16028331220149994,-0.010337184310076013,-0.0031644052636611193,-0.008015544757386401,0.004533865489065647,0.007472843397408724,0.006748122628778218,-0.18161197828128936,-0.09445152710191906,-9.805743227005003
16.1,1.8999999761581416,163.0,24.105731964111328,0.3021674156188965,-79.78283139330169,40.45891245082113,267.5627232213021,0.0028945107478648424,0.009494756348431109,-0.9870152473449708,0.1603199690580368,-0.011097821263359136,-0.002956696363795132,-0.006991881621261285,-0.0066090798936784285,-0.007342552766203878,0.0009609840344637632,-0.1852337619289756,-0.09417673537507654,-9.804140505194663
16.2,2.0,165.0,24.09822082519531,0.3578298389911652,-79.78283132210171,40.458912511931636,267.54542672824863,0.0028671540785580873,0.009512623772025108,-0.987016499042511,0.16031169891357422,-0.011919697008408307,-0.002257482575062434,-0.0035260772469607408,0.002929346403107047,0.000997244380414486,-0.0006932483520358801,-0.1805978518165648,-0.10495572111569346,-9.806745439767838
16.39,2.0,165.0,24.0856990814209,0.3975887000560761,-79.78283129436097,40.45891252440345,267.5447381753922,0.002888320712372661,0.009490611962974072,-0.9870165586471558,0.1603122353553772,-0.014325706307274796,-0.0027806566574237732,-0.0036904405723205327,-0.0012540962779894473,-0.0029789675027132034,-5.134867751621641e-05,-0.1726839926093817,-0.08961275515146554,-9.805356726050377
16.51,2.0999999046325684,168.0,22.28775405883789,23.88712882995605,-79.7828312337075,40.45891259335876,267.53066563797,0.003025233279913664,0.009752266108989716,-0.9870217442512512,0.1602620929479599,-0.012028754045449178,-0.0031949948975781265,0.0036723869612231967,-0.009552992880344393,0.006223056931048632,-0.014449801295995712,-0.18233195325359705,-0.10199628995731473,-9.804504786729813
16.69,2.0999999046325684,169.0,24.06691932678223,0.3816851377487183,-79.78283120718109,40.45891265560547,267.51472491216657,0.0030289143323898315,0.009737130254507065,-0.9870086908340454,0.1603432595729828,-0.01270258396753266,-0.0038847496450852546,0.00376618499721805,-0.04053449630737305,-0.07699708640575409,0.007014455739408732,-0.20697341736406089,-0.04115973869338632,-9.792750129103661
16.8,2.0999999046325684,169.0,24.09571647644043,0.198794350028038,-79.78283119458688,40.458912669557755,267.5153802056313,0.003044807119295001,0.00975953321903944,-0.9870190620422364,0.16027750074863434,-0.00922651649487833,-0.007040154957282581,0.003037090488618161,0.0024602697230875488,0.009423847310245035,-0.005588151980191468,-0.1811385913565755,-0.16286251584067946,-9.789880315661431
17.0,2.200000047683716,172.0,23.97802352905273,1.1212000846862793,-79.78283116243726,40.45891270083453,267.4997340459824,0.003140435554087162,0.0097306277602911,-0.9870147109031676,0.16030453145503998,-0.0019156510144134067,-0.0029395566109781768,0.007003080318737403,0.00334937684237957,0.018675094470381737,-0.01668347604572773,-0.21780991595238447,-0.06923510810360313,-9.804256280064584
17.1,2.200000047683716,173.0,24.07568359375,0.3578298389911652,-79.78283105972857,40.45891278100702,267.48551404666904,0.003072952153161168,0.009825163520872593,-0.987015664577484,0.16029365360736847,-0.006091462313083689,-0.004380343489566678,0.0092851216757666,0.007455650717020035,-0.015298389829695225,0.008306088857352734,-0.1574528729170561,-0.18765845607966186,-9.813268593549733
17.3,2.299999952316284,176.0,24.094463348388672,0.2306014448404312,-79.78283105459587,40.45891278697119,267.4864261169434,0.003101780777797103,0.0097491517663002,-0.9870132803916932,0.16031242907047272,-0.007882391685188483,-0.0040989450366994105,0.008722623702920658,0.004133046604692936,-0.03238409012556076,-0.004370248876512051,-0.17002508092671634,-0.13673485396429896,-9.800674860477448
17.4,2.4000000953674316,178.0,23.984283447265625,1.900473952293396,-79.7828310481505,40.45891279394878,267.48733961772916,0.0030941013246774678,0.009717958979308605,-0.9870120882987976,0.16032235324382782,-0.009358150498723523,-0.0041495445235363035,0.009121466728452102,-0.02907957136631012,-0.018899798393249508,0.0026437779888510704,-0.186174012478441,-0.0580959156062454,-9.793978044390679
17.59,2.4000000953674316,180.0,23.74764633178711,4.500703811645508,-79.78283094841572,40.4589128850246,267.47130781602857,0.003114413470029831,0.009713830426335337,-0.987006425857544,0.16035711765289307,-0.010701929806342984,-0.008682328709405673,0.007435047772257179,-0.0065326951444149035,-0.02041245996952057,-0.0003782532294280826,-0.15962761687114835,-0.089556804606691,-9.813411265611649
17.7,2.5,178.0,23.66876602172852,5.892264366149902,-79.78283087252298,40.45891293220783,267.4568204302788,0.0031222202815115447,0.009782645851373672,-0.987008273601532,0.16034114360809326,-0.006839324931502647,-0.0075347786543685565,0.009723814060586072,0.011626622639596462,0.014213535934686659,-0.005713897757232189,-0.2067660239338875,-0.07156862680334597,-9.806684044003488
17.89,2.5999999046325684,178.0,23.52102470397949,7.729124069213867,-79.78283085988237,40.45891294645118,267.4588934798241,0.0031622019596397877,0.00986565463244915,-0.9870128035545348,0.16030725836753845,-0.012963827393910613,-0.005703978696444918,0.011450794299761723,-0.032459549605846405,-0.05631015077233315,0.056875362992286675,-0.2004969499446452,-0.0657677092216909,-9.796030417084694
18.0,2.5999999046325684,178.0,23.41209602355957,9.176346778869627,-79.78283081650325,40.458913020972375,267.44361514043806,0.003273653797805309,0.010145614854991436,-0.9869961738586426,0.16039033234119415,-0.0048892080805635965,-0.014360702326395575,0.010723497135878826,0.03919430077075958,-0.02517372369766236,-0.024566963315010067,-0.23949108095839625,-0.03968820464797318,-9.762307185530664
18.19,2.799999952316284,178.0,23.19799613952637,11.712963104248047,-79.78283074456965,40.4589130736432,267.42963284444807,0.003457307815551758,0.01031896099448204,-0.9870011806488036,0.16034448146820068,0.01013151856234095,-0.00959382497699103,0.013629866791073909,0.1336822211742401,0.004531525075435638,-0.11943089962005615,-0.2361168172582984,0.0618126342818141,-9.818671420812608
18.3,2.9000000953674316,175.0,23.08781433105469,13.796327590942385,-79.78283076695418,40.45891309250122,267.43353754472736,0.005125538911670446,0.00884015578776598,-0.9869863986968994,0.16047899425029755,0.0070537368297754486,-0.026339094270125485,0.02504187074768474,0.046386662870645516,0.03396536782383919,-0.03823106735944748,-0.15030300725251436,-0.08027998683974147,-9.818670251369475
18.5,2.9000000953674316,176.0,22.83615303039551,16.746435165405273,-79.78283060046208,40.45891315122505,267.4168190379143,0.005935580004006624,0.006863649468868971,-0.9870062470436096,0.16042599081993106,-0.008679059567749007,-0.014585237023628206,0.021321061548433426,-0.032453000545501716,0.050386421382427216,0.04609687253832817,-0.0875147741753608,-0.108582109445706,-9.828460829257963
18.6,3.0,175.0,22.727224349975586,17.875587463378906,-79.78283060125335,40.4589131635361,267.41914665889743,0.006767449900507927,0.005031940992921591,-0.9870122075080872,0.16042396426200867,-0.006647321370361778,-0.01417202306264611,0.020214910817720658,-0.0005847428692504764,0.01142326183617115,0.06971054524183272,-0.12038676076568665,-0.09533487693406642,-9.738302611112593
18.8,3.0999999046325684,174.0,22.44426155090332,21.65267944335937,-79.7828305463397,40.45891322719511,267.4062404055596,0.006470640189945698,0.0048684170469641685,-0.9870344400405884,0.1603044718503952,-0.020311577949336367,-0.006019932825854359,0.00907901979860424,-0.027675041928887367,0.05922674015164375,0.01655467785894871,-0.01982729614712298,-0.2488859119825065,-9.86449137210846
18.9,3.2000000476837163,174.0,22.31529998779297,23.71219062805176,-79.78283052125528,40.458913241563074,267.40908950757984,0.0044261524453759185,0.002327772090211511,-0.9871775507926941,0.15954826772212982,-0.04122776646392426,-0.0069432751651927645,0.04724448996848464,-0.11442122608423233,0.037885189056396484,0.11443312466144565,-0.04918131457641721,-0.2523816881328821,-10.067445888519288
19.1,3.2000000476837163,170.0,22.42422866821289,20.300878524780273,-79.78283031421883,40.45891338995303,267.41995495748523,-0.00860733911395073,-0.016076527535915375,-0.987372100353241,0.1573657989501953,-0.09723208043976682,-0.0598714784240995,0.24997579314120866,-0.2384411096572876,0.2475458383560181,0.06820442527532578,-0.10861207642592492,-0.2377713965624571,-10.8955133664608
19.2,3.299999952316284,168.0,22.493091583251953,20.937021255493164,-79.78283046602402,40.45891341073844,267.4035718460084,-0.011474551633000374,-0.021053288131952286,-0.9872993230819702,0.15705151855945587,-0.08745141893387813,-0.06349734368144334,0.2941293626177924,-0.01120731420814991,-0.106744222342968,-0.028611399233341217,0.13696758228354156,-0.11827603468671442,-10.646662884950636
19.4,3.4000000953674316,163.0,22.36788558959961,21.65267944335937,-79.78283029339009,40.45891362358678,267.4638052601814,0.003985040821135044,-0.002882940461859107,-0.9875738024711608,0.15707895159721375,-0.12700905865948262,-0.10303434891094117,0.2894747486430839,0.11935711652040484,-0.16926364600658414,-0.03447055071592331,0.04275926280766727,-0.0009496700484305619,-9.751581637859346
19.5,3.4000000953674316,163.0,22.412960052490234,21.28689956665039,-79.78282979005158,40.458914150188974,267.46726662111286,0.0060434197075665,0.0135986702516675,-0.9876619577407836,0.15589264035224915,-0.12687211642933333,-0.10443807820737276,0.19904302937033172,0.028310652822256088,-0.006120515521615744,-0.013686884194612505,-0.037921820185147226,-0.09797600029036403,-9.669179751276973
19.7,3.4000000953674316,163.0,22.41421127319336,21.42207908630371,-79.78282945287631,40.45891422989831,267.4696447272301,0.006758017465472221,0.012658855877816677,-0.9876848459243774,0.1557973325252533,-0.1265120875326495,-0.08042834263054223,0.14436994498456165,-0.05788284167647361,0.09285444021224976,0.004861418157815933,-0.2520409781858325,-0.06801402674987912,-9.466314697265622
19.8,3.299999952316284,161.0,22.366634368896484,21.8355712890625,-79.78282933631553,40.45891432667367,267.48197335195545,0.005762750748544931,0.008261969313025475,-0.9876233339309692,0.15652084350585938,-0.11231018683785172,-0.07400669967603024,0.09776513536918068,-0.03339729458093643,0.1273602545261383,-0.04787130653858185,-0.16109148558229208,-0.14329426961950958,-9.4190557461977
20.0,3.299999952316284,155.0,22.265216827392575,22.96472358703613,-79.78282917669604,40.458914649088285,267.50488054943094,9.555060387356208e-05,0.0016177643556147814,-0.9872929453849792,0.15890301764011386,-0.07966419609214473,-0.07717382466002554,0.057643736890331976,0.0613531693816185,0.08056361973285675,-0.002752615138888359,0.004404742954066024,-0.006393382139503957,-9.595663293600083
20.1,3.299999952316284,149.0,22.20261573791504,23.75194931030273,-79.78282910923879,40.45891473509445,267.5104081053734,-0.00019895340665243566,0.0007129612495191393,-0.9870299696922302,0.1605345755815506,-0.08747851258677761,-0.07377218632784559,0.05286206051377365,-0.02498856745660305,0.04224690422415733,-0.07290135324001312,-0.0037479413225082678,0.11160322872921824,-9.724540604352953
20.29,3.4000000953674316,147.0,22.081167221069336,24.93676376342773,-79.78282882790054,40.45891495463845,267.5355619807244,0.0004405896761454642,0.0026814118027687073,-0.9866994023323059,0.16253340244293213,-0.05741870848861605,-0.0832770693385476,0.0937496404465638,0.05668966844677925,0.0061822659336030475,0.015712730586528778,-0.01697754139546305,-0.2514117081463337,-9.958928582668305
20.4,3.4000000953674316,148.0,22.22139549255371,23.43387794494629,-79.7828285297672,40.45891519652866,267.5694417376518,0.0006522806943394244,0.003935736138373613,-0.9866734147071838,0.16266457736492154,-0.07012985324101219,-0.07527109889135647,0.15502421150515566,-0.014215773902833462,-0.017995638772845268,0.07065309584140778,0.002181603297649417,0.2545471313595772,-10.067661066055301
20.6,3.2000000476837163,151.0,22.14627265930176,23.680383682250977,-79.78282849014201,40.45891527793659,267.58574760150907,0.0015749684534966946,0.005806772504001856,-0.9868531823158264,0.16150760650634766,-0.06534092990627806,-0.07282002853414753,0.17221731217668526,-0.01871516741812229,-0.14788664877414706,0.11931710690259932,-0.05465189188253135,-0.037913583833724264,-10.012362778186796
20.7,3.2000000476837163,150.0,22.23516845703125,22.26496696472168,-79.7828281656495,40.458915393350686,267.597366871357,0.0008196451817639173,0.009499108418822287,-0.9870299696922302,0.16025294363498688,-0.06714354389023086,-0.0697420646179144,0.17912594725414036,0.05403463914990425,-0.030123863369226456,0.03455592691898346,-0.05599840971641243,-0.021039469633251432,-9.961565676927568
20.9,3.0,157.0,22.10245132446289,24.03821182250977,-79.78282805914189,40.45891553883109,267.63214057874677,0.0010676915990188718,0.008141894824802877,-0.9870500564575196,0.16020210087299347,-0.07190159454406446,-0.05814249031691774,0.16953050478359236,-0.040117956697940826,-0.04049878567457199,-0.0632912814617157,-0.12679259564727546,-0.024708414729684592,-9.829969410896302
21.0,3.0,157.0,22.183834075927734,22.400146484375,-79.78282803565125,40.458915673437616,267.6553869862557,0.0019049269612878559,0.007529452908784152,-0.9870365262031556,0.16030803322792053,-0.03127834453305653,-0.06528879117511294,0.19418351227579528,0.16000483930110931,0.0997806191444397,0.056125372648239136,-0.07796807086095214,-0.06823680566623808,-10.027049814462664
21.1,2.9000000953674316,156.0,23.14415740966797,8.182374954223633,-79.78282800293243,40.45891572786918,267.6754768211842,0.002759780269116164,0.007558416109532119,-0.9870667457580566,0.16010795533657074,-0.07503845723792983,-0.0467428889879932,0.20477785652184485,-0.14486710727214813,-0.06456539779901505,-0.08302509784698486,-0.12346019435673952,0.16135731462389233,-9.89937235236168
21.3,3.0,157.0,21.858301162719727,26.88494682312012,-79.78282767234309,40.45891578400096,267.69050124478343,0.0016735376557335258,0.011037379503250122,-0.9872437119483948,0.15882478654384613,-0.07056714395473858,-0.024321062109045014,-0.02264469189029868,0.031805749982595444,0.03485390543937683,0.03553872182965278,-0.13052695646882054,-0.13224170727655293,-8.924205300807953
21.4,3.0,163.0,21.86080551147461,26.94856262207031,-79.78282759917408,40.45891582536998,267.6878615934849,0.0015759799862280488,0.00604985561221838,-0.9875128269195556,0.1574149876832962,-0.06426150760490533,-0.026333595071451985,-0.02136190161488623,0.07908573001623154,0.12219361215829848,0.1265352964401245,-0.14045113409869373,-0.27010412368923425,-9.636383888125419
21.6,2.9000000953674316,164.0,21.592866897583008,32.093360900878906,-79.78282732958257,40.45891611039437,267.73810678911207,0.0034416718408465385,-0.0021472913213074207,-0.9878946542739868,0.15507358312606812,-0.0834325327665799,-0.0220094572539504,0.1889835514730968,0.04444954544305802,-0.03305351734161377,0.03700025752186775,-0.00014046108350157738,-0.12110071493312714,-10.685953835248947
21.8,2.799999952316284,171.0,21.58660697937012,30.956254959106445,-79.78282703700636,40.4589162285833,267.8066031653881,0.0005193573888391256,0.0057137240655720225,-0.98813134431839,0.1535044014453888,-0.0977703318288297,-0.01925188832863511,0.5371175307911688,-0.048346057534217834,-0.1974692940711975,0.008423738181591034,-0.09829150325618684,-0.18184201139956715,-11.580318213701249
21.9,2.9000000953674316,172.0,21.433856964111328,32.72949981689453,-79.78282662974986,40.458916460876075,267.93736048233507,0.006264707073569298,0.0122740613296628,-0.9881617426872252,0.15279582142829895,-0.10165796700571453,-0.03131961585808633,0.9144651899505852,0.14506173133850098,-0.010317395441234112,0.1308165043592453,-0.11909044219180942,-0.09831081734038888,-11.732403123378756
22.1,2.9000000953674316,173.0,21.242292404174805,34.669734954833984,-79.78282652212772,40.458916494775174,268.03956235018376,0.00987671222537756,0.012586572207510471,-0.9880627989768982,0.1532188504934311,-0.1251110134578425,-0.01879409918539137,1.1297177097194695,-0.008838137611746788,-0.10326186567544936,-0.02417105808854103,-0.054591921376995735,-0.01886576721444726,-11.944500346183775
22.2,3.0,173.0,21.20723533630371,36.212379455566406,-79.78282624592218,40.458916575430564,268.15361549896005,0.010295933112502098,0.0156541857868433,-0.9878236055374146,0.15444602072238922,-0.1211931362917851,-0.012322425074881078,1.3506104122767832,0.06182103604078293,-0.1613568812608719,0.08320768922567368,-0.06435602691024543,-0.3205987411737442,-12.221108729839324
22.39,3.0,172.0,21.07201385498047,37.46080780029297,-79.7828260505186,40.45891657563668,268.47551587414745,0.010093117132782936,0.0148341441527009,-0.9868698120117188,0.16051837801933289,-0.10534456995440901,-0.020330494686659727,1.872781129636333,0.049384646117687225,0.12396962940692904,-0.10999176651239397,-0.219536525644362,-0.08532052427530289,-12.498629279136658
22.5,3.0,172.0,20.933034896850586,39.03525924682617,-79.78282575098963,40.45891664527811,268.6554972548485,0.009468157775700092,0.00993247888982296,-0.986414909362793,0.16369906067848206,-0.10632567247556056,-0.006198234892132447,2.111967414582963,-0.0383346825838089,0.1237514466047287,0.03927535191178322,-0.11679955791682005,-0.3126885547488928,-12.435029114484784
22.6,3.0999999046325684,175.0,20.906742095947266,38.86827087402344,-79.78282567087352,40.45891661626523,268.8798058052064,0.0065749590285122395,0.0055169817060232145,-0.986046016216278,0.166252002120018,-0.10533791187319168,0.016415351054524303,2.3704187910476557,-0.1035090833902359,0.06286647170782089,0.026665199548006058,-0.04757432612590492,-0.14844922062009575,-12.436148271560668
22.8,3.0,175.0,21.189706802368164,35.2025032043457,-79.78282533379804,40.45891663128616,269.3685621042252,-0.0004688858170993626,-0.002197563648223877,-0.9853981137275696,0.17025160789489746,-0.07500709875503782,0.04264672732104584,2.828410584796244,-0.044638726860284805,0.009974481537938118,0.02431932091712952,-0.05067119426093996,-0.17500422259792686,-12.180945374965667
22.9,3.0999999046325684,173.0,21.362489700317386,32.39552688598633,-79.78282524780573,40.45891660563828,269.66106498432157,0.001960400491952896,0.0020213318057358265,-0.98544842004776,0.1699514240026474,-0.04818077331593322,0.06724356866488279,3.0146676204373475,0.1625128835439682,-0.08802706748247148,-0.022617252543568608,0.04263004390988498,0.12732645557262004,-11.737069201469419
23.1,3.0999999046325684,173.0,20.87919807434082,29.23072052001953,-79.78282489048199,40.458916643135865,270.22043776702884,0.01362325344234705,0.011972097679972649,-0.9859073758125304,0.16630646586418152,-0.12919343006616424,-0.00211423346581174,3.1578876545286607,-0.052020985633134835,0.04920995235443115,0.018317844718694687,-0.221623616181314,-0.2645960099995137,-10.627287551164628
23.2,3.2000000476837163,174.0,20.801570892333984,30.582523345947266,-79.78282464106285,40.45891665319598,270.45345545005796,0.01066866423934698,0.005534952040761709,-0.9863970875740052,0.16394054889678955,-0.1493499734219991,-0.012342712367774726,3.118816343586659,-0.17793713510036469,0.1599295437335968,-0.03902936354279518,-0.16575509687885642,-0.15119237788952888,-10.209092348814009
23.4,3.0999999046325684,175.0,21.55906105041504,28.745662689208984,-79.78282450653481,40.458916602807896,271.0842618961334,0.0002185479097533971,-0.011460047215223312,-0.9869819283485411,0.1604224145412445,-0.06868636089660321,0.06487202843513959,3.1997592981463314,-0.05713097006082535,0.10598258674144743,0.02302948385477066,0.04377312432043255,-0.07420699557289481,-10.24383065700531
23.6,3.0999999046325684,179.0,21.67424964904785,27.05988693237305,-79.78282418084065,40.45891666167585,271.65475487899784,-0.00011973803339060396,-0.010395416989922523,-0.9872429370880128,0.15888184309005735,-0.039719674583176136,0.0732227323946461,3.179992112886284,0.12461216002702713,-0.08484485745429993,0.10876266658306122,-0.01630203267093748,-0.2016355124674737,-9.912126299142836
23.7,3.2000000476837163,178.0,21.659225463867188,27.266632080078125,-79.78282398511946,40.45891669989861,271.90498995971683,0.004940424114465714,-0.005528009962290525,-0.9873223304748536,0.15855532884597778,-0.06296984034255743,0.037825044446993895,3.112438715942848,0.14647002518177032,-0.05269786715507506,0.09227488934993744,-0.010041957912035286,-0.1732060210593045,-9.73533397972584
23.8,3.2000000476837163,180.0,21.513986587524414,29.413612365722656,-79.78282390994346,40.458916732474016,272.213840248108,0.008802298456430435,-0.002305078320205212,-0.9873297214508056,0.15842106938362122,-0.0994631872940031,-0.0010105949189738242,3.079409872629714,0.08306603878736496,-0.08017909526824951,-0.012864943593740463,-0.02683195900171996,-0.3714165269583464,-9.531095414757733
24.0,3.2000000476837163,179.0,21.562816619873047,28.1015682220459,-79.78282375160016,40.45891691928935,272.76131844711307,0.009381563402712343,-0.0027357020881026983,-0.9872721433639526,0.1587393879890442,-0.13439813221320987,-0.05133997879149322,2.9900580596756035,-0.0525444969534874,0.053625572472810745,-0.0299009270966053,-0.0962683849129826,-0.05145420039072633,-9.528360087275503
24.2,3.2000000476837163,183.0,21.589111328125,28.06976127624512,-79.78282330184572,40.458917094834156,273.3116219062805,0.008841623552143574,-0.00626970874145627,-0.9871571063995358,0.15938498079776764,-0.11103600919463534,-0.05231596145558536,2.9112011177924373,0.09431841969490053,0.0643649697303772,0.1182340756058693,0.01009559469530359,-0.21790601128712292,-9.648917979598046
24.3,3.2000000476837163,182.0,21.490198135375977,28.9444580078125,-79.78282325497264,40.45891719908535,273.60201955032346,0.009660097770392895,-0.005930178798735142,-0.987114191055298,0.15961533784866333,-0.1155879784514948,-0.06203964254470815,2.895643633910407,0.019732711836695668,0.012044635601341723,0.04009118303656578,-0.018980574781307952,-0.16199568439275028,-9.666199425458908
24.4,3.2000000476837163,184.0,21.49896240234375,30.05770492553711,-79.78282321895523,40.45891731660762,273.89110112380985,0.010289328172802923,-0.005411821883171797,-0.9870583415031432,0.15993955731391907,-0.11388054442678115,-0.08139463669919826,2.8843245207536787,0.057105999439954765,-0.0437593087553978,0.00696852058172226,0.018527786729391663,-0.22855958338826896,-9.707739799618722
24.6,3.2000000476837163,186.0,21.455141067504886,29.23867225646973,-79.78282299702246,40.45891728237253,274.65086007308963,0.00933098141103983,-0.001098431064747274,-0.986847996711731,0.1613779217004776,-0.07181414787361044,-0.10820609425832382,2.7626222380808283,-0.014669814147055147,-0.031293418258428574,0.0416693277657032,-0.10537696732208134,0.03395279187010601,-9.67146776676178
24.79,3.0999999046325684,189.0,21.607891082763672,26.455551147460927,-79.78282301569944,40.45891739515028,274.927038433075,0.009142163209617138,0.00013678768300451338,-0.9867907762527466,0.1617419272661209,-0.07492085828790672,-0.1200359956656253,2.76205923814748,-0.06998363882303238,-0.03904014080762863,-0.006362119689583778,0.009098701528273523,-0.1612402606755495,-9.818443379402161
24.9,3.2000000476837163,189.0,21.62166404724121,26.86904335021973,-79.78282304358773,40.45891751506385,275.20245909881595,0.008576198481023313,0.0017083102138713002,-0.986732304096222,0.16211998462677002,-0.08096700846657415,-0.12432382686231652,2.7393541276376823,-0.1081683710217476,-0.046834345906972885,-0.13150112330913544,-0.015836512078531092,0.10169239919632674,-9.602305145859717
25.09,3.299999952316284,192.0,21.348716735839844,30.733606338500977,-79.78282331297828,40.458917674442795,275.8446934242249,0.006953267380595207,0.004759816452860832,-0.9867200255393982,0.16221192479133606,-0.04687309442533773,-0.14132285419546195,2.6798881728991533,-0.05250914022326469,-0.0309712216258049,-0.1486613303422928,-0.1046022112481296,0.11853469175286592,-9.489511771202087
25.2,3.299999952316284,193.0,21.46640968322754,28.87289047241211,-79.782823394594,40.45891779666713,276.2939479370117,0.006780419498682022,0.005353564396500588,-0.9867265224456788,0.16216130554676056,-0.01832374771150521,-0.14731624807079394,2.723820054551645,0.08243989944458008,0.00761565426364541,0.05172007158398628,0.004543348231818527,-0.17679330613464114,-9.70491559445858
25.3,3.2000000476837163,193.0,21.40005111694336,29.30228614807129,-79.78282345863181,40.458917893990815,276.56628012847904,0.006425016093999146,0.005903795827180147,-0.9867561459541321,0.1619761437177658,-0.01288655388250528,-0.14059101050119285,2.722171478983128,0.09544306248426436,0.03485918417572975,0.08089987933635713,0.01402108637848869,-0.24613161759451035,-9.773785269856454
25.5,3.299999952316284,193.0,21.443872451782227,28.729759216308594,-79.78282373634963,40.45891805204555,277.55750441741947,0.01065977755934,0.006019797641783953,-0.9869740605354308,0.16041359305381775,0.00375112410641657,-0.12115944449161176,2.7752738556263665,0.12076248973608016,0.029169730842113495,-0.014791593886911869,-0.05561724891420454,-0.10165721540339293,-9.801774137020107
25.7,3.299999952316284,195.0,21.602882385253906,27.27458381652832,-79.78282367142498,40.45891807664941,277.9745852966309,0.010454784147441387,0.006441972218453884,-0.987071692943573,0.1598084568977356,0.004236723852226972,-0.11218326878569797,2.814875900237304,0.014408702962100506,0.014255812391638756,0.14068548381328586,-0.055530193923041225,-0.3921789299324155,-9.757970890402794
25.8,3.299999952316284,194.0,21.546541213989254,27.38591003417969,-79.7828237814912,40.458918135323046,278.25450015258787,0.008759113028645515,0.005774368066340685,-0.9871443510055542,0.1594870537519455,0.0035021655367224644,-0.11089062293020337,2.7837648302397646,-0.03257511928677559,0.04932083562016487,0.14256273210048676,-0.005807961649261415,-0.2336080145649612,-9.582453848719595
26.0,3.299999952316284,195.0,21.44011688232422,28.45939826965332,-79.78282360531135,40.458918178261854,278.95559001159666,0.0060472097247838965,0.0026926754508167505,-0.9872335195541382,0.15914230048656464,0.011592571315824677,-0.08609095454564893,2.788149217756582,-0.12463951110839845,-0.003541499376296997,-0.1005491092801094,-0.03762969922972843,-0.015504294298589232,-9.63754397571087
26.1,3.299999952316284,194.0,21.59161376953125,26.32832336425781,-79.7828237003027,40.45891821982975,279.2339551467896,0.004937860649079084,0.0021644900552928448,-0.98721581697464,0.1592980921268463,0.019069335452984733,-0.07577978577018953,2.7778806395693296,-0.07965455204248427,-0.041261769831180566,-0.039030760526657104,0.02553649238543585,-0.09886312340386212,-9.68514674305916
26.2,3.299999952316284,194.0,21.50522232055664,28.39578437805176,-79.78282360837521,40.458918287916156,279.6541078109741,0.002649758942425251,0.00348515878431499,-0.9871742129325868,0.1595870405435562,0.017327994420381233,-0.07664662065580387,2.8069592045523937,-0.0764632374048233,-0.07969522476196289,-0.17814740538597107,0.019767814432270825,0.04446705177426338,-9.52215736091137
26.4,3.299999952316284,194.0,21.433856964111328,28.610483169555664,-79.78282375145116,40.45891837852807,280.2113034744263,-0.00011163602903252469,0.005803284700959921,-0.9869497418403624,0.16092443466186526,0.030663512108135307,-0.08912734087924196,2.7815048844043715,0.05455494672060013,0.0232385341078043,0.0688021332025528,-0.08058232443407179,-0.16673675302416088,-9.770237764120102
26.5,3.299999952316284,191.0,21.40255546569824,28.7218074798584,-79.78282371952362,40.45891838392205,280.6292741317749,0.0010421093320474026,0.006866693496704102,-0.9868597388267516,0.16142980754375458,0.032812709204486964,-0.08516945582891322,2.848467524382153,0.1178014799952507,0.03521568328142166,0.1329587697982788,-0.010914581757970157,-0.22136354299262168,-9.925109456777573
26.7,3.2000000476837163,190.0,21.557809829711914,26.39193725585937,-79.78282362499743,40.458918389636494,281.3017900009156,0.005185991525650024,0.00857202522456646,-0.986744225025177,0.1619737446308136,-0.00885510101321825,-0.06965864962358399,2.8920511878883657,0.08935561776161194,-0.0035655039828270674,0.07158451527357101,-0.019841423111502082,-0.2411682451330125,-9.856975361108779
26.9,3.2000000476837163,189.0,21.436359405517575,28.26060485839844,-79.7828236649557,40.45891840949747,281.87772536468515,0.0073379920795559874,0.00998104177415371,-0.9867044687271118,0.1620522290468216,-0.04150201678437168,-0.05230722280143599,2.8635823047260964,-0.06533937156200409,0.008219867013394833,-0.055761292576789856,-0.1471486171334982,0.002278988845646381,-9.628990083932877
27.0,3.2000000476837163,188.0,21.334943771362305,29.532888412475586,-79.78282354226438,40.458918456554365,282.54464125823984,0.007598860654979943,0.007913614623248577,-0.9866687059402466,0.16237160563468933,-0.047114537691654135,-0.03750814450847007,2.8880378029430465,-0.10212542861700058,-0.0012076644925400615,-0.05531870946288109,-0.036391649530269216,-0.2340610458701849,-9.720242316126825
27.19,3.0999999046325684,189.0,21.475173950195312,27.64831733703613,-79.78282329130909,40.45891867645074,282.9054286499024,0.007976513355970383,0.007631843443959951,-0.9867016673088074,0.16216647624969482,-0.06257436907817368,-0.05361319619292517,2.8958517904017813,-0.0041943243704736215,0.010080842301249504,0.05555235967040062,-0.0017881753339315765,-0.09283165650442243,-9.764708636999133
27.3,3.2000000476837163,191.0,21.55906105041504,26.40784072875977,-79.78282328899152,40.45891868657366,283.1944453735352,0.00925392098724842,0.007294371724128723,-0.9867896437644958,0.16157789528369906,-0.06189619807574333,-0.043789332505532616,2.880068645053324,-0.04374450817704202,-0.019651440903544426,0.01243566907942295,-0.050817717262543735,-0.26534456323832273,-9.65884070456028
27.5,3.2000000476837163,192.0,21.236032485961914,30.821075439453125,-79.78282328824804,40.45891858056401,283.8550937194824,0.0075890980660915375,0.006759398616850376,-0.9869254231452942,0.16085734963417053,-0.04028227092385974,-0.00047137306982210185,2.8662314600760603,0.09175556898117064,-0.011102219112217426,0.05299318209290505,0.03751717915758492,-0.364983749203384,-9.60032703280449
27.6,3.299999952316284,193.0,21.256065368652344,30.24854850769043,-79.78282328268527,40.45891855057583,284.1417644042968,0.006936137564480305,0.006636044941842556,-0.9868983030319214,0.16105800867080688,-0.04384860760932715,0.009565419656616194,2.869320952675664,-0.006849805358797312,0.04456527531147003,0.0016430077375844119,-0.11306792884133755,-0.11190302643924953,-9.733906674385072
27.7,3.299999952316284,192.0,21.457645416259766,27.393861770629893,-79.7828230996454,40.45891850417594,284.5027415771485,0.007762054912745954,0.0043442328460514545,-0.9868747591972352,0.16124266386032104,-0.038674410384810703,0.012831278726638614,2.90973197114778,0.05160753428936005,0.1120230183005333,0.11244650930166243,-0.008437680650968105,-0.18742098603397608,-9.858749406337738
27.9,3.4000000953674316,193.0,21.39754676818848,28.03000259399414,-79.78282307231086,40.45891841379484,285.08372378540037,0.009559375233948227,0.0010463164653629065,-0.9867486357688904,0.16197139024734494,-0.04501472823748186,0.05554859083685434,2.89567931085646,0.0598670244216919,-0.0251760333776474,0.05708737298846245,-0.00632600439945236,-0.30316652851179243,-9.731541475653648
28.0,3.4000000953674316,194.0,21.348716735839844,28.642290115356445,-79.78282289657933,40.458918395998815,285.4377563018798,0.009790954180061815,0.00199251901358366,-0.9867409467697144,0.16199560463428495,-0.04934242673100546,0.05914861754929598,2.9084805845554604,0.04903058707714082,0.0034000701270997524,0.13605737686157227,0.009922711257822812,-0.1882156409136951,-9.69500105559826
28.21,3.4000000953674316,194.0,21.35622978210449,28.03000259399414,-79.78282267113292,40.45891828564939,286.0756728668213,0.006671290844678879,0.0029440377838909626,-0.9867095351219176,0.16233044862747192,-0.05321156134281746,0.044905501959472884,2.924451025163684,-0.03476876020431518,0.016622452065348625,0.06761813163757324,-0.04258585175033658,-0.29070280462503434,-9.793131952285767
28.4,3.5,197.0,21.24104118347168,30.32011413574219,-79.78282261691076,40.45891819699347,286.6619727630616,0.006995543837547302,0.0029723742045462127,-0.9865716695785522,0.1631522923707962,-0.041453002227036,0.044779297678157866,2.9474473662352114,0.10109112411737442,0.002813973231241107,-0.07868722081184387,-0.01518486844492145,-0.19551614547148347,-9.95694754600525
28.5,3.5,195.0,21.168420791625977,30.701799392700195,-79.78282245475164,40.45891808982976,287.0040366668701,0.008786619640886784,0.0036992831155657773,-0.986503005027771,0.16346535086631775,-0.056168728098951085,0.05243957578432497,2.9876477050830355,0.07243801653385162,-0.010443919338285923,0.010810099542140959,-0.020271513231564314,-0.1835421624407172,-10.083938544988634
28.6,3.5999999046325684,195.0,21.42634391784668,27.37795829772949,-79.78282241352285,40.458918040247376,287.3045527954102,0.01038915291428566,0.003834337927401066,-0.9864726066589355,0.16355183720588684,-0.07714634570436314,0.049998401425047065,3.0158909851846265,-0.0095756808295846,0.04430139437317848,-0.008665721863508223,0.011523788538761438,-0.16097647815942764,-10.065464851856232
28.8,3.5999999046325684,195.0,21.25356101989746,30.025897979736328,-79.78282221196059,40.458917946295685,287.9343345184326,0.009323467500507832,0.0044576069340109825,-0.9866161346435548,0.16273264586925507,-0.08442612417169339,0.05095270442757815,2.9832807648679447,-0.030413256958127025,-0.057495463639497764,-0.051412571221590035,-0.014547319798730312,-0.2346424418315292,-9.639702767729759
29.0,3.5999999046325684,195.0,21.251056671142575,30.08951187133789,-79.78282203026717,40.458917879627954,288.5597941894532,0.008617372252047062,0.004469785839319229,-0.9867532849311828,0.1619374305009842,-0.07811007993956583,0.0479573181112502,2.9565997626970004,-0.017488405108451843,-0.007905079051852226,0.027730576694011688,-0.0754933510394767,-0.2615902487933636,-9.646979627609252
29.1,3.5999999046325684,196.0,21.162160873413086,30.15312576293945,-79.7828219801236,40.45891783086361,288.8550174255372,0.008067299611866474,0.004889034200459719,-0.9867477416992188,0.16198761761188507,-0.0813619281659362,0.045153541238403504,2.952697475630381,-0.0025369194336235523,0.0006647745030932128,-0.06582154333591461,-0.0254966376721859,-0.017002533674240112,-9.768265498280526
29.3,3.5,195.0,21.147136688232425,31.194808959960927,-79.78282177094525,40.45891774021037,289.4806582946777,0.008216778747737408,0.004052899312227964,-0.9866021871566772,0.16288717091083527,-0.08788343110098744,0.05133773796379379,2.977713356317397,-0.07024717330932617,-0.01148549746721983,-0.13336683809757233,-0.0431073365919292,-0.13884372537955642,-9.822506024837494
29.4,3.5,195.0,21.122095108032227,31.67191505432129,-79.78282171273301,40.45891769191622,289.7788798828125,0.008442064747214317,0.004174202214926481,-0.9865421652793884,0.1632358431816101,-0.08711434243683164,0.05094139591632356,2.9903644326744288,-0.060844969004392624,-0.02584392949938774,0.011062772013247013,-0.10015830907970667,-0.20543227404356004,-9.896307241916658
29.6,3.5,192.0,21.100811004638672,31.84685516357422,-79.7828215461074,40.45891765161026,290.40524745178226,0.008093199692666529,0.0008978096884675324,-0.9864170551300048,0.16405832767486572,-0.0905934970592576,0.04199790172535954,3.0261077802422496,0.0068498896434903145,0.06557177007198334,-0.07821495085954666,-0.05698811948765069,-0.09426345689222217,-9.966739293336866
29.7,3.5,193.0,21.16716957092285,30.391679763793945,-79.78282147305363,40.4589176017815,290.72219157409666,0.006762547418475151,0.00021093961549922824,-0.9864238500595092,0.16408024728298187,-0.07614295683398516,0.05413534410950701,3.039992200254852,0.007343727629631758,0.005920029245316982,0.0513809472322464,0.026143312314525248,-0.1656905034184456,-10.084398136138915
29.89,3.5,192.0,21.26107215881348,29.016023635864247,-79.78282136559595,40.45891753602145,291.3362033386232,0.006263281684368849,0.003244239836931229,-0.9864762425422668,0.16375267505645752,-0.07049450133556759,0.037096323454656896,3.101444588300492,0.0654541626572609,0.023420266807079315,0.1346908062696457,-0.08805256269872189,-0.3072454182431102,-10.152081996202467
30.0,3.5,192.0,21.37375831604004,27.76759529113769,-79.78282133148292,40.458917516710656,291.6555984039307,0.005523509811609984,0.0037035048007965092,-0.9864988327026368,0.16363340616226196,-0.07496096433233862,0.02623956890588391,3.084610398458333,0.014260487630963326,0.06296319514513016,-0.022941887378692627,-0.10985788967460394,-0.18489966664463284,-9.86062636256218
30.1,3.5999999046325684,192.0,21.08077812194824,31.17095375061035,-79.78282127063268,40.45891749266181,291.96279978942874,0.005632056389003992,0.004143228754401207,-0.9864780902862548,0.16374410688877106,-0.09065607458309556,0.02282551192945857,3.0601713496740617,-0.03290998563170433,-0.007751408964395523,-0.10952073335647584,-0.14968267248943448,-0.03737957772798836,-9.666173697710038
30.3,3.5999999046325684,193.0,21.17968940734864,30.224693298339844,-79.78282093834414,40.45891749261404,292.5845534820557,0.008632196113467216,0.004398014396429062,-0.9863970279693604,0.16409464180469513,-0.11029886098701697,0.0206318819654923,3.046305542373668,0.01605481095612049,-0.01553592085838318,-0.004952908959239721,-0.05408024889416993,-0.29433158665895465,-9.793480446338656
30.39,3.5999999046325684,194.0,21.029443740844727,32.037696838378906,-79.78282084463174,40.45891747975468,292.8892409820557,0.01095966249704361,0.004641488660126925,-0.986370086669922,0.16411107778549194,-0.1286912850152851,0.024188625718331032,3.0456878517187804,0.0014378351625055075,-0.007388223893940449,-0.0667930319905281,-0.06038479446899146,-0.24496387381106616,-9.826362848281859
30.6,3.5999999046325684,194.0,21.244796752929688,28.98421669006348,-79.7828206579349,40.45891743643584,293.5181758422852,0.015864301472902298,0.005968982819467783,-0.9863155484199524,0.16399481892585754,-0.1453721335842818,0.022281016997789702,3.051373064381384,0.03962409496307373,0.015421229414641855,0.08726250380277634,-0.08926849119365217,-0.3086945044621825,-9.834871716499329
30.8,3.700000047683716,197.0,21.26107215881348,28.13337707519531,-79.78282041805595,40.45891750642671,294.14362025451663,0.013836612924933434,0.002219845075160265,-0.9862618446350098,0.1645941287279129,-0.15168571386524016,0.017207676053368884,3.049094302803225,-0.07518811523914337,0.003667100099846721,0.03211337327957153,-0.002624125317670405,-0.3526245991140604,-9.908344320058823
30.9,3.700000047683716,197.0,21.185949325561523,29.278430938720703,-79.78282035371456,40.45891749647394,294.4486453552246,0.012318480759859085,0.00025867228396236897,-0.9862060546875,0.16506341099739075,-0.13939023916019355,0.02906126078571407,3.042084541193458,-0.0921466276049614,6.510125786007848e-06,-0.13229990005493164,-0.05363884349819273,0.010293876975774763,-9.702705931663512
31.0,3.700000047683716,197.0,21.165916442871094,30.08951187133789,-79.78282039301371,40.45891758324849,294.7687423248292,0.011844518594443798,-0.0008154723327606916,-0.9861449599266052,0.16546066105365753,-0.09351917639865084,0.016675705049382487,3.024378860325834,0.02744909189641476,0.010891450569033623,0.0011417972855269909,-0.06730242060497403,-0.2354502712190152,-9.672806779146192
31.2,3.700000047683716,197.0,21.199722290039066,28.96831321716309,-79.78282052889234,40.45891759265751,295.39724040222166,0.011684987694025041,-5.7738856412470334e-05,-0.9862020611763,0.16513322293758392,-0.05507760148500857,0.004474721759187812,3.0306632762305643,0.003301170188933611,-0.0003988802200183272,0.04670217633247376,-0.03558166855014861,-0.22425119044259192,-9.793407356142998
31.4,3.700000047683716,197.0,21.12459945678711,29.97023582458496,-79.78282057514842,40.458917617295725,296.0012214202881,0.01045595295727253,0.0025190412998199463,-0.9863629937171936,0.16423289477825165,-0.0475776723933321,-0.02303723102196606,3.0009065988321875,0.06979063898324966,0.007533246651291847,-0.03512332960963248,-0.018897347889142112,-0.2673768361285329,-9.665474370718004
31.5,3.700000047683716,197.0,21.15464973449707,29.84300804138184,-79.78282046029804,40.45891771848573,296.3323009033204,0.008742050267755984,0.0025266362354159355,-0.9864587187767028,0.16375736892223358,-0.06806694923601196,-0.034941220007323845,3.016860315222893,-0.00849189702421427,0.0018001174321398141,0.0027980082668364052,-0.1067422739043832,-0.2088476692512632,-9.748387888669967
31.6,3.700000047683716,197.0,21.17092514038086,29.75553894042969,-79.78282046844967,40.45891774855605,296.6342647094727,0.007622599601745605,0.001785860862582922,-0.9865285754203796,0.16340182721614838,-0.06245258676983846,-0.04331413255732265,3.0229844835259283,0.004689001012593508,0.05331799387931824,0.08808445185422897,-0.0761313919024542,-0.115823127720505,-9.86617303133011
31.8,3.700000047683716,197.0,21.17718505859375,28.97626495361328,-79.78282037576041,40.45891789166338,297.5756194610596,0.00844735000282526,0.0021801115944981575,-0.9865009188652042,0.16352342069149015,-0.08738019688769523,-0.04605353998936474,3.0626302831336063,-0.046167869120836265,0.01089912001043558,0.031162595376372337,-0.020492672743275764,-0.2665707426331937,-9.929921715259553
32.0,3.799999952316284,195.0,21.22726821899414,28.363977432250977,-79.78282037359602,40.458917927136284,297.89647746276864,0.007762357126921415,0.0015748118748888373,-0.9864539504051208,0.1638474315404892,-0.0913245766290827,-0.04039024359062079,3.037309752760964,-0.06096938997507095,0.03031471371650696,0.02667464129626751,-0.08924207822419704,-0.20691496348008515,-9.58582652270794
32.1,3.700000047683716,195.0,21.165916442871094,28.880842208862305,-79.78282034890229,40.458917969530795,298.19847941589364,0.00918797217309475,0.0016640304820612073,-0.9863463044166564,0.1644197255373001,-0.09114461959198256,-0.04043115773860313,3.002429035947033,-0.0236342865973711,-0.03692074492573738,-0.045933958142995834,0.014201598605141044,-0.17206972433254122,-9.520283328294754
32.3,3.700000047683716,195.0,21.125850677490234,29.827104568481445,-79.78282036682738,40.45891806277448,298.8229568023682,0.013267898932099342,0.006280989851802588,-0.9861817955970764,0.1650153398513794,-0.10073366682839284,-0.04718027836138792,2.965697765260314,-0.013753805309534071,-0.07826351374387741,-0.0226393211632967,-0.09240577820688486,-0.19699083153158428,-9.583472433686257
32.4,3.700000047683716,195.0,21.25356101989746,29.413612365722656,-79.7828203476402,40.458918095968244,299.1187541503906,0.014042170718312263,0.008493953384459019,-0.9860695600509644,0.16552217304706573,-0.11952480001466607,-0.05365432352471832,2.9480214422833955,-0.04261332377791405,-0.08341634273529053,0.02659651450812817,-0.015184287149459125,-0.2724999472126365,-9.662578244805337
32.5,3.700000047683716,197.0,21.13211250305176,29.59650230407715,-79.78282045054989,40.45891816384532,299.4502704162598,0.012208427302539349,0.008288642391562462,-0.9859752058982848,0.16623859107494354,-0.11246462982657553,-0.05825991705809633,2.958969704710584,-0.10273340344429016,0.05522526800632477,-0.1416320502758026,-0.12504736622795462,-0.14501143240369854,-9.604800737500193
32.7,3.700000047683716,198.0,21.09705352783203,30.28035545349121,-79.78282045028004,40.458918331318735,300.3697955627442,0.00979915913194418,0.0020312669221311808,-0.9857964515686036,0.1676461696624756,-0.0754454216087327,-0.026787823060464795,2.9503540034962104,0.01675344631075859,0.031158361583948125,-0.008877305313944817,-0.027642803359776737,-0.1567851208895445,-9.606009941697119
32.89,3.700000047683716,199.0,21.139623641967773,29.365901947021484,-79.78282043367889,40.45891834590059,300.66589999389646,0.01111077331006527,0.002212201710790396,-0.9858552813529968,0.1672155261039734,-0.07338089975361976,-0.01242350830678728,2.9739390418218647,0.04561549425125122,0.003894812427461147,0.026299798861145973,-0.05077322360593826,-0.16149083213880658,-9.934197199344636
33.0,3.700000047683716,199.0,21.00189781188965,31.711673736572266,-79.78282035039491,40.458918447503365,300.9866092224121,0.012202999554574491,0.0021354982163757086,-0.9859493374824524,0.16658496856689453,-0.09514024722608884,-0.01809409720977033,3.0018982341957905,0.015719665214419358,0.03450847044587135,-0.07537630200386047,-0.007241394004086033,-0.14505759799852969,-9.948644499778748
33.2,3.799999952316284,199.0,21.05072784423828,30.78131675720215,-79.78282035295,40.458918554761006,301.60377001953134,0.010875987820327282,0.002606519963592291,-0.9863103628158568,0.16452009975910187,-0.09113361543902868,-0.023594846852839392,3.052363593995637,0.04284956678748132,-0.011404512450098991,0.0336935818195343,-0.049871496157720685,-0.2594566546194256,-10.03460675597191
33.31,3.799999952316284,198.0,21.093297958374023,29.668067932128906,-79.78282033325685,40.45891858501597,301.90975451660165,0.013090095482766628,0.0034858419094234705,-0.9863046407699584,0.16437694430351255,-0.08886753958925905,-0.030731777748378424,3.058910518080612,0.1173601895570755,0.0049547026865184324,0.13275927305221558,-0.0019976829551160338,-0.4118902228027582,-9.932797375917437
33.39,3.799999952316284,199.0,21.02568817138672,31.22661590576172,-79.78282030936707,40.45891861775725,302.2157275695801,0.014361566863954069,0.0048605208285152895,-0.9862387776374816,0.16463062167167666,-0.11507730063500493,-0.032078235344837516,3.0542556054759773,0.007906978949904442,-0.035152275115251534,-0.08119868487119675,-0.005517046682070941,-0.2705286315456033,-9.761858119368554
33.6,3.799999952316284,199.0,21.147136688232425,28.69795227050781,-79.78282025072338,40.45891872523818,302.83342242431644,0.012765919789671898,0.006454666145145893,-0.9860473871231079,0.16584929823875427,-0.12626089954891498,-0.0362494225508878,3.0617486249075707,-0.025255462154746056,-0.0040775048546493045,-0.12987752258777618,-0.05131899266503751,-0.14642164377495648,-9.863144173622132
33.8,3.799999952316284,201.0,21.013166427612305,30.91649627685547,-79.78282025564243,40.45891885788711,303.4491260070801,0.013846744783222677,0.005981889087706804,-0.9857044219970704,0.1678076982498169,-0.1126059502032248,-0.032670245745450105,3.0487320184720117,0.06586994975805283,0.03828303888440132,0.03767598047852516,-0.011112096591386943,-0.3645620553195477,-9.813991309404374
33.9,3.799999952316284,201.0,21.02568817138672,30.43939018249512,-79.7828202234071,40.4589188735656,303.7545878906251,0.015733808279037476,0.006052297074347735,-0.9856805801391602,0.16777895390987396,-0.12091699916358767,-0.026438044168231662,3.058098435795192,0.005387309473007917,0.04386304318904877,-0.04248948395252228,0.017979761010501534,-0.10148739947006108,-9.870055582523346
34.0,3.799999952316284,200.0,21.142127990722656,29.37385368347168,-79.78282023484743,40.45891896260153,304.0662639160157,0.016652585938572884,0.005160227883607149,-0.9858747720718384,0.1665743738412857,-0.12710538332944546,-0.02569372818876904,3.063591992733312,-0.0328703373670578,-0.0547284334897995,0.033061567693948746,-0.05451808200683445,-0.3086165537685156,-9.899621443748474
34.2,3.799999952316284,199.0,20.980613708496094,31.17890548706055,-79.78282023386643,40.45891903539113,304.68332553100583,0.016141345724463463,0.0048094121739268286,-0.9862791895866394,0.16422459483146667,-0.10844186477029084,-0.015814108772831532,3.064778088408917,-0.03379620239138603,-0.019494591280817986,-0.027045540511608124,-0.00036411765322554864,-0.1593453973531723,-9.915155156850815
34.3,3.799999952316284,199.0,20.923019409179688,31.974082946777344,-79.7828202391734,40.4589190413761,304.99067950439456,0.013161145150661469,0.005603332072496414,-0.98628169298172,0.164450541138649,-0.0918119113867941,-0.022527723288079244,3.076183970758678,-0.0016894983127713206,-0.06919155269861221,-0.01546156033873558,0.016805633255280554,-0.3662135282903909,-9.952077984809877
34.5,3.9000000953674316,197.0,21.043216705322266,30.033849716186523,-79.78282034196783,40.458919142507604,305.6091601867676,0.005955285392701626,0.005932752508670093,-0.9860865473747252,0.16602009534835815,-0.06638525949184561,-0.04185772616309032,3.074839709097485,-0.05092338100075722,0.021184546872973442,-0.019595395773649216,-0.06943822575733066,-0.2895587237924337,-9.788699178099632
34.6,3.799999952316284,197.0,20.993133544921875,30.049753189086914,-79.7828203389152,40.458919152609575,305.9159686584473,0.005159474443644285,0.006300594657659532,-0.9859040379524232,0.1671139895915985,-0.056763675345701675,-0.032310211173632065,3.0619698248675973,-0.02765492536127568,-0.03738423436880112,-0.1243235394358635,-0.10363541068509224,0.009146461402997377,-9.670214708447457
34.8,3.799999952316284,197.0,20.96183204650879,31.17890548706055,-79.78282032933566,40.45891920744103,306.53240084838865,0.00976030994206667,0.008135457523167133,-0.9857142567634584,0.1679462492465973,-0.061890541630661176,-0.03406679615084657,3.048166913904517,0.10573605448007584,0.05638900771737099,-0.0017445002449676394,-0.03661315393634141,-0.2673202460445464,-9.766303172707557
35.0,3.799999952316284,196.0,20.901735305786133,32.013843536376946,-79.78282037405701,40.458919277921964,307.1519687194824,0.013339647091925144,0.008000124245882034,-0.9856800436973572,0.16790758073329926,-0.09246649886614836,-0.017979686831714185,3.0553018854639538,0.017023427411913872,0.03046448901295662,-0.03410618007183075,-0.08591052660718561,-0.2484871866926551,-9.802603856921195
35.1,3.799999952316284,195.0,21.073265075683594,28.44349479675293,-79.7828203565367,40.4589192648012,307.4579494018555,0.01405507605522871,0.0074287592433393,-0.985723614692688,0.16761943697929382,-0.10483676446404867,-0.013320888150938685,3.0667875993435447,-0.05941765382885932,0.03309202939271927,-0.017335740849375725,-0.07290764375589788,-0.08510216731578113,-9.913955308198931
35.21,3.799999952316284,194.0,21.09455108642578,30.34396934509277,-79.78282039183873,40.458919319445314,307.77344393920896,0.013153620064258577,0.006141538266092539,-0.9857910275459292,0.1673482209444046,-0.10332285691143096,-0.008974627493027559,3.0712062201410024,-0.06327337771654129,-0.014442088082432747,-0.0068781720474362365,-0.06324538941029459,-0.2778368288464844,-9.84170126438141
35.41,3.799999952316284,194.0,21.053232192993164,29.707826614379893,-79.78282035838627,40.458919306279995,308.7029216308593,0.011109300889074802,0.0036781909875571728,-0.9858999252319336,0.16692659258842468,-0.08095722568379335,0.018341112017403242,3.0891746371776483,0.05691194161772727,0.009089112281799316,0.06506295502185823,-0.014350236654281616,-0.2698628894984722,-9.918216758966443
35.59,3.799999952316284,196.0,20.97810935974121,30.47914886474609,-79.78282032918388,40.45891927976201,309.01204943847665,0.012539852410554886,0.0032970174215734005,-0.9858858585357666,0.16691622138023374,-0.07356310740850845,0.02072024333566404,3.0912002688170266,0.14333580434322354,0.08800965547561647,0.06240826100111008,0.0008792036765953526,-0.2935612342692912,-9.869911741018296
35.7,3.799999952316284,199.0,21.04572105407715,29.9066219329834,-79.78282041446082,40.45891930184682,309.32557559204105,0.015220727771520616,0.002706741448491812,-0.9858423471450806,0.1669606864452362,-0.0885553110084236,0.026789766476406667,3.100246803678585,0.0208478681743145,0.04389095306396485,-0.1138772964477539,-0.017107153153046967,-0.14111581633798778,-9.954458971023561
35.8,3.700000047683716,201.0,21.07451820373535,28.841083526611328,-79.78282039561095,40.45891927281354,309.6366641540528,0.01719670370221138,0.0024706635158509016,-0.9857113361358644,0.16754531860351562,-0.10695813067575204,0.03759550684576781,3.1214443517137016,0.0068157771602273,-0.055532325059175484,-0.008724767714738846,0.014348619533702731,-0.25960890149697663,-10.038062460422516
36.0,3.700000047683716,203.0,21.03194808959961,29.6760196685791,-79.78282034185258,40.45891923989728,310.26671862792966,0.017964545637369156,0.0037739428225904703,-0.9853960871696472,0.16928578913211825,-0.1206641027408542,0.04942161071604097,3.136094751208224,-0.0854111760854721,0.0245464276522398,-0.031794626265764236,-0.017388569820905104,-0.2524483281187713,-9.897585443258286
36.1,3.700000047683716,203.0,21.224763870239254,26.622539520263672,-79.78282032564216,40.45891919166379,310.58058810424814,0.018342792987823486,0.001902318792417645,-0.9851695895195008,0.17058990895748138,-0.09985212944084353,0.053231700933248166,3.135603041661994,0.04693363979458809,0.06475585699081421,-0.1173895299434662,0.10432762051932516,-0.15305198432877662,-9.803523039221764
36.3,3.700000047683716,204.0,21.00189781188965,29.827104568481445,-79.78282043001067,40.458919172960094,311.20419955444333,0.019936397671699524,-0.002967895241454244,-0.9850199818611144,0.17125867307186127,-0.07960030474232918,0.06964980226050682,3.041379621468576,-0.04031120240688324,0.10561087727546692,-0.01854461058974266,0.08238249940797687,-0.1414400718547404,-9.37529459953308
36.5,3.5999999046325684,206.0,21.07576942443848,29.055782318115234,-79.78282045164613,40.45891910142064,311.8320682067872,0.010868855752050877,-0.009187384508550169,-0.9855048656463624,0.16904936730861664,-0.007979087759290024,0.0968059260187295,3.0031753506064827,-0.06345905363559723,0.06563293188810349,0.12847854197025302,0.07391592757310719,-0.15892562208697195,-9.485714004635811
36.61,3.5999999046325684,207.0,21.02568817138672,29.85891151428223,-79.78282050858644,40.4589190535001,312.13115573120115,0.00430360296741128,-0.00999430753290653,-0.9858830571174622,0.1670818328857422,0.0095694504934018,0.08908584408433949,2.9765615327762784,-0.07008778303861618,0.006762055680155754,0.027810260653495792,0.08990678787231446,-0.27368821106851104,-9.539658662080763
36.69,3.700000047683716,209.0,21.129608154296875,28.268556594848643,-79.78282044591472,40.4589190341732,312.45915484619144,0.00021341867977753282,-0.008294469676911831,-0.986112892627716,0.16586901247501373,0.027421223030767748,0.08807572242350692,2.992724696041547,0.009956790134310722,-0.09250976145267488,0.05463678389787674,0.06683483521454038,-0.16755837818607688,-9.59234616816044
36.91,3.700000047683716,208.0,21.014419555664066,29.69987487792969,-79.78282046896125,40.458918990660045,313.0547130126953,0.0036310898140072814,-0.0014057658845558765,-0.9861429333686828,0.16585244238376615,-0.0011363188454223965,0.047701642661250286,2.9618843745948604,0.14851108193397522,-0.058795124292373664,0.06512948125600815,0.13579601040109993,-0.4060822565853596,-9.661466689109805
37.0,3.700000047683716,210.0,21.122095108032227,28.228797912597656,-79.78282057319767,40.458918872415296,313.3807094116211,0.008843722753226757,0.001478049554862082,-0.9860226511955258,0.16637015342712402,-0.04483854712523541,0.04719047856464041,2.980240030462641,0.11594419181346892,0.007915246300399303,-0.04403634741902352,0.04535779742058367,-0.07037990156561137,-9.654304434657098
37.2,3.700000047683716,211.0,21.014419555664066,29.636260986328125,-79.78282054798673,40.45891885495153,313.9958636779785,0.014547111466526985,-0.0009555042488500477,-0.9858027696609496,0.16727368533611298,-0.1153733047832164,0.04736387693807313,2.977748191093829,-0.02008693665266037,0.12544815242290494,-0.07883957773447038,0.06105224043130875,-0.1822890858538449,-9.658326149582862
37.39,3.799999952316284,215.0,20.973100662231445,30.566619873046875,-79.78282043232123,40.458918798649336,314.59089923095706,0.01936865970492363,-0.006057341117411853,-0.98549485206604,0.16848772764205933,-0.12855221090462798,0.09150965879857052,2.9729484693876236,0.06538037955760956,0.036538492888212204,0.05266442894935608,0.17409903706982732,-0.2858135821670294,-9.800525171756744
37.5,3.799999952316284,217.0,20.974353790283203,30.510955810546875,-79.78282050046295,40.45891883526554,314.90801119995115,0.0223788321018219,-0.005690470337867737,-0.9853612184524536,0.16890881955623627,-0.12293954486032467,0.09549641874597996,2.9965413045800635,0.104821614921093,0.03508899733424187,0.0664132833480835,0.16346260461956266,-0.4228120907396079,-9.842998176813127
37.6,3.9000000953674316,218.0,21.02318382263184,29.74758529663086,-79.78282046113854,40.45891880910453,315.2087962646485,0.02168136276304722,-0.0041560553945601,-0.9853268265724182,0.16924510896205902,-0.1453691918813803,0.09117787577069088,3.010039952694384,-0.002765436191111803,-0.04794782027602197,-0.0867602601647377,0.1583717628568411,-0.4142054278403521,-9.902472546100618
37.79,4.0,219.0,21.08453369140625,28.682048797607425,-79.78282037205003,40.45891886039383,315.82554507446287,0.015883762389421463,-0.0033792799804359674,-0.9851782321929932,0.17076337337493894,-0.13742579626090673,0.06664238282254133,3.0469923863154573,-0.033355087041854865,-0.005382971372455359,-0.0006711134919896723,0.14184403222985567,-0.277477608807385,-9.982621500492096
38.0,4.099999904632568,221.0,21.054485321044922,29.02397537231445,-79.78282031098615,40.45891890316624,316.4352595825196,0.015657374635338783,-0.0035095445346087213,-0.9852474331855774,0.17038226127624512,-0.13243864589084442,0.054459340473553816,3.0276070691701817,-0.013573619537055492,0.037001755088567734,0.038504548370838165,-0.00565183642320335,-0.31633992165327074,-9.708563672304155
38.11,4.199999809265137,221.0,20.880449295043945,30.91649627685547,-79.78282025255608,40.45891889954197,316.7376048583985,0.018185341730713844,-0.003953018691390753,-0.985218346118927,0.1702897697687149,-0.14108364694082173,0.05700124389136599,3.0152616980916482,-0.0041830772534012794,-0.018582304939627647,0.009250330738723278,0.08778048444539309,-0.5817850204557181,-9.703430401682855
38.2,4.199999809265137,221.0,20.846643447875977,31.75938415527344,-79.78282030451828,40.45891894491825,317.04402423095706,0.02047082968056202,-0.003992896061390638,-0.9852091073989868,0.17008253931999207,-0.14957304686964326,0.0628444409153835,3.0240984635018955,-0.011994593776762486,-0.017827967181801796,-0.03674374148249626,0.06530101918615401,-0.28546538047492503,-9.826486809253694
38.4,4.199999809265137,222.0,21.008159637451172,29.69987487792969,-79.78282020275266,40.45891894269602,317.6536204833985,0.02374451234936714,-0.003948123659938574,-0.985240638256073,0.16947446763515472,-0.17098688150685853,0.05297485248830819,3.050308366594357,0.07873138785362244,0.01393076777458191,0.14523908495903015,0.142866591475904,-0.5452368893846871,-9.849442977905277
38.5,4.199999809265137,224.0,20.93804359436035,30.065656661987305,-79.78282017823602,40.45891898195635,317.9546573181152,0.02233063243329525,-0.005364448297768831,-0.9853083491325378,0.16923385858535767,-0.1733770687883962,0.060132685152058475,3.039383766714072,-0.024230165407061573,0.0737903043627739,0.07694591581821443,0.09891471594572067,-0.3351663115248084,-9.795698879957197
38.7,4.199999809265137,225.0,20.94430351257324,29.58059883117676,-79.78282018109749,40.45891904354679,318.55884432983396,0.01945420354604721,-0.005526988301426172,-0.9855152368545532,0.16837702691555026,-0.14853071614385474,0.057257601260770126,3.054367100454082,-0.01987130008637905,-0.06919246166944504,0.028958788141608238,0.11524180484935642,-0.3645030349865556,-9.952031207084655
38.8,4.199999809265137,225.0,20.99563789367676,29.54084014892578,-79.78282015045032,40.45891905519306,318.8657672424317,0.019423520192503933,-0.004135606344789268,-0.985525608062744,0.16835984587669373,-0.14977731050114393,0.04955198697164282,3.0748418195738263,-0.07174975425004959,0.006521977949887514,-0.061682023108005524,0.09702430198900402,-0.11772626850754025,-9.906951513290403
39.0,4.199999809265137,225.0,21.05824089050293,29.43746757507324,-79.78282014011185,40.45891914396064,319.4759128112793,0.017700813710689545,-0.0045627118088305,-0.9854655265808104,0.16888947784900665,-0.13900388076332085,0.024894127094985882,3.085525933160337,-0.0200788751244545,-0.0002531129284761845,0.04176783189177513,0.04143775552511216,-0.5069657300412655,-9.888797078132633
39.1,4.199999809265137,224.0,20.80657958984375,31.84685516357422,-79.78282011197479,40.458919169371256,319.78517031860355,0.019526710733771324,-0.004652529023587704,-0.9854305386543274,0.16889023780822754,-0.14240646074457006,0.02713368093293124,3.0956525679785387,-0.01991584151983261,-0.04841422662138939,-0.01963481679558754,0.05669497755356132,-0.4070401766896248,-9.916011189222337
39.3,4.199999809265137,225.0,20.993133544921875,29.30228614807129,-79.78282012110739,40.45891929474859,320.3984172363282,0.024404402822256088,-0.0015441904542967675,-0.9852712154388428,0.16924159228801727,-0.14745306319521398,0.008408119599726177,3.121961427533149,0.12527963519096375,0.023254776373505592,0.0096138259395957,0.1368235306441784,-0.2961859214678407,-10.058578001260758
39.4,4.199999809265137,224.0,20.880449295043945,31.695770263671875,-79.78282011992962,40.458919327297174,320.7114245910645,0.025873178616166115,-5.490428520715796e-06,-0.9851073026657104,0.16998302936553955,-0.15696303338743955,9.100411442239387e-06,3.126934308600504,0.0451430007815361,-0.0120523264631629,-0.056887716054916375,0.026484054238535462,-0.3228081116080284,-9.888130495548248
39.6,4.199999809265137,224.0,21.015670776367188,29.190961837768555,-79.78282026955355,40.458919363539785,321.31975436401365,0.023070938885211945,0.0016125580295920372,-0.9849939942359924,0.17103253304958346,-0.1326879429999002,-0.012458892468992693,3.1109443652272906,-0.0675700381398201,-0.0076363873668015,-0.16236506402492526,0.09840920588001607,-0.2650470495969057,-9.818410634994509
39.79,4.199999809265137,223.0,21.11458396911621,27.990243911743164,-79.78282044817188,40.458919409591296,321.9283778686524,0.017615074291825294,-0.0002451111504342407,-0.9849358797073364,0.172020822763443,-0.08882883626765302,-0.009243472374777262,3.0560449264544256,-0.05060271546244621,0.02913566119968891,0.01771287620067596,0.08575062353163958,-0.2354130500368774,-9.552761687636377
39.89,4.199999809265137,220.0,21.103315353393555,28.276508331298828,-79.78282050116005,40.45891941938787,322.23263430786136,0.016936702653765682,-0.0007035131566226482,-0.9848827123641968,0.17239129543304446,-0.06458460472675794,-0.00129674044805431,3.026885408900883,-0.046471916139125824,-0.016650116071105003,-0.08048073202371597,0.1157157582230866,-0.28600138742476705,-9.529328970909118
40.0,4.199999809265137,219.0,20.946807861328125,30.391679763793945,-79.78282067277642,40.45891946197133,322.5388743896485,0.01798267662525177,-0.0007547091227024794,-0.9848300218582152,0.17258594930171967,-0.051654428578376516,-0.00440493709626719,3.0045249893083565,0.03344782814383507,0.005102562252432108,-0.08127201348543167,0.11131057558581234,-0.24576254865154626,-9.509962992668152
40.2,4.199999809265137,219.0,20.765260696411133,33.166847229003906,-79.78282091773606,40.45891951387256,323.14873004150394,0.020540740340948105,-0.00015451871149707586,-0.9848076701164246,0.17242960631847382,-0.047986440229384926,0.0015914158475354733,2.9959191986360105,0.06829847395420073,0.013107923790812492,0.06642558425664903,0.08340782694518567,-0.4079206577315927,-9.627959804534912
40.3,4.300000190734863,218.0,20.89046669006348,29.866863250732425,-79.78282099582133,40.45891951366054,323.4486796875001,0.02155229263007641,0.0003183308872394264,-0.984963357448578,0.17141401767730713,-0.05057593348582927,0.0013813763524078088,3.008732212353668,-0.0014871436869725585,-0.02157788909971714,0.09392648190259932,0.15924467906355858,-0.3949389253556729,-9.891733549833296
40.5,4.300000190734863,219.0,20.80908203125,31.727577209472656,-79.78282126027874,40.45891952653117,324.0610225219727,0.01479460671544075,-0.002614062046632171,-0.985336422920227,0.16996048390865326,-0.04175174809106523,0.0005414905689356151,3.0473305446770778,-0.12930218875408173,0.08520220965147017,-0.03314017131924628,0.053148993006907404,-0.2351221327856183,-9.8606462430954
40.7,4.300000190734863,218.0,20.906742095947266,30.375776290893555,-79.78282154843481,40.458919537894026,324.67180133056644,0.00850239209830761,-0.00571398390457034,-0.9854349493980408,0.16974394023418427,0.0060103357358069435,0.014936050739932462,3.077621233885943,-0.042342644184827805,0.013415277935564518,0.00927424430847168,0.09859783340245486,-0.3191208939626813,-9.944546771049499
40.8,4.300000190734863,218.0,20.731454849243164,33.135040283203125,-79.78282161912743,40.45891954340074,324.98036074829105,0.009538665413856506,-0.006028919480741024,-0.9853837490081788,0.16997511684894562,-0.0033600330392187113,0.014679789538795975,3.0960236339610026,0.010629606433212757,0.031854864209890366,-0.0960494950413704,0.10453140512108804,-0.1518355076573789,-9.999564392566679
40.9,4.300000190734863,217.0,21.073265075683594,27.855064392089844,-79.7828216762209,40.45891955684035,325.2912051696777,0.013638337142765522,-0.0035153110511600967,-0.9853575229644777,0.16991855204105374,-0.011337226983990213,0.01189027016136616,3.1241582555690828,0.1553107053041458,-0.025877701118588448,0.057731829583644874,0.023903545495122674,-0.35907071582973005,-10.01611435174942
41.1,4.300000190734863,217.0,20.954320907592773,29.88276672363281,-79.78282204032314,40.45891960893428,326.2207973022461,0.02098022773861885,0.0011698106536641715,-0.9850019216537476,0.17125937342643738,-0.10247715164794872,-0.0273572288709852,3.075512702104395,-0.04419803991913796,0.002434967318549752,0.030678894370794293,0.0038682689121924342,-0.29146847924217584,-9.660878459215164
41.3,4.300000190734863,217.0,21.079524993896484,27.735788345336914,-79.7828220959606,40.45891962893696,326.5272510070801,0.01781558804214001,0.0009006973123177887,-0.984963595867157,0.17183876037597656,-0.08661042153152346,-0.019823967010540386,3.047969473145581,-0.05218646302819252,-0.05018116161227226,0.10711868852376938,0.08362724371254444,-0.5548184293136,-9.542533738017083
41.4,4.300000190734863,217.0,21.05072784423828,28.83313179016113,-79.78282214946738,40.45891964338248,326.83022189331064,0.015391306020319462,0.001759804436005652,-0.9849371314048768,0.1722175031900406,-0.08095945249645949,-0.013685339605807749,3.0118998369018612,-0.10914241522550584,-0.02320125512778759,0.06161921471357345,0.029005611171014613,-0.4266875521838665,-9.44101964235306
41.6,4.300000190734863,218.0,20.970598220825195,29.668067932128906,-79.78282233332659,40.45891970768575,327.4356296081544,0.015365615487098694,-0.00027482392033562064,-0.9849711656570436,0.17203389108181,-0.06387846950128888,-0.019643422598323253,2.9608458074130213,-0.010454555042088032,0.012403023429214954,0.04652424156665802,0.09644252230413257,-0.4107185138761997,-9.501765781044961
41.7,4.300000190734863,217.0,21.000646591186523,29.588550567626953,-79.78282247232536,40.45891973345493,327.7526385803223,0.014212702400982382,-0.0011994786327704787,-0.9850287437438964,0.17179931700229645,-0.07303448729175799,0.002262070962022796,2.9788456945906585,-0.1048782542347908,-0.07531698793172836,-0.015122059732675552,0.10447379177436232,-0.4824334444105625,-9.569676513075828
41.8,4.199999809265137,217.0,21.01817512512207,28.523012161254893,-79.78282250219252,40.45891974133309,328.0498607177735,0.013876141980290413,-0.0013905081432312727,-0.9851266741752625,0.17126284539699554,-0.07471971636141815,0.007257536713481065,2.967362980501148,-0.03647298738360405,-0.0009903173195198178,0.08633214235305786,0.014176199762150643,-0.3232722343504429,-9.625289965868
42.01,4.199999809265137,217.0,20.902986526489254,30.66999244689941,-79.78282262457044,40.45891977474317,328.6541621704102,0.01842095144093037,-0.0022268719039857388,-0.9850092530250548,0.17150096595287326,-0.09038598123224023,0.01372968697334539,2.974091155064785,-0.012431193143129349,-0.025489626452326768,-0.13446123898029327,0.1261688987351954,-0.19211597129702568,-9.691638906598092
42.2,4.199999809265137,221.0,20.906742095947266,30.0736083984375,-79.78282273970609,40.458919796425405,329.26080203247074,0.020767869427800185,3.0083756428211927e-06,-0.9850221276283264,0.17117299139499664,-0.10746441270100328,0.015045483839805597,3.019018722798779,0.02789435908198357,-0.07206515967845918,0.10200656950473784,0.1027320889569819,-0.4709927457198501,-10.010622646808622
42.3,4.199999809265137,220.0,20.8917179107666,31.40155601501465,-79.78282275836764,40.458919802968616,329.5641047973633,0.019042575731873512,0.0016313039232045412,-0.9850653409957886,0.17111721634864807,-0.11021431657326232,0.015077462050487432,3.0368250721878334,-0.030964097008109093,0.015425290912389757,-0.09218408167362213,0.08162992620840669,-0.2225623501092196,-9.880483506917956
42.4,4.199999809265137,222.0,20.866676330566406,31.71962547302246,-79.78282277519645,40.45891980245815,329.86816668701175,0.016186747699975967,0.0019956491887569427,-0.9852084517478944,0.17058244347572327,-0.10265921892511244,0.009297076160694313,3.0414774264486133,-0.01570851914584637,0.027228957042098045,0.0513019897043705,0.14701619597151874,-0.2783064333535731,-9.858443012237547
42.6,4.199999809265137,222.0,20.96183204650879,29.44541931152344,-79.7828228164112,40.45891978231376,330.48035311889646,0.015297105535864832,0.0004286724433768541,-0.985370934009552,0.169734925031662,-0.07961927485534588,0.02995174922539441,3.082109634012837,-0.005750900134444237,0.021882181987166405,-0.03861954435706138,0.10112113536335528,-0.4048218892514706,-9.924849840402603
42.7,4.199999809265137,222.0,20.777782440185547,32.37166976928711,-79.78282298419633,40.458919823215524,330.7750651855468,0.01607772335410118,3.848395135719329e-05,-0.9853716492652892,0.16965946555137634,-0.08537898663920201,0.030905462917019576,3.0702674817526905,-0.05907837301492691,-0.034859634935855865,-0.033687133342027664,0.09183322615921498,-0.35464360613375906,-9.860551518201827
42.9,4.199999809265137,222.0,20.973100662231445,29.151203155517567,-79.78282299044636,40.45891978531322,331.39226412963865,0.0181328896433115,0.00048639031592756526,-0.9851487874984741,0.17074207961559296,-0.09515532632483027,0.035946366700038784,3.097173367725162,0.08733736723661423,0.041527871042490005,0.061426792293787,0.16191276356577874,-0.3942178174853325,-9.934295432567595
43.1,4.199999809265137,221.0,20.870433807373047,30.18493461608887,-79.78282299304222,40.45891975838676,332.0001132507324,0.019918641075491902,-0.002259349683299661,-0.9845619201660156,0.1738852560520172,-0.10436416755661918,0.04953156427887717,3.0801644319550787,0.06031244993209839,0.04093673825263977,-0.1578189730644226,0.12722872484475375,-0.2902450772747397,-9.77522719323635
43.2,4.199999809265137,221.0,20.96934509277344,29.42156410217285,-79.78282308098247,40.45891973671044,332.2979075927735,0.021499339491128918,-0.002537516411393881,-0.9842286705970764,0.175571471452713,-0.10606892935779873,0.056652810014350435,3.0625778334049265,-0.031693242490291595,-0.06714576482772827,-0.02565064840018749,0.07111824044957757,-0.4049981828033925,-9.72958675146103
43.3,4.199999809265137,223.0,20.881702423095703,30.04180145263672,-79.78282309910149,40.458919712684676,332.60344195556644,0.02155366726219654,-0.0021109883673489094,-0.9841160178184508,0.17620088160037994,-0.10458719227431013,0.060802183235530376,3.0472581460307686,-0.08125890046358109,-0.011443006806075571,-0.0020535534713417287,0.021867837365716698,-0.2187671782448888,-9.647621651887896
43.51,4.199999809265137,221.0,20.733959197998047,33.51672744750977,-79.78282317793446,40.45891966439536,333.208559753418,0.01632050238549709,-0.00036364363040775066,-0.9845280051231384,0.17446568608283994,-0.0783613021584882,0.0488546560527093,3.0327452434106936,-0.0661483108997345,-0.04703289270401001,-0.0009706573328003287,0.06928594233468176,-0.3006918041221798,-9.78535223186016
43.7,4.199999809265137,220.0,20.88921356201172,30.359872817993164,-79.78282326748112,40.458919605398044,333.8143031616211,0.014029692858457564,-0.002283653942868113,-0.9851154088974,0.17130562663078308,-0.04717840914071125,0.04538771049281291,3.0619261988644872,0.02576238475739956,0.06459491699934006,-0.12594261765480042,0.10004336561076344,-0.15752892326563595,-9.901727610826493
43.79,4.199999809265137,220.0,20.884206771850586,30.256500244140625,-79.78282329358309,40.45891957246139,334.120424987793,0.012782666832208632,-0.004078760743141174,-0.985240876674652,0.17064708471298218,-0.04715490680706225,0.05520186141137482,3.0595257422895883,0.01625590398907661,0.04120390862226486,0.053102105855941766,0.08434051265940071,-0.3883843793347478,-9.80686940073967
43.89,4.199999809265137,219.0,20.7802848815918,32.013843536376946,-79.7828233196148,40.458919541162416,334.42615008544925,0.012978772632777693,-0.005927343852818011,-0.9852781295776368,0.17036308348178866,-0.04529538648423748,0.06382107678901378,3.0527393471620234,-0.02176256664097309,0.06310147047042848,-0.09225084632635117,0.11081544432789088,0.015258692968636753,-9.755382912755014
44.1,4.199999809265137,219.0,20.946807861328125,30.20878982543945,-79.78282347202855,40.45891946796221,335.0325038452149,0.01595887541770935,-0.004692357499152422,-0.9852836728096008,0.1701158732175827,-0.033066010806725936,0.07230752331164142,3.0468839225865234,0.039386045187711716,-0.00799737311899662,-0.045167818665504456,0.14123816018924118,-0.1875695784017444,-9.693242213129997
44.2,4.099999904632568,219.0,20.940547943115234,29.95433235168457,-79.78282353570374,40.458919404076546,335.3324306030274,0.017787439748644832,-0.003634011140093208,-0.9852448105812072,0.1701858937740326,-0.04985666384428036,0.07258419932759289,3.0359358405081562,-0.04721234738826752,-0.10024021565914154,-0.021665124222636226,0.09267372686415913,-0.3164717032760382,-9.71733858883381
44.4,4.099999904632568,219.0,20.948060989379886,29.310237884521484,-79.78282364343691,40.458919331667,335.93928790283206,0.015352897346019743,-0.0050710076466202745,-0.9852582812309264,0.17030762135982513,-0.05221173991293235,0.055614794121305364,3.039380136391572,-0.12044069916009904,0.04354218021035194,0.028429090976715088,0.08604059061035514,-0.1074667439237237,-9.863919514417649
44.5,4.099999904632568,221.0,20.953067779541016,29.85095977783203,-79.7828237671458,40.458919294602055,336.2443339843751,0.011591097339987757,-0.006863264366984367,-0.9853716492652892,0.16988638043403625,-0.02387675743522333,0.05837645398407512,3.0521479740760062,-0.04733657836914063,-0.012428035959601402,-0.035285916179418564,0.1073293891735375,-0.2844091906026006,-9.860731612443924
44.7,4.0,220.0,20.89297103881836,29.874814987182607,-79.78282393074271,40.458919225229,336.85234332275394,0.006427745334804058,-0.006465291138738394,-0.9855970740318298,0.16886484622955322,-0.005894799517629758,0.060530428878809994,3.0795829571427387,-0.009829601272940636,-0.07425781339406967,-0.07716318964958191,0.13642100466415286,-0.14095003863796593,-9.989545773267746
44.79,4.0,220.0,20.86417388916016,30.28830718994141,-79.78282396546427,40.458919210011075,337.1614711303711,0.007547071669250727,-0.0049299555830657465,-0.9854885935783386,0.1695023477077484,-0.009734530593097724,0.05115720669460437,3.1024990602079856,0.0370880663394928,-0.01639110967516899,0.05374804511666298,0.11904697179794313,-0.2183416105806828,-10.064784235954283
45.01,4.0,220.0,21.06324958801269,28.45939826965332,-79.78282401798442,40.45891916002235,337.77640795898435,0.012481688521802424,-0.0058950437232851965,-0.9849640130996704,0.1722073256969452,-0.061599738992561485,0.035906137288914244,3.1256944922488836,0.028950612992048264,0.04215602949261665,-0.017255011945962906,0.10759881790727377,-0.2683235003426671,-9.940081837177278
45.1,4.0,221.0,20.954320907592773,28.79337310791016,-79.7828240163738,40.458919162927344,338.0888164062501,0.015037963166832926,-0.0077181030064821235,-0.9846217036247252,0.17388074100017548,-0.07330306269996943,0.04474804925469241,3.1167986818721785,0.08965928107500076,0.06107812002301216,-0.004292592406272888,0.07512953088618815,-0.251524193957448,-9.766806617975236
45.3,3.9000000953674316,224.0,20.986873626708984,28.41168785095215,-79.78282412626855,40.45891920421398,338.70019793701175,0.01941042579710484,-0.008851652964949608,-0.9841871857643129,0.17584258317947388,-0.09568809234849568,0.045980000821799975,3.0731070754000136,0.03534909710288048,0.03242180123925209,-0.011918261647224426,0.1200253937020898,-0.140213125012815,-9.613327147364618
45.5,3.9000000953674316,224.0,20.970598220825195,28.96036148071289,-79.78282415400363,40.45891923728375,339.3083751220704,0.01736887916922569,-0.004887295421212912,-0.984113872051239,0.17661935091018674,-0.10103504481725288,0.03791466650376212,3.015724547409541,-0.060261070728302,-0.07012098282575607,-0.038285985589027405,0.13919328837655484,-0.2297385647892952,-9.450738884210589
45.6,3.9000000953674316,225.0,20.953067779541016,30.11336708068848,-79.78282417408184,40.45891926030791,339.60876727294925,0.01507090963423252,-0.001407679170370102,-0.9840768575668336,0.17709815502166748,-0.07435268914462381,0.016212804871456286,2.993891764105744,0.029997671023011208,-0.00995949562638998,-0.020177215337753296,0.14613017834722994,-0.3816229880601168,-9.548358734250069
45.69,3.9000000953674316,225.0,20.854156494140625,30.646137237548828,-79.78282421337533,40.45891923582965,339.91858935546884,0.013028034940361977,0.0007990102749317882,-0.9841351509094238,0.17693990468978882,-0.07638969051725518,-0.003047399780197645,3.020644873182739,-0.12258483469486235,-0.05072479695081712,-0.12876948714256287,0.09210452782921494,-0.22300989964976908,-9.737302152514456
45.9,3.799999952316284,223.0,20.97810935974121,29.44541931152344,-79.78282427147657,40.458919257892454,340.5251262207032,0.011605833657085896,4.353548865765333e-05,-0.9844833016395568,0.17509424686431885,-0.058968428474434086,-0.0052372434028713465,3.0347236046657127,-0.03201331198215485,0.004437993280589581,0.12352562695741652,0.12995813202112913,-0.37211618285626175,-9.790939246416093
46.1,3.799999952316284,224.0,20.993133544921875,28.936504364013672,-79.78282438731915,40.45891927910553,341.1343028564453,0.013020367361605169,-0.0050327652134001255,-0.9848068356513976,0.1730915755033493,-0.06250447698201546,0.020613021700138415,3.020243277765708,0.038723625242710114,0.023318206891417503,0.01641174778342247,0.14152479252777994,-0.32234841082245114,-9.679393082857134
