time,wind_speed,wind_angle,battery_voltage,battery_current,position_x,position_y,position_z,orientation_x,orientation_y,orientation_z,orientation_w,velocity_x,velocity_y,velocity_z,angular_x,angular_y,angular_z,linear_acceleration_x,linear_acceleration_y,linear_acceleration_z
0.0,0.30000001192092896,171.0,23.23680877685547,-0.11132483184337616,-79.78277853810617,40.45901479948712,268.4788062782288,-0.02208380401134491,-0.0262324009090662,0.9956184029579164,0.0869959145784378,-0.02546169898550027,0.0021424571230504647,-0.004706683814971105,-0.004786696285009384,-0.004128020722419024,-0.010588024742901323,-0.5534840216115118,-0.4208635792136193,-9.78452075779438
0.2,0.30000001192092896,171.0,23.24557304382324,-0.11927660554647446,-79.78277850668769,40.45901479356925,268.47842552375795,-0.02206074818968773,-0.02624323591589928,0.9956156611442566,0.08702989667654037,-0.028861271789446256,0.0019262767606848085,-0.00494094203531646,0.006018585991114378,0.0048323608934879286,0.012240818701684477,-0.548262202218175,-0.4550169100239873,-9.788255374431607
0.29,0.30000001192092896,170.0,23.22804450988769,-0.11927660554647446,-79.78277844473706,40.45901484625308,268.46157195281984,-0.02207079343497753,-0.026237163692712784,0.9956117272377014,0.08707361668348312,-0.036405923654423814,-0.002961770434310953,-0.004477221309413552,0.00861400831490755,0.002040910767391324,0.00626984192058444,-0.5555320819839835,-0.4291827418282628,-9.78392785012722
0.49,0.30000001192092896,173.0,23.22679328918457,-0.15903547406196594,-79.78277848288323,40.459014872533814,268.44307210159303,-0.022078344598412517,-0.026255829259753227,0.9956106543540956,0.08707854896783829,-0.02792623661238939,0.002848217050344034,-0.0068864650801438825,-0.012602713890373709,-0.0034468646626919512,-0.001972344471141696,-0.5547693857923149,-0.4419896059110761,-9.786271414160726
0.59,0.30000001192092896,171.0,23.22804450988769,-0.14313192665576935,-79.78277845107318,40.45901486614143,268.44247629356386,-0.022087277844548225,-0.02624068967998028,0.9956078529357908,0.08711285144090652,-0.031582795984358286,0.0024560659570361442,-0.0070847359125866954,0.006502514705061913,0.0015416102251037955,-0.0017115076771005988,-0.5488847479596735,-0.4324888306483626,-9.787692287564278
0.79,0.30000001192092896,173.0,23.241817474365234,-0.11927660554647446,-79.78277842746445,40.459014909972346,268.42367555809017,-0.022062480449676517,-0.026251889765262604,0.9956048130989076,0.08715081214904785,-0.031738372166966164,0.0015197670055469641,-0.008578703914596544,-0.001386269461363554,-0.00309827970340848,-0.004786655772477388,-0.5516002314537763,-0.4239523343369365,-9.784428371787072
0.89,0.30000001192092896,173.0,23.24432182312012,-0.10337305814027786,-79.78277845944527,40.459014936409815,268.4062667102814,-0.022132569923996925,-0.02626493759453297,0.9955999851226808,0.08718379586935042,-0.02308958640962614,0.005707780700943439,-0.004891070145888471,-0.009523428045213224,-0.000364189560059458,-0.013443727977573872,-0.5491364340484143,-0.4577359749376774,-9.788142523169515
1.09,0.30000001192092896,175.0,23.23806190490723,-0.11927660554647446,-79.78277843386205,40.45901492801636,268.4058387489319,-0.022135971114039414,-0.026270929723978043,0.9955981373786926,0.08720256388187407,-0.025971988357125508,0.005559823024056488,-0.005042674804202317,0.009306523017585278,0.005830660928040743,0.010170138441026207,-0.548302767276764,-0.4515685876831412,-9.78838108956814
1.19,0.30000001192092896,174.0,23.24432182312012,-0.10337305814027786,-79.782778409453,40.45901498458318,268.3887500972748,-0.02215185761451721,-0.02624545991420746,0.9955945014953612,0.08724720031023027,-0.027402326551480068,0.0004366349725445167,-0.004004243967564189,0.008061054162681103,0.002278347034007311,0.007619409356266259,-0.5551024578139186,-0.4326201006397605,-9.785304284691813
1.39,0.30000001192092896,173.0,23.24557304382324,-0.09542128443717957,-79.78277837650866,40.45901497961377,268.3884670944214,-0.02216429263353348,-0.0262471716850996,0.9955925345420836,0.08726649731397629,-0.03365031305756228,0.0007976876412539027,-0.003950395342601346,-0.004483322147279978,0.00012562060146592557,-0.0013843597844243052,-0.5527287075296045,-0.4457633988931775,-9.785075073838234
1.49,0.30000001192092896,172.0,23.248077392578125,-0.11132483184337616,-79.78277831943704,40.4590149893003,268.3707096786499,-0.022198515012860298,-0.02628384903073311,0.9955878257751464,0.08730021119117737,-0.03934084595947281,0.006011103329383257,-0.00298643177143853,-0.0021672826260328293,0.0009013318922370672,0.004267183132469654,-0.5511527367308736,-0.4293679158389568,-9.785653363466263
1.69,0.30000001192092896,171.0,23.246826171875,-0.09542128443717957,-79.78277827180688,40.45901497764598,268.37053277206417,-0.0221994761377573,-0.02627607062458992,0.995585024356842,0.08733396977186203,-0.04489747151535787,0.005737880809241638,-0.003132340077510364,-0.0009768513264134526,-0.0009772783378139136,-0.0052735437639057645,-0.5522403553873301,-0.42368402022868396,-9.785223008394242
1.79,0.30000001192092896,171.0,23.246826171875,-0.10337305814027786,-79.78277824097167,40.45901504319831,268.3497960777283,-0.02222839742898941,-0.026269618421792984,0.9955821633338928,0.08736152201890945,-0.042860619299029054,-0.0007116172049764996,-0.006483173450776041,-0.0036983136087656025,-0.0009737396612763404,-0.009995182044804094,-0.5496568727865816,-0.4580804855749011,-9.787987571954726
1.99,0.30000001192092896,172.0,23.24557304382324,-0.11132483184337616,-79.78277831640057,40.459015092322296,268.3300616950989,-0.02226367406547069,-0.026271607726812363,0.9955797791481018,0.08737923949956894,-0.02376961269070447,0.0006401049463728684,-0.008146731228362764,0.003350244602188468,0.0018306871643289926,0.012187873013317585,-0.5488316844776273,-0.4558668759092689,-9.787792274951936
2.09,0.30000001192092896,172.0,23.246826171875,-0.11927660554647446,-79.78277828731953,40.45901508812745,268.3293602676392,-0.02228560857474804,-0.026255704462528232,0.9955787062644958,0.08739041537046432,-0.030455867471432807,0.0008802334321166546,-0.007968607414408302,-0.008692294359207153,-0.00480545312166214,-0.013132498599588873,-0.5531597935035825,-0.4277597488090396,-9.784682140946387
2.29,0.30000001192092896,173.0,23.23806190490723,-0.11132483184337616,-79.7827782784515,40.45901512873132,268.30867364120485,-0.022276611998677254,-0.026263130828738213,0.9955746531486512,0.08743724226951599,-0.02900980751429745,0.0004549688859265969,-0.009064851079543256,-0.005230596754699946,-0.0022010761313140392,-0.0067302766256034366,-0.5550157728418708,-0.4392196702212096,-9.786350936293603
2.39,0.30000001192092896,177.0,23.248077392578125,-0.09542128443717957,-79.7827782993384,40.45901517746614,268.2886307449341,-0.02234260551631451,-0.026252254843711853,0.9955700039863586,0.08747639507055283,-0.01981002044061775,0.0014295519080169186,-0.00959835156072233,-0.006824064534157515,-0.0005672912229783832,0.0012202590005472302,-0.5498620004206896,-0.4354343655332923,-9.787460153102877
2.59,0.30000001192092896,180.0,23.24306869506836,-0.11132483184337616,-79.78277827627656,40.45901517366582,268.28774478149415,-0.02237655408680439,-0.02623281069099903,0.9955674409866332,0.08750215172767639,-0.02418890528257411,0.0011062588287148397,-0.009755160942712315,0.0003536484728101641,0.0025493321008980274,-0.005144154652953148,-0.5510508855432272,-0.42618246238678703,-9.785923504829407
2.7,0.30000001192092896,181.0,23.24056434631348,-0.10337305814027786,-79.78277822403338,40.459015240867636,268.2687900276184,-0.022371988743543625,-0.026221787557005882,0.9955649971961976,0.08753496408462524,-0.031416055476733235,-0.00458735661270284,-0.007404171238019487,-0.005655621644109488,0.0005299840704537928,-0.012947691604495049,-0.5504909050092102,-0.4577965667098761,-9.786999977231027
2.89,0.30000001192092896,183.0,23.248077392578125,-0.08746951073408127,-79.78277818740105,40.45901524056921,268.26819636535646,-0.02238919585943222,-0.02621875144541264,0.995563507080078,0.08754898607730865,-0.03393385227693148,-0.004800830923752343,-0.007622562182763484,0.005477346945554018,-0.0015221107751131056,0.013639149256050587,-0.5491484573855996,-0.4549145472049713,-9.788085220456123
2.99,0.30000001192092896,181.0,23.248077392578125,-0.09542128443717957,-79.78277824806902,40.459015242855294,268.249516746521,-0.022431978955864903,-0.026238897815346718,0.9955584406852722,0.08758818358182907,-0.023718152020296496,0.007304847229779045,-0.003975201071636752,0.007943449541926384,0.0031062583439052105,0.003676084335893393,-0.5543395058065653,-0.4297411509230733,-9.785313640236856
3.19,0.30000001192092896,179.0,23.241817474365234,-0.09542128443717957,-79.78277821823484,40.45901523215856,268.2491905899048,-0.02240394614636898,-0.02622675523161888,0.9955593943595886,0.08758822828531265,-0.029515527918672464,0.0076913455979239894,-0.003948979293189557,-0.007421795278787613,-0.0055467840284109116,-0.001151105621829629,-0.5536308963596821,-0.4463148278743029,-9.785535249710085
3.29,0.30000001192092896,178.0,23.231800079345703,-0.10337305814027786,-79.78277823487204,40.45901533225195,268.22791316223146,-0.02244888246059417,-0.02620081603527069,0.99555641412735,0.08761917054653168,-0.02296331094235047,-0.0019529320578862,-0.007008355547026621,6.897457205923274e-05,0.0014560245908796787,0.005940793547779322,-0.5505789421498776,-0.42550265047699215,-9.786457940340043
3.49,0.30000001192092896,176.0,23.234304428100586,-0.11132483184337616,-79.7827782522987,40.459015370101646,268.20766808700563,-0.02246667630970478,-0.026200665161013603,0.995554506778717,0.08763574808835982,-0.021331364102025355,0.0019684961623057397,-0.008208152054258183,-0.0044692931696772575,-0.003485538531094789,-0.012677906081080437,-0.5537635916098953,-0.4208650044724345,-9.785328258275989
3.59,0.30000001192092896,178.0,23.246826171875,-0.11132483184337616,-79.78277822821775,40.45901536550047,268.20691468429567,-0.022465426474809647,-0.02621686086058617,0.99555242061615,0.08765501528978348,-0.023726110869079928,0.0017516923123994895,-0.008504383486129297,0.006635650526732206,0.0034817096311599016,0.01434643007814884,-0.5491298559308052,-0.4541865688562393,-9.787603994607926
3.79,0.4000000059604645,176.0,23.248077392578125,-0.11132483184337616,-79.78277823779008,40.45901542152033,268.1879971237183,-0.02249977923929692,-0.02622581832110881,0.995546579360962,0.08771003037691116,-0.019446349387470186,0.0012435325811402493,-0.005631408845400032,0.007465345785021781,0.0040750564076006395,0.00642624543979764,-0.5486385801807047,-0.44126509934663777,-9.788065339922904
3.89,0.4000000059604645,175.0,23.246826171875,-0.09542128443717957,-79.78277824361321,40.45901547501468,268.1688554496765,-0.022529125213623047,-0.02621893770992756,0.9955423474311828,0.08775269240140915,-0.017564806530669427,0.00026914972157772313,-0.0035387583767733048,0.001850181259214878,-0.0013125762343406675,-0.005317954812198877,-0.5529667988419533,-0.4492543693631888,-9.785660964846613
4.09,0.4000000059604645,174.0,23.254337310791016,-0.06361418962478638,-79.78277822280151,40.459015471986774,268.1685817451477,-0.022513410076498985,-0.026222143322229385,0.9955413341522216,0.08776737004518509,-0.021149780807120586,0.00044034471675816737,-0.0034629358860103834,0.0010394523851573467,0.000704135571140796,0.007543091662228107,-0.5506937668472529,-0.45741262391209603,-9.788792148828508
4.19,0.4000000059604645,172.0,23.246826171875,-0.11132483184337616,-79.78277822973317,40.45901554139417,268.1478131027222,-0.022543564438819885,-0.02619647979736328,0.9955363869667052,0.08782342821359634,-0.017071266394146297,-0.002928162020624055,-0.006389853810186336,0.0062494943849742395,0.0011758083710446956,0.012499533593654629,-0.5536907937750221,-0.4208348547667265,-9.785263938903807
4.4,0.4000000059604645,171.0,23.24056434631348,-0.08746951073408127,-79.78277820706714,40.45901554113437,268.147279045105,-0.022547604516148567,-0.026194952428340912,0.9955357909202576,0.08782945573329927,-0.02323061642257753,-0.0027662979687380226,-0.006269816680587168,-0.008086644113063812,-0.002886202652007341,-0.009313181042671205,-0.5543808017671108,-0.42900144159793857,-9.783871132135392
4.49,0.5,169.0,23.235557556152344,-0.12722837924957275,-79.78277817582769,40.459015593820894,268.12852551651,-0.02257731929421425,-0.02619476243853569,0.9955297112464904,0.08789113909006119,-0.026989652937831718,-0.002700719738749775,-0.004782759027147235,-0.008620441891252995,0.001075058593414724,-0.0014442184474319222,-0.5480222836509347,-0.4439103797078133,-9.787541429400443
4.69,0.5,172.0,23.24306869506836,-0.07951773703098297,-79.78277814180422,40.45901559211559,268.12817027282716,-0.02257104404270649,-0.02617886662483216,0.995527982711792,0.08791675418615341,-0.030689306204890687,-0.0032004092567013745,-0.004895357948287789,0.0011569575872272253,-1.0537371053942481e-05,-0.0012150835245847704,-0.5507303119450808,-0.42742554388940335,-9.787396418452264
4.8,0.5,173.0,23.246826171875,-0.09542128443717957,-79.78277814401287,40.459015620251385,268.1093232841492,-0.022616509348154068,-0.026155553758144386,0.9955244660377502,0.08795170485973358,-0.027796713722156176,0.0020797106565649728,-0.003073111720990865,-0.004008274991065264,-0.004213817417621613,-0.009125732816755772,-0.5506053642556071,-0.4572053401172162,-9.788329634070397
4.99,0.5,174.0,23.24557304382324,-0.11132483184337616,-79.78277816807066,40.45901568044998,268.09127452087404,-0.02262646891176701,-0.02614903450012207,0.9955236911773682,0.08796021342277527,-0.018824155819548168,0.0006653460157937786,-0.0024039457804578717,0.009203238412737843,0.0021999017335474487,0.01131643820554018,-0.549264524616301,-0.4557288816198707,-9.788702686429025
5.09,0.5,174.0,23.235557556152344,-0.04771064221858978,-79.78277814472914,40.459015676753246,268.09112240982057,-0.022647397592663758,-0.026143165305256844,0.9955215454101562,0.0879802256822586,-0.02472618928669577,0.0007181853366925307,-0.002297252408968825,-0.01255964208394289,-0.0008656195714138447,-0.008249194361269474,-0.5551995215937495,-0.4307498321682215,-9.784514325857163
5.29,0.5,173.0,23.24056434631348,-0.09542128443717957,-79.78277815274494,40.45901573180477,268.0704887123108,-0.02264244481921196,-0.026148822158575058,0.9955189824104308,0.08800920844078064,-0.019771370151792245,0.00022810419082516383,-0.006516079369061689,-0.011038371361792088,-0.0004972827737219632,-0.003368018195033073,-0.5536554912105203,-0.44742196161299946,-9.786146283745769
5.39,0.5,173.0,23.234304428100586,-0.04771064221858978,-79.78277814476374,40.459015779636225,268.0520003051758,-0.022661613300442696,-0.026136098429560658,0.995514452457428,0.08805957436561583,-0.01939432213256202,0.0024519332043858267,-0.0052429840763671045,0.0018640876514837144,0.001923383795656264,0.006802733987569809,-0.5516391885280609,-0.4256964491307736,-9.786122310161591
5.59,0.5,172.0,23.23680877685547,-0.039758868515491486,-79.78277812157259,40.459015774575036,268.05154921722414,-0.022687673568725586,-0.02613474614918232,0.9955108761787416,0.08809315413236618,-0.02463687571850217,0.0022338953642870468,-0.0052825107012298535,-0.006985997315496206,-0.0021846522577106953,-0.010707324370741844,-0.5537889539077878,-0.42210808597505095,-9.784117884635926
5.69,0.5,172.0,23.230548858642567,0.015903547406196594,-79.78277813432705,40.45901582848754,268.03320862960817,-0.022701827809214592,-0.02613360993564129,0.9955078363418579,0.08812427520751953,-0.01843421418206366,0.001644900468517839,-0.003456876060305682,-0.007817069068551064,-0.003733171382918954,-0.009469127282500269,-0.5486497264355421,-0.4544426769018173,-9.788412664532665
5.89,0.5,168.0,23.22929763793945,0.015903547406196594,-79.78277811391958,40.459015824661975,268.0329287261963,-0.022724749520421028,-0.02612861804664135,0.9955056309700012,0.08814477920532228,-0.02045018004214065,0.0011336527165393,-0.0036821540075253054,0.009730919264256954,0.003870067652314901,0.008421791717410088,-0.5484779279306531,-0.4404251833632589,-9.788007452487946
5.99,0.5,170.0,23.22428894042969,-0.03180709481239319,-79.78277811864784,40.45901586541882,268.01494195175167,-0.02275446616113186,-0.02612415887415409,0.9955013394355774,0.08818726241588593,-0.02007217239444516,0.004581225568718059,-0.0021377082233776305,0.0002449204621370882,-0.0010080654174089432,-0.0026871422305703163,-0.5543755758181215,-0.4480173543468118,-9.786711124777792
6.19,0.5,169.0,23.230548858642567,-0.04771064221858978,-79.78277809391686,40.45901585790997,268.01479460906984,-0.02274382673203945,-0.026140304282307625,0.9954996109008788,0.08820419013500214,-0.0235888785407869,0.004669859563596661,-0.0021581542439138308,-0.00045958353439345956,-0.0011327995453029867,0.009584957733750343,-0.5503752763196826,-0.4583195270597935,-9.787954827547075
6.3,0.5,168.0,23.23931312561035,-0.05566241592168808,-79.78277808209509,40.45901593556643,267.9948771209717,-0.02276539802551269,-0.026110533624887463,0.9954954385757446,0.08825430274009705,-0.022416780795154027,-0.0009144683007314801,-0.005653449237896604,0.006287329364567995,0.002475822344422341,0.007746643386781216,-0.5533121134713292,-0.4209548688679934,-9.785178569555283
6.49,0.5,165.0,23.23680877685547,-0.05566241592168808,-79.78277809500872,40.45901598535171,267.9772713394165,-0.022782187908887863,-0.02612239681184292,0.9954931139945984,0.08827252686023712,-0.021361960888020944,0.0023988956265004768,-0.003795501531451753,-0.008378896862268448,-0.004933780990540981,-0.010761551558971405,-0.5557479173317552,-0.4294374611601234,-9.785317733287812
6.6,0.5,163.0,23.234304428100586,-0.07156596332788467,-79.78277807105829,40.45901598023577,267.9769609184265,-0.02279389463365078,-0.02611752972006797,0.9954915642738342,0.08828874677419662,-0.02319335974256468,0.0018912301750276762,-0.004013840941647933,0.008004222996532917,0.003055453533306718,0.009354540146887302,-0.5480935465916992,-0.4435559653490782,-9.788659417033195
6.79,0.5,164.0,23.235557556152344,-0.015903547406196594,-79.78277808277078,40.459016055952894,267.9594609947205,-0.022821500897407532,-0.02612185664474964,0.9954861402511596,0.0883411318063736,-0.016714183285063074,-0.0012646812116364919,-0.002938462141983972,0.004848213400691748,-0.00011052348418161272,-0.0036288220435380936,-0.5492955879494548,-0.4269899994134903,-9.787093532681466
6.9,0.5,164.0,23.22804450988769,-0.007951773703098297,-79.78277804035325,40.459016086694696,267.94316222381593,-0.02282797172665596,-0.02611725963652134,0.9954860806465148,0.08834162354469301,-0.02640228208458008,0.0044528319444033715,0.0010879418002630065,-0.0044980868697166426,-0.001189407077617943,-0.00871917512267828,-0.5497528402134776,-0.4573405569791794,-9.788136675953863
7.09,0.5,163.0,23.23931312561035,-0.015903547406196594,-79.78277801111147,40.459016078617935,267.94334675979616,-0.022830689325928688,-0.02609975822269916,0.9954851269721984,0.08835704624652863,-0.028419474861303563,0.004190839626828769,0.0008471230457293741,0.008526146411895752,0.0018126590875908726,0.009822609834372996,-0.5485257654637099,-0.4562769119068981,-9.787877644300464
7.19,0.5,162.0,23.24056434631348,-0.015903547406196594,-79.78277801583835,40.45901616481976,267.9253308982849,-0.022843671962618828,-0.02610060013830661,0.9954808950424194,0.08840061724185944,-0.022130648229639442,-0.002881233240456717,-0.0005293616956121767,0.006008927244693041,0.00010315053077647462,0.004124515689909458,-0.5551870962604879,-0.4296261435002089,-9.784046548604966
7.39,0.5,161.0,23.23931312561035,-0.02385532110929489,-79.78277798821091,40.459016163434356,267.9253928871155,-0.02286019176244736,-0.02608864009380341,0.9954811334609984,0.08839713782072067,-0.0271306295516883,-0.0027459052406941225,-0.0005642580499086957,-0.009337542578577995,-0.0022277801763266325,0.00017769825353752822,-0.5545249356329441,-0.4467094783857465,-9.785173891782762
7.49,0.5,160.0,23.235557556152344,-0.02385532110929489,-79.78277800468453,40.459016203962534,267.90544917297365,-0.02288208901882172,-0.026102494448423386,0.9954760670661926,0.08844511955976486,-0.02189437726321819,0.0015392794134339645,-0.003906375154552631,-8.667388465255499e-05,-0.0009220998617820444,0.006399354431778193,-0.5512604351341724,-0.427324752509594,-9.785733470320702
7.69,0.5,160.0,23.23806190490723,-0.02385532110929489,-79.7827779768192,40.45901619911873,267.9051382751465,-0.022884409874677655,-0.02608673647046089,0.9954751133918762,0.0884595662355423,-0.02671306597214284,0.001174509746931219,-0.004044871239165611,-0.006650345865637064,-0.001259095617569983,-0.01055199932307005,-0.5535736301913857,-0.4212892565131188,-9.784389780163766
7.79,0.5,160.0,23.23931312561035,-0.02385532110929489,-79.78277796595262,40.45901627662436,267.88693549346925,-0.022905251011252403,-0.026058923453092568,0.9954716563224792,0.08850187808275223,-0.025247956974321896,-0.0033860923042234874,-0.003436162281619798,-0.008996897377073765,-0.0035666145849972968,-0.010321969166398048,-0.5474693563207984,-0.4540486476570368,-9.789161692857745
8.0,0.5,161.0,23.231800079345703,-0.007951773703098297,-79.78277801079103,40.45901631804196,267.8689005584717,-0.02292062528431416,-0.02605036087334156,0.9954699873924256,0.08851929754018784,-0.013630831618264552,0.0020898990322105013,-0.0025544908966341363,0.006852893158793449,0.0022644905839115377,0.005894190166145563,-0.5474269274622202,-0.4413146179541946,-9.786866075992585
8.09,0.5,161.0,23.23680877685547,-0.007951773703098297,-79.78277797166982,40.459016309278674,267.8685219497681,-0.02292727492749691,-0.026062747463583943,0.9954654574394226,0.08856501430273056,-0.02142466509369164,0.0015764807205533573,-0.002712941631461761,0.005463386885821818,0.0005380769143812358,-0.0013621660182252526,-0.5535059852153064,-0.4465696202963591,-9.785812992453577
8.29,0.5,160.0,23.230548858642567,-0.09542128443717957,-79.78277801129313,40.45901637233879,267.8499725074768,-0.02293420396745205,-0.026048384606838226,0.9954661130905152,0.08855897933244705,-0.014554908551139743,0.0011161874235240128,-0.002452148899827485,-0.005107827018946409,0.004646617453545332,0.007562412414699794,-0.5509017449989915,-0.4568543609976768,-9.787551954388617
8.39,0.5,158.0,23.23680877685547,-0.08746951073408127,-79.78277802917448,40.459016429449356,267.8314979286194,-0.022925058379769325,-0.02604496292769909,0.9954621195793152,0.08860766142606735,-0.011276855437868074,0.0008926037906981257,-0.002307008417537119,0.007723302580416202,0.0024756055790930986,0.010238287039101124,-0.5532756780087948,-0.4216290893778205,-9.784675709009171
8.59,0.6000000238418579,159.0,23.23931312561035,-0.11132483184337616,-79.78277801555954,40.45901642685193,267.8313224525452,-0.02292710356414318,-0.02603147178888321,0.9954620003700256,0.08861300349235535,-0.016494753187300547,0.000729556187605087,-0.002243934223208432,-0.00752116972580552,-0.003815753385424614,-0.006396949756890535,-0.5549845998734236,-0.4305249701812864,-9.784710792303086
8.69,0.6000000238418579,160.0,23.24432182312012,-0.10337305814027786,-79.78277802095998,40.45901646944827,267.81263138961793,-0.02291508018970489,-0.02604825049638748,0.9954580068588256,0.08865539729595184,-0.015988396601848184,0.003914467416322311,-0.0018331804312592087,-0.0054727760143578035,-8.824524229567032e-06,0.0009753736667335033,-0.5479120270907879,-0.43995711375027896,-9.788227892518044
8.89,0.6000000238418579,158.0,23.24056434631348,-0.10337305814027786,-79.7827780030326,40.45901646378537,267.812486907959,-0.022917483001947403,-0.02603317610919476,0.9954566359519958,0.08867473900318146,-0.019262146737184304,0.0033175409779900482,-0.002036241263770134,0.0015789051540195946,-0.0012697258498519661,-0.003494367701932788,-0.552069214694202,-0.4231028069928289,-9.785273879170418
8.99,0.6000000238418579,159.0,23.23305320739746,-0.11132483184337616,-79.78277797651177,40.45901652821264,267.79341485214235,-0.022899985313415527,-0.026022842153906826,0.9954540729522704,0.088710717856884,-0.024030418001976743,0.0006925612577471031,-0.002352393942582825,-0.008349420502781868,-0.0010720285354182122,-0.012227789498865604,-0.5488374951481819,-0.4582607259973884,-9.788750048875807
9.19,0.6000000238418579,158.0,23.241817474365234,-0.09542128443717957,-79.78277794752947,40.45901652394048,267.7932613105774,-0.02288864180445671,-0.026021437719464302,0.9954521059989928,0.08873690664768219,-0.025857123191761013,0.00011224778438686992,-0.0027105699286479427,0.00759364850819111,0.0005912409978918731,0.00911529827862978,-0.5478537011146546,-0.4472568874061108,-9.787564818263057
9.29,0.6000000238418579,159.0,23.249330520629893,-0.09542128443717957,-79.78277798381396,40.459016589636136,267.77383210372926,-0.02292939834296704,-0.026018565520644188,0.9954471588134766,0.08878233283758162,-0.02020310954704311,-0.0005393740200336575,-0.0026993591137222128,0.005079406313598156,-0.0019924254156649113,-0.002566078212112189,-0.5535705969482659,-0.4426224573701621,-9.784635947942736
9.49,0.6000000238418579,158.0,23.23680877685547,-0.11132483184337616,-79.78277802113638,40.45901665828881,267.755150100708,-0.02292519621551037,-0.025991713628172874,0.9954476356506348,0.08878612518310547,-0.013019059900550129,-0.0001988423753013297,-0.0021353282002346046,0.001908175298012793,-0.0003881419834215194,0.010348613373935223,-0.5508797813951969,-0.4575639937072993,-9.787819172143935
9.59,0.6000000238418579,154.0,23.235557556152344,-0.11927660554647446,-79.78277798329394,40.45901665420188,267.7548358650208,-0.02294148877263069,-0.026017861440777786,0.9954413771629332,0.08884435147047043,-0.01947757327589076,-0.0009983674793230448,-0.0026216648129124705,0.009830130264163016,0.005271909292787314,0.010560525581240654,-0.5538348910957576,-0.4214341578260065,-9.783971119523047
9.79,0.6000000238418579,153.0,23.24557304382324,-0.09542128443717957,-79.78277801984879,40.45901670587498,267.73571231079103,-0.0229526124894619,-0.026026928797364242,0.9954400658607484,0.08885329216718674,-0.015290511438238454,0.0030069481443685555,-0.0018879651693259,-0.008992737159132956,-0.0012568396050482988,-0.006593326572328806,-0.5544664634764195,-0.4348038164153695,-9.784978594779966
9.89,0.6000000238418579,152.0,23.23931312561035,-0.09542128443717957,-79.78277800393576,40.45901677847508,267.71635796737667,-0.02295776829123497,-0.0260259211063385,0.9954383373260498,0.08887189626693726,-0.018294871420448538,0.00023302583055232308,-0.0021374338356222413,-0.003197190351784229,-0.002813070779666305,0.002516287378966809,-0.5480231972783804,-0.4356606893241406,-9.786839763522153
10.09,0.6000000238418579,153.0,23.24306869506836,-0.11132483184337616,-79.78277798216116,40.45901677554593,267.716220161438,-0.022977620363235474,-0.02602987363934517,0.9954347014427184,0.088906429708004,-0.021655873476047586,-0.0004318423142802832,-0.002332903791739168,0.0021928243804723024,-0.0015057724667713044,-0.0020603216253221035,-0.5518194289505483,-0.4236286178603769,-9.786063838005068
10.19,0.6000000238418579,153.0,23.246826171875,-0.12722837924957275,-79.78277799648356,40.45901685003385,267.69690730285646,-0.022990606725215912,-0.026041803881526,0.9954323768615724,0.08892537653446198,-0.01880943433582421,-0.0012107572906170491,-0.002053417728586593,-0.003495451994240284,-0.003235906828194857,-0.010084203444421291,-0.5508613992109895,-0.4579677074030042,-9.787352564334867
10.39,0.5,149.0,23.241817474365234,-0.10337305814027786,-79.7827779755334,40.45901684842515,267.6967790336609,-0.023017393425107002,-0.026046780869364745,0.9954306483268738,0.08893688023090363,-0.020247250539602232,-0.0015248147371967335,-0.002270279826879861,0.0041962661780416965,0.0008657724829390645,0.012158557772636414,-0.5488942496851087,-0.4560670334100724,-9.789720101952556
10.49,0.5,149.0,23.24306869506836,-0.11927660554647446,-79.78277798157367,40.459016922976936,267.67755772781373,-0.023021191358566284,-0.026044311001896855,0.9954277873039246,0.08896774798631668,-0.019582119141493413,-0.0016459325146743887,-0.002287151568869898,0.006405392661690712,0.00233889976516366,0.006821597460657358,-0.5544610913470388,-0.4277623069658876,-9.78550601363182
10.69,0.6000000238418579,150.0,23.234304428100586,-0.10337305814027786,-79.78277795525716,40.4590169209179,267.67742755126955,-0.0230171512812376,-0.026071391999721527,0.9954258799552916,0.08898314833641052,-0.02481780088096415,-0.001525285148744766,-0.0023183522297325573,-0.007647775113582611,-0.003098418703302741,-0.007098713424056768,-0.5542286279797555,-0.4401235401257873,-9.784544146656993
10.79,0.6000000238418579,150.0,23.24557304382324,-0.11132483184337616,-79.7827779357859,40.45901697662804,267.65602423858644,-0.02301303669810295,-0.02609756961464882,0.9954204559326172,0.08903660625219345,-0.027411395332990317,0.0018703140636165327,-0.005997510244781111,-0.00178654957562685,-0.004221603274345398,0.00598532147705555,-0.5481730321794749,-0.4357388958334923,-9.787495821118355
10.99,0.6000000238418579,147.0,23.22929763793945,-0.1908425688743592,-79.78277797644414,40.459017056564676,267.6372440071106,-0.023041324689984318,-0.026092279702425003,0.995416522026062,0.08907533437013626,-0.01876986506163517,0.00023457367696810426,-0.0041717923255453785,0.006594280246645211,-0.0003505359636619687,-0.005922023206949234,-0.5521278330311179,-0.4244477396830917,-9.785164536237717
11.09,0.6000000238418579,148.0,23.22554016113281,-0.198794350028038,-79.78277795443903,40.4590170534933,267.63690354537965,-0.023047180846333504,-0.026095598936080933,0.9954158663749696,0.08907920122146606,-0.0214895259575406,0.0002532713750828142,-0.0042727242332378365,0.001965066650882364,0.0032215039245784287,0.009172428399324415,-0.550432542487979,-0.4579927407950163,-9.78822730779648
11.29,0.6000000238418579,147.0,23.234304428100586,-0.17493902146816254,-79.78277797627389,40.45901711044552,267.6173269958496,-0.02305997163057328,-0.02611946314573288,0.9954118728637696,0.08911434561014175,-0.017538294018593772,0.004182112810901676,-0.00280025153643622,0.005527138244360685,0.0028432917315512896,0.013631085865199566,-0.5483589736372233,-0.4559348497912288,-9.789238876104356
11.39,0.699999988079071,151.0,23.230548858642567,-0.1908425688743592,-79.78277796098278,40.459017177922696,267.59804894638063,-0.02304791659116745,-0.02611856162548065,0.995405375957489,0.0891900360584259,-0.021235134118829168,0.002259773150840903,-0.00292228218464968,0.008383942767977716,0.005366896279156208,0.009940857999026777,-0.5547119734436274,-0.42761945217847824,-9.784977425336841
11.59,0.699999988079071,149.0,23.22053337097168,-0.22264966368675232,-79.78277793585686,40.45901717243692,267.59784772109987,-0.023059653118252758,-0.02612024359405041,0.9954057335853576,0.08918275684118271,-0.026397036142969163,0.002376456735884701,-0.0029284551265853697,-0.0101224509999156,-0.005258804652839899,-0.007880236953496933,-0.5548220838233828,-0.437946256287396,-9.784738274216652
11.69,0.699999988079071,147.0,23.22554016113281,-0.198794350028038,-79.7827779517402,40.45901723846697,267.5767944068909,-0.023082807660102844,-0.02610750682651997,0.9954026937484741,0.0892137959599495,-0.02055056602843514,0.0018819730329303946,-0.005757919872006014,-0.00671479944139719,-0.005527672823518515,-0.001013508066534996,-0.5480278019607068,-0.4381272641569377,-9.786936242580417
11.89,0.8000000119209291,148.0,23.22303581237793,-0.17493902146816254,-79.78277792856557,40.459017234099825,267.5762846679688,-0.02310271747410297,-0.026110017672181133,0.9953995347023008,0.08924359083175659,-0.0226454837694398,0.0012309291631522404,-0.006127964391965026,0.0018757914658635853,0.001898244023323059,0.0031880540773272514,-0.5508991137519479,-0.4312556894123554,-9.785870879888536
11.99,0.8000000119209291,147.0,23.22679328918457,-0.198794350028038,-79.78277794383138,40.459017312425104,267.5570256919861,-0.023116720840334892,-0.02612914890050888,0.9953944087028505,0.08929121494293213,-0.020585706531194903,6.301163047467526e-05,-0.004754217669057236,0.0009559937752783297,0.0022190988529473548,-0.003388412529602647,-0.5526796640083194,-0.4510979964584113,-9.786843856573103
12.2,0.8999999761581421,144.0,23.221784591674805,-0.198794350028038,-79.7827779178397,40.45901730888564,267.5566423149109,-0.023100048303604133,-0.026134198531508446,0.9953944087028505,0.08929390460252762,-0.02353827512412055,0.000266659405872045,-0.004765134328398503,-0.000983459991402924,0.0002997567935381085,0.0057798377238214025,-0.5514524065330625,-0.4557452172785997,-9.78800335943699
12.29,0.8999999761581421,144.0,23.231800079345703,-0.198794350028038,-79.7827779117873,40.45901736644228,267.5347278327942,-0.02310645394027233,-0.02614494971930981,0.9953921437263488,0.0893147736787796,-0.02534017632269514,0.003061152563320834,-0.007786891067749838,0.003331036539748311,-1.7423504687030803e-05,0.007944773882627487,-0.5527082422748208,-0.4231202390044928,-9.785556299686432
12.49,0.8999999761581421,143.0,23.22428894042969,-0.21469789743423465,-79.78277796418756,40.45901745590334,267.5132034034729,-0.023131469264626503,-0.026136580854654312,0.9953899383544922,0.08933496475219728,-0.01847406189513436,0.0006831085486456481,-0.011200363230303713,-0.006451778579503298,-0.0012466839980334046,-0.00896895956248045,-0.5540063606947659,-0.4216281757503748,-9.78504232943058
12.59,0.8999999761581421,142.0,23.211767196655273,-0.21469789743423465,-79.78277794310704,40.45901745300801,267.5121472091675,-0.02313431724905968,-0.026145432144403458,0.9953899383544922,0.08933158963918686,-0.01971240441606104,0.0006460768820934959,-0.01154447960144187,0.008522527292370794,0.001887498190626502,0.01080370508134365,-0.5481733245402575,-0.4573590853437782,-9.788150709271427
12.79,1.0,145.0,23.22554016113281,-0.2306014448404312,-79.78277791429375,40.45901752908637,267.4907210083008,-0.023126346990466118,-0.0261449720710516,0.9953842759132384,0.08939722925424576,-0.0254097387179654,-0.0010794592291130214,-0.0123687479880606,0.00776599021628499,0.005321191623806953,0.012133697979152204,-0.5477969831228257,-0.4531341431289912,-9.789130702614782
12.9,1.0,142.0,23.21677589416504,-0.17493902146816254,-79.782777950606,40.4590176212914,267.46899201583864,-0.023145388811826702,-0.026127705350518227,0.9953799843788148,0.08944470435380936,-0.017165455037979196,-0.003918064770082132,-0.01250175324850638,0.009664209559559822,0.002506122458726168,0.007757479324936867,-0.5542978443950415,-0.4289536040648818,-9.784918953180314
13.09,1.0,140.0,23.22428894042969,-0.20674611628055573,-79.78277792825672,40.45901762228979,267.4678456993103,-0.023173056542873386,-0.026123065501451492,0.9953777194023132,0.08946452289819717,-0.022199710087572055,-0.003646564099083138,-0.01253414889777994,-0.005312024150043726,-0.004672290291637182,-0.009287412278354168,-0.5549188552424312,-0.4342847663909197,-9.784321367740633
13.2,1.100000023841858,139.0,23.22554016113281,-0.20674611628055573,-79.78277796999734,40.459017673675724,267.4461004943848,-0.023190602660179138,-0.02613929286599159,0.99537193775177,0.08951941132545471,-0.017641887631401572,0.0025722569384720143,-0.012095510583634695,-0.011036300100386144,-0.0022212453186512,-0.006520140916109085,-0.5468270762264729,-0.4434144992753864,-9.788629011511805
13.39,1.0,139.0,23.22679328918457,-0.21469789743423465,-79.78277795015941,40.459017669539385,267.44494034957887,-0.023200027644634247,-0.026129020377993584,0.9953702092170716,0.08953919261693953,-0.018991295185644186,0.0020532043490511217,-0.012477477925588832,0.00919935293495655,0.005612584762275219,0.003261589445173741,-0.5481064104661346,-0.4384095750376583,-9.787646679282187
13.49,1.0,139.0,23.22053337097168,-0.22264966368675232,-79.78277796276069,40.459017745892574,267.4253537864685,-0.02320260368287564,-0.02611357532441616,0.995365560054779,0.08959432691335678,-0.020002466326486255,0.001002514420286274,-0.010097645673900405,0.005354016553610563,0.005650599952787161,0.002529879566282034,-0.5532577709108591,-0.4444120708107949,-9.786305328011514
13.7,0.8999999761581421,141.0,23.221784591674805,-0.21469789743423465,-79.78277793668555,40.459017741768044,267.4244349212646,-0.02318698167800904,-0.02612300962209701,0.9953653812408448,0.08959785103797913,-0.0241181406795341,0.0013020065008204642,-0.010090039151366536,-0.008487883023917675,-0.0016540376236662269,-0.0004901178181171417,-0.5529337620735169,-0.4495916806161404,-9.786588917970658
13.8,0.8999999761581421,143.0,23.22929763793945,-0.18289080262184146,-79.7827779891046,40.45901782456245,267.4060814590454,-0.023232238367199898,-0.026114484295248985,0.9953622817993164,0.08962313830852509,-0.017777212716626068,0.0010716828901544575,-0.0069451531609597645,-4.534879553830251e-05,-0.00041188724571838975,0.003551338799297809,-0.5514451340585947,-0.4281671535596252,-9.78607202410698
14.0,0.8999999761581421,142.0,23.22428894042969,-0.18289080262184146,-79.78277803370987,40.45901790554365,267.38544442367555,-0.02325014024972916,-0.026097074151039124,0.9953584671020508,0.08966660499572754,-0.01386270024666568,0.0002542155316808247,-0.009026905975371785,0.0009280633530579507,0.002111362759023905,-0.006964455358684063,-0.5528321301564575,-0.4234585369750857,-9.784724240899086
14.09,0.8999999761581421,143.0,23.22929763793945,-0.198794350028038,-79.78277801768125,40.45901790352325,267.3845975608826,-0.02324452996253968,-0.02610899694263935,0.9953563809394836,0.08968669921159744,-0.015729283829957544,0.00036243833890506057,-0.009185701990348221,0.004436429589986801,0.001919852104038,0.0090375654399395,-0.5489471304416657,-0.4574919633194805,-9.788093991279602
14.29,0.8999999761581421,142.0,23.230548858642567,-0.16698725521564484,-79.78277806766957,40.45901796325165,267.36506440353395,-0.023268364369869232,-0.026125529780983925,0.995349943637848,0.08974738419055939,-0.011513076448117093,0.0041845694636756135,-0.006256750554310504,0.005688205361366272,0.0025884795468300572,0.01205285731703043,-0.5492965015769005,-0.4591583101451397,-9.788545981049538
14.39,0.8999999761581421,141.0,23.22804450988769,-0.15108370780944824,-79.7827780698742,40.45901803478894,267.34418465805055,-0.02329265512526036,-0.026124905794858932,0.9953437447547911,0.0898096114397049,-0.015867911127381604,0.0023590120907188705,-0.008082070789163148,0.006736156530678272,0.005986213218420744,0.009796163067221642,-0.5554053435847164,-0.42233404431492094,-9.784917199015617
14.59,0.8999999761581421,138.0,23.189231872558594,0.4930099844932556,-79.78277805069982,40.459018030320884,267.34344174575807,-0.02330977469682693,-0.026128567755222317,0.9953415393829346,0.08982934057712555,-0.020709661494117758,0.002475650918886273,-0.008026129936317817,-0.007751649711281061,-0.0019035878358408809,-0.015493761748075485,-0.5543698016926647,-0.4236085180565715,-9.784723071455957
14.69,0.8000000119209291,136.0,23.20175170898437,0.10337305814027786,-79.7827781034857,40.45901811028544,267.32159735870357,-0.023329714313149445,-0.02611783146858216,0.9953407049179076,0.08983591943979262,-0.013038224687277923,-0.00010593060691622276,-0.00955223829490288,-0.009115235880017279,-0.0021340884268283844,0.00551076326519251,-0.5381082564219832,-0.4697373850643635,-9.788445993661881
14.89,0.8000000119209291,135.0,23.21427154541016,0.20674611628055573,-79.78277808876466,40.459018109466335,267.3206970901489,-0.02335150353610516,-0.02611285820603371,0.9953374266624452,0.08986864984035492,-0.014730063514288603,-0.0007988152931432432,-0.009830618935011434,0.010790879838168621,-0.00143615307752043,-0.001719341496936977,-0.5465740745142103,-0.4469657691568136,-9.786080794930461
14.99,0.8000000119209291,139.0,23.21302032470703,0.1908425688743592,-79.78277814500758,40.45901816996874,267.2984440536499,-0.023381803184747696,-0.02612975612282753,0.9953361749649048,0.08986985683441162,-0.011958176937695849,0.003523232450419943,-0.010587126436742715,0.0037806055042892686,0.0007593873888254166,-0.004430766217410564,-0.5540718129649759,-0.4456473316624761,-9.784371069073677
15.19,0.8000000119209291,138.0,23.22428894042969,0.1908425688743592,-79.78277813039618,40.4590181651593,267.297407409668,-0.023362789303064343,-0.026148470118641853,0.9953294396400452,0.08994347602128983,-0.014167333214452557,0.0033226995948576216,-0.010712532149514316,0.0010900493944063783,0.003583339042961597,0.004436155781149864,-0.5530676267668605,-0.46362719088792803,-9.788568200469015
15.29,0.8000000119209291,138.0,23.221784591674805,0.22264966368675232,-79.78277815772779,40.459018270883384,267.27462746810914,-0.023381095379590988,-0.0261289905756712,0.995326578617096,0.08997610211372375,-0.013508582515053786,-0.0021130715803627533,-0.011982893737852348,0.009679660201072693,0.0007461127243004737,0.003947844263166189,-0.5618929389864207,-0.4134621370956302,-9.787240882515908
15.5,0.8000000119209291,135.0,23.205507278442386,0.278312087059021,-79.7827782031765,40.45901834922154,267.2528794021606,-0.023410577327013016,-0.026129039004445083,0.9953258037567142,0.08997707813978195,-0.012877270265211035,-0.0011089751154649038,-0.012127571888964172,-0.0055250334553420535,-0.0044631045311689386,-0.007126084063202144,-0.5585408398881555,-0.4263575134053825,-9.782665436267854
15.6,0.8000000119209291,136.0,23.20175170898437,0.3101191818714142,-79.78277818819494,40.45901834888016,267.25171448898317,-0.023408295586705208,-0.026130694895982742,0.9953259825706482,0.08997546136379242,-0.013616998494633041,-0.0012104667004215366,-0.012295813651308244,0.011056935414671898,0.00812075100839138,0.0052687539719045145,-0.5458509566634894,-0.4579106605052948,-9.78357116997242
15.79,0.8000000119209291,136.0,22.861194610595703,3.3317933082580566,-79.78277824827211,40.45901843298642,267.22819735717775,-0.02342086844146252,-0.02612966299057007,0.9953169822692872,0.09007120132446289,-0.007347930560569238,-0.0010403926064981104,-0.012359008847408506,0.010356560349464415,0.009928555227816105,0.015743600204586983,-0.5424748108908535,-0.4269851389154792,-9.797479941844939
15.89,0.8000000119209291,137.0,23.184223175048828,0.4612028896808624,-79.78277826455971,40.459018511589754,267.2037313194275,-0.02356185019016266,-0.02630423568189144,0.9953015446662904,0.0901542752981186,-0.014119090857575716,0.0008951925536278088,-0.013572249441134105,-0.007060661911964417,0.0019388471264392138,0.012947965413331984,-0.5607207915186883,-0.4285013584792614,-9.784603788256646
16.09,0.8000000119209291,138.0,23.219280242919922,4.898292541503906,-79.78277824644819,40.459018509965475,267.20243384552003,-0.023532260209321976,-0.02626592852175236,0.9953068494796752,0.09011496603488922,-0.017196049833458925,0.0007873541567302756,-0.013900099837107549,-0.011918790638446808,-0.0005228608497418463,-0.0016977465711534025,-0.5700405954569578,-0.411070772074163,-9.79660812199116
16.2,0.8000000119209291,140.0,23.075294494628906,1.6857761144638062,-79.78277833300577,40.45901858605565,267.17705561828615,-0.02366859652101994,-0.02625387348234653,0.9952933192253112,0.09023180603981018,-0.004942193480160924,-0.0007460651295204582,-0.01440112015205515,0.02638586796820164,0.02215441688895225,0.017012568190693855,-0.5555861687287689,-0.4472294785827399,-9.824019284248353
16.39,0.8000000119209291,140.0,23.215524673461914,0.14313192665576935,-79.7827783236216,40.459018585031494,267.1757395477295,-0.02362029068171978,-0.026254745200276368,0.995295524597168,0.090219683945179,-0.007561689947531054,0.0008709068236263178,-0.01453378142088443,0.02197566255927086,-0.008866587653756142,0.018369929865002632,-0.5490028617158532,-0.5090382390841842,-9.788251281380656
16.49,0.8000000119209291,141.0,23.209264755249023,0.11927660554647446,-79.78277835766983,40.45901866697567,267.1482775421143,-0.023563288152217858,-0.026207968592643738,0.9952924847602844,0.09028258174657824,-0.011877568712690406,0.0002881257059252088,-0.015974554325679322,-0.011259271763265131,0.006700397003442049,0.00021841759735252708,-0.5416526923701167,-0.4334146276116371,-9.790294298529622
16.69,0.8000000119209291,141.0,23.052757263183594,3.2999861240386963,-79.78277834170866,40.45901866587744,267.14667823028566,-0.023495355620980263,-0.026132678613066673,0.9953011274337769,0.09022661298513412,-0.012518928370289638,-0.00042671435814041215,-0.016765360610181912,0.005864896345883608,0.005579806864261627,0.003262256039306521,-0.53732747040689,-0.476326868198812,-9.80612154185772
16.8,0.8000000119209291,141.0,22.920040130615234,4.0315494537353525,-79.78277838605807,40.45901874474592,267.12161280822755,-0.023548662662506104,-0.02611491829156876,0.995293378829956,0.09030282497406006,-0.012970213641409456,-0.0019812667787070678,-0.015216953848941174,0.012038355693221092,-0.014702667482197285,0.010598225519061087,-0.5522443022578954,-0.4589700663462282,-9.788578725457194
16.99,0.8000000119209291,141.0,22.82863998413086,6.70334529876709,-79.78277839015232,40.45901883747376,267.09603049468996,-0.02356497198343277,-0.026136651635169983,0.9952844381332396,0.09039080142974854,-0.01722861176867387,-0.00580069852293905,-0.018303511257380545,0.012994173914194107,0.01293176505714655,0.005546370986849071,-0.559425633251667,-0.4318924877420068,-9.78260930299759
17.09,0.8000000119209291,141.0,22.747257232666016,7.752979755401611,-79.78277836822441,40.45901883956609,267.09430100631715,-0.02357817441225052,-0.02616988308727741,0.9952803254127502,0.09042303264141084,-0.021201224626133903,-0.004965286948139761,-0.016968582205021482,-0.015817640349268913,0.005466464906930924,-0.003537423443049192,-0.5703327004238964,-0.3941446176543832,-9.785741656422617
17.29,0.8999999761581421,140.0,22.58574295043945,10.297547340393066,-79.78277843458858,40.45901892056769,267.0660770149231,-0.02388012781739235,-0.026206763461232185,0.995286464691162,0.09026540815830232,-0.012852524220977156,-0.002230578788122274,-0.0184097864667306,-0.06816014647483826,-0.04470489174127579,0.01501117739826441,-0.5634191353619099,-0.3639549681544304,-9.824740830659868
17.4,0.8999999761581421,141.0,22.50310707092285,11.283567428588867,-79.78277845619473,40.45901900779258,267.04030158233644,-0.02444637566804886,-0.025364244356751442,0.9952897429466248,0.09031820297241212,0.001467021285055716,-0.008080987472170249,-0.017000914570292375,0.08645612001419067,0.07325483858585358,-0.023506758734583855,-0.5984772497043014,-0.5075507439672947,-9.779250077605248
17.6,0.8999999761581421,140.0,22.260210037231445,14.209819793701172,-79.78277844015767,40.45901901556177,267.0389435501099,-0.02492111176252365,-0.02442128770053387,0.99531751871109,0.09014247357845306,-0.01753513370004753,-0.007692417627319222,-0.008627661396927002,-0.02593391388654709,0.04842434450984001,0.05005335435271263,-0.5600500427931547,-0.5260555369779468,-9.85588427066803
17.69,0.8999999761581421,140.0,22.193851470947266,16.030776977539062,-79.78277856979606,40.45901915253438,267.0055711479187,-0.026932943612337112,-0.02198079600930214,0.9952983856201172,0.09040239453315736,0.002094229563849968,-0.009590044797095864,-0.015608302209040059,-0.04627622291445732,0.006964601110666989,0.07812449336051941,-0.4945303834229708,-0.2560827929154039,-9.80092921435833
17.89,1.0,138.0,21.981002807617188,19.27510070800781,-79.78277857164335,40.45901915104968,267.004089138031,-0.02640698477625847,-0.020764157176017758,0.9954354166984558,0.08933032304048537,0.0027823960729802697,0.0031163482739735675,-0.010854387825861707,-0.04037073999643327,0.06295667588710785,-0.0900588184595108,-0.43828481007367376,-0.4976505307853222,-9.831825317144396
17.99,1.0,137.0,21.868318557739254,20.85750389099121,-79.78277868207988,40.45901915910765,266.97775246810914,-0.02019497752189636,-0.014298096299171446,0.9965493679046632,0.07922892272472383,0.05001263376349742,0.06818893158638692,0.023603444167452768,-0.15105514228343964,0.0038966254796832796,-0.0236438550055027,-0.15593572145327927,-0.3863457475975156,-9.86472993850708
18.19,1.0,137.0,21.665485382080078,24.01435661315918,-79.78277877958101,40.4590190934061,266.9832055778504,-0.013479595072567465,-0.01044744160026312,0.9970144033432008,0.07530974596738815,0.08100302549878634,0.09938657857131464,0.09435157804176417,-0.20967447757720947,-0.014966485090553759,0.05371459946036339,-0.05671386223286391,-0.05846386078745128,-10.38489356517792
18.29,1.100000023841858,137.0,21.97348976135254,17.136072158813473,-79.78277902256177,40.459019113992255,266.9872577400208,0.0060254763811826715,-0.00021853846556041392,0.997409999370575,0.07167328894138336,0.10425662886854302,0.11853878416160235,0.2281598387634365,-0.10089939087629317,0.1849623322486877,-0.06733967363834381,0.018799556633457545,0.18152454413473607,-10.813382205963137
18.49,1.100000023841858,129.0,21.90462684631348,19.83172416687012,-79.78277932563095,40.45901893105937,266.9794161529541,0.009559536352753641,0.0063289464451372615,0.997401237487793,0.07112890481948853,0.10063998959668992,0.13215705081693455,0.1953144624174876,0.00080482242628932,0.00036977743729949,0.011255229823291302,0.2639495637640357,0.21797142701223493,-9.94042214512825
18.59,1.100000023841858,128.0,21.87833404541016,20.14979553222656,-79.78277958374706,40.459018740053494,267.01663138580324,0.005879791919142008,0.008835926651954651,0.997529149055481,0.06944800913333893,0.09329905739669286,0.118879329207339,0.15780507037579156,0.05422216281294824,-0.053127698600292206,-0.004693327005952597,0.2623621360771358,0.2870771654695273,-9.820844246149065
18.79,1.2000000476837158,129.0,21.805715560913086,21.000635147094727,-79.78277966469857,40.45901874054732,266.994624874115,0.0059473463334143144,0.00794602558016777,0.997573971748352,0.06890400499105452,0.10550946030820174,0.13044879892873187,0.0869175369626449,0.028242878615856167,-0.07921019196510315,-0.04426265135407448,0.15982801191508772,0.1456864569056779,-9.533296306729317
18.89,1.2000000476837158,130.0,21.83451271057129,20.626901626586914,-79.78277999542252,40.459018643534975,266.9837205619812,0.0056843762286007396,0.0026337455492466692,0.997584342956543,0.06918275356292725,0.10743206622792384,0.10991011383706327,0.058255774671282665,0.04037020355463028,0.006516427733004093,0.0005389251164160669,0.1474590494669974,0.11224255780689417,-9.560540823340416
19.09,1.2000000476837158,132.0,21.785682678222656,21.597017288208008,-79.78278013289966,40.45901855832082,266.9897845001221,0.006008691154420376,0.004752499982714653,0.997511863708496,0.07008153945207596,0.09638575186885924,0.11018711639956537,0.05248201933716353,-0.016201423481106758,0.0349472239613533,-0.030595907941460613,0.16855512745678425,-0.02295324961189181,-9.678782633543015
19.19,1.2999999523162842,134.0,21.64545249938965,22.69436264038086,-79.7827804379677,40.45901847548132,266.9803121299744,0.01177797932177782,0.009014824405312538,0.9972557425498962,0.07253362983465195,0.0915503872428683,0.11257294891333318,0.06759217453902906,-0.04579237475991249,0.021119732409715646,0.003912417683750391,0.0735310300346464,-0.06700148542877286,-9.662247292399408
19.39,1.2999999523162842,134.0,21.680509567260746,21.676536560058594,-79.78278055828862,40.4590183916488,266.9881389350891,0.01244202721863985,0.008329613134264946,0.997175395488739,0.07360034435987473,0.07630136155744897,0.10517651947019337,0.07767857101758324,-0.03000491484999657,-0.0332789309322834,-7.429780816892162e-05,0.15254322174936533,0.0360166420089081,-9.925945608615876
19.49,1.2999999523162842,135.0,21.74436378479004,20.746177673339844,-79.78278080146212,40.459018346597816,266.9863665313721,0.016544556245207787,0.01011987030506134,0.9970577359199524,0.07416091859340668,0.05218984137216382,0.07802847602806304,0.09733997295289623,0.02634531445801258,0.06481799483299255,-0.02004995010793209,0.0013019488030113278,0.2287376859225333,-9.90037105679512
19.69,1.2999999523162842,135.0,21.67424964904785,22.29677391052246,-79.78278085935767,40.459018288954226,266.99620892715456,0.015559661202132704,0.011630243621766569,0.9970504641532898,0.07424978911876677,0.0415474915313042,0.06094270848392161,0.09603681337132328,0.11417222023010255,0.07812105119228363,-0.0258747860789299,0.11695738705806435,0.09977954654954374,-9.8474841606617
19.8,1.2999999523162842,135.0,21.62541961669922,21.85147476196289,-79.78278103146489,40.45901826857421,266.9952795715332,0.018539499491453167,0.012525858357548714,0.9969854354858398,0.07429377734661102,-0.006966726934444007,0.045616397857638484,0.1345277278504263,-0.06270753592252731,-0.01298572588711977,0.042684122920036316,0.1846229837089777,-0.13606449809856713,-9.975225942134855
19.99,1.2999999523162842,136.0,21.580345153808594,22.718217849731445,-79.7827812408497,40.45901832114103,266.97619607162477,0.019018759950995445,0.01305662002414465,0.9969627857208252,0.07438481599092484,-0.003310207992809473,0.039083930178232036,0.1540001858813435,-0.060211949050426476,-0.03968289494514465,-0.04904599487781525,0.1959905556589365,0.16778747940436006,-9.976127582788466
20.09,1.2999999523162842,135.0,21.64169692993164,21.23123550415039,-79.78278122889083,40.45901830237453,266.99250008773805,0.017118772491812706,0.013064478524029257,0.9969882369041444,0.07450412213802338,-0.03316246371449725,0.01975423332153935,0.17453044986733499,-0.0816243514418602,-0.06722206622362137,-0.05248481035232544,0.0680038398038596,0.2004975529387593,-9.96825956940651
20.29,1.399999976158142,132.0,22.12123107910156,16.555593490600586,-79.78278112317442,40.459018329028304,266.999658367157,0.01790499500930309,0.011679603718221188,0.9969774484634399,0.0746924951672554,-0.06473172248895218,-0.011404255936555831,0.18690134932455632,0.09520991891622543,0.025078603997826576,-0.005250049289315939,0.18887785635888574,0.007751809107139706,-9.773008759617806
20.39,1.2999999523162842,133.0,21.606639862060547,23.23508262634277,-79.78278126876553,40.45901842697032,267.0041415901184,0.004296920262277125,0.0047726845368742925,0.9971935153007508,0.07459235936403275,-0.05392070543258822,-0.029387415133997445,0.010561546002417332,0.19667306542396545,-0.1957757472991944,-0.05089708790183066,0.21169060377404086,0.18191210489720108,-8.809050820469858
20.59,1.2999999523162842,131.0,21.341203689575195,27.71988296508789,-79.78278119702287,40.45901845564449,267.00534035873414,-0.00420142849907279,0.00044645057641901087,0.9972031712532043,0.07461961358785629,-0.052755853837468863,-0.03898235675999584,0.030933429520581413,0.090761199593544,-0.05945447087287903,0.03357722610235213,0.11109084818512202,0.05109849781729281,-9.873912405967712
20.69,1.2999999523162842,129.0,21.1846981048584,27.9266300201416,-79.78278112790656,40.4590184808576,267.0125601501465,-0.004995155613869429,-0.0013280449202284215,0.9972233772277832,0.07428939640522003,-0.039593535281388335,-0.030161166129000886,0.12212075186171208,0.011502908542752266,0.018816402181983,0.02208614535629749,0.13851235270500184,0.05405477696098388,-10.524964785575866
20.89,1.399999976158142,131.0,21.099557876586914,29.2863826751709,-79.78278114681048,40.45901845060854,267.06622388076784,0.0030716534238308672,-0.00017852988094091415,0.9972655773162842,0.07383809983730316,-0.03135339575713767,0.001942519716986894,0.4534523665758669,-0.0974489077925682,-0.009588361717760565,0.014214233495295046,0.1259859082940966,0.07693196251988411,-11.309675159454349
21.0,1.399999976158142,127.0,21.019428253173828,31.73552894592285,-79.7827812771365,40.45901855164664,267.0818217010498,0.007192204706370831,0.0015653102891519664,0.9972416758537292,0.07385822385549545,-0.02965910235066848,0.007947811406023884,0.6091866988895063,-0.04737996309995651,0.01681729033589363,-0.017635758966207504,0.2264707021415233,0.1228276992123574,-11.60420175075531
21.19,1.5,126.0,20.99689102172852,32.04565048217773,-79.78278119021759,40.459018515427644,267.2452342720032,0.009058021940290928,0.003828511107712985,0.9972045421600342,0.07407117635011673,-0.02251167277694949,0.022521535104395942,1.035087231903814,0.11305226385593414,0.029317732900381088,0.14372403919696808,0.1804451481252909,-0.048105883710086346,-11.994168934822085
21.29,1.5,127.0,20.765260696411133,35.39334487915039,-79.7827811479835,40.45901858298319,267.32192113113405,0.007299964781850576,0.005996675696223974,0.9971919655799866,0.07429012656211853,-0.028541721542966417,0.022029342950330752,1.235057689777864,0.06592319160699844,0.10900991410017014,0.022406361997127533,0.1660715226083994,0.039889271208085116,-12.026878259181974
21.49,1.600000023841858,127.0,20.72018814086914,35.77503204345703,-79.78278103934032,40.459018651646616,267.5815050811768,0.0043871463276445866,0.004904599860310554,0.9971733689308168,0.07484699040651321,-0.04719779337310249,0.03406470224913812,1.718464341086951,0.05498979240655899,-0.05856477841734886,-0.005682447459548712,0.2386037477105856,0.14001040935516354,-12.415823349952698
21.59,1.600000023841858,129.0,20.85916519165039,32.96010208129883,-79.78278096160051,40.4590186317733,267.765949508667,0.003492530202493072,0.002210594480857253,0.9971804618835448,0.0749271884560585,-0.04935546696025329,0.037737013344870896,1.9699811995173429,0.07393688708543777,-0.08030389994382857,-0.013929876498878002,0.25704186419025066,0.11487977083772424,-12.348624808788301
21.79,1.7000000476837158,129.0,20.63003921508789,33.858654022216804,-79.78278082344063,40.45901871816621,268.14230420303346,0.003465002402663231,-0.0003649179416242987,0.9971746206283568,0.07503829151391983,-0.0567517411753797,0.0333186273577356,2.404488437563409,0.012094932608306408,-0.029568847268819805,-0.015855483710765842,0.14945923576131465,0.1188550003990531,-12.188470741510393
21.89,1.8999999761581416,128.0,21.01191520690918,29.42156410217285,-79.78278074482779,40.45901868122043,268.3958220691681,0.004504961427301168,0.0012857175897806885,0.9971290230751038,0.07557700574398041,-0.05248512104705223,0.046434896221808034,2.6555028908085294,-0.02566174790263176,-0.07053501158952713,0.04303482174873352,0.2373395614139736,0.036603040080517533,-12.214270995855331
22.09,2.200000047683716,124.0,21.06450080871582,29.26252746582031,-79.78278061503373,40.4590188257239,268.82431676101686,0.006534200627356768,0.0027738369535654783,0.9969979524612428,0.07710175216197968,-0.04863932197081595,0.06446861544026483,2.8727518612229512,-0.06652004271745683,-0.09186185896396636,-0.05176377296447754,0.14911482562310993,0.17495717078447345,-11.194164583683014
22.19,2.4000000953674316,123.0,21.05072784423828,28.880842208862305,-79.78278052784322,40.45901914507653,269.1548438282013,0.00778208440169692,0.0016005251090973616,0.9968724250793456,0.0786285400390625,-0.04683383299950025,0.04937371391877487,2.8745549735081384,-0.06546086817979813,-0.0697299912571907,0.042077966034412384,0.19018956955522304,0.1047034868504852,-10.863140841722489
22.39,2.4000000953674316,122.0,21.204730987548828,27.44157218933105,-79.78278043813751,40.4590191168178,269.4432721347809,0.009775808081030846,0.0010632587363943458,0.9968305230140686,0.07894424349069595,-0.04554693669239791,0.04510068245371873,2.9108490015757917,-0.02183283679187297,-0.0486065037548542,-0.0046586967073380964,0.10651831640861928,0.0810012682992965,-10.24245188355446
22.49,2.5,120.0,21.229772567749023,26.09772109985352,-79.78278050648694,40.45901959739423,269.40746714782716,0.009384558536112309,0.0018586033256724481,0.9968274831771852,0.07901641726493835,-0.0100082747961219,0.0077975979703492375,2.691897300201732,0.1998702883720398,0.06302855163812637,0.07200814038515091,0.24196103621274234,-0.06235387631691992,-10.027735108137133
22.69,2.799999952316284,119.0,21.288618087768555,24.83338928222656,-79.78278031692386,40.459019560585865,269.9466011734009,0.0045384494587779045,0.0031693563796579838,0.9968763589859008,0.07878347486257553,-0.05730131795719515,0.028635778516626187,2.692429152804195,-0.003872742177918553,0.002473508706316352,0.005555336829274893,0.14735578215681014,0.09390380744822324,-9.780724745392801
22.79,2.799999952316284,117.0,21.31866836547852,24.865196228027344,-79.78278039206498,40.459020691537965,269.86824848365785,0.0032505039125680928,0.004710845649242401,0.9968472123146056,0.07913873344659805,-0.034317229495669344,-0.03955872982133921,2.310920144962932,0.06912218034267427,0.04808996245265007,0.04115954786539079,0.11942371521145105,0.03169850979465992,-9.662520357370376
22.99,2.9000000953674316,114.0,21.314910888671875,24.57893371582031,-79.78278033006099,40.45902079881868,270.2109232158661,0.0028487702365964647,0.0053635938093066216,0.9968143105506896,0.07952636480331421,-0.029717766595804936,-0.04849475335933605,2.3398002112301852,0.12099211663007735,0.08387751132249832,0.04684269800782204,0.19167176563292745,-0.05653540338389576,-9.557862213850024
23.09,2.9000000953674316,114.0,21.31616401672364,24.03821182250977,-79.78278025485456,40.45902085115684,270.44349636745454,0.004316806793212891,0.005653522908687592,0.9967896938323976,0.07974813133478165,-0.034302619339211984,-0.04685370984948874,2.3092055821881763,0.08179403096437454,0.08152227103710175,0.02164450846612453,0.17673775758594276,-0.02686150571331382,-9.538160020709036
23.29,3.0,116.0,21.281105041503906,24.45965576171875,-79.78278007543304,40.45902083093032,271.04444398593904,0.006893795914947987,0.0063121761195361606,0.9967736601829528,0.07971835136413574,-0.022753325859928158,-0.039867486881342167,2.332219474752267,0.06228116154670715,-0.0007607979932799933,-0.0037814767565578227,0.0893075579032302,0.07282797087449581,-9.53649941146374
23.39,3.0,116.0,21.322423934936523,25.23892974853516,-79.78278000285427,40.45902088464905,271.27631809425355,0.005913228262215853,0.006317321211099625,0.9967938065528872,0.07954411208629608,-0.024234640968041045,-0.04145666300413591,2.3076093595504457,0.06104953587055206,-0.017641497775912285,0.008723488077521324,0.10609178029932084,0.05924282868392765,-9.562404330968855
23.59,2.700000047683716,121.0,21.301137924194336,25.23892974853516,-79.7827798881048,40.4590208975111,271.82160671663286,0.0030220139306038627,0.008168794214725494,0.9967995285987854,0.07946638762950897,-0.039927938196004965,-0.042032001808316316,2.306942921640853,0.0018117256695404649,0.03712106123566628,-0.004429440945386887,0.10890604519285264,0.005023379512131215,-9.647404135465623
23.69,2.5999999046325684,124.0,21.328683853149414,24.58688545227051,-79.78277980338395,40.45902095897861,272.05133744192125,0.0035136197693645954,0.00907987728714943,0.9967568516731262,0.07988166064023973,-0.04376471230231356,-0.044415569531343714,2.2874393986525834,-0.010599635541439056,0.04185540974140167,0.055644501000642776,0.1154586086422205,-0.048176794904284184,-9.624001239538194
23.89,2.5,130.0,21.272340774536133,25.10375022888184,-79.7827795652187,40.45902105632482,272.58270228517057,0.0038766616489738226,0.008578783832490444,0.9967084527015686,0.080521360039711,-0.05008992571177818,-0.0523892738930544,2.281640686011938,0.006442731712013483,-0.010524097830057144,0.02479454502463341,0.07487229907885194,0.06396587144583464,-9.636653444767
23.99,2.4000000953674316,131.0,21.276098251342773,25.024232864379893,-79.78277932917176,40.459021029535776,272.899641415596,0.0032439816277474165,0.009070762433111671,0.9967126250267028,0.0804445818066597,-0.06544800432212518,-0.05668886901152706,2.318861272213551,0.03331338614225388,-0.015419485047459602,0.007587387226521969,0.10160411537624896,0.033096291264519094,-9.732119765281675
24.19,2.200000047683716,135.0,21.23352813720703,25.087846755981445,-79.78277910042227,40.459021181065545,273.36069997262956,0.0008203910547308624,0.010437006130814552,0.9967429637908936,0.07996216416358948,-0.06191857920613299,-0.06866564427532945,2.286150818675849,0.1355280727148056,0.04060836136341095,0.037461042404174805,0.2399129758402705,-0.08271908889524639,-9.703001800775526
24.29,2.0,140.0,21.189706802368164,25.914831161499023,-79.78277901929401,40.45902114872632,273.7129986495972,-0.0003550059045664966,0.010776852257549764,0.9967523217201232,0.07980316877365112,-0.06418269073216301,-0.0663920610569713,2.3365617850616656,0.09907216578722,0.03228798881173134,0.09179164469242096,0.20610472211614253,-0.0933179073035717,-9.74638755619526
24.49,1.8999999761581416,149.0,21.258569717407227,24.01435661315918,-79.78277869525009,40.45902107841929,274.34632124614717,0.0009454450919292867,0.010924283415079115,0.9967045187950134,0.08037365227937697,-0.08294792855182709,-0.05667054162453579,2.412403040571681,-0.07028650492429732,-0.022738704457879063,-0.023743288591504097,0.08563137687742711,0.1251692075841129,-9.772770777940753
24.59,1.7000000476837158,152.0,21.262325286865234,25.31049728393555,-79.78277858792707,40.459021160048906,274.5873072357178,0.0009883882012218237,0.011831036768853664,0.9966839551925659,0.0804998055100441,-0.07715012541185262,-0.06179720944004913,2.405333991164676,-0.08544251322746277,-0.04842444881796837,-0.010231003165245056,0.07875333365052939,0.14044514983892442,-9.701872703433036
24.69,1.5,159.0,21.21975517272949,25.68422889709473,-79.78277848607931,40.45902125834305,274.8265969963074,0.0004917060141451657,0.012335246428847313,0.9966762065887452,0.08052460104227066,-0.0716314663661281,-0.06596570188841859,2.3879528093537736,-0.07074093073606491,-0.03499481081962585,-0.010799138806760313,0.14513914838433267,0.07834611162543298,-9.672644226551057
24.9,1.399999976158142,166.0,21.215999603271484,25.087846755981445,-79.78277733105473,40.45902058057179,275.88864090156557,-0.0003454482648521663,0.00879632867872715,0.9967433214187622,0.08015799522399902,-0.11617388065361545,-0.03397986560117108,2.5257517995261685,0.09993954002857207,0.03225772827863693,-0.0021308690775185823,0.18766788471490145,-0.02290985687635839,-9.783646014332774
25.09,1.2000000476837158,174.0,21.281105041503906,24.730016708374023,-79.78277718255809,40.45902063868344,276.1413991661072,-0.0015182053903117776,0.007987762801349163,0.9967462420463562,0.08019208163022995,-0.1155979559677872,-0.044020115676733126,2.5309673753329154,0.07661574333906174,0.0011627038475126028,-0.0018964384216815235,0.15355363888666035,0.08833861031569541,-9.838893431425095
25.19,1.100000023841858,180.0,21.27359390258789,24.252910614013672,-79.78277704045469,40.459020699452076,276.39405801010133,-0.0024651188869029284,0.007923218421638012,0.9967459440231324,0.0801796093583107,-0.11520661925138745,-0.04865370436993472,2.520322432045809,0.02928049862384796,0.010724491439759731,0.015148418955504894,0.16703136133030058,-0.013200431945733726,-9.754640901088717
25.39,0.8999999761581421,194.0,21.26357650756836,24.563030242919922,-79.78277715497579,40.45902054124705,277.13733937454225,-0.0013107164995744824,0.008350871503353119,0.9967324137687684,0.08033152669668198,-0.08223109709320772,-0.026760119124875286,2.5821798407006846,-0.004545541945844889,-0.012814298272132874,0.008204230107367039,0.11353118363767865,-0.1124522627145052,-9.58951436161995
25.49,0.8000000119209291,198.0,21.162160873413086,26.216999053955078,-79.78277719681745,40.4590202987393,277.85766246032716,0.0009835432283580305,0.009262975305318829,0.9966537356376648,0.08120687305927278,-0.05024521865693184,-0.002292969252990152,2.6512571439266734,-0.02897180244326592,0.03036530874669552,-0.031485434621572495,0.07797858671285213,-0.016409324510023,-9.595189084410668
25.69,0.699999988079071,209.0,21.209739685058594,24.3801383972168,-79.78277713610555,40.45902033809517,278.1229198188782,0.0009241583757102493,0.009228846058249474,0.9966131448745728,0.0817083865404129,-0.04842085848708096,-0.0008819922640316766,2.65755578192943,-0.04791037738323212,-0.043113019317388535,-0.04633608087897301,0.11674484990537168,0.20686155281960966,-9.806779938340187
25.79,0.699999988079071,212.0,21.24855232238769,24.904956817626953,-79.78277724505494,40.459019885108646,278.5530297966004,-3.237304918002337e-05,0.008379825390875341,0.9965817928314208,0.08218660950660706,-0.042154185004951,0.035694656786946305,2.727681477718676,-0.056857440620660775,-0.02357804402709008,-0.0152181014418602,0.16372401170432568,0.11933263569138945,-9.765440123677257
25.99,0.699999988079071,211.0,21.249805450439453,24.45965576171875,-79.78277677945097,40.459019589615394,279.1144774169922,0.00017886605928651989,0.007945910096168518,0.9964932799339294,0.08329489082098007,-0.06446195015529649,0.046149359020751776,2.7030193294331624,-0.027748268097639084,0.03446448966860771,0.053000494837760925,0.11802235689014196,-0.04964368315413595,-9.672902673482897
26.09,0.699999988079071,209.0,21.155900955200195,25.01628112792969,-79.7827767056322,40.45901957429279,279.3840735168457,0.00034005509223788977,0.008935335092246529,0.9964587688446044,0.08360598981380463,-0.06109977832227026,0.04383525351953728,2.6858077063805585,-0.02161427773535252,0.03492869809269905,0.047816239297389984,0.132479643272236,-0.05393856354989112,-9.652538575530052
26.2,0.699999988079071,210.0,21.163414001464844,25.40591812133789,-79.78277663274419,40.459019567207434,279.6522076339722,0.0014523520367220044,0.010620626620948316,0.9964145421981812,0.08392361551523209,-0.06583979641150353,0.04536243659791929,2.6779806016866634,-0.05597647652029991,0.0216725692152977,-0.0016915325541049242,0.1316307646036148,0.011743000881979243,-9.713884638547896
26.39,0.6000000238418579,207.0,21.15464973449707,25.270736694335927,-79.78277674323886,40.45901943330408,280.5536282272339,0.002887441776692868,0.008376194164156914,0.9964051246643066,0.08425217121839522,-0.014228548269612153,0.04323105296620836,2.7406415032072635,0.053601499646902084,-0.04538578912615776,0.059109676629304886,0.23767915673553944,-0.010990248383022844,-9.887287327051164
26.59,0.699999988079071,203.0,21.148387908935547,26.42374420166016,-79.78277670523515,40.45901944258695,280.8277733535767,0.0015460748691111805,0.006526575423777103,0.9964026808738708,0.0844794362783432,-0.02269816301349756,0.032837261349966056,2.7412249145275402,-0.033425841480493546,-0.057979680597782135,0.005555426701903343,0.0599812360899523,0.1007046034745872,-9.791957246661187
26.69,0.6000000238418579,211.0,21.268585205078125,24.14953804016113,-79.78277666416334,40.45901945214789,281.10197188568117,0.001148478826507926,0.00566310016438365,0.99641215801239,0.08443646878004074,-0.03787299948930748,0.02610983349475088,2.7472791190225587,-0.15033957362174988,-0.05530907958745957,-0.05933716520667076,0.01857208167202771,0.15737261988222598,-9.792243175506592
26.89,0.699999988079071,205.0,21.088289260864254,28.04590606689453,-79.78277660159486,40.459019142527936,281.6736691207886,0.002103308215737343,0.005821229889988899,0.996472418308258,0.08369304239749907,-0.037581673910205296,0.05022434216575798,2.7404310588650427,-0.11204678565263748,-0.04318814352154732,-0.06998137384653091,0.08561025381088258,0.1409030233696103,-9.763835647702217
26.99,0.699999988079071,202.0,21.143381118774414,24.539175033569336,-79.78277674676795,40.45901908341147,282.26099421691896,0.003240990219637752,0.007076219655573369,0.9964796304702759,0.08347394317388535,-0.017496363745409558,0.0580067946080981,2.786996599101842,-0.061038687825202935,0.031183641403913494,-0.033501435071229935,0.16970014018937946,0.020689822125714272,-9.944864859580994
27.19,0.699999988079071,201.0,21.168420791625977,24.58688545227051,-79.78277672244138,40.45901906127192,282.5397417755127,0.004527464974671602,0.008085105568170547,0.9964534044265748,0.08363563567399979,-0.02225079789243104,0.0678244809920964,2.790569624802416,-0.14311635494232178,-0.019764143973588943,-0.08151064068078995,0.11518531526438892,0.20476982105523348,-9.827802432775496
27.29,0.699999988079071,194.0,21.08077812194824,25.24688148498535,-79.78277689656531,40.45901909534706,282.8414356918335,0.004490395076572895,0.008889500983059406,0.996423840522766,0.08390670269727707,0.008751313750625838,0.06385881547407593,2.7848364938147205,-0.09916436672210692,-0.02582796849310398,-0.04183084890246391,0.1580073899589479,0.11196367302909492,-9.742326080203057
27.49,0.699999988079071,200.0,21.10456657409668,25.73194122314453,-79.78277729008114,40.4590190229563,283.42454936218263,0.004216499160975218,0.007238688878715037,0.9963760972023008,0.08464350551366806,0.05211605975001015,0.06467461954772875,2.7803192159052204,0.021440485492348667,0.01839678362011909,0.00753813236951828,0.19234808748587967,-0.08135595674626529,-9.78583345770836
27.59,0.699999988079071,204.0,21.152145385742188,25.23097801208496,-79.78277732264311,40.459019011713146,283.702979347229,0.004739668685942888,0.005424673669040203,0.9963542819023132,0.08500809222459793,0.045284332460440516,0.05824788854565832,2.7861828372104167,0.04023654758930206,0.00150932592805475,0.006253178231418133,0.14613774318248035,0.004119902467355132,-9.845588493347169
27.69,0.6000000238418579,208.0,21.11082649230957,25.811458587646484,-79.78277734963442,40.45901899786882,283.98193385314937,0.004192653112113476,0.004467064514756203,0.996341109275818,0.0852464884519577,0.04004996509927212,0.051878320935763535,2.7908239763534954,0.03785659745335579,-0.03710290044546127,-0.016480902209877968,0.0893146293796599,0.06388543568551541,-9.825055410861973
27.89,0.6000000238418579,207.0,21.11458396911621,25.382062911987305,-79.78277747426354,40.459018949471606,284.8775103302002,0.0030477512627840038,0.005947253666818142,0.996326208114624,0.08537877351045609,0.04316411704575311,0.03822901836880309,2.8204710459474267,0.11214648187160492,0.07285065203905106,0.053322870284318924,0.16377658182755114,-0.16428028291091326,-9.889404019117356
28.09,0.699999988079071,211.0,21.15464973449707,24.94471549987793,-79.78277749980933,40.459018941699206,285.1598856658936,0.0043814023956656465,0.006876640021800996,0.9963024258613586,0.08552832901477814,0.03914589179167455,0.046897751840464436,2.822525210538048,0.1123381406068802,0.0351717434823513,0.008492974564433098,0.1920587416738272,-0.055645662727765735,-9.82521913290024
28.19,0.699999988079071,206.0,21.07576942443848,25.962541580200195,-79.78277752015742,40.45901893114096,285.4421093673706,0.004866448696702719,0.007145029958337545,0.9963005185127258,0.08550242334604262,0.03772845722400395,0.05359389255249064,2.816936552512443,0.09698802977800368,-0.01928364858031273,0.036350712180137634,0.2022750516794622,-0.04393308678176254,-9.787676500082016
28.39,0.8999999761581421,207.0,21.205982208251953,22.91701316833496,-79.78277756157391,40.459018941459796,286.03570201110836,0.003972131293267012,0.005569920409470797,0.9963235259056092,0.0853966623544693,0.03918553510851997,0.0456730050025258,2.8217340080897486,0.05524725094437599,0.013110244646668434,0.03620031848549843,0.1879549464583397,-0.07379580840468407,-9.810878251791001
28.49,0.8999999761581421,204.0,21.17092514038086,24.491464614868164,-79.78277771723674,40.459018839163505,286.64053179931636,0.0021254781167954206,0.0035731571260839705,0.9963422417640686,0.08535214513540268,0.03254967213673243,0.04501118656992351,2.8045306906368173,0.002622210420668125,-0.06583290547132492,-0.037471603602170944,0.11608218678273262,-0.012963003013283014,-9.672411507368087
28.69,0.8999999761581421,208.0,21.139623641967773,25.62856674194336,-79.78277774124076,40.459018826791,286.9199097366333,0.0019859294407069683,0.003331154584884644,0.996349036693573,0.08528486639261246,0.02209639410373881,0.042695298973395,2.7894303850418507,-0.025242187082767487,-0.03033108823001385,-0.08203426003456116,0.06692507419735194,0.060369546026922766,-9.642324659228326
28.79,0.8999999761581421,204.0,21.1208438873291,25.5649528503418,-79.78277784665019,40.45901876217909,287.2446463317871,0.002759378170594573,0.004200143739581108,0.9963381886482242,0.0853525921702385,0.027128961945304314,0.04674331922943485,2.8077154659382595,-0.028525063768029213,0.007010712753981353,-0.05112944915890694,0.1506599980406463,0.03820267839822918,-9.764330322146415
28.99,0.8999999761581421,205.0,21.15464973449707,25.07194328308105,-79.78277792000164,40.45901863556504,287.84687354278566,0.004282274749130011,0.006965699605643749,0.9962672591209412,0.0859348475933075,0.03848651344562126,0.06398599617423112,2.8220123538716466,0.002120671095326543,0.0493212454020977,0.01969947107136249,0.13426685387268664,0.04641224683262408,-9.775503181815148
29.09,0.8000000119209291,200.0,21.158405303955078,25.30254554748535,-79.78277794525633,40.45901861028217,288.1291439743042,0.004315196536481381,0.007596551440656184,0.9962242245674132,0.08637724071741104,0.028119588333657918,0.0755996668149355,2.8229332015974813,-0.08291500061750412,-0.009893585927784443,-0.03610106185078621,0.11645731307566165,0.11797980925999582,-9.77581659257412
29.19,0.8999999761581421,191.0,21.03695678710937,26.185192108154297,-79.78277796299538,40.45901858500788,288.4109995574952,0.004287381656467915,0.00757693639025092,0.996207594871521,0.08657246828079224,0.026001813472376463,0.07481014230306382,2.8151119995168363,-0.039998795837163925,-0.029412832111120224,-0.0041038841009140015,0.11999097735621035,-0.027206728979945183,-9.76379822552204
29.39,0.8999999761581421,187.0,21.065753936767575,26.16133689880371,-79.78277789621563,40.45901842190323,289.3394587249756,0.005161570850759746,0.005309395492076875,0.9961735010147096,0.0870843380689621,0.0124960524108817,0.054680254709169165,2.8772745829326265,0.06437117606401442,-0.06282244622707367,-0.009267067536711693,0.2134653250873089,-0.11538864305242895,-9.904386924505236
29.59,0.8999999761581421,186.0,21.009410858154297,26.9724178314209,-79.78277787666427,40.459018403466295,289.6276419372559,0.0040031964890658855,0.004676754120737314,0.9961643815040588,0.08728541433811188,0.005860105571674053,0.04978222688126401,2.8848811043213147,0.0412377379834652,-0.018308399245142937,-0.004247865173965693,0.16073853302747013,-0.031736539537087084,-9.916689466238022
29.69,0.8999999761581421,184.0,21.09455108642578,24.69025802612305,-79.7827778494372,40.459018381907526,289.91723277282716,0.003318125149235129,0.003988189622759819,0.9961404204368592,0.087620809674263,-0.0021387438667369125,0.04975582848978183,2.9063249193526124,0.06369227916002274,0.03280305489897728,0.04103285074234009,0.1357412475720048,-0.08369617690332233,-9.995466663837432
29.89,1.0,186.0,21.11458396911621,24.9924259185791,-79.78277789245658,40.45901823581522,290.52458407592775,0.0029004837851971392,0.004431166686117649,0.9960851073265076,0.08824057132005693,-0.005386767602125046,0.04615580777520011,2.9244686615966167,0.09372689574956894,0.048885777592659004,0.0296274833381176,0.18440254367887976,-0.016754643707536158,-9.97689122915268
29.99,1.0,183.0,21.093297958374023,24.74592018127441,-79.7827779075764,40.45901813523015,291.13180377197267,0.004093671683222056,0.0072603211738169185,0.9960435628890992,0.0884745717048645,-0.007849803773323122,0.05987130403904532,2.9231018329905782,-0.005353383719921112,0.07709059119224547,0.008489040657877922,0.17029151296243072,0.009915406806394458,-9.90782040953636
30.19,1.0,177.0,21.099557876586914,25.07989501953125,-79.78277787862204,40.459018110484045,291.42364146423336,0.004641446750611067,0.007825895212590694,0.9960317611694336,0.08853305131196976,-0.011817082748505807,0.06691761666496249,2.9142334639953034,-0.015447067096829413,0.006634295452386141,0.006250794976949692,0.12505148668773472,0.03111195183824748,-9.72869622051716
30.29,1.0,177.0,21.10456657409668,25.485435485839844,-79.78277785894522,40.45901803671916,291.73935153198244,0.004785309545695782,0.007865000516176224,0.9960311055183412,0.08852880448102951,-0.00840384716671566,0.059228221528124785,2.8970956734350874,0.02984515018761158,0.0006831689970567822,0.02435089461505413,0.14204090980812908,-0.036134972751606265,-9.715286800861355
30.49,1.100000023841858,170.0,21.09079360961914,25.692180633544922,-79.78277776213734,40.459017931838865,292.34967639160163,0.0032029729336500172,0.006739206612110138,0.9960415363311768,0.08857527375221252,-0.010014456548852206,0.047107693689855436,2.8761198857134938,0.18590842187404635,0.03619524836540222,0.05679059773683547,0.19316050328314305,-0.22352586161345245,-9.749628667831422
30.6,1.2000000476837158,170.0,21.056989669799805,25.39796638488769,-79.78277771049024,40.45901791812014,292.63698794555665,0.0027449633926153183,0.006208154838532209,0.9960264563560486,0.08879908174276352,-0.024071216228653988,0.04241477661824272,2.8670686265194685,0.14116233587265015,0.0173224676400423,0.028022075071930885,0.17070174995809795,-0.14333972258493305,-9.738532991409302
30.69,1.399999976158142,173.0,20.99563789367676,25.382062911987305,-79.78277765136122,40.45901790770576,292.9236700744629,0.0028474482242017984,0.005608849693089725,0.9960318803787231,0.08877493441104889,-0.0371016364237414,0.03739488386675095,2.8652909548298653,0.08482897281646729,-0.0352264828979969,0.012149753980338572,0.12546566141769291,-0.06006512079387904,-9.78108259499073
30.89,1.399999976158142,177.0,21.056989669799805,25.58085632324219,-79.78277751557195,40.45901773617277,293.85389544677736,0.002976939082145691,0.004588162060827017,0.99604994058609,0.08862723410129547,-0.03966024084928963,0.039798251831223305,2.884886061436297,-0.007970604114234447,-0.03033827245235443,-0.016139453276991844,0.16981523897498846,-0.11161122296936812,-9.809918138980867
31.09,1.5,181.0,21.069509506225586,24.6027889251709,-79.78277745165845,40.45901772246585,294.1424620361328,0.002744143828749657,0.004187912680208683,0.9960390329360962,0.08877690136432648,-0.043172915745415034,0.03730497345147288,2.8876983527902764,0.01212687697261572,-0.07598333805799484,-0.03794391080737114,0.06976614492014051,-0.035893142418935896,-9.794985519647597
31.19,1.600000023841858,189.0,21.093297958374023,25.81941032409668,-79.7827773853077,40.45901770632091,294.43068339538576,0.0018493845127522945,0.004099694546312094,0.996026575565338,0.08894369006156921,-0.04496715724994175,0.03632623188185577,2.8768239893458345,0.04853903129696846,-0.04473630711436272,-0.028950784355401993,0.13751691905781627,-0.06588362113572657,-9.758306520581248
31.39,1.600000023841858,189.0,21.07201385498047,24.61869239807129,-79.7827773318743,40.45901761111642,295.0429613800049,-0.00022829773661214858,0.003659738693386315,0.9959650039672852,0.08966796845197678,-0.051019153171077115,0.04144865011414027,2.8828201731328083,0.012341788038611412,-0.00884474627673626,-0.0067936298437416545,0.08061423744075001,-0.009506182795157657,-9.799015420675278
31.49,1.600000023841858,184.0,21.04947662353516,24.984474182128906,-79.7827772918267,40.45901749633597,295.65751864624025,0.0011120090493932366,0.005800663959234953,0.9958770871162416,0.0905209630727768,-0.05691609790934338,0.047925276536909436,2.893895359431913,-0.14452272653579712,-0.029080117121338844,-0.06435572355985641,0.00986970487749204,0.10299853012897074,-9.79711098253727
31.69,1.600000023841858,181.0,21.04822540283203,25.11965370178223,-79.78277724396729,40.45901747210301,295.9459612579346,0.002063618041574955,0.00698842341080308,0.9958239197731018,0.0910036638379097,-0.04749522046105042,0.058150177519964964,2.8788534856141115,-0.11768031120300293,-0.01047311071306467,-0.038260795176029205,0.08827351436018945,0.08347460397519171,-9.678168675899506
31.79,1.5,182.0,21.02568817138672,25.37411117553711,-79.7827771677429,40.45901737752653,296.2648623199463,0.0015842571156099439,0.006642254535108805,0.9958236813545228,0.09104233980178833,-0.04515674454727171,0.06234558987470847,2.87469377616332,-0.07494405657052994,-0.0004253467777743936,-0.036626752465963364,0.06325762744992973,0.07073361699935049,-9.681959425807001
32.0,1.600000023841858,184.0,21.03069496154785,25.15146064758301,-79.7827770328614,40.45901725658721,296.87432505798336,-5.081220660940744e-05,0.005516941193491221,0.9958909153938292,0.09039360284805298,-0.05989697211252959,0.04575207971104408,2.879439227972839,-0.057048659771680825,-0.02603571489453316,-0.09164448827505113,0.04802281670272352,0.10066351764835416,-9.782885291576386
32.09,1.600000023841858,185.0,20.98562240600586,26.169288635253906,-79.7827769707964,40.45901723945353,297.1623594970703,-5.484434950631112e-05,0.005809861235320568,0.995918333530426,0.09007260203361513,-0.059197826341091414,0.03969263997941795,2.88123392119836,-0.0183533038944006,0.034428562968969345,-0.036403574049472816,0.15182497353293006,0.023870737133547662,-9.83743396639824
32.19,1.7000000476837158,187.0,20.976858139038086,25.73194122314453,-79.78277690832049,40.4590172246731,297.4508097381592,0.0004631114134099335,0.006548813078552485,0.995927095413208,0.08992375433444977,-0.056521689779214464,0.03792284355438128,2.8874765519372785,0.018680563196539882,0.0608939602971077,0.02263946458697319,0.11067152973264456,-0.004143172558397055,-9.880660092830658
32.39,1.7000000476837158,188.0,21.009410858154297,25.18326759338379,-79.78277676035619,40.45901702938165,298.3814928741455,9.030666842591016e-05,0.0070516709238290795,0.9958884119987488,0.090313620865345,-0.04405322439950195,0.04665464209958819,2.9242934912061824,0.00317161506973207,0.012170379981398579,0.0003289938031230122,0.10019987912848592,0.09094023755751553,-9.91787294268608
32.59,1.7000000476837158,188.0,20.954320907592773,25.87507247924805,-79.78277670857908,40.459017020411174,298.67450358581544,-0.000985563499853015,0.005404775962233543,0.9958882331848145,0.09042415767908096,-0.04957734507636877,0.04561203603856705,2.939617626881325,0.00024147964722942558,-0.02465728111565113,-0.08930370211601257,0.10720091488212348,0.07690030532889068,-9.939134588241576
32.69,1.600000023841858,188.0,20.945556640625,26.73386383056641,-79.78277665951589,40.459017012264106,298.96909358215333,-0.002047499874606729,0.004549927543848753,0.9958934783935548,0.0903952568769455,-0.05549307193717805,0.033008577060631816,2.9538676269772832,-5.484356006490998e-05,-0.036832451820373535,-0.033481478691101074,0.1129107301030308,0.04912602184340358,-9.965240067243576
32.89,1.600000023841858,188.0,21.026939392089844,24.68230628967285,-79.78277659706087,40.459016936369316,299.58391024780275,-0.0013662845594808461,0.005380347836762668,0.9958837628364564,0.09046996384859084,-0.05310780201384815,0.03452453611512687,2.964318642173033,-0.09920412302017212,0.002862865570932627,-0.049541570246219635,0.03941915506962687,0.024014299982227386,-9.81597585439682
32.99,1.5,190.0,21.035703659057614,24.761823654174805,-79.7827765245418,40.45901687044125,300.1940043182373,0.0005962934228591621,0.006582358386367559,0.9958325624465942,0.09096088260412216,-0.025744123284294502,0.03193116775258918,2.9215342655712737,0.05449329689145088,0.04753900691866875,-0.014970429241657257,0.1217363712284714,0.024965333619620653,-9.742753511667251
33.2,1.5,195.0,21.019428253173828,24.984474182128906,-79.7827764938552,40.4590168668347,300.48540904235836,0.0008695673895999789,0.006661920342594385,0.9958093762397766,0.0912066176533699,-0.017120793212157714,0.032479789508631084,2.903485825317018,0.09636244922876358,0.08087980002164841,0.04574449360370636,0.19184091461822392,-0.14234459043480455,-9.69371057510376
33.3,1.5,199.0,20.964336395263672,26.821332931518555,-79.78277649595144,40.4590167833849,300.8052084655762,0.0006079641170799732,0.006394288036972284,0.9957995414733888,0.09133554250001907,-0.015033586460420578,0.03413984069067312,2.8984290677666684,0.0840873196721077,0.006755554582923651,0.03220612555742264,0.1093049532081932,-0.03169974775984884,-9.68515259027481
33.49,1.5,199.0,20.97184944152832,25.708086013793945,-79.78277647618171,40.45901668801615,301.42170169067384,-6.603632937185466e-05,0.006295588333159685,0.9957644939422609,0.0917249321937561,-0.02070772949346356,0.034674823704889925,2.9095747683215065,-0.018456371501088142,0.006851650308817625,-0.008415156975388527,0.14059604454785585,-0.03802932215854528,-9.827864413261414
33.59,1.5,200.0,21.020679473876953,25.318449020385746,-79.78277645458274,40.459016686184704,301.71276881408687,0.0003170179843436926,0.006945082452148199,0.9957441687583924,0.09189783781766893,-0.016999449583331085,0.03516480759698682,2.9116216532023214,-0.008070377632975578,0.028488125652074814,0.053522195667028434,0.10544819371774793,-0.13973771897144616,-9.84127558708191
33.69,1.399999976158142,200.0,21.020679473876953,25.501338958740234,-79.78277643224419,40.459016684268434,302.003893157959,0.0015025428729131818,0.006994013674557209,0.9957084059715272,0.09226944297552107,-0.020781636340023245,0.041472894450718,2.90956745100749,-0.019747015088796616,-0.02755395881831646,-0.032249465584754944,0.1361099510639906,-0.02166173215024173,-9.795695956349373
33.89,1.2999999523162842,199.0,21.019428253173828,24.63459587097168,-79.78277639763921,40.45901650546008,302.93977954101564,0.000394612638046965,0.006548474077135325,0.9955915808677672,0.0935647189617157,-0.0125313384427225,0.03523353919711207,2.910913017767573,0.006308714393526316,0.009252053685486315,-0.0061937374994158745,0.13610046761110425,-0.05445309111848474,-9.83084415435791
34.09,1.2999999523162842,199.0,20.964336395263672,25.88302421569824,-79.78277637502832,40.459016504533075,303.23048045349117,-0.0004536763299256564,0.00738176330924034,0.9955675601959229,0.0937584787607193,-0.026706712630150942,0.039274978071497234,2.9086243179946445,-0.0881868451833725,-0.016989517956972122,-0.0643448457121849,0.02817855449393392,0.06745677339378743,-9.737822554707527
34.19,1.2000000476837158,202.0,20.95181655883789,25.5649528503418,-79.78277635251514,40.459016504388686,303.5211241455078,-0.0005945353768765925,0.007766280323266983,0.9955755472183228,0.09364166110754013,-0.034171144704264814,0.044582994056587374,2.9113168196994668,-0.13465470075607305,-0.08750929683446884,-0.062136054039001465,0.019110189964994792,0.05196157425642014,-9.790561516284944
34.39,1.2999999523162842,200.0,20.89923095703125,26.1772403717041,-79.78277639942799,40.459016460585154,304.139053604126,7.425840885844082e-05,0.007509629242122173,0.9955853819847108,0.09355966746807096,-0.011344182428078735,0.034303530996822464,2.9138443788810484,0.008813347667455673,0.01762537471950054,-0.0008689649403095245,0.0955468841828406,-0.05564467144198716,-9.806471205353738
34.49,1.2000000476837158,201.0,20.970598220825195,25.517242431640625,-79.7827766206004,40.459016248594295,304.7501127929688,0.0013903987128287554,0.0064759962260723105,0.9956122040748596,0.09334158152341844,0.013267074648334595,0.06380998392351217,2.9277100802540743,-0.08773566782474518,-0.07991567999124527,-0.06286875158548355,0.07554241740144789,0.03227182243717835,-9.867837148904801
34.69,1.2999999523162842,198.0,20.966840744018555,25.66037368774414,-79.78277664811381,40.45901623607525,305.04284121704103,0.002081365557387471,0.005491618998348713,0.995637595653534,0.09312040358781816,0.0230368535890788,0.058018465082317824,2.9277958602539966,-0.060696136206388474,-0.014737129211425781,-0.012083331122994423,0.04091972876340151,0.004606034494936465,-9.810875912904741
34.79,1.2000000476837158,195.0,20.983118057250977,25.7876033782959,-79.78277666382465,40.45901617504519,305.36238696289064,0.002082346472889185,0.00579921482130885,0.9956477880477904,0.09299227595329283,0.026547092153300263,0.04378174369633836,2.92106502915467,0.019415734335780144,0.02674892358481884,-0.03437226638197899,0.04378546742722392,-0.016911522676236933,-9.789963930845259
34.99,1.100000023841858,194.0,20.99188232421875,25.811458587646484,-79.78277672153627,40.45901608933399,305.9764387817383,0.0016769595677033071,0.006746336817741394,0.9956596493721008,0.09280962496995926,0.018384811550586057,0.04810155342307651,2.905299837799237,-0.00014873153122607619,-0.02003336325287819,-0.024558639153838158,0.1381816287059337,0.033122137784957886,-9.69651022195816
35.09,1.100000023841858,192.0,20.81659507751465,27.9345817565918,-79.78277674032502,40.45901608407258,306.2663214416504,0.0014050649479031565,0.006275816354900599,0.9956182837486268,0.09328959882259368,0.02110389541422656,0.0471614070693174,2.8937553046071733,0.01591356098651886,0.020199185237288475,0.013755952008068563,0.12243528708815575,0.0030551359173841787,-9.709227916002273
35.19,1.100000023841858,191.0,20.963085174560547,25.33435249328613,-79.78277675867595,40.45901607820839,306.55568911743165,0.0011711431434378028,0.0059002256020903605,0.9955715537071228,0.09381452947854996,0.013543445886435062,0.049661981535207234,2.9011820469945317,-0.0771925076842308,0.0248330906033516,-0.03461361676454544,0.1058248274959624,0.08931539682671429,-9.821715481281279
35.39,1.100000023841858,192.0,20.988126754760746,25.46953201293945,-79.78277691800544,40.45901591747196,307.1811278076172,0.0023898384533822536,0.004891349468380214,0.9954934120178224,0.09467487037181854,0.025373506953802787,0.05527273637464554,2.9287764762995807,-0.01764063909649849,-0.016412731260061264,-0.04229843616485597,0.1532599716167897,0.0026788675901480022,-9.845767418146131
35.59,1.0,193.0,20.99563789367676,24.84134101867676,-79.78277703038852,40.45901583278222,307.8004591674805,0.002684528939425945,0.0058473115786910074,0.9954410195350648,0.09516161680221558,0.03375937316122216,0.04787200004686477,2.931040104129812,0.03696174919605255,0.05866418406367304,-0.016953997313976288,0.10960863383486867,0.06601439776830376,-9.796157301664351
35.69,1.0,194.0,20.988126754760746,25.93868637084961,-79.78277705776456,40.4590158183351,308.0935919494629,0.002199093345552683,0.006624174304306507,0.9954383969306946,0.09515079855918884,0.024852799316804317,0.05812090690379675,2.9302493286088973,-0.01854715868830681,-0.01511344965547323,-0.060094743967056274,0.11243857657536864,0.16032981265336274,-9.757446979880331
35.89,1.0,194.0,21.286113739013672,21.485692977905273,-79.78277713509222,40.459015729546046,308.7098944396973,0.0005925460136495532,0.006654089782387018,0.9954746961593628,0.09479223191738127,0.022789134324459226,0.05491868638065688,2.9002695233593636,0.0267384983599186,0.0632769986987114,0.01951218768954277,0.13704618165269494,-0.0606115156877786,-9.584626674056054
35.99,1.0,196.0,21.31365966796875,19.951000213623047,-79.7827772438431,40.459015594056,309.03337313842775,0.0007120834197849035,0.007077706512063743,0.9955042004585266,0.09445004165172577,0.02835035774680156,0.06254831324577831,2.8376912641106657,0.009448432363569736,0.023557459935545918,-0.010361879132688046,0.1592551675066352,-0.03824101877398789,-9.195270524024963
36.19,0.8999999761581421,197.0,21.35622978210449,19.0683536529541,-79.78277731144502,40.45901556246663,309.58017947387697,0.0019119954667985441,0.008566766977310179,0.995513379573822,0.09421287477016448,0.02716324920409308,0.06226265802614925,2.617253652834878,0.006085481494665146,0.009903424419462679,0.0005457742954604328,0.1515270304866135,-0.080192168969661,-8.706220516562462
36.29,0.8999999761581421,199.0,21.378765106201172,19.67268943786621,-79.78277736515497,40.45901545374147,310.1360495300293,0.0040181539952754974,0.008896294981241226,0.9954264163970948,0.09503141045570374,0.0234358182107902,0.0615669783042915,2.3877255275809857,-0.026248715817928314,0.003469316521659493,-0.027703231200575832,0.1057600969914347,-0.0592493611201644,-8.501922894716262
36.49,0.8999999761581421,201.0,21.377513885498047,18.797992706298828,-79.78277739424725,40.459015350111855,310.41391207885744,0.005075820256024599,0.008387015201151371,0.9953969717025756,0.0953354313969612,0.01824999378501227,0.05484127643861487,2.2819243938522167,-0.0332169309258461,-0.028067503124475486,0.003042559139430523,0.07139314637985081,0.07413539002183825,-8.486841171383858
36.59,0.8000000119209291,199.0,21.375009536743164,19.322811126708984,-79.7827774029454,40.45901534089768,310.63608767700197,0.005317434202879667,0.00857120007276535,0.9953752160072328,0.0955323576927185,0.026252134654268358,0.04757798038286119,2.158314969109687,0.03234902769327164,-0.007905563339591026,0.014383598230779173,0.1366926535125822,-0.021566294627264143,-8.545209832191468
36.79,0.8000000119209291,199.0,21.29237365722656,20.952924728393555,-79.78277742453066,40.459015252929895,311.0878203125,0.004219140391796827,0.009961288422346115,0.9953173398971558,0.09605445712804794,0.005142362791943591,0.04174942106773034,1.9313032044929024,-0.002128100721165538,-0.011021137237548828,-0.018358955159783363,0.1238607560377568,0.06356128980405629,-8.569481039643287
36.89,0.8000000119209291,197.0,21.18219375610352,21.97075080871582,-79.78277740973374,40.4590152488569,311.27591540527345,0.004042686894536018,0.010271425358951092,0.9952949285507202,0.09626191109418868,-0.006265545795034709,0.03923779477168083,1.8328884134829624,-0.004581739194691181,-0.02315608598291874,0.01585276983678341,0.12514154294505714,-0.0430445292731747,-8.769473941326142
37.09,0.8000000119209291,200.0,21.308650970458984,20.865455627441406,-79.7827773696698,40.45901514052036,311.69698931884767,0.006954742129892111,0.008155445568263529,0.995311200618744,0.09612921625375748,-0.023221464989589224,0.034832329456339815,1.7414896838495402,-0.05480637028813362,-0.054780710488557816,-0.027724437415599826,0.11073148196563123,0.0864309836179018,-9.041921446323396
37.19,0.8000000119209291,200.0,21.298635482788086,20.4281063079834,-79.78277732538253,40.459015138530546,311.8668844909668,0.007599547505378723,0.008096327073872091,0.9953258037567142,0.09593329578638077,-0.016428352965370003,0.023949560439830528,1.6570293433569288,0.03418847545981407,0.02795789390802384,0.002259677974507213,0.21881461378186945,-0.04343742561992258,-9.004482893943786
37.39,0.699999988079071,195.0,21.37250518798828,19.50570106506348,-79.78277723823498,40.45901499344362,312.2965910644532,0.0068117273040115825,0.006895626895129682,0.9953844547271729,0.09547779709100723,-0.03821148012027903,0.02829265417791304,1.57947382544799,0.03836586326360703,-0.02808680757880211,0.01884465105831623,0.08668880928307772,0.025202906448394062,-9.041831399202348
37.49,0.699999988079071,192.0,21.24730110168457,22.082077026367188,-79.78277722411917,40.4590147913497,312.60212161254884,0.005578374024480581,0.006592624355107546,0.9953930377960204,0.09548887610435486,-0.042333391608919926,0.037619382954633504,1.5989229659603246,0.04246530681848526,0.001572831766679883,0.026219842955470085,0.1447691840864718,0.005599398775957525,-8.982685643434525
37.69,0.699999988079071,183.0,21.30364227294922,21.42207908630371,-79.78277708241879,40.459014741870384,312.9073469848633,0.0033327199053019285,0.006293036509305239,0.9953212738037108,0.09635809808969498,-0.06073889509398274,0.039404389391407765,1.4659396410787997,0.03276192769408226,-0.027945995330810547,0.05265849456191063,0.13481121137738228,-0.0612271726783365,-9.213457703590393
37.79,0.8000000119209291,183.0,21.258569717407227,20.078229904174805,-79.78277691169569,40.45901448033954,313.3680441589356,-2.1526182536035776e-05,0.004419039469212294,0.9952983856201172,0.09675580263137816,-0.0744394416433591,0.05100197877691444,1.4851600603154396,-0.005200466606765986,-0.026823988184332848,0.023938706144690517,0.17245401430875062,0.014204773460514844,-9.292447155117989
37.99,0.8000000119209291,172.0,21.65546989440918,17.644987106323242,-79.78277693599098,40.45901422366754,313.75678469848634,-0.0002746875979937613,0.005036115646362305,0.9952927231788636,0.0967831015586853,-0.07465282968063225,0.06614743138192246,1.5041295102516707,-0.023624824360013008,0.033097423613071435,-0.011534091085195541,0.12302702531218528,0.01577235259115696,-8.356176951527596
38.09,0.8000000119209291,168.0,21.496458053588867,19.012691497802734,-79.7827768520976,40.459014164822136,313.89227130126955,0.00027033730293624103,0.006778563838452101,0.9964944124221802,0.0833844244480133,-0.10625130123127552,0.059842375853849175,1.2162978986635435,-0.06413432955741882,0.04321213811635971,-0.5922967791557312,0.04838049271143973,-0.19967294935137034,-7.430662701129915
38.2,0.8000000119209291,165.0,21.425090789794922,18.583295822143555,-79.78277673952847,40.45901410435623,314.00293185424806,0.0009566949447616936,0.007337995804846288,0.9989671111106871,0.044832732528448105,-0.11788626781029884,0.06189063183162648,1.0057733095481964,-0.041985660791397095,-0.00551637401804328,-0.9154132604599,0.07675813576206565,-0.01667212030850351,-7.681504159569743
38.39,0.8000000119209291,158.0,21.328683853149414,20.54738426208496,-79.78277660661547,40.45901378323549,314.28147341918947,0.0011717979796230793,-0.00515356007963419,-0.9978412389755248,0.06545992195606233,-0.09659545939442736,0.06961691429921503,0.7970880118568558,0.09419260919094086,0.045458775013685226,-1.2566843032836914,0.08297335141338408,-0.12484146201051773,-8.60339255154133
38.59,0.699999988079071,156.0,21.30739974975586,21.4379825592041,-79.78277635650099,40.45901348527256,314.5352957458496,0.0039698691107332715,-0.004819698631763457,-0.9796535968780518,0.20059871673583984,-0.07268607631806394,0.08508192723635882,0.7131018558194488,0.10353896021842957,0.003744618268683553,-1.4484539031982422,0.015063528441824018,-0.12047126216813922,-9.120765302181244
38.69,0.699999988079071,156.0,21.249805450439453,21.50954818725586,-79.78277625316076,40.45901343938636,314.60415484619136,0.005211369134485722,-0.005362398456782104,-0.9617578983306884,0.27379876375198364,-0.06263321390762612,0.08618879211931096,0.6690400075587668,-0.008208097890019417,-0.007032569497823715,-1.546603798866272,-0.028878749432042237,-0.00868191839195788,-9.318433935642243
38.89,0.699999988079071,135.0,21.2773494720459,21.676536560058594,-79.7827760007705,40.45901300940734,314.87589099121095,0.008639991283416748,-0.003947695717215538,-0.9079318046569824,0.4190101325511933,-0.004844410612734746,0.0889703847216851,0.7096725968814044,0.025875354185700417,0.0463000051677227,-1.6301989555358893,0.14773349401541055,0.07658016113564373,-9.623185552954672
38.99,0.699999988079071,127.0,21.249805450439453,20.913166046142575,-79.78277528776599,40.4590123698473,315.077322265625,0.010223183780908585,-0.0024466351605951786,-0.8718020915985107,0.4897455871105194,0.03617876705909343,0.11017328381371204,0.7765874366350445,0.11186637729406357,0.01506857667118311,-1.5401015281677246,0.03829343358054757,-0.05349518015049398,-9.683288497924805
39.19,0.6000000238418579,136.0,21.21224403381348,22.074125289916992,-79.78277521525919,40.45901217472039,315.2320616455078,0.013688514940440656,-0.0006108970846980809,-0.7840521335601807,0.6205438375473022,0.08654157905762759,0.07076690444707158,0.7732574147978599,-0.02269655466079712,-0.04783764481544495,-1.6158844232559204,-0.0403951010433957,0.12917670646682386,-9.752756928205493
39.29,0.6000000238418579,144.0,21.2773494720459,21.477741241455078,-79.78277508991455,40.45901183054811,315.2491018981934,0.015811430290341374,0.0014462837716564536,-0.6874045729637146,0.7261011600494385,0.17468776860615348,0.02232260138358738,0.7127672030672219,0.06297720968723297,0.04755267128348351,-1.2769640684127808,0.03912501271348447,-0.0311147932196036,-9.885106315612793
39.49,0.6000000238418579,133.0,21.192211151123047,22.12978744506836,-79.78277518393348,40.45901171107765,315.23045947265626,0.01709811948239803,0.0024431797210127115,-0.6480439901351929,0.7614070773124695,0.20702446032011826,-0.006423111981398555,0.6653730945738594,0.07973527908325195,0.04887495562434197,-0.921586811542511,0.19438030555844307,0.14764073342084885,-9.893154423236847
39.59,0.6000000238418579,132.0,21.193462371826172,24.761823654174805,-79.78277518937011,40.45901149301944,315.2975065917969,0.01772225648164749,0.004019591026008129,-0.6171999573707581,0.7865964770317078,0.2342043453268613,-0.027285014520400844,0.6838230438863733,-0.06454918533563614,-0.090612031519413,-0.6458142399787903,0.11356633088551465,0.14377216986380514,-9.917758337259293
39.79,0.6000000238418579,139.0,21.147136688232425,23.49749183654785,-79.78277511899715,40.4590110922664,315.36253955078126,0.0013523008674383163,0.0209384486079216,-0.586132824420929,0.8099433779716492,0.3119690633469017,0.03378142116859506,0.714314067601022,0.13801197707653046,-0.6260040998458862,-0.17794036865234375,0.7225833421200514,0.16885068593546748,-10.194213523864748
39.89,0.6000000238418579,142.0,21.07827377319336,23.51339530944824,-79.78277494768341,40.45901080815425,315.43573596191413,-0.024364979937672608,0.043465711176395416,-0.5812585353851318,0.8121917843818665,0.34265980420435904,0.06409841559534353,0.7651093974464549,0.10574280470609664,-0.7040464878082275,0.07058834284543991,0.2956393895298243,-0.06988767564296723,-10.265811510086062
40.09,0.699999988079071,128.0,21.08453369140625,23.50544357299805,-79.78277422088686,40.45901041453996,315.5183737487793,-0.06307046860456468,0.06472668051719667,-0.586043119430542,0.8052242398262024,0.3934787785487616,0.2212676357496634,0.8786795615329286,-0.062033742666244514,-0.2793483138084412,0.17367230355739596,0.012739463502075523,-0.08997091538272799,-10.43607073545456
40.19,0.8000000119209291,120.0,21.16090965270996,22.948820114135746,-79.7827728137583,40.459010222522814,315.5955450744629,-0.07867434620857239,0.0633804202079773,-0.5988309383392334,0.7944777011871338,0.4222675009563679,0.5707337004490849,0.9886107472138516,-0.04602363333106041,-0.04585668072104454,0.17477546632289884,-0.015810706671327352,-0.044685947773978114,-10.475920679569246
40.39,0.8999999761581421,118.0,21.12459945678711,23.17146873474121,-79.7827716928182,40.459010067493296,315.6816809387207,-0.08229728043079376,0.06378941982984543,-0.604735255241394,0.7895906567573547,0.4224574009065452,0.7817216089071493,1.0522462462179882,0.010630629025399685,-0.11071442812681198,0.11356540024280548,0.03093510554172099,0.08102860403247178,-10.192785633802414
40.49,0.8999999761581421,116.0,21.04572105407715,24.483510971069336,-79.78277066226188,40.459010420031646,315.6329748840332,-0.08524548262357713,0.06596855819225311,-0.6105389595031738,0.7846167683601379,0.3761536414059719,0.9874663011633956,1.0577122747234131,-0.04331638291478157,-0.09106910228729248,0.10021134465932846,0.0277855553640984,0.01914329982362688,-10.24878675699234
40.69,1.2000000476837158,109.0,21.07576942443848,24.809534072875977,-79.78276723701086,40.45901042032069,315.8037893981934,-0.08888938277959824,0.06793998181819916,-0.6158627271652222,0.7798692584037781,0.3350960402860356,1.4031380328973846,1.2097870334763745,-0.013599865138530731,-0.07516894489526749,0.03927934914827347,-0.06386924620717764,-0.02741564816795289,-10.227449097633363
40.79,1.2999999523162842,106.0,21.067005157470703,24.133634567260746,-79.78276555746227,40.459011130189644,315.7412665100098,-0.09036150574684143,0.06917671859264374,-0.6175089478492737,0.7782880067825317,0.27525296449847425,1.6049175908165705,1.1966226372195554,-0.07350697368383408,-0.052843812853097916,-0.03697673231363297,-0.11737653192132713,0.029637711171526464,-10.170700700283053
40.99,1.600000023841858,96.0,21.15715217590332,22.495569229125977,-79.78276132248617,40.45901246611757,315.7129309387207,-0.09529244899749756,0.07067334651947021,-0.6165386438369751,0.7783346176147461,0.19576639708301896,2.0153802248540957,1.2389330748557208,-0.012410640716552734,-0.052843552082777016,-0.01697670854628086,-0.23203016169369226,-0.06839947246480732,-10.070315701961515
41.1,1.7999999523162842,91.0,21.077022552490234,23.25893783569336,-79.78275856197128,40.45901279426728,315.7866194458008,-0.10122475028038024,0.07270659506320952,-0.6141118407249451,0.7793163061141968,0.1783965398475305,2.2373846047155648,1.2933440317270857,-0.08445806801319122,-0.16527482867240906,-0.10715536773204803,-0.1712181139178574,0.03846889573149384,-9.982312767505649
41.19,2.200000047683716,83.0,21.11082649230957,23.38616752624512,-79.7827555387807,40.459013183022996,315.85914447021486,-0.10944205522537233,0.0769825279712677,-0.6111545562744141,0.7801194190979004,0.1862985212519731,2.4507737597911365,1.3671223083429975,-0.011921259574592112,-0.11695963889360428,-0.12617172300815582,-0.02758046655915677,0.0929633924458176,-10.061920269727707
41.4,2.4000000953674316,76.0,21.07451820373535,24.30857276916504,-79.78274964476151,40.45901549463411,315.78024508666994,-0.12628604471683502,0.08854398131370544,-0.6065603494644165,0.7799336314201355,0.0949729952217248,2.879104624049272,1.491305631515049,-0.06984641402959824,-0.1408519148826599,-0.02874380350112915,-0.3631453115120529,-0.02398738908581436,-9.993954573869708
41.59,2.799999952316284,71.0,21.041963577270508,23.592912673950195,-79.78274282780056,40.45901844250977,315.69549395751955,-0.1315118968486786,0.09475500881671907,-0.6038023829460144,0.7804799675941467,0.0015366865772644955,3.333054497544545,1.6431030030183569,0.07344521582126617,-0.04440076649188995,0.04825952649116516,-0.4969473665580154,-0.17442858248949053,-10.060585935115817
41.69,3.0,68.0,21.087038040161133,23.20327568054199,-79.78273847008938,40.45901931903785,315.74579455566413,-0.13020122051239014,0.0965411439538002,-0.6032883524894714,0.7808781862258911,-0.005408757192961064,3.591504493190952,1.7372240643947432,0.06812433153390884,0.02245109900832176,-0.11748892068862915,-0.44628201037645343,0.07620219346135855,-10.092419346570967
41.89,3.5,61.0,21.07076072692871,22.93291664123535,-79.78272988314195,40.45902282579321,315.6807196350098,-0.12768316268920898,0.0967990830540657,-0.6032857298851013,0.7812640070915222,-0.11181397605475707,4.077813876248777,1.7940551147023918,0.0718710646033287,0.045904289931058884,0.047641709446907037,-0.5968454014509916,-0.15583946166560056,-9.936420310735704
42.0,3.799999952316284,59.0,21.24855232238769,19.887386322021484,-79.78272037681137,40.459026930058975,315.6228659362793,-0.12571191787719727,0.09773140400648116,-0.6036821603775024,0.7811613678932191,-0.2255751719657051,4.541482545146042,1.8330339568334049,0.04840293899178505,-0.020362332463264462,0.12125783413648605,-0.7230873721092941,-0.10024289270862938,-9.889993418455123
42.19,4.300000190734863,57.0,21.119590759277344,22.789783477783203,-79.78271473515748,40.459028270649256,315.6516516418457,-0.1268613636493683,0.09986060112714767,-0.6038799881935121,0.7805530428886414,-0.239834701047423,4.780377223989719,1.857115808129699,0.01128211710602045,-0.12332310527563095,-0.04209354147315025,-0.8353194140642882,0.1978117075189948,-9.415745052695275
42.29,4.599999904632568,57.0,21.082029342651367,22.535327911376953,-79.7827098853563,40.459031701055736,315.5695898742676,-0.12840355932712555,0.10146435350179672,-0.603417694568634,0.7804515957832336,-0.3644137832692321,4.985800637959118,1.8892803880237257,-0.0922960415482521,-0.056682143360376365,-0.0413287989795208,-0.8372342310100794,0.07352145978715273,-9.65104168832302
42.49,5.099999904632568,56.0,21.07201385498047,23.163516998291016,-79.78269853475562,40.45903703123655,315.5316221923828,-0.12863139808177948,0.10426539927721024,-0.602738618850708,0.7805696129798889,-0.4836949174280623,5.388759680047205,1.985368443570167,0.099614217877388,-0.1173940971493721,0.18776719272136688,-1.0728253470361229,-0.35281412199139595,-9.649053635001184
42.59,5.400000095367432,56.0,21.185949325561523,22.551231384277344,-79.7826919952388,40.459038769907295,315.5431311340332,-0.12863004207611084,0.1048799380660057,-0.6032381057739258,0.7801014184951782,-0.4671177428267408,5.610365612955594,2.042410503131654,0.006829090882092714,0.05412760749459267,0.023368699476122856,-0.9251939691603184,-0.26685171961784365,-9.774333738684657
42.7,5.800000190734862,56.0,21.16466522216797,22.424001693725586,-79.78268520387671,40.45904055279921,315.55186297607423,-0.12828169763088226,0.10486193746328354,-0.6034196019172668,0.7800208926200867,-0.4665484533835728,5.813500700152839,2.0827475399263617,0.040445543825626366,-0.021969800814986232,0.017722614109516144,-1.057258231714368,0.009680540598928929,-9.76470629811287
42.89,6.099999904632568,56.0,21.2134952545166,21.787860870361328,-79.78267202495499,40.45904658482213,315.5122626037598,-0.12807568907737732,0.10593889653682707,-0.601889431476593,0.7810907363891602,-0.577536051514313,6.217703632129678,2.1539426282758507,-0.08511955291032791,-0.11842042207717896,-0.08310476690530777,-1.1630538048595191,0.2894209305010736,-9.569841989278792
43.09,6.599999904632568,55.0,21.065753936767575,23.441829681396484,-79.7826579812546,40.45905330061736,315.48436572265626,-0.13063068687915802,0.10807491838932036,-0.5999965071678162,0.7818310856819153,-0.6727379470495777,6.602152802522506,2.232033543449909,0.02860345505177975,0.020374329760670662,-0.12156763672828674,-0.9679756341129542,0.2423298310674727,-9.605606483817102
43.19,6.800000190734862,54.0,21.204730987548828,21.68448829650879,-79.78265013558618,40.45905552077814,315.47720935058595,-0.13193167746067047,0.10854989290237428,-0.5998096466064453,0.7816901803016663,-0.6737626421041785,6.77772213552503,2.3031375748894405,0.006610552780330181,-0.14493440091609955,0.04501103237271309,-1.5408794648945332,-0.15392462644726038,-9.525700773596764
43.39,7.300000190734862,54.0,21.04572105407715,24.23700714111328,-79.78263493619038,40.459062977086454,315.4561941833496,-0.13437160849571228,0.10928814858198166,-0.5968495011329651,0.7834355235099792,-0.7565939761456801,7.156748198008279,2.4125285425912435,0.04297202453017235,-0.02187272533774376,-0.01992654986679554,-1.2562660968303678,-0.22204591305926444,-9.614215924143792
43.49,7.5,54.0,21.04572105407715,23.60086441040039,-79.78262743270953,40.459068182453535,315.4565489501953,-0.13494373857975006,0.1096552386879921,-0.5944271683692932,0.7851256728172302,-0.9066285324326404,7.314174726059834,2.4978446753700068,0.011757812462747095,0.025086106732487682,0.01681712083518505,-1.4532074828445911,0.13744108797982335,-9.640892676115037
43.69,7.900000095367432,54.0,21.142127990722656,22.47171401977539,-79.78260996638001,40.45907350459571,315.4273855895996,-0.13534536957740784,0.11031447350978853,-0.594007134437561,0.7852820158004761,-0.8310250478597797,7.697508976444725,2.622588631694444,-0.016571661457419395,0.05739470198750496,-0.00561971217393875,-1.2502102817595009,-0.16117564894258976,-9.789859850406648
43.79,8.100000381469728,54.0,21.082029342651367,23.990501403808594,-79.7826016621303,40.45907874396814,315.4165899963379,-0.13714374601840973,0.11036991328001022,-0.5916771292686462,0.7867199778556824,-0.9773705462398741,7.859556362253317,2.68735020744448,-0.05112803727388382,0.053552638739347465,-0.1538286656141281,-1.3649500483274462,0.2938973212614656,-9.64065469443798
43.99,8.600000381469728,54.0,21.00565528869629,25.692180633544922,-79.78258360902004,40.45908679940037,315.390611907959,-0.14073872566223145,0.11113900691270827,-0.5886521935462952,0.7882445454597473,-1.039671168329452,8.188239656892746,2.8748159347580127,-0.023739969357848167,-0.05398605763912201,-0.01717962697148323,-1.59901935338974,-0.05144181160256267,-9.826272801160815
44.09,8.800000190734863,54.0,21.173429489135746,22.090028762817386,-79.78257400321175,40.4590898821354,315.3746397705078,-0.14224788546562195,0.11118514835834503,-0.5881754159927368,0.7883229851722717,-0.9830324605356366,8.36363463350255,2.9824628010037166,-0.03069236502051353,-0.038265872746706016,-0.0792725458741188,-1.7048267671465875,0.0064771709125489,-9.974015568494798
44.19,9.199999809265137,53.0,21.02568817138672,24.39604187011719,-79.78256418467463,40.45909300814685,315.35961367797853,-0.14290939271450046,0.11147840321063997,-0.5881803035736084,0.7881582379341125,-0.9739103874375228,8.527897314830406,3.0613279119715124,-0.07980648428201675,0.0491202250123024,-0.16974063217639926,-1.8545100791752345,0.17995127767324448,-9.775231286287307
44.39,9.399999618530273,53.0,20.92427062988281,26.50326156616211,-79.78253450713716,40.45910728822677,315.28620364379884,-0.1510966569185257,0.11393040418624878,-0.5835615992546082,0.7897123694419861,-1.1594403992927678,9.015256723323864,3.363059549956441,0.003702257061377168,-0.05969081073999405,0.038623109459877014,-1.803622199892997,0.16577232789248228,-9.551572948694233
44.59,9.800000190734863,53.0,21.054485321044922,24.89700508117676,-79.78252394101338,40.459110816084646,315.2679846496582,-0.15259379148483276,0.11381763964891435,-0.5834062099456787,0.7895554900169373,-1.123646068751217,9.178820792391663,3.468962417370935,0.0026316978037357326,-0.1195785328745842,0.19835424423217773,-2.0007419259846206,-0.0907381340302527,-9.76221655368805
44.69,9.899999618530273,53.0,20.923019409179688,27.12350082397461,-79.78251316886194,40.45911439162476,315.24838473510744,-0.1546439379453659,0.11615458875894548,-0.5832780599594116,0.7889107465744019,-1.1239711641834012,9.338592138605652,3.5372669896526387,-0.02410235069692135,-0.12905648350715634,-0.07279089093208313,-2.1127503119409083,0.17958251936361194,-9.486087641716004
44.89,10.300000190734863,52.0,20.800317764282227,27.7596435546875,-79.78249151124614,40.459123602797064,315.1912939758301,-0.15852323174476626,0.11905579268932345,-0.5821719169616699,0.7885252833366394,-1.206962529865531,9.633625915287645,3.8089959411401018,0.009591935202479362,0.05310023203492165,-0.22333607077598566,-2.0950222849845885,0.02650312621146441,-9.937255293130876
44.99,10.5,51.0,20.914255142211914,26.23290252685547,-79.78246869875568,40.459133040915134,315.1280920715332,-0.16007322072982788,0.11954233050346375,-0.5815178751945496,0.7886211276054382,-1.3028466655921775,9.951858420065877,4.063900759184102,-0.07382404059171678,-0.12266698479652405,0.21762412786483765,-2.3612562462687494,-0.25679717648774386,-10.133750975131989
45.19,10.800000190734863,51.0,20.61000633239746,29.246623992919922,-79.78245694153037,40.459137056699966,315.11575152587886,-0.16559697687625885,0.12100425362586975,-0.581268846988678,0.787440299987793,-1.3303764262810136,10.103188641351393,4.180224650353174,-0.157702699303627,-0.13626344501972198,0.1546318233013153,-2.33071623891592,-0.3000194839574397,-10.10233622431755
45.29,11.0,51.0,20.820350646972656,27.401813507080078,-79.7824450959304,40.459142679363815,315.0595915527344,-0.17561328411102295,0.119803324341774,-0.5789185166358948,0.7871851325035095,-1.4392305373740006,10.23433490301324,4.393397669763583,-0.07431810349225998,-0.19289836287498474,-0.13328610360622406,-2.347904714047909,-0.04446664977818728,-10.017865008115768
45.49,11.399999618530273,51.0,20.6137638092041,30.980112075805664,-79.78242058498243,40.45915254111684,314.9890463562012,-0.17910265922546387,0.1254347264766693,-0.5780007243156433,0.7861955761909485,-1.4703920525171743,10.47021711659783,4.816015337718427,0.08081997185945511,-0.039905872195959084,0.2058030664920807,-2.567744819819928,-0.10786224410869184,-9.64704394698143
45.59,11.600000381469727,49.0,20.74648094177246,27.656269073486328,-79.78240804612486,40.45915696120435,314.97776629638673,-0.17516547441482544,0.1305115669965744,-0.5785698294639587,0.785837709903717,-1.5015030035264385,10.626341502259821,4.9160506261689365,0.0318232960999012,0.04080136492848396,-0.07217001169919968,-2.5470199486613274,0.00010048074647784234,-9.89325148701668
45.79,11.899999618530273,49.0,21.00565528869629,24.077970504760746,-79.78238251250441,40.459167527197756,314.9157316894532,-0.1519906371831894,0.12119391560554504,-0.579626202583313,0.7913560271263123,-1.638019510785221,10.965755569725015,4.913605391258738,0.11261370778083801,0.3880328238010407,-0.06257392466068268,-2.6773502925038337,-0.3449095635116101,-9.765848259329797
45.89,12.0,49.0,20.91550636291504,26.16133689880371,-79.78236947231741,40.45917215361053,314.91211154174806,-0.13749729096889496,0.115370012819767,-0.5811946988105774,0.793723464012146,-1.6001852993990593,11.253312394542279,4.572756703064296,-0.07763557881116867,0.20959706604480746,-0.00964413769543171,-2.5826923495531084,-0.058258440792560574,-9.451276243329053
46.09,12.399999618530273,52.0,20.72769927978516,28.125423431396484,-79.7823428902542,40.45918284954488,314.8570616455078,-0.1300448775291443,0.10541531443595886,-0.5810921788215637,0.7964344620704651,-1.614438941570588,11.590592312108221,4.189162225158098,-0.05278089642524719,0.10786620527505876,0.3759298026561737,-2.8752408277988435,-0.3504226838797331,-10.044075736999512
46.19,12.5,54.0,20.9167594909668,23.75194931030273,-79.78231604545061,40.45919367579804,314.8241560668945,-0.1148555651307106,0.089784637093544,-0.582624614238739,0.7995595932006836,-1.6882165644800582,11.789586620041685,3.987023168754972,0.034925200045108795,0.24070824682712555,-0.10256626456975937,-2.9059080120921137,0.10706376112997533,-10.356430488824843
46.4,12.699999809265135,55.0,21.08453369140625,23.0203857421875,-79.78230265360895,40.45919850568476,314.84445407104494,-0.10738956183195114,0.0798109769821167,-0.5835337042808533,0.800990879535675,-1.6573189409912676,11.877454334475358,3.7830165441239822,-0.1874463111162185,0.24690304696559906,0.2435203194618225,-2.6217453181743617,-0.3215716447681189,-10.022815260887146
