time,wind_speed,wind_angle,battery_voltage,battery_current,position_x,position_y,position_z,orientation_x,orientation_y,orientation_z,orientation_w,velocity_x,velocity_y,velocity_z,angular_x,angular_y,angular_z,linear_acceleration_x,linear_acceleration_y,linear_acceleration_z
0.0,0.699999988079071,113.0,23.65123748779297,-0.22264966368675232,-79.78275626768647,40.45904077740053,267.6642856888771,-0.02027592435479164,-0.002469053491950035,-0.99932199716568,0.030634421855211258,-0.025223263529245147,0.0042849640600887895,0.010797809043640996,-0.012083614245057106,-0.002961771097034216,-0.004297187551856041,0.03358819741755724,0.34146643057465553,-9.80586192548275
0.1,0.699999988079071,114.0,23.65749740600586,-0.2385532110929489,-79.78275623882098,40.459040775342544,267.6652756624222,-0.02024652250111103,-0.002488636877387762,-0.9993236064910888,0.03059976175427437,-0.028002797280951487,0.0031394055025305827,0.01112560640755708,0.007763983681797981,0.005698807537555696,0.007536008488386867,0.02439263995969668,0.3504430760443211,-9.804988936185838
0.3,0.699999988079071,115.0,23.65749740600586,-0.2306014448404312,-79.7827562403617,40.45904067940428,267.6763654642105,-0.020229527726769447,-0.002461303025484085,-0.9993234276771544,0.030617477372288707,-0.01978437355527744,0.005841220819527464,0.00810921096054457,-0.0033206914085894823,-0.003716419916599989,0.0009110154933296144,0.029310285367537287,0.3391473152115941,-9.807214386463167
0.41,0.699999988079071,117.0,23.65123748779297,-0.2624085247516632,-79.78275621634994,40.45904067549205,267.6771146349907,-0.02018868364393711,-0.002465321216732264,-0.9993255138397216,0.030576216056942936,-0.023755930747756428,0.005033752433617385,0.00861718641307175,-0.0005432270118035376,4.0296712541021413e-05,-0.002202026778832078,0.027382223107852044,0.36766915608197454,-9.8037142431736
0.6,0.699999988079071,117.0,23.646228790283203,-0.2624085247516632,-79.78275618996894,40.459040610214814,267.6888677172661,-0.02019661664962769,-0.0025021808687597518,-0.9993264079093932,0.030537813901901245,-0.02237866757509696,-0.0009720170315441383,0.007372912505391409,-0.004256952553987503,-0.002072181086987257,-0.01147029735147953,0.02510669462615624,0.3717426554113625,-9.803691439032557
0.71,0.699999988079071,116.0,23.65749740600586,-0.20674611628055573,-79.78275617020199,40.459040482565605,267.7022312574386,-0.020169509574770927,-0.002455841051414609,-0.999327540397644,0.030522599816322327,-0.021224729371423192,0.00835445771243588,0.010094772195074672,-0.011917956173419952,-0.005283647682517767,-0.014454589225351809,0.03294954899232835,0.328876242376864,-9.807611997127532
0.9,0.699999988079071,114.0,23.65249061584473,-0.2544567584991455,-79.78275614517865,40.459040476473824,267.7031638317108,-0.020147372037172318,-0.0024553281255066395,-0.9993284344673156,0.0305083692073822,-0.02323973205976208,0.007454525855956988,0.010387505692914118,0.011768014170229437,0.0033172254916280512,0.011940373107790949,0.03455346537055448,0.3322203380987048,-9.807761685848236
1.01,0.699999988079071,112.0,23.65499496459961,-0.22264966368675232,-79.78275614567197,40.45904040542417,267.71214291381835,-0.02012583427131176,-0.002485174220055341,-0.9993295073509216,0.030487207695841782,-0.02155655399350327,0.0032298665133488474,0.008921515635613993,-0.0091346874833107,-0.007076565641909838,-0.012454025447368622,0.02443902025697753,0.3649375927448273,-9.803976783156395
1.2,0.8000000119209291,113.0,23.649986267089844,-0.2624085247516632,-79.78275608774948,40.45904040367136,267.7137902669906,-0.020135238766670227,-0.002504065167158842,-0.9993299841880798,0.03046218119561672,-0.030279145230773286,0.001981645918133846,0.009854239679901127,-0.010986519046127796,-0.003432287368923425,-0.008077742531895638,0.02462456428678706,0.3534318072348833,-9.805342692732813
1.3,0.699999988079071,111.0,23.65749740600586,-0.2465049922466278,-79.78275610318275,40.459040302810934,267.72171017456054,-0.020109988749027245,-0.0024736169725656514,-0.9993314743041992,0.03043150156736374,-0.021214473455926454,0.0047868421004519796,0.006578201456979056,0.009145403280854223,0.005775265861302614,0.0034916566219180822,0.029971100678667432,0.3523734246566892,-9.804796562790873
1.5,0.8000000119209291,109.0,23.65374183654785,-0.2306014448404312,-79.78275606793899,40.459040215247065,267.7302230887413,-0.020067652687430385,-0.002472658408805728,-0.9993329644203186,0.03041120991110802,-0.0244174264614561,0.003104156522212753,0.005668205537530319,0.0003175041056238116,-0.0027215701993554826,-0.006717475596815348,0.0278199009038508,0.3673858950287104,-9.804176173210145
1.6,0.8000000119209291,109.0,23.6612548828125,-0.198794350028038,-79.7827560012841,40.459040213621996,267.7312228970528,-0.02006606571376324,-0.0024893078953027725,-0.9993339776992798,0.03037811815738678,-0.03409767901943432,0.002119643960723889,0.006813137525061907,-0.011011997237801552,-0.0039533013477921495,-0.013484071008861065,0.03190399831160903,0.33074080981314186,-9.807805539965633
1.8,0.8000000119209291,109.0,23.67753028869629,-0.11927660554647446,-79.78275605293122,40.459040107781426,267.74050381708145,-0.02003381215035916,-0.002469673287123441,-0.99933522939682,0.030361145734786987,-0.01941766822159366,0.004750810240905269,0.008799414156829978,0.00949430838227272,0.004624689929187298,0.008387606590986252,0.03314091282896698,0.33981068182736635,-9.806866477131843
1.91,0.8000000119209291,109.0,23.6712703704834,-0.11927660554647446,-79.78275602699716,40.45904010449131,267.74132385778427,-0.020034633576869958,-0.002462270902469755,-0.9993355870246888,0.0303483996540308,-0.025519288739998636,0.004738175313909469,0.009374554066673974,-0.010598058812320229,-0.0025390652008354664,-0.0013036541640758517,0.027356618698686358,0.3497491942718625,-9.805345031619073
2.1,0.8000000119209291,108.0,23.67252349853516,-0.12722837924957275,-79.78275601972852,40.45904003972347,267.748380153656,-0.02005801163613796,-0.002469182014465332,-0.9993369579315186,0.03028916753828525,-0.023429990412292424,-0.0003998748588091972,0.007914852783222388,-0.0005624961922876537,-0.003107669530436397,0.008173789829015732,0.030984674398787326,0.3331600221991539,-9.807539491653444
2.21,0.8000000119209291,112.0,23.670019149780273,-0.11927660554647446,-79.78275599205416,40.459040041688034,267.74909707832336,-0.020034698769450188,-0.0024704663082957268,-0.9993386268615724,0.030247794464230537,-0.02827669396809899,-0.001121370183732294,0.008516739785061594,-0.005734093487262726,0.0006402335711754857,-0.009034903720021248,0.0245627231290564,0.3720062917470932,-9.802561172246934
2.4,0.8000000119209291,111.0,23.67377471923828,-0.12722837924957275,-79.78275602296316,40.459039944787634,267.7555001072884,-0.02001522481441497,-0.0024599169846624136,-0.999339759349823,0.030222464352846142,-0.0215511516377718,0.0018592533873808906,0.006914385772734214,-0.007196775171905756,-0.003995236475020647,-0.012953347526490688,0.023882689664606008,0.3672023655474186,-9.802962875962258
2.5,0.8000000119209291,115.0,23.67502593994141,-0.11927660554647446,-79.78275604963581,40.45903986344115,267.7609561376572,-0.020009854808449745,-0.002464620629325509,-0.9993404150009156,0.03020566515624523,-0.01492900422032624,0.0010016523765166011,0.0047109105124683035,0.011456284672021866,0.005196538288146257,0.01296114083379507,0.034369035966228687,0.3386876144260168,-9.806568269133573
2.7,0.8000000119209291,116.0,23.66751480102539,-0.13518016040325165,-79.78275600335363,40.45903986435178,267.76184466409677,-0.0200215894728899,-0.002441834891214967,-0.9993425011634828,0.030128777027130123,-0.02371088267552381,-0.0002276080217255293,0.005613454345000725,0.004522031638771296,0.00447491742670536,0.0038101305253803726,0.028982427874580025,0.3530380338057876,-9.803745818138122
2.8,0.8000000119209291,116.0,23.66876602172852,-0.12722837924957275,-79.78275598980719,40.4590397770402,267.76646289157867,-0.02005358599126339,-0.0024314324837177988,-0.9993423223495485,0.030115533620119095,-0.028409420274270663,0.0011127442469849238,0.004960284885741117,-0.0042172190733253965,-0.004047360736876726,0.0015045765321701765,0.028233474923763425,0.3411521427333355,-9.806686382889747
3.0,0.8000000119209291,118.0,23.666261672973643,-0.12722837924957275,-79.78275599635589,40.45903969919158,267.76930829811096,-0.019996557384729385,-0.002433797810226679,-0.9993447065353394,0.030073298141360283,-0.02432204136412531,0.0004484395103944642,0.00039988459537796935,-0.0014150895876809955,0.0003739681269507855,0.007927032187581062,0.03203680776525289,0.3326336997002363,-9.808424760103227
3.11,0.8000000119209291,120.0,23.66876602172852,-0.15108370780944824,-79.78275596503295,40.45903970057563,267.7692736082077,-0.01998844742774964,-0.002418425166979432,-0.9993457794189452,0.03004447370767593,-0.029244413647435026,-0.0002407112961071552,0.0010348690340266547,-0.003273666137829423,-0.0013756077969446778,-0.0050935582257807255,0.02629680400947109,0.3722507053613663,-9.803308446407321
3.3,0.8000000119209291,118.0,23.67252349853516,-0.12722837924957275,-79.78275598770921,40.45903960396426,267.77137723493576,-0.0199496615678072,-0.002406109124422073,-0.9993476271629332,0.03001217357814312,-0.02358149009378977,0.003173757695123306,-0.0017167186859136775,-0.008921623229980469,-0.0015754227060824633,-0.011040814220905304,0.02462152647553012,0.3723847893252969,-9.802667006850244
3.41,0.8000000119209291,118.0,23.666261672973643,-0.11927660554647446,-79.78275602023095,40.45903951439584,267.77222666072845,-0.019921408966183662,-0.002401926321908832,-0.9993492364883424,0.029976883903145787,-0.01937061606023693,0.0021391517592953273,-0.003661499907838821,-0.013806783594191073,-0.0034594610333442692,-0.014819922856986524,0.03399039449170232,0.3306281047314405,-9.80697523534298
3.6,0.8999999761581421,116.0,23.67377471923828,-0.11132483184337616,-79.78275599654808,40.459039513966964,267.7717829041481,-0.019935669377446168,-0.0023946347646415234,-0.9993497729301452,0.029951162636280063,-0.02099507867703804,0.0011452499053664373,-0.0036001165300937844,0.009773480705916882,0.005825161933898926,0.011664178222417831,0.033902535508386795,0.3391594847291708,-9.805343277454378
3.7,0.8999999761581421,113.0,23.66501045227051,-0.11132483184337616,-79.78275596948649,40.459039513933675,267.77135673093795,-0.019947366788983345,-0.0023942142724990845,-0.9993493556976318,0.029954586178064343,-0.02737636921543181,0.0013038089817930074,-0.0029381424752673692,-0.010585515759885313,-0.004737329203635454,-0.009586396627128124,0.02395239030243829,0.35614568274468184,-9.803983215093618
3.9,0.8999999761581421,112.0,23.663759231567386,-0.11132483184337616,-79.78275601287308,40.459039423826866,267.77413168478006,-0.01992686837911606,-0.0023769293911755085,-0.9993510842323304,0.029913324862718582,-0.024117903717799486,0.0008429006416184983,-0.0004388501167567005,-0.010291378013789656,-0.0020570296328514814,-0.004421373829245567,0.02563044297974557,0.3444116730988026,-9.80676239669323
4.0,0.8999999761581421,110.0,23.67252349853516,-0.10337305814027786,-79.78275604150527,40.45903933587064,267.7758470468521,-0.0199377965182066,-0.0023677130229771137,-0.9993520975112916,0.029870590195059776,-0.022947723970229785,0.00020398368861546736,0.0008108050109298795,-0.004972590133547783,-0.001120494562201202,0.003166549373418093,0.02678764807060361,0.3587031086906791,-9.8040305775404
4.2,0.8999999761581421,107.0,23.67252349853516,-0.13518016040325165,-79.78275601500059,40.45903933724825,267.7758545570373,-0.01989605277776718,-0.0023636331316083674,-0.9993540048599244,0.029836410656571388,-0.02655397236817325,-0.0006041394921212899,0.001279012971411416,-0.0012777813244611025,-0.002341368934139609,-0.003274043556302786,0.026553300346713514,0.3674339152872563,-9.803405510187153
4.3,1.0,104.0,23.66751480102539,-0.13518016040325165,-79.78275609008709,40.459039229008866,267.77701297330856,-0.019896304234862328,-0.002336325123906136,-0.9993544220924376,0.029825141653418537,-0.017632407558360808,0.003330941230618659,0.0011418013972588144,0.002166055841371417,0.001857463852502405,0.0071695325896143905,0.031701127337291836,0.3309907051920891,-9.80767163872719
4.5,1.0,103.0,23.67252349853516,-0.12722837924957275,-79.78275613422387,40.459039134462174,267.77814647483825,-0.019876619800925255,-0.0023095309734344482,-0.9993557929992676,0.029794076457619667,-0.01593705982565441,0.002405018192656859,0.0013238245588643154,0.0071665775030851355,0.0022233782801777124,0.011969716288149357,0.033161624763160945,0.32876284293830393,-9.807486866712573
4.6,1.0,101.0,23.676279067993164,-0.11132483184337616,-79.78275611201248,40.45903913344983,267.7782352261543,-0.01987116038799286,-0.002304201014339924,-0.9993569850921632,0.029757766053080562,-0.02162983592770833,0.002110961265531769,0.0019300144697373155,-0.005311580374836922,-0.004281613044440746,-0.011799735017120838,0.024095660790335392,0.37217827297747136,-9.801722681522367
4.8,1.0,102.0,23.6712703704834,-0.05566241592168808,-79.78275618258927,40.45903903669676,267.7771311097145,-0.019840121269226074,-0.002314817393198609,-0.9993588328361512,0.02971636317670345,-0.01761844046934119,0.0017806395758510815,-0.0016615582516293465,-0.012465114705264568,-0.004135774914175272,-0.011505392380058764,0.02370137801393867,0.37182667259126906,-9.801848396658896
4.92,1.0,102.0,23.676279067993164,-0.12722837924957275,-79.78275623354948,40.459038938858335,267.7752549343109,-0.019810983911156654,-0.0023003541864454746,-0.9993606209754944,0.029675791040062908,-0.018118417877156515,0.0014733964140616273,-0.003719661226864985,-0.01091398112475872,-0.005845085252076386,-0.011265581473708151,0.03469486520625651,0.3300607055425644,-9.807228419780733
5.1,1.0,102.0,23.67377471923828,-0.12722837924957275,-79.78275621138765,40.45903893883955,267.7748157076836,-0.019829094409942627,-0.0022837375290691853,-0.9993610382080078,0.029651140794157982,-0.019629418340710653,0.0007126907384295223,-0.003597312907561078,0.008995214477181435,0.006681809201836586,0.011182604357600212,0.03443517345702276,0.3336006829887629,-9.80708340883255
5.2,1.0,101.0,23.67377471923828,-0.12722837924957275,-79.78275618633901,40.4590389390988,267.77440395879745,-0.019809052348136902,-0.002294032135978341,-0.9993621706962584,0.029624555259943005,-0.02574827031032237,0.0010269452154897123,-0.0028777739482691977,-0.011813335120677948,-0.007864694111049175,-0.014312843792140484,0.025412800933700058,0.3660202412679792,-9.803018424510958
5.4,1.0,102.0,23.66501045227051,-0.13518016040325165,-79.78275622031964,40.45903881655185,267.774211733818,-0.01979730650782585,-0.0022564646787941447,-0.9993636608123779,0.02958609350025654,-0.027380223967495773,0.005479816055159173,-0.0006422233085298612,-0.011525833979249,-0.004488728940486908,-0.009103241376578808,0.024781504925340408,0.3599938450008631,-9.804446899294852
5.5,1.0,104.0,23.66751480102539,-0.039758868515491486,-79.78275625631883,40.45903872729261,267.7737035446167,-0.0198039673268795,-0.002250748686492443,-0.9993648529052734,0.029542386531829837,-0.02862281725593085,0.0005819377138320701,0.000631775699699283,-0.01158615481108427,-0.005634351167827846,-0.00920437928289175,0.03491108427755535,0.3431638772785664,-9.806485238671305
5.7,1.0,104.0,23.670019149780273,-0.07951773703098297,-79.7827562237521,40.459038728593725,267.7736578874588,-0.019780930131673813,-0.002240914385765791,-0.9993663430213928,0.029507724568247795,-0.03006291748718597,-0.00018576831397528544,0.0008051345108179692,0.011585426516830921,0.003252464346587658,0.006399416830390692,0.03319011623505503,0.3492407057806849,-9.805194173455241
5.81,1.0,107.0,23.66501045227051,-0.07951773703098297,-79.78275637233031,40.45903859825988,267.7730766825676,-0.019735092297196388,-0.002223973860964179,-0.9993678331375122,0.029488449916243564,-0.01530743558934366,0.004877538154577334,0.0006901510834379808,-0.008447427302598953,-0.004429198801517487,-0.00615666015073657,0.024730798602104188,0.3493770189955831,-9.805182479023934
6.0,1.0,107.0,23.666261672973643,-0.07156596332788467,-79.78275644739679,40.459038501571214,267.7699564986229,-0.019718537107110023,-0.0022344852332025766,-0.9993699193000792,0.02942745946347713,-0.01490806170504794,5.304797345944632e-05,-0.0029654953370557608,-0.005986245814710856,-0.0009824242442846296,-0.00041317701106891036,0.027926612589508296,0.3449882451072335,-9.806070671081542
6.1,0.8999999761581421,109.0,23.66876602172852,-0.015903547406196594,-79.7827564287711,40.45903850265013,267.76961353349685,-0.01972001604735852,-0.0022320165298879147,-0.9993711709976196,0.02938474714756012,-0.01722504116303531,-0.0005497452952933617,-0.002661899773650021,0.009168353863060473,0.002460625721141696,0.0014906199648976324,0.029398260838352144,0.35824362717568875,-9.803251143693924
6.3,0.8999999761581421,110.0,23.660001754760746,-0.02385532110929489,-79.78275651246777,40.459038386296406,267.76783344078063,-0.019702436402440068,-0.0022258611861616373,-0.9993727803230286,0.02934301644563675,-0.0155632061890562,0.002774939018977918,-0.0013705265572245401,0.005120573565363884,0.0012316813226789234,0.005597604438662529,0.02771804971620441,0.3605463703349233,-9.80431182861328
6.41,0.8999999761581421,111.0,23.65123748779297,0.015903547406196594,-79.78275649346853,40.45903838436993,267.76765289831155,-0.019697511568665504,-0.002210641745477915,-0.999373197555542,0.029332194477319717,-0.019658668245164983,0.003110014949655895,-0.0008073862113707452,-0.0037520993500947952,-0.001924359705299139,0.001762389438226819,0.03034996370784938,0.3387970304489136,-9.807540661096573
6.6,0.8999999761581421,111.0,23.6612548828125,-0.07951773703098297,-79.7827565792168,40.459038269048435,267.765485256195,-0.01968585141003132,-0.002206634730100632,-0.9993749856948853,0.029279123991727832,-0.017019858014932842,0.002299129249573875,0.0001551383953298594,0.0011210071388632061,-0.0005045190919190643,0.006440473720431328,0.03121720400406048,0.3327480858564377,-9.807502654194831
6.7,0.8999999761581421,113.0,23.65749740600586,-0.06361418962478638,-79.782756558459,40.45903826815204,267.7654525332451,-0.019657429307699203,-0.002215558663010597,-0.9993760585784912,0.029261566698551175,-0.020929113251833057,0.001979857975930333,0.0006691209430688731,-0.003801533253863454,-0.0002732838329393417,-0.005263335537165403,0.025951114792842414,0.3708770482242108,-9.802652388811113
6.9,0.8999999761581421,113.0,23.65249061584473,-0.007951773703098297,-79.78275666734133,40.45903815199584,267.7653080515861,-0.019642965868115425,-0.0021849977783858767,-0.9993776082992554,0.029220882803201675,-0.015704515077941725,0.0018090095799794372,0.00505309758740431,-0.007179718930274248,-3.6701436329167336e-05,-0.009888305328786371,0.023970640010666105,0.3716736582666635,-9.802335469722747
7.0,0.8999999761581421,113.0,23.660001754760746,-0.04771064221858978,-79.78275676169379,40.45903803566199,267.76549205112457,-0.019631940871477127,-0.0021783204283565287,-0.999378740787506,0.029188802465796467,-0.015550008386311228,0.0021367522803714184,0.008338883935091877,-0.010751795955002308,-0.003916752990335226,-0.012873553670942785,0.03317258829250932,0.3295412900671363,-9.807454122304916
7.2,0.8999999761581421,114.0,23.6612548828125,-0.06361418962478638,-79.78275674381433,40.459038034734455,267.76627114343637,-0.01963386870920658,-0.002182185649871826,-0.9993792176246644,0.029173223301768306,-0.01651050296445892,0.0016334928742085485,0.00849322742217393,0.00977535080164671,0.004328290931880474,0.01094077154994011,0.03369842885294929,0.3350234201923013,-9.806695738434792
7.31,0.8000000119209291,114.0,23.65249061584473,-0.08746951073408127,-79.78275679752923,40.45903789101521,267.76375093984603,-0.01963586546480656,-0.002180744893848896,-0.999380350112915,0.02913448214530945,-0.021223547682986475,0.007423985518000495,0.007023097459684399,0.007516850251704454,0.006493444088846445,0.01033055316656828,0.0245972308376804,0.36004340015351777,-9.803979706764222
7.5,0.8000000119209291,114.0,23.662506103515625,-0.04771064221858978,-79.78275692785242,40.459037779946506,267.7590870552063,-0.019621459767222404,-0.0021731962915509944,-0.9993804693222046,0.02913836017251015,-0.012799332273591237,0.006091209231239343,0.0018673231549583664,-0.00979605969041586,-0.003182879649102688,-0.007828719913959503,0.026487384410575042,0.3479588864743709,-9.806435537338258
7.61,0.8000000119209291,114.0,23.663759231567386,-0.07951773703098297,-79.78275689143966,40.459037771183226,267.7594095759392,-0.01962837390601635,-0.0021789362654089928,-0.9993813037872314,0.029103778302669525,-0.0194164108460896,0.005815485178273669,0.002687863981616895,-0.009350636973977087,-0.00273659685626626,0.0014542082790285347,0.029197146312799307,0.35503818355500705,-9.804329954981805
7.8,0.8000000119209291,112.0,23.663759231567386,-0.03180709481239319,-79.78275702245959,40.45903763894329,267.7552457146644,-0.019590627402067184,-0.0021753038745373487,-0.9993832111358644,0.02906694263219833,-0.013346336920744136,0.00837636334147989,0.0016457118049621247,0.00352530530653894,0.002550046890974045,-0.0009377921815030276,0.02760461373254657,0.36103300485759976,-9.80334762275219
7.9,0.8000000119209291,112.0,23.663759231567386,-0.04771064221858978,-79.78275700508892,40.45903763193418,267.75537791776657,-0.019592177122831345,-0.0021698414348065853,-0.9993829727172852,0.02907360903918743,-0.01713137968153331,0.008729816939723899,0.0021663420749159982,-0.00472116656601429,-0.0037797112017869954,0.006096120923757553,0.031682174135930836,0.3366420391201973,-9.807962830066682
8.1,0.8000000119209291,113.0,23.65499496459961,-0.07156596332788467,-79.78275715184041,40.45903751732926,267.7486676864624,-0.019573036581277847,-0.0021718041971325874,-0.9993844628334044,0.029034284874796867,-0.012758528350957416,0.0027582358889702307,-0.0018399881050334696,0.0030565671622753143,-0.0003318317176308483,0.007849435321986675,0.03118306174641475,0.3306938859075308,-9.808715366721154
8.2,0.8000000119209291,113.0,23.666261672973643,-0.04771064221858978,-79.78275713615068,40.45903751567225,267.74845316934585,-0.019540026783943176,-0.002179837552830577,-0.9993858933448792,0.029005028307437893,-0.01674015763019301,0.0025820448393643353,-0.0013403154288382385,-0.003752811346203089,0.00022687490854877973,-0.008582008071243763,0.02600476299645379,0.3708240943774581,-9.803660448789595
8.4,0.8000000119209291,112.0,23.658750534057607,-0.04771064221858978,-79.78275725510164,40.45903737873292,267.7413326792717,-0.019510963931679733,-0.0021648225374519825,-0.9993870854377748,0.028986392542719838,-0.017307382621508008,0.0060629041084595105,-0.004006025333056113,-0.007078083232045174,-0.004446081351488829,-0.00991220772266388,0.0246312086423859,0.3713371510058642,-9.801802788376813
8.5,0.8000000119209291,111.0,23.662506103515625,-0.039758868515491486,-79.7827573966115,40.459037248154296,267.7368902258873,-0.019502179697155952,-0.0021604560315608983,-0.9993880987167358,0.02895875461399555,-0.010734981429890229,0.008519428872479015,-0.002264836652062427,0.010506059043109415,0.003046861384063959,0.014796005561947824,0.03322058342630044,0.3291976930573583,-9.808488494753838
8.7,0.8000000119209291,111.0,23.663759231567386,-0.06361418962478638,-79.78275736241902,40.459037234299224,267.73642578649515,-0.019461316987872124,-0.0021651452407240868,-0.9993896484375,0.028931733220815662,-0.016857903212014868,0.008107888028704916,-0.0015447153788171381,0.011550317518413069,0.00742252403870225,0.007644338998943567,0.03320548344869167,0.3357568437606097,-9.80736290574074
8.81,0.8000000119209291,109.0,23.670019149780273,-0.13518016040325165,-79.78275753043953,40.45903711258051,267.7297510199547,-0.01944682002067566,-0.0021552233956754208,-0.9993903636932372,0.028917118906974792,-0.012341837248826804,0.006784645708573786,-0.004193236213675429,-0.013211521320044994,-0.006921354681253433,-0.010335399769246578,0.02417384902713821,0.3592752952873707,-9.804504786729813
9.0,0.8000000119209291,110.0,23.66876602172852,-0.11927660554647446,-79.78275770392689,40.45903698004591,267.72202625799184,-0.019411880522966385,-0.002146037528291345,-0.9993924498558044,0.028867406770586967,-0.008234222977031448,0.005765658623008226,-0.006120172689480593,-0.005571634974330664,-0.0045644333586096755,-0.005064273253083229,0.02782956708222628,0.3468489753082395,-9.806686967611313
9.11,0.8999999761581421,108.0,23.67252349853516,-0.14313192665576935,-79.78275767963403,40.459036970986865,267.72079285907745,-0.01939902082085609,-0.002128723543137312,-0.9993937015533448,0.028835268691182137,-0.013478567550288988,0.005657200005098621,-0.005407010618422034,0.003060366958379745,0.0015024601016193624,0.0050866086967289465,0.028475629594177005,0.36097515396773816,-9.804442221522333
9.3,0.8999999761581421,109.0,23.66876602172852,-0.15108370780944824,-79.7827578501689,40.459036848230575,267.71351519155496,-0.019375016912817955,-0.0021327901631593704,-0.999395489692688,0.028789008036255836,-0.012135921680906415,0.004534447968803094,-0.00693739896092396,-0.003281721379607916,0.0013857008889317513,-0.0076910159550607204,0.02653249933384359,0.3713101076334715,-9.802353011369703
9.4,0.8999999761581421,112.0,23.670019149780273,-0.12722837924957275,-79.78275803009639,40.4590367117373,267.7064883403778,-0.01930660009384156,-0.0021039503626525398,-0.9993976354599,0.02876367047429085,-0.008830364725805992,0.004278297340251834,-0.0044711267222060855,-0.010576204396784306,-0.0025018118321895604,-0.01331578940153122,0.03238654891960323,0.3297663713246584,-9.80755352497101
9.6,0.8999999761581421,111.0,23.67252349853516,-0.11132483184337616,-79.7827580191511,40.45903670841577,267.70600905942916,-0.0193193294107914,-0.0021014248486608267,-0.999398410320282,0.0287275779992342,-0.009488993251629062,0.00396756116347096,-0.0044079967134428785,0.009321167133748531,0.005363620817661285,0.014957216568291187,0.03378215367207304,0.3363745655491948,-9.807098611593247
9.71,0.8999999761581421,111.0,23.670019149780273,-0.11927660554647446,-79.78275822849254,40.4590365765108,267.69945022392267,-0.019275857135653496,-0.002114672912284732,-0.9993999600410458,0.028699681162834167,-0.0035352561655933304,0.003180648249831098,-0.0025255997569486304,0.0094184847548604,0.006236274261027575,0.007632247172296047,0.024562417063862085,0.3589972967281938,-9.80499361395836
9.9,0.8999999761581421,112.0,23.666261672973643,-0.11927660554647446,-79.78275822247652,40.45903657360634,267.6992025666237,-0.01927593350410461,-0.0021022181026637554,-0.9993999600410458,0.028703460469841964,-0.007865851558768686,0.003786932787298903,-0.002020528693170827,-0.007875173352658749,-0.0027070180512964725,-0.0020234689582139254,0.026988842538557947,0.3442626421898604,-9.807022597789762
10.0,0.8999999761581421,114.0,23.670019149780273,-0.12722837924957275,-79.78275840243299,40.459036457915,267.69097122478485,-0.0192452073097229,-0.0021131020039319988,-0.9994019269943236,0.028652867302298542,-0.009095832267496929,-0.00023988533746784857,-0.005220245215605487,0.004165561404079199,0.0011931785847991705,0.001617618021555245,0.026670920744072648,0.3613032924011351,-9.804000756740573
10.2,0.8999999761581421,114.0,23.67377471923828,-0.12722837924957275,-79.78275837570132,40.459036459126494,267.6899056725502,-0.019242728129029274,-0.002092295791953802,-0.9994032382965088,0.028610968962311745,-0.015317780159649698,2.5860895615531065e-05,-0.004473616044391282,-0.004746002610772847,0.0013900658814236526,-0.007854221388697624,0.02624675321392715,0.3698838255554438,-9.802466447353362
10.31,0.8999999761581421,116.0,23.6612548828125,-0.13518016040325165,-79.78275860802049,40.459036311209175,267.68196633386606,-0.01923517696559429,-0.002074286574497819,-0.9994036555290222,0.02860332280397415,-0.005996448090098445,0.003722255984991635,-0.006452802480398054,0.005973490420728922,0.0021448463667184114,0.014315573498606682,0.033069183938205245,0.32836998313665394,-9.807358227968217
10.5,0.8999999761581421,118.0,23.66876602172852,-0.11927660554647446,-79.78275881935048,40.45903617523173,267.6754041604996,-0.019207049161195755,-0.002057192148640752,-0.9994050860404968,0.028571667149662968,-0.005457150801316095,0.0033451393495130322,-0.003826425538353493,0.010266494005918505,0.008790908381342888,0.007782183587551117,0.034101009650621565,0.3355885535851121,-9.806753625869753
10.6,0.8999999761581421,117.0,23.6712703704834,-0.12722837924957275,-79.78275880985719,40.45903617230419,267.6750281744003,-0.019198423251509663,-0.002050013979896903,-0.9994058609008788,0.028552088886499405,-0.010371721837966473,0.0040530146458442155,-0.0031621217995984165,-0.008819474838674068,-0.0013502653455361724,-0.00752259511500597,0.0240325177134946,0.35781612262129786,-9.804811765551568
10.8,0.8999999761581421,119.0,23.67252349853516,-0.12722837924957275,-79.78275904117459,40.459036027805546,267.66619297790527,-0.01918602362275124,-0.0020525071304291487,-0.9994074106216432,0.028507569804787636,-0.008215817567687661,0.003681637774443389,-0.006293200241238002,-0.006804435048252344,-0.0025911026168614626,-0.0016403072513639927,0.02879013899015263,0.3410182414948941,-9.805937354564668
10.9,0.8999999761581421,118.0,23.67252349853516,-0.11132483184337616,-79.78275929673445,40.459035892338576,267.66002222824096,-0.019138885661959648,-0.002023940673097968,-0.9994097948074341,0.028455963358283043,-8.073786880310095e-05,0.003625929936183557,-0.004429147757645597,0.0039618974551558495,-0.0001681041030678898,0.006799320690333843,0.02383347712224349,0.3650839924067259,-9.803244127035141
11.1,0.8999999761581421,118.0,23.66876602172852,-0.12722837924957275,-79.7827592946897,40.45903588906966,267.6595930747986,-0.019125374034047127,-0.002043023705482483,-0.9994105100631714,0.02843935042619705,-0.003795375644511721,0.0038867232310650594,-0.003989713090158731,-0.009924777783453465,-0.003333981148898601,-0.009705337695777416,0.02387025519507006,0.3716966451331973,-9.802129063010216
11.21,0.8999999761581421,116.0,23.66751480102539,-0.13518016040325165,-79.7827592905784,40.459035885686944,267.6591803126335,-0.019128242507576942,-0.002017701277509332,-0.9994106292724608,0.028433406725525856,-0.004204481046010368,0.003790733127242151,-0.0040023389182193714,0.009852869436144829,0.0038523732218891374,0.012405659072101116,0.03273395575582981,0.3316849524155259,-9.806016876697539
11.4,0.8999999761581421,117.0,23.66876602172852,-0.12722837924957275,-79.78275951821566,40.45903576064294,267.65383002090454,-0.01907526515424252,-0.0019822767935693264,-0.999413013458252,0.028388261795043945,-0.003150488074727398,0.0036683963824176383,-0.002432686225833079,0.010782807134091854,0.0015569357201457026,0.011554830707609652,0.03476609617006034,0.3406421193480492,-9.805877128243447
11.51,1.0,116.0,23.670019149780273,-0.11927660554647446,-79.78275972235028,40.459035637481925,267.64888730573654,-0.019079342484474186,-0.001962098991498351,-0.9994136691093444,0.02836349792778492,-0.005062172127749526,0.003573783215405493,-0.0011339297523686373,0.012517580762505531,0.002846406539902091,0.009322228841483593,0.024914195607416333,0.3546757658198476,-9.805137455463411
11.7,1.0,114.0,23.67252349853516,-0.11927660554647446,-79.7827597143153,40.459035634213535,267.64877667951583,-0.01910027302801609,-0.0019669046159833674,-0.9994132518768308,0.028365369886159893,-0.009088662831242184,0.004431940816398215,-0.0005630426701587569,-0.009407661855220795,-0.003905902616679669,-0.004907821770757437,0.025882229567505417,0.3477975398674608,-9.806635512113573
11.82,1.0,114.0,23.663759231567386,-0.11927660554647446,-79.78275994898219,40.45903549352489,267.64412817287445,-0.019066885113716125,-0.0019315958488732574,-0.9994150996208192,0.028322016820311543,-0.004206538437764082,0.008493152083808355,-0.00013038710827627684,-0.004232909996062517,-0.002961849793791771,0.001503209350630641,0.028483578152954582,0.3559787812829018,-9.804155123233796
12.0,1.0,112.0,23.67753028869629,-0.05566241592168808,-79.78276018948105,40.45903537054637,267.63921561765665,-0.01903886348009109,-0.001928246580064297,-0.9994164705276488,0.028293156996369362,0.001097721036236791,0.006624435443091771,-0.0003936151191197375,0.005340230651199818,-0.002659493358805776,-0.0016529104905202985,0.028002708619460463,0.3616605207324029,-9.8036049002409
12.1,1.100000023841858,111.0,23.67252349853516,-0.12722837924957275,-79.78276018631608,40.45903535794788,267.63919648456573,-0.0190453939139843,-0.0019008447416126726,-0.9994177222251892,0.028248040005564686,-0.004058197694627859,0.007523476193442811,0.00025473160750788185,-0.003587684826925397,-0.003216138342395425,-0.004643103573471308,0.031108859209343788,0.3341756835579872,-9.806720296740533
12.3,1.100000023841858,110.0,23.6712703704834,-0.12722837924957275,-79.78276038650962,40.45903522734511,267.63485506105417,-0.019058804959058758,-0.0018700228538364168,-0.9994180202484132,0.028231240808963776,-0.0057725874408934355,0.009920420916813655,0.00017944924165136855,0.005495186429470778,0.005923418793827295,0.010463159531354904,0.03251709714531899,0.3299631666764617,-9.807909035682679
12.4,1.100000023841858,107.0,23.66501045227051,-0.11927660554647446,-79.78276061108345,40.45903510141812,267.6310307674408,-0.01900607347488404,-0.0018642675131559368,-0.9994204640388488,0.028179306536912918,-0.0019094200165226407,0.008216903003579266,0.00023169902146110308,0.00973577331751585,0.007217275444418192,0.010974775068461895,0.02520653811749071,0.37303839839994907,-9.802238405942918
12.6,1.100000023841858,108.0,23.6712703704834,-0.13518016040325165,-79.78276060567944,40.459035093843774,267.6310665302277,-0.01901579648256302,-0.0018631158163771035,-0.9994213581085204,0.028141364455223083,-0.006383994846286226,0.009206493287559831,0.0007369161753882388,-0.007430899888277055,-0.0041845045052468785,-0.013611286878585815,0.024792304001748564,0.3658930643275381,-9.802641279101373
12.7,1.100000023841858,109.0,23.66751480102539,-0.11927660554647446,-79.78276085763844,40.45903496936392,267.6269699625969,-0.018982866778969758,-0.0018590843537822368,-0.9994230866432192,0.028100825846195214,-0.001501456027210023,0.007423664553131133,0.0003911497301768594,-0.009385495446622372,-0.006942456588149071,-0.0031223443802446127,0.033319010795094084,0.3423161040991545,-9.805330998301507
12.9,1.100000023841858,107.0,23.670019149780273,-0.11927660554647446,-79.7827608561021,40.45903496298817,267.62700429487234,-0.018971005454659462,-0.0018433491932228208,-0.9994246959686279,0.028056088835000992,-0.002194123999090526,0.007348687716135768,0.00048616838362701593,0.003824303625151515,0.003704858710989356,0.004502980038523674,0.027524865476880225,0.35769903212785725,-9.803081574440004
13.01,1.100000023841858,108.0,23.666261672973643,-0.12722837924957275,-79.78276112320299,40.45903483534891,267.6227913193702,-0.018951751291751855,-0.0018445227760821574,-0.9994261264801024,0.0280141681432724,8.203503350622925e-05,0.006531799160933412,0.0003451878043968607,-0.001599729643203318,-0.003164809430018068,-0.006819305010139942,0.030868963482789693,0.33599709123373034,-9.80636010825634
13.2,1.100000023841858,105.0,23.6712703704834,-0.12722837924957275,-79.78276112244363,40.45903482926249,267.62283298301696,-0.01896446943283081,-0.001830023480579257,-0.999426007270813,0.028012445196509358,-0.0011849339320207214,0.0071725091012173284,0.0004382705236995121,0.004774001426994801,0.000362441671313718,0.012198185548186302,0.030444428217597307,0.3292076698690653,-9.806706848144534
13.3,1.100000023841858,108.0,23.666261672973643,-0.13518016040325165,-79.78276137128566,40.459034697395076,267.6202315382957,-0.0189420972019434,-0.0018270662985742086,-0.9994274973869324,0.027977524325251583,6.149565558657688e-05,0.009348672444440721,0.003085500494742609,-0.006211340893059969,-0.002566297771409154,-0.005855871830135585,0.0248336958931759,0.3711597976461053,-9.802632508277894
13.5,1.100000023841858,106.0,23.666261672973643,-0.15108370780944824,-79.78276160755833,40.45903456506178,267.61765357780456,-0.018925746902823448,-0.0018202622886747122,-0.9994292259216307,0.02792479284107685,-0.004868722520766533,0.008677402925585984,0.005744833683580546,-0.004656767006963491,-0.0033174206037074327,-0.01002188865095377,0.025709062905516486,0.3732903768494725,-9.80302310228348
13.6,1.0,107.0,23.663759231567386,-0.11132483184337616,-79.78276159263059,40.45903454943966,267.61880466270446,-0.018924467265605927,-0.00180038099642843,-0.9994300007820128,0.02789817564189434,-0.009101949339927192,0.009894592784871002,0.0064387235886306715,-0.008299303241074085,-0.0012363182613626122,-0.009474427439272405,0.033897110845427965,0.3288735745847225,-9.808576787710187
13.8,1.0,106.0,23.6612548828125,-0.17493902146816254,-79.78276186825967,40.45903442609345,267.61569759178155,-0.018907049670815468,-0.0017933547496795656,-0.9994307160377502,0.0278873723000288,-0.00329216006550006,0.0068890501078001385,0.007865440145449983,0.009301180951297285,0.004767746664583683,0.01286915969103575,0.032872221849393105,0.3298002851754427,-9.807659359574318
13.91,0.8999999761581421,104.0,23.66751480102539,-0.13518016040325165,-79.78276186148013,40.45903441983688,267.616493552208,-0.018903598189353943,-0.0018084057373926048,-0.9994317293167114,0.02785138227045536,-0.007576623232421011,0.0078437127930007,0.008457709538971498,-0.0084296939894557,-0.004188010469079018,-0.012140912935137749,0.02392073767958209,0.3706696913391352,-9.802357689142227
14.1,0.8999999761581421,105.0,23.66501045227051,-0.16698725521564484,-79.78276213635034,40.459034285678015,267.611537068367,-0.018895410001277924,-0.0018146523507311945,-0.9994333982467652,0.027797214686870568,-0.006808367013000711,0.00681551965746172,0.004975183627343194,-0.010389644652605057,-0.0042558773420751095,-0.013272405602037908,0.023263588298577817,0.36452375605702403,-9.804047534465788
14.21,0.8999999761581421,105.0,23.663759231567386,-0.13518016040325165,-79.782762129162,40.45903427997431,267.61201021003717,-0.018883561715483662,-0.0017989425687119363,-0.9994344115257264,0.02776859700679779,-0.006250369890387559,0.006816172140896752,0.0049353097369703785,0.01382633950561285,0.004179537761956453,0.010184380225837229,0.03361051962012425,0.3408438117429614,-9.806030325293538
14.4,0.8999999761581421,106.0,23.662506103515625,-0.16698725521564484,-79.78276241201884,40.45903412483745,267.6098155670166,-0.0188470296561718,-0.001797542441636324,-0.9994366765022278,0.02771252952516079,-0.0015236161749382976,0.012044466382886976,0.006209533843802769,0.009698890149593352,0.00530264200642705,0.005745019763708115,0.03021373957162723,0.3494924284145236,-9.803914217948916
14.51,0.8000000119209291,106.0,23.658750534057607,-0.11927660554647446,-79.7827626449238,40.45903399790027,267.60600599575037,-0.01885758899152279,-0.0017776560271158817,-0.9994367361068726,0.02770426496863365,-0.005988301665163635,0.01361611923127458,0.00450536341187685,-0.009691369719803332,-0.008117725141346455,-0.0013601535465568304,0.026799495534505696,0.34507189683616163,-9.806314499974249
14.7,0.8000000119209291,108.0,23.666261672973643,-0.14313192665576935,-79.78276262635192,40.4590339734773,267.6068881444931,-0.01886958442628384,-0.001763121341355145,-0.9994373917579652,0.02767403051257133,-0.009184854949919566,0.014945430371755572,0.004914300180943086,-0.004913345444947481,-0.0031302403658628464,0.003419387619942427,0.0301854011323303,0.3364587289094925,-9.806792802214623
14.8,0.8000000119209291,109.0,23.662506103515625,-0.11132483184337616,-79.78276289512083,40.459033850180475,267.6052589111328,-0.01883523538708687,-0.001747462200000882,-0.9994394183158876,0.02762601710855961,-0.002357203128242021,0.01469796450767196,0.006676902243882766,-0.0009758778032846748,0.000882985070347786,-0.0065479790791869155,0.026355191655457025,0.3672862730920315,-9.803019593954087
15.0,0.8000000119209291,108.0,23.67377471923828,0.10337305814027786,-79.7827631675011,40.45903373859703,267.60419985580444,-0.01879917085170746,-0.001748163136653602,-0.9994415640830994,0.027572063729166985,0.002796197030638633,0.00908246591192092,0.008373691057249335,-0.004766782280057669,-0.003631217172369361,-0.011543910950422287,0.02525060693733394,0.3713128119707108,-9.803603730797768
15.11,0.8000000119209291,109.0,23.61868476867676,0.7315632104873657,-79.78276316953286,40.45903372999477,267.6050496988296,-0.01880522631108761,-0.001740471227094531,-0.999441385269165,0.02757393941283226,0.0026800757728003377,0.009682812597660408,0.008370995191706794,0.009506018832325935,0.003075467189773917,0.014323020353913309,0.0352633927250281,0.3330167654156685,-9.80852884054184
15.3,0.699999988079071,109.0,23.64748191833496,0.16698725521564484,-79.78276338473013,40.45903362563408,267.60296735095983,-0.018801553174853325,-0.0017600234132260086,-0.9994437098503112,0.027491968125104904,0.0006537590445786067,0.008234908642390213,0.005873215287474447,0.01170541811734438,-0.0012261354131624105,0.011945996433496477,0.02869019728386775,0.3739869629591704,-9.805297669172287
15.41,0.699999988079071,108.0,23.646228790283203,0.17493902146816254,-79.78276338229975,40.45903361801304,267.6035672121048,-0.018788523972034454,-0.0017664602492004633,-0.9994432330131532,0.027518445625901226,-0.0039314717753942425,0.009220495626057696,0.006237223238338127,-0.012287057004868984,-0.004592590965330601,-0.011384959332644941,0.02180062179453671,0.3740930533781648,-9.804739260077476
15.61,0.699999988079071,110.0,23.643726348876953,0.15108370780944824,-79.78276358289561,40.45903352183485,267.6019146137237,-0.01878842711448669,-0.001756347599439323,-0.999445378780365,0.02743971720337868,-0.005005057507724198,0.007832752648601228,0.004480193976125695,-0.012561255134642124,-0.004467305727303028,-0.0050258575938642025,0.022160122774075718,0.352271317653358,-9.805944955945016
15.7,0.699999988079071,108.0,23.643726348876953,0.1908425688743592,-79.7827635780099,40.459033515172464,267.60234841632837,-0.018772855401039124,-0.001766565372236073,-0.9994460940361024,0.02742528915405273,-0.004945260883847509,0.007836262387394627,0.004611214884719404,0.0020316143054515123,-0.0008766085375100374,0.006942611653357743,0.02456781203392893,0.3628634757176042,-9.804724642038344
15.9,0.699999988079071,109.0,23.644977569580078,0.2544567584991455,-79.782763799281,40.45903342268724,267.60306963253015,-0.018750274553895,-0.0017717449227347968,-0.99944806098938,0.027369143441319462,-0.0018945695547493192,0.007162621174680453,0.006782661413304433,-0.004777306690812111,2.661441612872295e-05,-0.003616450820118189,0.02916808610782028,0.3677070168033241,-9.801747824549675
16.0,0.699999988079071,107.0,23.643726348876953,0.2862638533115387,-79.78276398475457,40.459033337810176,267.604538529396,-0.018743867054581642,-0.0017729849787428977,-0.9994494915008544,0.02731968089938164,-0.0044007036451435685,0.006304790110760281,0.008569187634871474,-0.013170825317502022,-0.009477260522544384,-0.013845927082002165,0.03267576682381332,0.33432785734534265,-9.804815858602524
16.2,0.699999988079071,109.0,21.89961814880371,24.96857070922852,-79.78276398021409,40.45903333245108,267.6053877763748,-0.018740173429250717,-0.0017460008384659884,-0.9994500875473022,0.02730083465576172,-0.0032617128544786345,0.0065591446857144395,0.008460269609511609,0.010600797832012177,-0.00306278420612216,0.0165448859333992,0.030569291396532205,0.3348761069029569,-9.806741931438447
16.3,0.699999988079071,109.0,23.507251739501953,1.2881873846054075,-79.78276412219195,40.459033251131714,267.6072868995666,-0.018544645980000496,-0.0019038146128878,-0.9994520545005798,0.02735100872814656,-0.006874110743324499,0.007558570952401838,0.009966782525412115,0.01650371588766575,0.001483724918216467,0.003192465053871274,0.016967902625910938,0.4082906768471003,-9.796280093193054
16.5,0.699999988079071,110.0,23.643726348876953,0.11132483184337616,-79.78276428387845,40.459033166810734,267.6099803142548,-0.018527694046497345,-0.0018987617222592235,-0.9994519948959352,0.02736449986696244,-0.0075004250014182846,0.010759711944401422,0.013382095530889648,-0.007739628665149213,0.008525430224835873,-0.010332631878554821,0.06499679495114834,0.3804881531372665,-9.804169741272927
16.6,0.8000000119209291,112.0,22.56320571899414,11.895853996276855,-79.7827642739328,40.4590331585971,267.611269443512,-0.018577283248305317,-0.0018051157239824527,-0.9994529485702516,0.027304330840706825,-0.0027956852173738216,0.00992066683779338,0.012712069075806144,0.042199715971946716,0.006337657105177641,-0.0003629746497608721,0.03945519310422242,0.33547179199755195,-9.820448974370958
16.8,0.8000000119209291,110.0,23.62244033813477,0.2306014448404312,-79.78276446326696,40.45903309107161,267.6167723827362,-0.01847286894917488,-0.0019279713742434976,-0.999454379081726,0.027312660589814186,0.0014083319457563613,0.008389821048334526,0.015094854217581291,-0.023153968155384064,-0.019265463575720787,0.02727661468088627,0.03153052111621946,0.3311974408105016,-9.788871086239816
16.91,0.8999999761581421,112.0,23.632457733154297,0.11927660554647446,-79.7827644614852,40.45903308473989,267.6183463029861,-0.018483592197299004,-0.00188351736869663,-0.9994550347328186,0.027285106480121613,-7.98018924134495e-05,0.009925332437146557,0.015690258950900985,-0.013068371452391148,0.005714812316000462,-0.015813032165169716,0.05332202947698534,0.3701861996948719,-9.801418041586878
17.1,0.8999999761581421,118.0,23.543561935424805,2.274207353591919,-79.78276459105963,40.45903299741408,267.6216791563034,-0.01852463930845261,-0.0018271885346621273,-0.9994567036628724,0.0272021908313036,-0.005990143509026713,0.0096634989380798,0.014386736457261427,-0.002394536975771189,0.03391095623373985,-0.014174174517393112,0.035713546103797865,0.3819092823565006,-9.805752582550053
17.2,0.8999999761581421,121.0,23.413349151611328,4.0792598724365225,-79.78276474339073,40.4590329320142,267.62722948122024,-0.01852390542626381,-0.0018231512513011687,-0.9994580149650574,0.027152683585882187,0.00027098067077933435,0.00790910314795831,0.017288549982491925,-0.0005467716255225241,0.016244830563664436,-0.014962967485189438,0.03393267379375175,0.3258388696610928,-9.815206360816957
17.4,0.8999999761581421,120.0,23.2856388092041,6.146721363067628,-79.78276473950396,40.459032924613226,267.6289555125236,-0.018464416265487667,-0.0018414524383842945,-0.9994576573371888,0.027205076068639755,-0.0029051845432951553,0.009227541844345441,0.017780390202385657,0.004354804754257202,0.0035751105751842256,0.005647083278745414,0.024191413514781743,0.37049365360289815,-9.806415072083473
17.51,1.0,120.0,23.22053337097168,7.172500133514402,-79.78276485977959,40.45903286349998,267.63364079523086,-0.018107635900378227,-0.0019313222728669648,-0.999464750289917,0.02717713825404644,0.001118629017124024,0.007223739626865682,0.017186582646436382,0.04913084208965302,0.0700697973370552,0.01985626295208931,0.05793955283705145,0.3303968838974833,-9.799353974461557
17.7,1.0,120.0,23.062774658203125,9.446707725524902,-79.78276485806599,40.459032856318025,267.63543412017816,-0.017513614147901542,-0.0019625755958259106,-0.999475359916687,0.02717355452477932,-0.005625023380098668,0.009547908107767268,0.01951426770439241,-0.02562350407242775,-0.06743419170379639,0.04058846458792687,0.022174051024485383,0.37547489661723377,-9.794896057248117
17.81,1.0,118.0,22.9638614654541,10.925737380981444,-79.78276497215867,40.45903279480434,267.63861408758163,-0.01680435985326767,-0.002071778289973736,-0.9994931817054749,0.02696141414344311,-0.017696676951428226,0.0078010577945256095,0.01324902754153888,-0.02772267535328865,-0.04981361329555512,0.04660487920045853,0.009362854063510895,0.3753689889237285,-9.80055031478405
18.0,1.100000023841858,119.0,22.77605438232422,13.708858489990234,-79.78276510440557,40.45903277482689,267.6425482325554,-0.015016476623713968,-0.0019548905547708273,-0.9995229244232178,0.02692120894789696,0.010324761988238087,0.006225421425336968,0.013674764630090928,0.05829181149601936,-0.012541188858449459,-0.08765822649002075,0.09962534450925888,0.4285865085572004,-9.842312883138657
18.1,1.2000000476837158,117.0,22.65460586547852,15.617283821105955,-79.78276510742306,40.45903275807218,267.6468861989975,-0.01302738580852747,-0.001737048733048141,-0.9995574951171876,0.026685193181037903,-0.006333426276529425,0.012526973934427268,0.026148935674008632,-0.016658805310726166,0.035323068499565125,-0.0158942211419344,-0.0667875230172649,0.3543844648450613,-9.793562307357787
18.3,1.2000000476837158,116.0,22.45052146911621,18.567392349243164,-79.78276520134578,40.45903272924342,267.65249696302413,-0.01420488581061363,-0.0014043075498193502,-0.9995421767234802,0.026678651571273804,-0.012322692233233928,0.00972770412831244,0.03156893760119018,-0.05377599596977234,-0.02152215875685215,0.07244247198104857,0.08324796955101192,0.0363504860457033,-9.90368876695633
18.4,1.2999999523162842,116.0,22.336584091186523,20.181602478027344,-79.78276517404245,40.45903272257031,267.6566579632759,-0.017305821180343628,-0.0007066101534292103,-0.9994860887527466,0.0269751325249672,-0.031088390728444718,0.016155751611882287,0.053052314147207735,-0.0925774946808815,-0.025696268305182457,0.01484203618019819,0.14016319527290766,0.01823217114899308,-9.970659266710284
18.6,1.2999999523162842,114.0,22.091182708740234,23.92688751220703,-79.78276522302767,40.45903263182314,267.6737055473328,-0.014594353735446932,0.0014194145333021881,-0.9995113611221312,0.02760457806289196,-0.05650480490612374,0.024318981121603352,0.16759972964728495,0.04682273045182228,-0.05268707126379013,0.07682710886001587,-0.06779735086485744,0.13596928898245098,-10.48300048828125
18.71,1.399999976158142,107.0,22.422975540161133,17.326915740966793,-79.78276509569353,40.45903248157088,267.7183012657165,-0.005943233612924814,-0.0012731546303257346,-0.999602198600769,0.027543595060706142,-0.06239612490641541,0.032584149719395016,0.31536258808298434,0.0724896565079689,-0.016865437850356102,-0.0003153159050270915,0.09016148893162608,0.0935234734788537,-10.869983253479004
18.9,1.5,107.0,22.35161018371582,18.79004096984864,-79.78276501618089,40.459032454689506,267.74971601295465,-0.0018661997746676207,0.0002567727642599493,-0.9996042251586914,0.02807089127600193,-0.0675947244243002,0.03715462796632732,0.3073247805647706,0.06882163137197495,-0.037850815802812576,0.02452829852700233,0.07098726281896234,0.09628344149328767,-9.9306982254982
19.01,1.600000023841858,110.0,22.349105834960934,18.583295822143555,-79.78276490901284,40.459032506517744,267.7618031792641,-0.00021828780882060528,0.0008139914716593921,-0.9995822310447692,0.028891121968626976,-0.06869772521062585,0.030901399471616936,0.2352720777593472,0.03892670944333077,-0.014272819273173809,-0.01596846617758274,0.07377781451214105,0.01728335991036147,-9.584386353492738
19.2,1.600000023841858,109.0,22.266469955444336,19.24329376220703,-79.78276474723711,40.45903244405505,267.8029918961525,0.0006143387290649116,0.0016730475472286346,-0.9995355606079102,0.030423501506447792,-0.05930568918891711,0.053057240876282726,0.1753398134902082,-0.0386347658932209,-0.02410213463008404,0.03245018795132637,-0.01137294978951104,0.13372309936210516,-9.417844787836076
19.31,1.600000023841858,108.0,22.299022674560547,19.267148971557614,-79.78276472806502,40.45903248647909,267.8175854377746,0.0005941101699136198,0.001444677240215242,-0.999529242515564,0.03064043074846268,-0.04629110830195897,0.03531792900646725,0.1323825924581847,0.054788582026958466,0.03027981705963612,-0.01783422008156776,0.09487616286613047,0.1961653143167496,-9.57744687795639
19.5,1.7000000476837158,108.0,22.111215591430664,22.0661735534668,-79.7827646732718,40.459032384928925,267.8595336966514,0.0017409097636118533,-0.0024780272506177425,-0.999565362930298,0.029325567185878764,-0.02713785286883437,0.0428457491694585,0.1287594293040277,0.038215816020965576,0.08378899842500688,0.05227160453796387,-0.016288287146016957,0.03197622056119144,-9.766870352625848
19.61,1.7000000476837158,107.0,22.14752578735352,21.430030822753906,-79.78276463433308,40.45903234677004,267.8735074095726,0.0006782655254937707,-0.0062931026332080356,-0.9995568990707396,0.029087401926517487,-0.03126913950356328,0.05253059854641568,0.1497937016084092,-0.093837209045887,0.013750916346907616,-0.04833545535802841,0.12627804066985845,0.14785564600490034,-9.918081103563312
19.8,1.7000000476837158,109.0,22.10996437072754,21.84352302551269,-79.78276461988541,40.459032194044354,267.92146316099166,-0.004631912335753441,-0.008069271221756935,-0.9995748400688172,0.02763419598340988,-0.012701235209613138,0.05275844988195039,0.1933217513084737,0.018844954669475555,0.00818990170955658,0.016170425340533257,0.13308441895991566,0.04709801102522762,-9.9913081240654
19.9,1.7000000476837158,110.0,22.290258407592773,19.18762969970703,-79.78276479703818,40.45903201096224,267.980727701664,-0.0023036496713757515,-0.0050464202649891385,-0.9996516108512878,0.025806348770856857,0.015848359225151914,0.055226822821176656,0.21833685173685186,0.028485694900155067,0.013315352611243723,0.041555915027856834,0.09455182512290776,0.18074379466474053,-9.994872586727142
20.1,1.7000000476837158,110.0,22.138761520385746,21.30280303955078,-79.78276481371454,40.45903196416783,268.00134494829183,-0.0009195937309414148,-0.0040604863315820685,-0.9996857047080994,0.02472393587231636,0.02703696503291214,0.04705586613413923,0.19453139692729626,0.05735504254698754,0.02429580129683017,0.06808001548051834,0.027800586819648743,0.036647213967517016,-9.671993431448938
20.2,1.7999999523162842,110.0,22.06989860534668,23.48158836364746,-79.78276481821166,40.459031843382014,268.05705568122863,0.0007320499280467629,-0.004388842266052961,-0.99969083070755,0.0244637094438076,0.021197987132423768,0.04754187933622919,0.22799728457786084,0.009859196841716766,0.002332245698198676,-0.026394886896014214,0.01356689933454618,0.12767776359803976,-9.73652330338955
20.4,1.7999999523162842,112.0,22.21138000488281,20.539432525634766,-79.78276484680552,40.45903179983397,268.0819397859573,0.0015871998621150851,-0.00362720200791955,-0.9996764063835144,0.025129243731498718,0.02691735758303313,0.046331470081821736,0.265009399503705,-0.04575376585125923,0.012762662023305893,-0.03219347447156906,0.02194648470031097,0.09846536655910314,-10.137044126987456
20.51,1.7000000476837158,113.0,22.087427139282227,20.78593635559082,-79.78276491272008,40.45903170880447,268.14587241339683,0.0019609860610216856,-0.0039362991228699675,-0.9996163845062256,0.02734542451798916,0.03674749703910767,0.03856399669648846,0.28588518800287205,-0.05837346985936165,0.009269149973988531,-0.002548728138208389,0.10481325005181134,0.018426476866006854,-10.004023479223253
20.7,1.7000000476837158,113.0,22.190093994140625,21.676536560058594,-79.78276496401796,40.4590316748034,268.17163059043884,-0.0006327975424937903,-0.004730117041617632,-0.9995875954627992,0.028319330886006355,0.05395189076213462,0.03470854364179704,0.1942262156871243,0.00651746429502964,0.010365515016019344,-0.03901832178235054,0.08274729257449508,0.0842929857596755,-9.024968029260636
20.81,1.7000000476837158,114.0,21.937179565429688,24.57893371582031,-79.78276515779442,40.45903157420975,268.19385379481315,-0.00263039069250226,-0.0040828995406627655,-0.9995638132095336,0.029132235795259483,0.06738551542733343,0.03759765571787144,0.08236323831945191,-0.04567635431885719,0.0006204945966601372,-0.02102256566286087,0.11045417776331308,0.057870158264413475,-8.987882063984873
21.0,1.7000000476837158,112.0,21.796951293945312,25.88302421569824,-79.78276530689615,40.45903142819152,268.2568950943947,-0.005783641245216131,-0.0019104857929050922,-0.9995233416557312,0.030268421396613118,0.0696723474266163,0.0384845643082202,0.2266548949519654,-0.007330028340220451,0.013974059373140335,-0.08344560116529465,-0.019048010765109213,0.2049246991798281,-10.426944401264187
21.1,1.7000000476837158,112.0,21.696786880493164,27.83916091918945,-79.782765383652,40.45903139074654,268.2855431132316,-0.0067170248366892355,-0.0025234471540898085,-0.999502956867218,0.03070008382201195,0.06554058168598989,0.04082948914482095,0.3503069604724792,-0.046547453850507736,-0.05330969765782356,0.012079051695764065,0.05903501498512924,0.08920932468026876,-10.907831110954287
21.3,1.7999999523162842,112.0,21.64795684814453,28.57072448730469,-79.78276559791253,40.459031238645636,268.38750113475317,-0.006997780874371529,-0.001980739878490567,-0.9994927048683168,0.031009843572974205,0.07705591976127192,0.04653998190884776,0.6584594883647636,0.018084093928337097,0.04271035268902778,-0.02904542349278927,0.08028764303773643,0.18225464209914208,-11.552179073095322
21.4,1.7999999523162842,107.0,21.480182647705078,30.83697891235352,-79.78276567401835,40.45903119365585,268.4633330695629,-0.007211002986878157,-0.001664378447458148,-0.9994872212409972,0.03115496225655079,0.07804914809203067,0.05264758333786521,0.8581928941670497,-0.06196460872888565,-0.04372776299715042,0.0591772235929966,0.06553562957793474,-0.007430696468800306,-11.790630866289144
21.5,1.7999999523162842,108.0,21.363740921020508,31.60034942626953,-79.78276579790213,40.459031104520065,268.5705413624942,-0.0073747197166085235,-0.0022054417058825493,-0.9994925260543824,0.030911885201931,0.07564496016621622,0.05593946980698004,1.0735290422301684,-0.027644459158182144,-0.0203299317508936,-0.07348453253507614,0.06089322357438505,0.26746218720451004,-12.028210254907613
21.7,1.8999999761581416,106.0,21.574085235595703,29.84300804138184,-79.7827659455018,40.45903098834294,268.8350989960432,-0.006642305757850409,-0.0014107924653217194,-0.9995058178901672,0.03069200366735458,0.08695965855758346,0.07251263957490149,1.5637533606207172,0.04834891855716705,0.044695645570755005,0.04862033948302269,0.08915263409726322,0.15798745460808278,-12.20926460981369
21.8,2.0,105.0,21.34496116638184,32.880584716796875,-79.78276607088446,40.45903089526941,269.01143598484987,-0.007817878387868404,-0.0011390605941414833,-0.9995091557502748,0.03031698055565357,0.09579930423290918,0.07491475951629767,1.7635726881731555,0.050183065235614784,0.06381045281887054,0.009402239695191385,0.10278062084689736,0.1039593281596899,-12.035101783275607
22.01,2.200000047683716,102.0,21.3599853515625,31.886613845825195,-79.78276627560689,40.45903070171925,269.4222114377022,-0.0129469595849514,-0.002482460346072912,-0.9994905591011048,0.029067156836390495,0.08410790129803418,0.1009352445652601,2.2060029618157126,-0.13314835727214813,-0.014185767620801926,-0.02571665123105049,0.10795069238170983,0.10763410219922663,-12.114697591066365
22.1,2.200000047683716,102.0,21.11708641052246,35.88635635375977,-79.78276631023051,40.45903061358828,269.6545401506424,-0.014856431633234026,-0.0031287283636629573,-0.999470055103302,0.028796087950468063,0.08410354515556975,0.11061276864210902,2.4331641716525314,-0.08991581201553345,-0.000929775880649686,-0.028862446546554562,0.11755338278599085,0.16422650679945947,-12.089181511402133
22.31,2.5999999046325684,100.0,21.584102630615234,27.147356033325195,-79.78276635465433,40.45903039004457,270.205571144104,-0.013283717446029186,-0.002187983598560095,-0.9995110034942628,0.02822464518249035,0.07130332732222963,0.1342967849789199,2.897974746929344,0.0017028104048222306,-0.0681099146604538,-0.06748180836439133,0.13337091425433756,0.16115006737411022,-12.058062629699707
22.5,2.700000047683716,99.0,21.607891082763672,26.01025199890137,-79.78276629238586,40.459030093692476,270.87336060333246,-0.008830753155052662,-0.00431221816688776,-0.9995467662811279,0.028456231579184525,0.031105599918946562,0.1475445624972248,3.186444434591152,0.1114751324057579,0.07652188837528229,0.03601536899805069,0.1558010344952345,0.1044579129293561,-10.948721859455107
22.61,2.799999952316284,97.0,21.696786880493164,25.000377655029297,-79.78276615991797,40.459029855826714,271.52514406967157,-0.009145021438598631,-0.006231664214283228,-0.9995239377021792,0.02880202606320381,0.004508557732655068,0.1673330248218805,3.3057256235249084,0.06808047741651535,-0.01937288418412209,0.058880560100078576,0.08313306262716652,0.08094266823492945,-10.662749744653704
22.8,2.9000000953674316,96.0,21.763145446777344,25.07989501953125,-79.78276609245461,40.459029618749966,271.9498190574646,-0.009820558130741121,-0.0066178427077829855,-0.9995112419128418,0.028931565582752224,0.0028703936533802715,0.1831317382876813,3.3536366311352634,0.030688056722283363,0.03821439296007157,-0.0010749551001936195,0.16232499226927755,0.08746734777465462,-9.929921715259553
22.91,3.0999999046325684,95.0,21.700542449951172,24.68230628967285,-79.78276601357757,40.45902949649556,272.28362461853027,-0.00986873172223568,-0.006851271726191044,-0.9995064735412598,0.029026839882135388,-0.0038609056336927202,0.1838316098899675,3.345181274323069,0.0038136746734380718,0.011776177212595941,0.007412884850054979,0.0832323647942394,0.11064710847102106,-9.806244333386422
23.01,3.0999999046325684,95.0,21.8282527923584,23.82351493835449,-79.78276600744667,40.45902930943063,272.6898569755554,-0.008938508108258247,-0.00782662071287632,-0.9995110630989076,0.028922956436872482,-0.009017136605965941,0.1851212451978074,3.3764855942843006,0.05126584693789482,-0.02170742675662041,-0.002673874143511057,0.15630687346681954,0.09913665432482956,-9.820624390840527
23.2,3.0999999046325684,94.0,21.779422760009766,23.688335418701172,-79.78276580587487,40.459029066923954,273.3621611289978,-0.00762550113722682,-0.008411411195993423,-0.999534010887146,0.028335863724350933,-0.03542511277772479,0.19168787828171047,3.343142558288596,0.04067335650324822,-0.01928183808922768,0.02334459312260151,0.19599004402756687,0.05976856646127999,-9.650794351100922
23.3,3.0,92.0,21.858301162719727,22.670507431030273,-79.78276579681183,40.45902896840867,273.7074222259521,-0.008507471531629562,-0.007953275926411152,-0.9995344281196594,0.028203222900629044,-0.039484527688661016,0.1855750562173593,3.3110382111022543,-0.001574018388055265,-0.014638350345194341,0.021488180384039882,0.179320874735713,0.010324026681482792,-9.585859267115591
23.51,2.9000000953674316,91.0,21.76815414428711,23.64062309265137,-79.78276567782677,40.459028868697466,274.353580444336,-0.01045649405568838,-0.00952870212495327,-0.9995072484016418,0.02802081033587456,-0.03534960779881677,0.1674308230037117,3.2221505914909727,-0.03976430743932724,0.03657243028283119,-0.02621986158192157,0.1374693464767188,0.20350897863507272,-9.496859967112542
23.7,2.9000000953674316,89.0,21.778169631958008,23.354360580444336,-79.78276543455391,40.45902867329115,274.99432989883417,-0.005082388874143362,-0.012881578877568243,-0.9994966983795166,0.028542976826429367,-0.048684915003161834,0.17151588766654755,3.18145746194256,0.05200987309217453,0.05898285657167435,-0.016378402709960938,0.14333624166436496,0.07837241495959461,-9.614466769695284
23.8,2.799999952316284,84.0,21.676753997802734,24.714113235473643,-79.78276531981786,40.45902873535557,275.2681030921936,-0.003150350181385875,-0.013939045369625092,-0.999470055103302,0.02924644388258457,-0.06490419701249396,0.16145873806162045,3.1163761342859195,0.06958141177892685,0.04277388006448746,-0.029347402974963188,0.2262314413860441,0.01221705932286568,-9.595018345713617
23.9,2.700000047683716,83.0,21.749372482299805,23.767852783203125,-79.78276518826772,40.459028653368456,275.5804171257019,-0.002752617001533509,-0.014104636386036871,-0.9994519948959352,0.029821023344993588,-0.07524869420140168,0.15799049585888975,3.1003165045249887,0.07491300255060196,0.02371223270893097,0.0016856007277965546,0.2047902497649193,0.04822947466280312,-9.64649898648262
24.11,2.5999999046325684,77.0,21.823244094848643,23.36231231689453,-79.78276526476955,40.45902876614997,276.13507363128656,-0.005673118401318789,-0.014402445405721663,-0.9994047284126282,0.030831407755613324,-0.05082043002033531,0.1199741726176573,3.0303466326848487,-0.007746726740151644,0.0015282444655895233,0.010407989844679829,0.19264949318021532,0.08024518677033485,-9.727921464443206
24.3,2.5,75.0,21.749372482299805,23.69628715515137,-79.78276521463819,40.459028894546094,276.6609344177246,-0.006226859986782074,-0.012716011144220827,-0.9994301199913024,0.03064357303082943,-0.03731988621141963,0.08094369982938296,2.9121221386941056,-0.017583275213837624,-0.00724067771807313,0.0017915772041305895,0.1544876219518483,0.13994927854277195,-9.527105859518052
24.41,2.299999952316284,68.0,21.783178329467773,23.48158836364746,-79.78276512246454,40.459028893427465,276.950633972168,-0.005870678462088108,-0.011420589871704578,-0.9994598031044006,0.030253915116190917,-0.03616079939798684,0.06661065710129664,2.8810470229831933,0.05967580527067184,0.005613183137029409,0.02559112012386322,0.16347651002928615,0.022407715811859817,-9.517683071494103
24.5,2.200000047683716,69.0,21.78067398071289,23.64857482910156,-79.78276533743167,40.45902859569696,277.34286114501947,-0.00527888210490346,-0.010403924621641636,-0.9994841217994692,0.029924528673291206,-0.011145933288669528,0.07568820793114993,2.879741413450073,0.09996496886014936,0.02294172346591949,0.007390916813164947,0.15829587696120145,0.05165109167341144,-9.553638769984246
24.71,2.0999999046325684,68.0,21.70304679870605,23.86327362060547,-79.78276521614167,40.45902858395783,277.9143409423828,-0.001911766594275832,-0.012943175621330738,-0.9994918704032898,0.029068615287542343,-0.02619185114989796,0.06256619928734418,2.8397790009485777,0.008647959679365158,0.041119128465652466,-0.01285866741091013,0.1422205198276788,0.2262038132920861,-9.645836496949196
24.8,2.0999999046325684,67.0,21.7205753326416,24.39604187011719,-79.78276507595713,40.45902862078874,278.3218154602051,-0.00010981188825098798,-0.014046492986381054,-0.9994875192642212,0.028765393421053886,-0.04367705923849501,0.058239765400749835,2.8788692610395223,-0.030856290832161907,0.03889601677656174,-0.013627687469124794,0.19928495004773145,0.15765394404530525,-9.730854427814485
25.0,2.299999952316284,65.0,21.636688232421875,25.962541580200195,-79.78276505057401,40.45902843530944,278.9791097335816,-0.0005553248920477927,-0.011997537687420843,-0.9995102286338806,0.028900614008307457,-0.02386678879585832,0.06752316563488414,2.9029710820363057,0.03915077820420265,0.012756719253957272,0.06504540145397186,0.2332016513496637,-0.06829415406100453,-9.84661058664322
25.2,2.200000047683716,59.0,21.685518264770508,24.21315193176269,-79.78276499655202,40.45902846086069,279.5634402923584,-0.0019407559884712107,-0.010489623993635178,-0.9995185732841492,0.0291378665715456,-0.0034263605441338147,0.048715405208474255,2.937574168014819,0.022508859634399414,0.009700956754386423,-0.012425308115780357,0.2266400155797601,0.09661985739134253,-9.954382957220078
25.3,2.200000047683716,51.0,21.65797233581543,24.30857276916504,-79.78276456828888,40.45902855183439,279.9262847595215,-0.0027105994522571572,-0.010099155828356745,-0.9995243549346924,0.029013518244028088,-0.03969409828781463,0.04219518478735243,2.95222239776273,-0.02304799109697342,-0.030856112018227574,0.0016935772728174925,0.19874057427048689,0.05258675124496222,-9.862544249296187
25.5,2.200000047683716,45.0,21.711811065673828,23.1953239440918,-79.7827644452628,40.45902851551018,280.56993576812744,-0.003522168146446347,-0.009311491623520851,-0.9995329976081848,0.02889341115951538,-0.035838296214561915,0.0446391640458165,2.960884967404536,0.03205201402306557,-0.015421467833220959,-0.003951829858124256,0.2159266008809209,0.11266714788973332,-9.818855023384094
25.6,2.299999952316284,36.0,21.699291229248047,22.73412132263184,-79.7827643813127,40.459028527210656,280.8659829788208,-0.0023269373923540115,-0.009863907471299171,-0.9995299577713012,0.028936129063367844,-0.032957781927300436,0.043901711990900164,2.9570670039153217,0.03511609509587288,0.024889547377824783,0.03300730139017105,0.2652061304077506,0.008159236698411405,-9.807103874087334
25.7,2.200000047683716,32.0,21.6817626953125,23.87917709350586,-79.78276431761734,40.45902853631103,281.16130825805664,-0.0007115365006029607,-0.010782130062580109,-0.9995236992836,0.028907593339681625,-0.03276847228660427,0.050233175635030235,2.946367985349697,0.059147231280803673,0.034361880272626884,0.04881572723388672,0.25339336607605223,-0.08203717564232647,-9.738493230342863
25.9,2.0999999046325684,20.0,21.71556663513184,23.4179744720459,-79.78276451526546,40.45902837297772,281.80591770935064,0.0017864573746919632,-0.013097968883812428,-0.9995118379592896,0.02830860577523708,-0.012836913323233074,0.08612810004991409,2.953724877532088,-0.00113549898378551,-0.015465456061065197,-0.02202497608959675,0.21686244774609809,0.02459753690287471,-9.776111876964569
26.0,2.0,22.0,21.679258346557614,23.720142364501953,-79.78276447026856,40.459028336753356,282.15329262542724,0.002448090119287372,-0.013576200231909752,-0.9995103478431702,0.028086688369512558,-0.023014832252540186,0.08252511751703219,2.964701023341397,0.0012564099160954356,0.013765829615294932,-0.05378635227680206,0.21616873042657966,0.08989038825966418,-9.721717568635944
26.21,2.0999999046325684,15.0,21.51899528503418,25.15146064758301,-79.78276445070223,40.45902834596108,282.7443132095337,0.00042625711648724973,-0.014263433404266834,-0.99952632188797,0.027267303317785263,-0.0075884980385909455,0.0654665576179122,2.9458231263402848,-0.002951611997559666,0.01586594432592392,0.021651634946465492,0.19664438400417567,0.00775352215860039,-9.767798305749894
26.3,2.0,15.0,21.64795684814453,24.58688545227051,-79.78276449224347,40.459028269300866,283.08479973602294,-0.00023881622473709283,-0.013714834116399288,-0.9995423555374146,0.02696260623633861,0.023556308383359384,0.06334202902076651,2.971223393051392,0.02841170877218246,0.020095262676477432,0.022910989820957184,0.1910284988209605,-0.0009174235677346588,-9.882582657337187
26.5,1.8999999761581416,12.0,21.65546989440918,24.722064971923828,-79.78276451810903,40.45902825685428,283.7223872833252,-0.000626598484814167,-0.009915740229189396,-0.9995924234390259,0.02676272951066494,0.024550451268908445,0.04850629953991219,2.9727991588763034,-0.01417477149516344,-0.05254437401890755,0.013982530683279036,0.18827160973101856,0.0002096192550379783,-9.679450385570524
26.7,1.7999999523162842,15.0,21.57533836364746,25.79555511474609,-79.78276457953984,40.459028297636884,284.31356140899663,-0.0037996794562786813,-0.006460444536060096,-0.9996095895767212,0.02691763825714588,0.03855589884664277,0.024783754947845096,2.9498171242101585,-0.02994892187416553,-0.03058885782957077,0.007216603029519319,0.13115194159559904,0.13460860535502436,-9.713877621889116
26.81,1.7000000476837158,23.0,21.58284950256348,24.348331451416016,-79.78276462217595,40.459028286574075,284.6554641418457,-0.0045880302786827105,-0.005959261674433947,-0.9996107816696168,0.02686683647334576,0.04860552510688779,0.02237787154102696,2.98161368754869,-0.05467357486486435,-0.0013093308079987767,-0.0025010104291141033,0.16062544422224165,0.18634588407352567,-9.884718060493473
26.9,1.7000000476837158,23.0,21.71807098388672,22.82954216003418,-79.7827646592222,40.45902829702497,284.95462605285644,-0.004576754756271839,-0.005712582264095546,-0.9996145963668824,0.026779359206557274,0.05525453407318578,0.02714819075163349,2.9991743240070057,-0.07057354599237442,0.011297072283923626,-0.042684923857450485,0.1356867588311434,0.20390139989554884,-9.939860812425614
27.11,1.5,32.0,21.660476684570312,23.282794952392567,-79.78276474084477,40.45902833648926,285.5879897766113,-0.0023373174481093892,-0.00741282245144248,-0.9996116757392884,0.02676149643957615,0.05296472846148775,0.03125427321737302,2.987546413673204,-0.011127473786473274,0.028289174661040306,-0.056408695876598365,0.16134885443374514,0.19194885056465866,-9.718496922254564
27.3,1.5,34.0,21.620410919189453,23.61676788330078,-79.78276476871554,40.459028358509656,286.21610066223144,-0.003477015998214484,-0.008150490000844002,-0.9995948672294616,0.02705087326467037,0.04866018415304083,0.03918185108430279,2.9671067034655882,0.04391894489526749,0.01787523552775383,0.019474100321531296,0.2110370860621333,0.08688856478780509,-9.685726786851882
27.4,1.5,42.0,21.5991268157959,24.24495887756348,-79.78276480593047,40.45902836145545,286.51258084106445,-0.0043039298616349714,-0.008190804161131382,-0.9995817542076112,0.02740035019814968,0.05313302216062734,0.04431962205999291,2.960273400962105,0.0235151257365942,0.015264797024428844,0.002168596489354968,0.2216077921539545,0.11189984701573848,-9.729772692918775
27.6,1.5,43.0,21.634183883666992,24.642547607421875,-79.78276488996795,40.45902831423805,287.1328086547852,-0.003760791616514325,-0.009550765156745907,-0.9995520114898682,0.028117895126342773,0.06205133341819241,0.05429185312451089,2.9655259667900733,-0.03764230385422706,-0.008540157228708267,-0.025047535076737404,0.13881881075911226,0.1491644447296858,-9.813184393644331
27.7,1.5,41.0,21.65171241760254,23.592912673950195,-79.78276493156577,40.45902831076946,287.42950817871093,-0.0033019832335412502,-0.009844358079135418,-0.9995427131652832,0.028401890769600868,0.05789179297938845,0.0594636795059335,2.9676177979790253,-0.022401321679353714,-0.033833734691143036,-0.030485268682241436,0.12796689013950527,0.07928407810628414,-9.828714598417283
27.8,1.2999999523162842,45.0,21.62166404724121,23.9825496673584,-79.78276489331714,40.45902831792458,287.74989697265624,-0.002927049295976758,-0.010003403760492802,-0.9995322227478028,0.028754791244864464,0.04635856046700276,0.05207374752786999,2.9641184031763483,0.010341066867113112,-0.013651943765580654,-0.03111976757645607,0.1370434955880046,0.14307814191095533,-9.761478635072713
28.0,1.2999999523162842,49.0,21.5991268157959,24.05411529541016,-79.7827650286613,40.45902826036474,288.3661689453125,-0.0020799324847757816,-0.010435034520924091,-0.9995281100273132,0.02881529927253723,0.05501448382624555,0.05536869063647578,2.9542143327767976,0.009451810270547869,0.0193970687687397,0.008455907925963402,0.1695956942997873,0.09987510284408928,-9.759673599600793
28.1,1.2999999523162842,44.0,21.58284950256348,24.69820976257324,-79.78276507848906,40.45902826001585,288.6616382293701,-0.0027544822078198195,-0.010234947316348551,-0.9995296001434326,0.0287806298583746,0.05545596967154022,0.05609141537931919,2.954377443759532,-0.022892456501722336,0.004582205321639775,0.016032567247748375,0.18751222087070346,0.005561168035492301,-9.826576856374741
28.31,1.2000000476837158,42.0,21.62541961669922,22.29677391052246,-79.782765266604,40.45902820846566,289.2725677185058,-0.004826955962926149,-0.007791685406118631,-0.9995298385620116,0.029259199276566505,0.08314000500533351,0.05648074960455821,2.966862445914652,0.02748940512537956,0.002987808547914028,0.02548282220959664,0.20902323190122848,-0.07686694879084825,-9.923744716644286
28.5,1.2000000476837158,43.0,21.58660697937012,24.34037971496582,-79.78276534353483,40.459028205425405,289.8853931121826,-0.004123660270124674,-0.007408351637423038,-0.9995486736297609,0.028819764032959938,0.071470691289304,0.0440494234452978,2.9563392473260808,0.029828835278749462,-0.015877872705459598,-0.014642977155745031,0.16048078045248987,0.029346362231299283,-9.7528358656168
28.61,1.100000023841858,43.0,21.607891082763672,24.14953804016113,-79.78276539155239,40.45902819913447,290.1806983642578,-0.0037498106248676773,-0.007494288496673106,-0.999555766582489,0.02860317751765251,0.060172476461024665,0.04975167327492303,2.9508460863382897,-0.01807544007897377,-0.009533686563372612,-0.014264170080423357,0.16240780346095562,0.0773174036666751,-9.761131895184516
28.71,1.0,40.0,21.5991268157959,23.664478302001953,-79.78276544004251,40.459028191422185,290.4756107025146,-0.0036898835096508265,-0.007938451133668423,-0.9995579719543456,0.028412669897079468,0.056567327197818436,0.051192243331802105,2.9468972965993925,-0.031962234526872635,0.034085266292095184,-0.0403439924120903,0.1880724024027586,0.1332050269190222,-9.782459029555321
28.91,1.0,44.0,21.48518943786621,25.10375022888184,-79.78276553331804,40.459028240690024,291.3927840881348,-0.003963828086853027,-0.011213483288884165,-0.9995416402816772,0.02784205786883831,0.06396295258124206,0.045082291645712105,2.961968494465022,0.04614341631531715,0.055089160799980164,0.03680119663476944,0.1786682889238,0.031222176421433687,-9.912001168727874
29.1,0.8999999761581421,47.0,21.55530548095703,24.84134101867676,-79.78276557118684,40.459028252107096,291.68927380371093,-0.0034711132757365704,-0.010871156118810177,-0.9995473027229308,0.02783931419253349,0.058304720367891874,0.050504587584891486,2.9631641740069483,0.06937960535287857,0.00428715068846941,0.02286616154015064,0.22148459862917666,0.008632399784401059,-9.831651070117953
29.2,0.8999999761581421,53.0,21.542783737182614,24.276765823364247,-79.78276560765123,40.459028262805965,291.98531338500976,-0.003086026990786195,-0.009074946865439415,-0.9995641112327576,0.027924353256821632,0.052240997676311116,0.05004281061319142,2.9587798433549115,0.06433063745498657,-0.03847483545541763,0.017542386427521706,0.2092322698608041,0.0590464901458472,-9.79161869287491
29.3,0.8000000119209291,53.0,21.542783737182614,24.05411529541016,-79.78276568013523,40.45902824423271,292.29681965637207,-0.0029163295403122893,-0.006996200419962406,-0.99957937002182,0.02799464203417301,0.055190247015007333,0.04605372963168984,2.957638449579246,0.029919007793068886,-0.05599503219127655,-0.0018224060768261552,0.2110899120010436,0.07957656679674982,-9.833253207206726
29.51,0.8000000119209291,47.0,21.592866897583008,23.93483924865723,-79.78276575278504,40.45902822724397,293.199506729126,-0.0008717288146726787,-0.0058961999602615825,-0.9995676875114441,0.028792658820748333,0.04053297876193075,0.03662295132962491,2.93678990261164,-0.0603095255792141,-0.02713667973876,-0.040842022746801376,0.08481484975665808,0.10517710218206047,-9.728080508708953
29.7,0.8000000119209291,48.0,21.441368103027344,27.099645614624023,-79.78276579524511,40.45902821813823,293.49289128112787,-0.0014667490031570196,-0.0071082431823015204,-0.9995635747909546,0.028637742623686787,0.03817050758329709,0.04929878056757482,2.930939537690531,-0.04936356097459793,-0.013273942284286022,-0.032905545085668564,0.1828270296938717,0.15338637197390198,-9.741384678483008
29.81,0.8999999761581421,51.0,21.50271797180176,24.865196228027344,-79.78276583291715,40.45902818697775,293.811941116333,-0.0030513724777847533,-0.007747838273644446,-0.9995629191398621,0.02836779318749905,0.04397526464253783,0.05887186534579869,2.9558050180459734,-0.05346166342496872,-0.003976665437221527,-0.009767903946340084,0.2262994883581996,0.1539263440668583,-9.938490225076675
29.9,0.8999999761581421,51.0,21.47642517089844,24.47555923461914,-79.78276588039958,40.459028169329855,294.1087321929932,-0.004180140793323517,-0.008268005214631556,-0.9995587468147278,0.02822312153875828,0.057478537676776416,0.0647856887490718,2.9765029479659924,-0.07361788302659987,0.02362668141722679,-0.032016731798648834,0.19768021825701,0.17023101255297662,-9.995684180259703
30.11,0.8000000119209291,54.0,21.57909393310547,24.157489776611328,-79.78276584856015,40.45902817109583,294.7187537841797,-0.00437472527846694,-0.008568230085074902,-0.9995545148849488,0.028255295008420944,0.04572331421982795,0.06539921365933472,3.001531607010672,-0.041858505457639694,0.02646863274276257,-0.04521988332271576,0.17697520935907962,0.1367624546494335,-9.948029372692107
30.2,0.699999988079071,55.0,21.58284950256348,24.03026008605957,-79.78276587104877,40.4590281575231,295.0191573791504,-0.004758083261549473,-0.007746499497443438,-0.9995542764663696,0.02843870408833027,0.04209824875638706,0.06651078511161547,3.0055115511823147,-0.005885802209377289,-0.004136272706091404,-0.05093850940465927,0.16679902587085962,0.16922033959999686,-9.853826050758363
30.4,0.699999988079071,55.0,21.536523818969727,24.93676376342773,-79.78276582408003,40.45902811246353,295.6306705169677,-0.0033857047092169523,-0.008078266866505146,-0.9995531439781188,0.028579933568835262,0.038500967287591205,0.06240329150134436,2.98354291657078,0.012614047154784204,0.006423350889235735,0.0053116618655622005,0.16898579316213727,0.038168385392054915,-9.765554729104043
30.61,0.6000000238418579,56.0,21.493953704833984,24.594837188720703,-79.78276584468077,40.45902806987846,296.2469539337158,-0.002537720836699009,-0.009436627849936484,-0.9995461106300354,0.028497818857431405,0.02924248400693737,0.07221976840834607,2.9782239982504533,-0.02203796058893204,-0.05083157494664192,-0.008382173255085945,0.19934954350814224,0.0577407612092793,-9.827815296649934
30.71,0.699999988079071,43.0,21.54153251647949,23.95869445800781,-79.78276586192564,40.45902805333954,296.54529949951166,-0.001560531323775649,-0.009226062335073948,-0.9995563626289368,0.028276126831769943,0.032571726140663566,0.07455067293905981,2.986588666869558,0.03800762817263603,-0.05032335966825485,0.008070153184235096,0.197709527425468,0.05653701593633741,-9.861130392551422
30.91,0.8000000119209291,35.0,21.602882385253906,23.338457107543945,-79.7827658313072,40.45902801157465,297.16371533203124,-0.0032116917427629232,-0.0076442044228315345,-0.9995835423469543,0.027641840279102325,0.01911661881878591,0.069822245976353,2.989695391751904,-0.09105829894542694,-0.03867296874523163,0.010978289879858494,0.1727625645697117,0.0533580218302086,-9.824602836370467
31.0,0.8999999761581421,44.0,21.542783737182614,24.006404876708984,-79.78276581129359,40.45902798006311,297.48125073242187,-0.004335005301982164,-0.007280012592673302,-0.9995837211608888,0.027579057961702347,0.031544068783346736,0.06474437879270523,2.9776392121881328,-0.05190810933709145,0.014495273120701313,-0.03407017514109612,0.17683350574225187,0.14148688612505794,-9.734375036358834
31.1,0.8999999761581421,37.0,21.55154800415039,24.22905540466309,-79.78276582225716,40.4590279604045,297.77865216064447,-0.0039444430731236935,-0.007851891219615936,-0.9995774626731871,0.027708441019058228,0.03571449704124073,0.06510675865717079,2.9681039290198044,-0.023159762844443318,0.044272910803556435,-0.03403210639953613,0.1722523401863873,0.06376893904991449,-9.719755827784539
31.3,1.0,22.0,21.537776947021484,24.38809013366699,-79.78276578047841,40.45902789853011,298.39904591369634,-0.0021009054034948353,-0.007884836755692959,-0.9995757341384888,0.02795988507568836,0.022656977799878842,0.07777758252567861,2.96831521227723,0.07986786961555481,0.01154041662812233,-0.007888675667345524,0.21938782364130024,-0.01759474698454142,-9.756842962503434
31.5,1.0,13.0,21.52525520324707,24.78567886352539,-79.7827657189548,40.45902779028428,299.0136508636474,0.0004191167245153337,-0.00880177691578865,-0.9995629787445068,0.028217528015375137,-0.0028841897511620532,0.09071497268496796,2.9630520421862387,0.00760851614177227,0.01552328374236822,-0.007364318706095219,0.13257657914422452,0.07361227435525508,-9.719041882753373
31.6,1.0,9.0,21.507726669311523,24.14953804016113,-79.78276571444576,40.4590277541458,299.3095473937988,0.0018647885881364343,-0.010803410783410072,-0.9995356798171996,0.028430107980966568,-0.004819268251529712,0.09364276353147884,2.9567575310340937,-0.014039467088878156,0.06515615433454514,-0.0324944406747818,0.18869370561093093,0.08104636495001613,-9.761586223840713
31.7,1.100000023841858,357.0,21.475173950195312,25.40591812133789,-79.7827657129054,40.45902771863963,299.6052131347656,0.0019347848137840629,-0.012772902846336365,-0.9995042085647584,0.028714640066027638,-0.008523824749836727,0.10477397936055356,2.9532633653154656,-0.0730820968747139,0.05753452703356742,-0.049966275691986084,0.2283863230794668,0.05945648503024131,-9.74562741816044
31.91,1.2999999523162842,341.0,21.53151512145996,24.181344985961914,-79.78276561085005,40.45902760456665,300.5413016967773,-0.0029386677779257298,-0.010982956737279892,-0.9995021224021912,0.029434794560074806,0.017521680719245987,0.09775253258555322,2.9880069455304024,0.006593961268663406,-0.051796890795230865,0.020441943779587742,0.19970646120607846,0.03574489266145975,-9.904681624174119
32.1,1.399999976158142,336.0,21.45889663696289,24.80158233642578,-79.78276561958563,40.45902758032618,300.84038922119134,-0.00378214055672288,-0.010594853200018406,-0.999495565891266,0.02970048785209656,0.032119238662341024,0.09077120478173056,2.9906200030691084,0.02391207590699196,-0.002585363108664751,-0.0237156804651022,0.2321148001402617,0.025425689932890242,-9.865493584871293
32.21,1.399999976158142,336.0,21.496458053588867,24.793630599975586,-79.78276562842836,40.45902755717536,301.14007183837884,-0.003400311106815934,-0.011153134517371656,-0.9994786977767944,0.030106496065855026,0.03518548269436643,0.0892355015706342,2.9987938173930333,-0.014700246974825859,-0.0034453258849680424,-0.028664054349064823,0.1918344461359084,0.022253835825249552,-9.865017621517184
32.3,1.5,340.0,21.54153251647949,23.92688751220703,-79.78276548222851,40.45902757870406,301.45960614013666,-0.002725943922996521,-0.011590647511184216,-0.9994688630104064,0.03033754974603653,0.012128267465438271,0.08212693376268015,3.002152447840232,0.008951141498982906,0.00458027608692646,-0.03612518310546875,0.16008115980774165,0.10447395622730256,-9.834841310977936
32.5,1.7000000476837158,345.0,21.53026390075684,24.10182762145996,-79.78276543025427,40.459027514231714,302.07778927612304,-0.0012330779572948813,-0.01277759950608015,-0.9994633793830872,0.03013536892831325,0.006197184957812827,0.0866981266876224,2.986176326597584,-0.0037271843757480383,0.020511798560619358,0.0679033026099205,0.2458442452177405,-0.002168885318096727,-9.749952018857003
32.6,1.600000023841858,339.0,21.491451263427734,25.175315856933594,-79.78276542353234,40.45902750058491,302.3761825256348,-0.0018341579707339406,-0.012517358176410198,-0.9994729161262512,0.029898997396230694,0.0092769939897679,0.09027303337851753,2.9791026684786384,-0.007643373683094978,0.01876199990510941,0.024878691881895062,0.2553068125806749,0.028043529493734242,-9.748813565969467
32.8,1.7000000476837158,340.0,21.59161376953125,23.10785484313965,-79.78276540493228,40.45902743599018,302.9948768310547,-0.002170636551454664,-0.011667885817587377,-0.9995157122612,0.02876785583794117,0.017531280620307878,0.08577634195657308,2.9868296497072566,0.0180414654314518,-0.029806511476635933,0.006463318131864071,0.18800497669726607,0.08708589004352689,-9.773029224872591
33.0,1.7999999523162842,339.0,21.557809829711914,23.815563201904297,-79.78276531112094,40.459027469657386,303.6135139160156,-0.002282674424350261,-0.010905434377491474,-0.9995432496070862,0.02809256687760353,0.002862398636930904,0.06616925844072694,2.9646168921442877,-0.014704803004860878,-0.005088618490844965,0.014281949028372763,0.2714337074384093,0.07636149354279041,-9.713761847019196
33.11,1.8999999761581416,338.0,21.46515655517578,24.849292755126953,-79.78276530090577,40.45902747019093,303.9096450500488,-0.0022129155695438385,-0.010298620909452438,-0.999557375907898,0.027825696393847462,0.012895433929853999,0.06411326926092484,2.9562936008316187,0.03172527626156807,0.01816460303962231,0.02406877651810646,0.2564816826581955,0.0006445752977742812,-9.73536438524723
33.31,2.0,342.0,21.5352725982666,23.38616752624512,-79.78276529558016,40.45902739899179,304.52946850585937,-0.0006587632815353572,-0.012559243477880956,-0.9995589852333068,0.0269033070653677,0.014963328851603385,0.07553560721294428,2.9803359078640645,0.04866298288106918,-0.012708153575658798,0.011921283788979052,0.2190091798827052,0.024542221329174937,-9.864391969442368
33.41,2.0999999046325684,345.0,21.451385498046875,25.056039810180664,-79.78276529897505,40.45902733525804,305.1459541015625,-0.001047361409291625,-0.01468249037861824,-0.9995357990264891,0.026675406843423843,0.00573347438893205,0.09341712975237852,2.9810569641555187,-0.0688188374042511,0.0028962327633053064,0.01448434591293335,0.19722789958119394,0.0329333458095789,-9.784715470075607
33.6,2.0999999046325684,346.0,21.417579650878906,24.29266929626465,-79.78276530576441,40.459027324978926,305.44440075683593,-0.0022057180758565664,-0.014648335985839369,-0.9995279908180236,0.026916833594441414,0.014758338490004422,0.0977749529397526,2.986717054612768,-0.0724480077624321,-0.003274674993008375,-0.017719142138957974,0.30137262102216483,0.04539845841005445,-9.886371653079987
33.71,2.200000047683716,344.0,21.47892951965332,23.974597930908203,-79.78276531315709,40.459027317163574,305.74414059448236,-0.003095012158155441,-0.013615665026009085,-0.9995309710502625,0.027257224544882767,0.02399786092889487,0.0930729964619309,3.001601492196808,-0.0211056973785162,0.012457313947379587,-0.02528177946805954,0.2953048922494054,0.042934834593907005,-9.914508454799652
33.9,2.0999999046325684,345.0,21.534019470214844,23.31460189819336,-79.78276532383502,40.45902728069658,306.362327545166,-0.003805467858910561,-0.010442717000842094,-0.9995402097702026,0.028211310505867008,0.035436987698917705,0.070532039677736,2.997166609336649,0.08766619116067886,0.009775565005838873,0.03747507929801941,0.226075996812433,0.011480736129451543,-9.821514337062835
34.0,2.0999999046325684,341.0,21.441368103027344,24.952667236328125,-79.7827653611005,40.45902725674919,306.67742916870117,-0.002878773724660277,-0.010778087191283705,-0.9995381832122804,0.028267079964280125,0.042076852346307904,0.05762596493099392,2.9804154925695383,0.0536370687186718,0.03605439513921738,0.03047986701130867,0.1963398902490736,-0.029185851593501868,-9.721119398474693
34.1,2.200000047683716,341.0,21.546541213989254,23.410022735595703,-79.78276537107217,40.45902725850443,306.97506329345697,-0.002928159199655056,-0.011592529714107512,-0.9995299577713012,0.028232058510184288,0.02827301186659176,0.06119833856570917,2.9701447714263485,-0.02785594016313553,0.006635463796555996,0.025274217128753662,0.13672723431140185,-0.025225820224732163,-9.690040862560274
34.31,2.299999952316284,343.0,21.475173950195312,24.57098197937012,-79.7827654125558,40.45902721099074,307.5903167419433,-0.0028086027596145877,-0.010929029434919356,-0.9995245933532716,0.0286935530602932,0.03713487351111965,0.07303726354978439,2.9490853397196783,0.057024832814931876,0.030382413417100906,0.005164362955838442,0.2298720640316605,0.05444294071756304,-9.701953395009044
34.5,2.4000000953674316,346.0,21.44011688232422,24.58688545227051,-79.78276538254134,40.459027148831865,308.20330044555664,-0.00250685540959239,-0.00956170540302992,-0.9995326399803162,0.028930081054568287,0.029750122851950025,0.07981728439734621,2.9565114346712806,0.0007193873752839862,0.02483794465661049,0.012584301643073559,0.2438784844055772,-0.0024665714066941288,-9.841794819831849
34.61,2.5,351.0,21.3987979888916,25.33435249328613,-79.78276539374419,40.459027130038535,308.4994964294433,-0.002642451552674175,-0.009383529424667358,-0.999539852142334,0.028725907206535336,0.03056331138402025,0.08196971046727361,2.966831592479932,0.028498543426394463,0.010191225446760654,-0.04140061512589455,0.2330904080718756,0.09407052618451417,-9.858217309713364
34.7,2.4000000953674316,351.0,21.431352615356445,24.93676376342773,-79.78276540504929,40.45902710515501,308.7968635253906,-0.0025866925716400146,-0.010056146420538424,-0.9995436668395996,0.028368029743433,0.029021336366387613,0.08629721740356608,2.9792247292189646,0.021460145711898804,-0.023556454107165337,0.025588467717170715,0.2613807357475162,0.04455638626590371,-9.911685419082644
34.91,2.5,351.0,21.431352615356445,25.533145904541016,-79.78276535062673,40.459026971794856,309.7288131408692,-0.004956651944667101,-0.012147488072514534,-0.9995458126068116,0.02713310718536377,0.02325361353363495,0.11141574734795208,3.003398891514371,-0.026122627779841427,-0.0039784051477909105,-0.005893000867217779,0.29222074180841445,0.06968491430394352,-9.91398337483406
35.1,2.5999999046325684,350.0,21.461400985717773,24.268814086914066,-79.78276534737873,40.45902693149212,310.0298843078613,-0.005009337328374386,-0.012829477898776531,-0.9995412230491638,0.026975810527801517,0.029506756952633106,0.11971269187218413,3.0094004599351836,-0.030175311490893364,0.03607296198606491,-0.05626489222049713,0.3312601887434721,0.14747808946296573,-9.868349364995957
35.21,2.5999999046325684,352.0,21.38126945495605,24.793630599975586,-79.78276534094142,40.45902688924521,310.330890625,-0.003877940820530057,-0.01351822167634964,-0.9995298981666564,0.027244023978710168,0.027945106729054286,0.12327287745467072,3.005212452658562,0.012019904330372809,0.05166981741786003,-0.012738021090626715,0.2590548412688077,0.042496535531245175,-9.79189526617527
35.4,2.700000047683716,353.0,21.34996795654297,25.75579643249512,-79.78276533408355,40.459026817636,310.94353482055664,-0.00117563852109015,-0.015575281344354153,-0.9994958639144896,0.027644285932183262,0.021597745402557083,0.12996480231419652,2.9941797177187044,0.05005626380443573,0.030574072152376175,0.0035611782222986217,0.31733489848673346,0.017666315990500153,-9.818624643087388
35.5,3.0,351.0,21.46014976501465,24.36423492431641,-79.78276530273531,40.459026784437924,311.26099774169916,0.00014827089034952223,-0.016505930572748184,-0.9994770288467408,0.027808815240859985,0.0075942525567030935,0.12963407378777747,2.9967909945451523,-0.02268794551491737,0.015390969812870026,0.004748573061078787,0.2586568103358149,-0.004843641584739089,-9.833261393308641
35.6,3.0,351.0,21.53276824951172,22.51942443847656,-79.78276530363831,40.45902675523021,311.56077191162115,0.0011374611640349028,-0.017583524808287617,-0.9994569420814514,0.027845682576298717,0.004881422537386111,0.13209674008634906,2.994402557589864,-0.009112604893743992,0.0015073679387569427,-0.0008033388294279575,0.2393234485946596,0.03517717827111483,-9.7369010335207
35.81,2.9000000953674316,352.0,21.395042419433594,25.342304229736328,-79.78276526138521,40.459026671641375,312.1741943054198,0.0008650212548673152,-0.01649363711476326,-0.9994678497314452,0.028130264952778816,0.003964271367402831,0.12665595956249562,2.9433752296804023,0.0037278183735907078,0.002778595546260476,0.05283574014902115,0.2869259783998132,-0.02790679601021111,-9.546587027907373
36.0,3.0,351.0,21.387529373168945,24.920860290527344,-79.78276526933305,40.45902657490709,312.785594909668,-0.002154265297576785,-0.016513066366314888,-0.9994599223136902,0.02833104319870472,0.02305416415032765,0.12702192071458546,2.9429941741437644,-0.07176779955625534,-0.01911700703203678,0.013744907453656195,0.2823872234299779,-0.022761748731136323,-9.723007464408877
36.11,2.9000000953674316,348.0,21.447628021240234,24.96061897277832,-79.78276528987897,40.45902654917225,313.0798492126465,-0.003040388925001025,-0.01654292829334736,-0.9994560480117798,0.028368620201945305,0.029979674602954167,0.12716376674047766,2.941291650544377,-0.02405594848096371,-0.002539615845307708,-0.04189027845859528,0.2841550742648542,0.14249993450939655,-9.735739191770557
36.2,2.9000000953674316,347.0,21.387529373168945,25.087846755981445,-79.7827653069478,40.45902652460113,313.37404248046874,-0.003362244926393032,-0.017053065821528438,-0.99944806098938,0.028310209512710568,0.032368984141099434,0.12332146205583873,2.9396230873393816,-0.022744614630937576,0.012414667755365372,-0.037756502628326416,0.317479617074132,0.12539141091518105,-9.778440822958947
36.4,2.9000000953674316,341.0,21.34621238708496,26.216999053955078,-79.78276526397089,40.45902644643152,313.98865887451166,-0.0017523029819130898,-0.017971843481063843,-0.999438226222992,0.02823512442409992,0.03129857995675599,0.12390068011008988,2.946907125629542,0.07095056772232056,0.006145059131085873,-0.01635483093559742,0.3300186786800623,0.0015042213513515893,-9.790743364691737
36.5,2.9000000953674316,344.0,21.32993507385254,26.14543342590332,-79.78276526847887,40.459026363198035,314.3045653991698,-0.0007304257014766335,-0.018407991155982014,-0.9994367957115172,0.02804991975426674,0.020148147372923603,0.12944608908051566,2.9593631634558837,0.040108349174261086,-0.030711552128195763,0.03031321242451668,0.3316355068981648,0.011127205705270172,-9.878608889579773
36.71,2.9000000953674316,341.0,21.395042419433594,24.96857070922852,-79.7827652809916,40.45902632812773,314.90205380249023,-0.0014065555296838286,-0.01821690984070301,-0.9994619488716124,0.027239998802542686,0.01706238498764611,0.12343900228447725,3.0050469889807068,0.0028995044995099306,-0.0028479471802711487,0.014466307125985622,0.27188869390636683,-0.0017654479946941136,-9.976486601829528
36.8,3.0,339.0,21.43886375427246,24.09387588500977,-79.78276532217339,40.45902629768758,315.21812054443365,-0.0011003246763721108,-0.017630619928240776,-0.999477744102478,0.027060892432928085,0.02064268979959659,0.1198024478466613,3.0071704927689398,0.01226140558719635,-0.0373511090874672,0.0031853404361754656,0.2623030061088503,0.05386308421846479,-9.869189025163653
37.0,3.0,337.0,21.368749618530273,25.01628112792969,-79.78276528453333,40.45902629677829,315.8341483764648,-0.000998934032395482,-0.016191642731428146,-0.9994988441467284,0.027183333411812786,0.010021416144081195,0.10043569815076944,3.0018157254859403,-0.030959045514464382,0.04121003672480583,-0.017626823857426643,0.29371501604095096,-0.00504386303946376,-9.78456227302551
37.11,3.0,336.0,21.390033721923828,24.88109970092773,-79.78276528543633,40.4590262977638,316.1342010192871,-0.000540463428478688,-0.015638189390301704,-0.9995019435882568,0.02740513160824776,0.009867089863784956,0.09491952490205736,2.99777172532103,0.046119529753923416,0.0013925847597420216,0.0240249503403902,0.2926102760061622,-0.03250263899099082,-9.786684227585793
37.3,3.0,334.0,21.501466751098643,24.21315193176269,-79.78276529490098,40.45902630555124,316.7485046081543,-0.0005112629150971768,-0.014313361607491968,-0.9994986653327942,0.028239164501428608,0.004297853938683918,0.08654042893574328,2.9730837546473547,-0.021939383819699287,-0.035645443946123116,-0.04260801896452904,0.32060254186391834,0.05433509613387287,-9.685437934398653
37.4,3.0,334.0,21.391286849975586,24.642547607421875,-79.78276529591678,40.45902630926031,317.0450858764648,-0.0013240627013146875,-0.01345459185540676,-0.9994991421699524,0.02861442975699902,0.002939548617027195,0.08347646634600453,2.955545792551552,-0.06323214620351791,-0.033061333000659936,-0.02950767800211906,0.22359350658953192,0.08300207586027683,-9.612262369394305
37.6,3.0,332.0,21.422588348388672,24.66640281677246,-79.78276531390267,40.45902629205903,317.65828701782226,-0.0013522864319384098,-0.01454460900276899,-0.99947851896286,0.02880018204450608,0.011276963208885271,0.07895796800977248,2.9506260575358136,0.02476194687187672,-0.0031145610846579075,0.04382171854376793,0.3091530723497272,0.026419579549692568,-9.796379495859151
37.8,3.0,333.0,21.336196899414066,25.382062911987305,-79.78276531421433,40.459026275916244,318.27230450439447,-0.0016379435546696186,-0.01727188006043434,-0.9994496703147888,0.028274726122617718,0.010493721315525641,0.09568093114116512,2.951724938085277,-0.02116364985704422,-0.004048988223075868,-0.0019588125869631767,0.3829179636016488,-0.02837298355065286,-9.740614015460013
37.91,3.0,334.0,21.368749618530273,25.37411117553711,-79.78276531332047,40.45902627548791,318.56744000244134,-0.0027453650254756212,-0.01658262126147747,-0.999459445476532,0.028256503865122795,0.006210558044006311,0.10200460270413776,2.9498766783779686,-0.007283025421202183,-0.06554863601922989,0.00029012045706622297,0.3216916954144836,-0.0029887905763462197,-9.79551176905632
38.0,3.0,334.0,21.388782501220703,25.1673641204834,-79.78276526762296,40.45902628766611,318.88550946044916,-0.0025613694451749325,-0.015172687359154224,-0.9994819760322572,0.0282671470195055,0.009114940548575829,0.08689639672692978,2.961403075179444,0.00961887463927269,-0.031270094215869904,-0.009302428923547268,0.2798530584387481,0.07435787657741458,-9.818327604532245
38.2,2.9000000953674316,334.0,21.35622978210449,25.636518478393555,-79.78276524720214,40.45902630959096,319.47825238037115,0.00036283492227084935,-0.015595765784382818,-0.9994817972183228,0.028156066313385963,0.004308895722005729,0.07350328212822671,2.964735394219094,0.05781726166605949,0.0560753270983696,0.042490433901548386,0.2720824194699526,-0.06911508486606181,-9.844730122089388
38.4,3.0,334.0,21.405059814453125,24.276765823364247,-79.78276520030927,40.4590263321857,320.0918121032715,0.0010162235703319313,-0.01643949374556541,-0.9994724988937378,0.02798996493220329,-0.013138872081604051,0.08116298557929216,2.995396513841475,-0.003996874671429396,0.004989529494196177,0.02109354920685292,0.3223052145168185,-0.05833756092935801,-10.010602766275406
38.5,3.0,337.0,21.37250518798828,25.07194328308105,-79.78276523512578,40.459026320043996,320.40537640380865,-0.0003658931236714125,-0.016101263463497162,-0.9994770884513856,0.02803776785731316,-0.002022511537299893,0.07943398925927474,3.0015461188406385,0.051477573812007904,-0.020680025219917297,0.014883049763739109,0.3075073369592428,0.03447049886221066,-9.951810182332993
38.6,3.0,337.0,21.395042419433594,24.17339324951172,-79.78276523441673,40.459026339104646,320.7062682800293,-0.0006881537847220898,-0.01617288962006569,-0.99947589635849,0.028036138042807586,0.00498869546125341,0.07395475523375701,3.0093440708864247,0.034183721989393234,-0.03939318656921387,0.0158461332321167,0.3764418068155647,0.05842878662981092,-9.901936941146849
38.81,3.0,338.0,21.3700008392334,24.451704025268555,-79.7827652187256,40.45902637141489,321.320262878418,-0.00011945441656280308,-0.016383517533540726,-0.9994679689407348,0.028201211243867874,0.003550647520598929,0.06482578280157156,2.982594431290944,-0.036154553294181824,0.0011527538299560547,-0.040643982589244836,0.28002641011029483,0.08033663174137473,-9.719131345152855
39.0,3.0,340.0,21.471418380737305,23.91098403930664,-79.78276551263718,40.45902647458289,321.9183807067871,8.55531616252847e-05,-0.015735765919089317,-0.9994773268699646,0.02823888510465622,0.05685225425451941,0.04474362106735258,2.936226102837181,0.03736765682697296,0.003361685900017619,0.026188356801867485,0.3181901999562979,-0.005597530407831074,-9.669743422865867
39.11,2.9000000953674316,340.0,21.42008399963379,23.86327362060547,-79.78276557949515,40.459026514652656,322.21085354614263,-0.0002748692058958113,-0.015127395279705524,-0.9994919300079346,0.02805454283952713,0.059871327932671976,0.041954692091040885,2.9130042641265184,-0.0098478551954031,0.0031176400370895863,-0.023106548935174942,0.3101975312456489,0.04712538787163794,-9.6208010584116
39.2,2.9000000953674316,340.0,21.34621238708496,25.93868637084961,-79.7827656462537,40.45902655453135,322.50136181640624,-0.001180010847747326,-0.0141721423715353,-0.9995111227035522,0.027844782918691642,0.057461609460561176,0.03996866770939572,2.8973269363354293,-0.07759874314069748,-0.03293605521321297,-0.0027786330319941053,0.2547086789645255,0.018599718902260063,-9.642219994068148
39.4,2.9000000953674316,339.0,21.48644256591797,23.799659729003906,-79.78276564457802,40.459026662549576,323.10178753662115,-0.0020118053071200848,-0.012485076673328876,-0.9995368719100952,0.027679739519953728,0.05012480650796044,0.02567805545827176,2.9002765286358767,0.03754619508981705,0.023523133248090744,-0.05050253868103026,0.2594572210684419,0.1099904570169747,-9.752991401553157
39.5,2.9000000953674316,338.0,21.31991958618164,26.06591415405273,-79.78276561410858,40.45902666504771,323.41447827148437,-0.0012961518950760365,-0.01228440273553133,-0.9995354413986206,0.027863159775733948,0.03804849581638646,0.02527726125399175,2.8953391091589045,0.051151055842638016,0.017444940283894542,0.04589506983757019,0.2562819454260171,-0.03447859588544816,-9.662891070842743
39.7,2.9000000953674316,339.0,21.43260383605957,23.72809410095215,-79.7827656726997,40.459026734908136,323.993431060791,-0.0004676224489230663,-0.011415639892220495,-0.9995377063751221,0.028176134452223774,0.029501496499319838,0.03741307800506765,2.90560050590012,-0.01910102739930153,-0.008799506351351738,-0.042178429663181305,0.246337695401162,0.0034810581832425674,-9.830907304286956
39.8,2.799999952316284,338.0,21.408815383911133,24.523271560668945,-79.7827657141422,40.45902675556836,324.30559536743164,-0.0001253770024050027,-0.011679789982736107,-0.9995277523994446,0.028424065560102463,0.0267349477486951,0.034318017302470395,2.907756263698087,-0.02312486246228218,-0.024113446474075317,-0.007642518728971481,0.2070665342733264,0.007752571986056864,-9.729413089156152
40.0,2.799999952316284,338.0,21.34496116638184,25.294591903686523,-79.78276569484608,40.459026824321974,324.90891644287115,0.0003470818337518722,-0.011811406351625921,-0.9995195269584656,0.028655752539634705,0.015780315948505333,0.03174426699346596,2.9036814296758617,-0.005814665928483009,0.03413960710167885,-0.015142438001930712,0.22316152526065708,0.05109908253885806,-9.74029826581478
40.2,2.700000047683716,338.0,21.433856964111328,25.11965370178223,-79.78276573789958,40.45902687822428,325.4897765808105,0.0006294060149230063,-0.013117305003106594,-0.9995021224021912,0.028691438958048817,0.021507539412421502,0.043346133025524786,2.9035591052389744,0.032979432493448264,0.004347275942564011,-0.022510500624775887,0.2515956761687994,0.008463241662830115,-9.788834248781203
40.3,2.5999999046325684,337.0,21.336196899414066,25.437725067138672,-79.78276570576818,40.45902687260646,325.8019485168457,0.0005275548319332302,-0.012966020964086056,-0.9995076656341552,0.028569877147674564,0.011299986602396032,0.05280428623149375,2.903250563341636,-0.0032907277345657357,-0.05311496183276177,0.03280747309327125,0.254486649222672,-0.029899837737903,-9.773788193464279
40.4,2.5999999046325684,337.0,21.361236572265625,24.157489776611328,-79.78276572696201,40.45902689244114,326.09244534301763,0.0004947275738231838,-0.012246203608810902,-0.9995216727256776,0.02839464880526065,0.01557983874766564,0.052877115761402194,2.9086956377091737,-0.0371905080974102,-0.03136548399925232,0.025188658386468887,0.23285858424380426,-0.004598021982237697,-9.840286238193512
40.61,2.5999999046325684,337.0,21.361236572265625,24.10182762145996,-79.78276578356231,40.45902691324521,326.9851493530273,0.0008726257947273552,-0.012081222608685492,-0.999538779258728,0.02784939110279084,0.02774242082788521,0.051367114794142736,2.9122380008959246,0.07970520108938217,0.033998358994722366,0.06587093323469162,0.26932450711727146,-0.037245703898370265,-9.803814815282824
40.8,2.5999999046325684,338.0,21.294878005981445,26.535070419311523,-79.78276575698102,40.45902693141375,327.29810711669916,-0.00040530061232857406,-0.01218810211867094,-0.9995391368865968,0.027800248935818672,0.02821320584010392,0.05026915131975389,2.9257586557075865,0.041992269456386566,0.034821871668100364,0.05459054931998253,0.28021158412098884,-0.07142509593162688,-9.912720376253127
40.9,2.5,341.0,21.422588348388672,23.632671356201172,-79.78276578857977,40.45902694476747,327.5916595153808,-0.0012198624899610875,-0.012204354628920557,-0.9995336532592772,0.02796674519777298,0.03599502264175719,0.05662902434061291,2.944627683615633,0.0009903312893584366,0.032840162515640266,0.010400275699794292,0.281028312239796,-0.006649003678467125,-9.978036113977431
41.1,2.4000000953674316,342.0,21.38001823425293,24.55507850646973,-79.78276581291476,40.45902696740194,328.196670501709,-0.002561292611062527,-0.01292573194950819,-0.9995111227035522,0.028354249894618988,0.03156531813691805,0.05344732120431103,2.9397050615259848,-0.010412318632006643,-0.028405120596289638,-0.007389648351818323,0.1870733325183392,0.12560337248258294,-9.7975512778759
41.2,2.299999952316284,342.0,21.363740921020508,24.88109970092773,-79.78276584133441,40.459026983145364,328.490314453125,-0.002468825317919255,-0.013651935383677484,-0.9995000958442688,0.028411198407411575,0.033401288918222416,0.05410406486339965,2.9336534592124157,-0.0795169472694397,-0.017115801572799686,-0.02528162486851216,0.16345948001369834,0.18118739733472464,-9.760454202890395
41.3,2.299999952316284,343.0,21.376262664794922,24.22110366821289,-79.78276582396724,40.459026953399785,328.7996749572754,-0.0021509495563805103,-0.013636830262839794,-0.9995027780532836,0.028349671512842182,0.031093080349979138,0.06058135718873869,2.929607120527926,-0.06694390624761581,-0.008817714639008045,-0.033890023827552795,0.22397275334224107,0.11415668953210115,-9.820604510307312
41.5,2.200000047683716,344.0,21.31741523742676,24.61869239807129,-79.78276586815741,40.45902700171326,329.4012679748535,-8.55252001201734e-05,-0.01235225610435009,-0.9995269775390624,0.02816768921911716,0.03619587705751307,0.04474065356605753,2.9233099802856324,0.0731934905052185,-0.001969100674614311,0.047410912811756134,0.257602849714458,-0.03241413818439469,-9.82615117907524
41.7,2.200000047683716,345.0,21.351221084594727,24.91290855407715,-79.78276593368301,40.45902704467515,329.9871596984863,-0.0003433849778957665,-0.010120763443410395,-0.999567985534668,0.02759321592748165,0.03776688389314212,0.04146019246187985,2.932593735713541,0.014935248531401156,0.0025243435520678767,0.005862587597221136,0.2297514103911817,-0.00653143124654889,-9.849662833213806
41.8,2.200000047683716,347.0,21.341203689575195,24.817485809326172,-79.78276596705261,40.45902705854096,330.2996673278808,-0.0006917938007973135,-0.009601795114576815,-0.9995777010917664,0.027418358251452446,0.041680147133201034,0.03850325724303949,2.9434965006572646,0.042774204164743417,0.006047068163752556,0.0009309526649303734,0.22482617273926736,0.026249462119303645,-9.874257391691208
42.0,2.200000047683716,347.0,21.358732223510746,24.467607498168945,-79.78276604102884,40.459027062627904,330.9056853942871,-0.0008626552880741656,-0.011075688526034357,-0.9995579719543456,0.027577655389904976,0.037675531620882996,0.046253115897178926,2.9307932186736374,-0.08000216633081436,0.008952085860073566,0.00975223071873188,0.16169670894742014,0.05647402589209378,-9.684991207122804
42.1,2.200000047683716,349.0,21.40005111694336,24.68230628967285,-79.78276608942059,40.45902707202672,331.19799801635736,-0.0017815331229940055,-0.012555068358778957,-0.9995381832122804,0.02761534601449966,0.04740240968767584,0.05451428822277656,2.917693976061015,-0.06642860174179077,0.06564441323280333,-0.033201128244400024,0.24804822525009515,0.07086569555103779,-9.69385207772255
42.2,2.0999999046325684,350.0,21.314910888671875,25.40591812133789,-79.78276613695748,40.45902707929779,331.4894141845703,-0.002839899156242609,-0.013286726549267769,-0.9995239973068236,0.02769871614873409,0.0521165788604655,0.0638855585542431,2.9120709962500286,-0.0475737564265728,0.0468209870159626,-0.011143372394144537,0.2447833775728941,0.026430202752817426,-9.72511889398098
42.4,2.0999999046325684,351.0,21.338699340820312,24.348331451416016,-79.78276623317073,40.45902705314213,332.41242977905273,-0.0026353325229138136,-0.010984250344336031,-0.9995104670524596,0.029177596792578694,0.05973628554086215,0.06067100107100396,2.951179845411797,0.02158135175704956,-0.015730952844023705,0.03241730481386185,0.2333383300155401,0.051462135245092216,-9.90432494401932
42.6,2.0999999046325684,351.0,21.34996795654297,25.135557174682607,-79.78276627635037,40.45902706000633,332.70781323242187,-0.002916600788012147,-0.010288010351359844,-0.9995038509368896,0.02962780557572842,0.058757530756679326,0.05438425781358845,2.9513901582525817,0.025035891681909558,-0.007045657839626074,-0.0020137131214141846,0.2411454958096147,-0.0228089193161577,-9.83608092069626
42.71,2.0999999046325684,353.0,21.30364227294922,25.000377655029297,-79.78276632083885,40.45902706592045,333.00252911376947,-0.003004934638738632,-0.010196764022111893,-0.9994971752166748,0.029872803017497063,0.05762161505296433,0.05210025577664597,2.9448064021735982,0.022882547229528427,-0.029585719108581543,-0.0011720269685611127,0.1990677259862423,0.016447715135291214,-9.773405200839044
42.9,2.200000047683716,355.0,21.34496116638184,24.75387191772461,-79.78276637983824,40.45902709417272,333.61068341064447,-0.003675235202535987,-0.010612468235194685,-0.9995010495185852,0.029524877667427063,0.05950185801849741,0.0502539596958663,2.9578489617861337,-0.027335351333022118,0.04081445559859277,0.02532587200403213,0.1795154225639999,0.05044643277302385,-9.856975361108779
43.0,2.200000047683716,359.0,21.42884826660156,23.410022735595703,-79.78276636743269,40.459027108548455,333.9222449951172,-0.003926429897546768,-0.011285677552223206,-0.9995047450065612,0.029112789779901505,0.05249777324435016,0.05025795371445066,2.9537043137693977,-0.027291998267173767,0.06734266132116318,-0.002287316136062145,0.2122698435746133,0.0997267388831824,-9.81348377108574
43.11,2.0999999046325684,1.0,21.376262664794922,23.799659729003906,-79.78276640352287,40.45902711808147,334.21712872314447,-0.004444126971065998,-0.012385607697069643,-0.9995009899139404,0.028719011694192886,0.05310248242959684,0.05150067155068987,2.94201835296047,-0.00046494818525388837,0.05321294441819191,0.02706497721374035,0.20776315692812208,0.044123450196348134,-9.725270921587942
43.3,2.0999999046325684,3.0,21.357481002807614,25.159412384033203,-79.78276646287964,40.45902711524519,335.12004467773437,-0.005439780186861754,-0.012928291223943232,-0.9994962215423584,0.02847152203321457,0.05846230224179036,0.06572631773678983,2.926542242628709,-0.016389083117246628,-0.0184628926217556,-0.04174976795911789,0.24386876340955496,0.07709574851207436,-9.703124592304231
43.5,2.0999999046325684,6.0,21.351221084594727,24.84134101867676,-79.78276649553351,40.459027134180225,335.43374249267583,-0.00604341272264719,-0.011829271912574768,-0.9995086193084716,0.02839421108365059,0.05776138206353214,0.053648733342064325,2.939733210237771,0.02674345299601555,-0.03909393399953842,-0.009616026654839516,0.18312626095488668,0.080475886836648,-9.852903360128403
43.61,2.0,9.0,21.321170806884766,24.769775390625,-79.78276652059267,40.459027153624135,335.72791668701166,-0.005828989669680595,-0.011126249097287657,-0.9995144009590148,0.028516599908471107,0.054918275890912034,0.04394171600358167,2.942804222653343,0.021789701655507088,-0.05637312307953835,0.03794514387845993,0.18472092457115646,0.05292477512732149,-9.856748489141463
43.7,2.0,10.0,21.31741523742676,25.33435249328613,-79.78276654301557,40.459027174936,336.0223273925781,-0.005280179902911186,-0.010791623033583164,-0.999514937400818,0.028734292834997174,0.04814632805836102,0.04049235351544567,2.9446430199441838,-0.0715375766158104,-0.047788489609956734,0.013749447651207449,0.16696024456992747,0.06422022532671691,-9.828048015832902
43.9,2.0,13.0,21.34496116638184,24.348331451416016,-79.7827665944192,40.45902720538151,336.6312675170898,-0.005371295381337404,-0.010483135469257832,-0.9995123147964478,0.028921375051140782,0.04646055740079392,0.037948797996501665,2.9411209207327285,-0.018283287063241,0.012750158086419106,-0.043484557420015335,0.1779737127944827,0.13580755865201355,-9.776474404335023
44.0,2.0,14.0,21.38502693176269,24.03821182250977,-79.78276658711509,40.459027247386864,336.9458427124024,-0.006319839973002672,-0.010409053415060043,-0.9995089173316956,0.028874857351183888,0.04243157982684349,0.030603281425899468,2.9441157585184974,0.009979041293263435,0.01877276040613652,-0.0037129626143723726,0.19611159302294254,0.10312312150374056,-9.765628404021264
44.2,2.0,18.0,21.351221084594727,24.714113235473643,-79.7827666044903,40.45902729674704,337.53300854492187,-0.006313518155366182,-0.00947945099323988,-0.9995242357254028,0.02866383828222752,0.045504016371055486,0.029858266174202223,2.9308059167320786,0.010039899498224258,0.03393284231424332,0.039931420236825936,0.17119108881801368,0.02348612738773227,-9.758169695734976
44.4,2.0,19.0,21.3700008392334,24.141586303710927,-79.78276651785836,40.45902735789787,338.14288708496093,-0.004255673382431269,-0.009212640114128591,-0.9995478987693788,0.02830311469733715,0.025783702148483842,0.0280111542886936,2.9440793139884875,0.0990271493792534,-0.019791062921285636,-0.010160749778151512,0.2072188725136221,0.09922179526649416,-9.825386363267901
44.51,2.0,22.0,21.32617950439453,25.175315856933594,-79.78276648687066,40.45902736733103,338.4565391235352,-0.003400928806513548,-0.008231665939092636,-0.999565064907074,0.028113117441535,0.019497526888717958,0.032817698902717275,2.9391015597453785,0.067856565117836,-0.04427453503012657,0.0061646043322980395,0.21138241896405816,0.06726730076596141,-9.755232639312744
44.6,2.0,24.0,21.341203689575195,24.769775390625,-79.78276647694044,40.4590273854255,338.75041577148437,-0.003251710208132863,-0.007914014160633087,-0.9995676279067992,0.02813275158405304,0.013168105581489516,0.030714973054008544,2.9395324095012585,-0.03403307870030403,-0.0216395240277052,0.002432100940495729,0.1658638733625412,0.08628695025108755,-9.808087960481645
44.81,2.0,26.0,21.337448120117188,24.87314796447754,-79.78276643937662,40.45902742135787,339.3561210327148,-0.003412268823012709,-0.009526287205517292,-0.9995468258857728,0.028354007750749588,0.01584498811303696,0.035520588711215766,2.9417821528889165,-0.003489937400445342,-0.03290611505508423,0.01321299374103546,0.19831533551216127,0.04898904168047012,-9.832522305250171
44.9,1.8999999761581416,30.0,21.274845123291016,25.040136337280273,-79.78276643519787,40.459027436406714,339.6505851440429,-0.0039798389188945285,-0.009878647513687607,-0.9995331764221193,0.02863661013543605,0.017002115451434114,0.040864924688665656,2.9469987963120574,-0.025482956320047385,-0.035789698362350464,0.013681182637810707,0.17434714173898105,0.08709702716208995,-9.857458341121674
45.1,1.8999999761581416,33.0,21.251056671142575,25.64447021484375,-79.7827664592237,40.45902750188819,340.26007458496093,-0.004013678058981896,-0.009022378362715244,-0.9995269179344176,0.029128797352313995,0.03604309026363009,0.03652233026389135,2.960058801348901,-0.023296212777495384,0.002940395381301641,0.016567373648285866,0.1413225245475769,0.056531419968232514,-9.826465759277344
45.3,1.8999999761581416,35.0,21.249805450439453,25.97049331665039,-79.78276639343878,40.45902752935356,340.87089916992187,-0.003687452990561724,-0.008690081536769867,-0.99952632188797,0.029291192069649693,0.017332843457042328,0.039943441724854915,2.9918558096993846,-0.08797440677881241,-0.06398104131221771,-0.019106755033135414,0.14775305477902295,0.179139099419117,-9.965568680763246
45.4,1.8999999761581416,37.0,21.30364227294922,25.318449020385746,-79.78276639668397,40.45902754371641,341.17067333984374,-0.003560876240953803,-0.008341439999639988,-0.9995247721672058,0.029460730031132695,0.02262339839109349,0.0394920133249934,3.0040327579639228,-0.06591206043958664,-0.035120148211717606,-0.012467189691960813,0.1666973939538002,0.088357595494017,-9.938483208417892
45.5,1.7999999523162842,38.0,21.378765106201172,23.67243003845215,-79.78276632625861,40.459027572658975,341.4825324707031,-0.003399946261197329,-0.008282922208309174,-0.9995253086090088,0.02948175184428692,0.024466538911896568,0.035027329294230365,2.996215620418452,0.008873402141034603,-0.015093657188117502,-0.039127156138420105,0.19491866966709487,0.1814112177863717,-9.883029384613037
45.7,1.7999999523162842,42.0,21.286113739013672,25.032184600830078,-79.78276631085664,40.45902761147057,342.39491650390624,-0.003820605576038361,-0.009751524776220322,-0.9995301961898804,0.028805227950215336,0.03329757062786184,0.04206172529362998,2.96663184426382,0.010721172206103802,0.057583384215831764,0.06073702871799469,0.2102790676429868,0.10495569370687008,-9.703819241523744
45.9,1.7999999523162842,43.0,21.324928283691406,24.63459587097168,-79.78276631903073,40.459027621222575,342.69122692871093,-0.003522710409015417,-0.010068885050714016,-0.9995304346084596,0.028725871816277507,0.03784418262958253,0.04489745992866282,2.9565191136723463,0.06321096420288086,0.03624825179576874,0.0641806498169899,0.22830771457403895,-0.029688737264368683,-9.715557526946068
46.01,1.8999999761581416,45.0,21.256065368652344,25.73194122314453,-79.78276635761246,40.45902766518071,343.0013847045898,-0.0035960085224360228,-0.00987844169139862,-0.99953293800354,0.028696186840534214,0.045497602242743455,0.038316605154817086,2.9461320372858566,0.09310171008110046,0.027149351313710213,0.0681995078921318,0.21645345328375692,-0.0022536117013078182,-9.708107004761695
