time,wind_speed,wind_angle,battery_voltage,battery_current,position_x,position_y,position_z,orientation_x,orientation_y,orientation_z,orientation_w,velocity_x,velocity_y,velocity_z,angular_x,angular_y,angular_z,linear_acceleration_x,linear_acceleration_y,linear_acceleration_z
0.0,0.4000000059604645,99.0,23.06527900695801,0.007951773703098297,-79.78277107387295,40.459034532554284,270.00536072540285,-0.03147033601999283,-0.005489967297762632,-0.9964928030967712,0.0773412361741066,-0.00788386073360127,-0.004217387363582006,-0.00041953799766527244,0.0003171196731273085,-0.0013658329844474792,-0.002181354444473982,0.04768820065073669,0.6178957432508468,-9.790932814478877
0.11,0.4000000059604645,104.0,23.075294494628906,-0.02385532110929489,-79.7827710653447,40.45903453726978,270.0052620201111,-0.03148436173796654,-0.0054746652022004145,-0.9964918494224548,0.07734867185354233,-0.009023142754681137,-0.004988526286652839,-0.00044563160073735243,0.004540226887911558,0.0013901900965720415,0.009721837006509304,0.051989549528807404,0.5872406919300557,-9.794756308794025
0.21,0.5,104.0,23.06653022766113,0.0,-79.78277108344619,40.45903458990853,269.98991620826723,-0.031479574739933014,-0.005454984959214926,-0.9964908361434937,0.07736500352621077,-0.007243447935297391,0.0021664421745394573,-0.0011554262426134447,0.009862864390015602,0.0058282529935240746,0.008232270367443563,0.043989288574084635,0.6195085515081883,-9.790636360645292
0.39,0.5,104.0,23.069034576416016,0.007951773703098297,-79.78277107350193,40.45903458906151,269.9897660045624,-0.03148335218429565,-0.005444936919957399,-0.9964897036552428,0.07737881690263748,-0.010666109164398335,0.0016455802951458795,-0.0008097074733819612,-0.008785341866314411,-0.0004275890823919326,-0.00521632470190525,0.04595939368475229,0.6004026281833649,-9.793893844485282
0.6,0.5,104.0,23.069034576416016,-0.05566241592168808,-79.78277111500839,40.45903469082478,269.9742049007416,-0.03146025165915488,-0.0054422891698777676,-0.996492564678192,0.07735241204500197,-0.0066627573119801935,-0.0024789078444778585,-0.0017068623102499394,0.0031733824871480465,0.00029223435558378696,0.007471667602658272,0.050610278150998056,0.5866972297802567,-9.794913014173508
0.7,0.5,105.0,23.07028579711914,-0.015903547406196594,-79.78277110628792,40.459034694561225,269.9739960460663,-0.03146287426352501,-0.005437024869024754,-0.9964929223060608,0.07734636217355728,-0.009949941141425212,-0.003291441043533149,-0.0012985353362771554,-0.00893220491707325,-0.005017404910176992,-0.012414303608238695,0.045066738557070496,0.619566585123539,-9.792077699303627
0.9,0.5,107.0,23.067781448364247,0.007951773703098297,-79.78277115421763,40.45903475432075,269.95937550354006,-0.031451165676116936,-0.00543100293725729,-0.9964925050735474,0.07735765725374223,-0.00639137847957865,0.0014150792681758818,-0.0015979662755079575,-0.008278151974081993,-0.004099221434444189,-0.0035278284922242165,0.05334464632440359,0.5968804116547108,-9.794604865908623
1.0,0.5,107.0,23.0715389251709,0.007951773703098297,-79.78277116051405,40.45903482985805,269.94632995414736,-0.03143191337585448,-0.0054289260879158965,-0.996493637561798,0.07735078781843185,-0.00769805075103247,0.004567952679713511,0.0007611087171024134,0.0013930468121543527,-0.0009880567668005824,-0.0040516015142202395,0.04694660468492657,0.6162461706250907,-9.792094656229018
1.2,0.5,107.0,23.0715389251709,0.02385532110929489,-79.78277113820359,40.4590348251785,269.9463964729309,-0.031429506838321686,-0.005438359919935465,-0.9964934587478638,0.07735312730073929,-0.012102411015076071,0.003096967005243846,0.0011751894633815466,-0.00706799328327179,-0.005340403877198696,-0.008285622112452984,0.05088648600038141,0.5882840910181404,-9.795027619600297
1.3,0.5,108.0,23.072790145874023,0.007951773703098297,-79.78277115595971,40.45903491751826,269.93345582771303,-0.03144020214676857,-0.005451584700495005,-0.9964932203292848,0.07735076546669006,-0.011616239741209813,0.003000692879656933,0.002728037560326669,0.006728097796440125,0.00345600675791502,0.007214450277388095,0.05156083898618818,0.6017242451012135,-9.793963426351548
1.5,0.5,109.0,23.069034576416016,0.015903547406196594,-79.78277118831174,40.45903498505502,269.92123616027834,-0.031418975442647934,-0.005462335888296366,-0.9964914321899414,0.07738087326288222,-0.009137799282054463,0.006861653503858999,0.004630789808216176,-0.005988231394439936,0.001449814299121499,-0.011073976755142212,0.04655806634109468,0.6216003929078578,-9.791222836375237
1.6,0.5,108.0,23.0715389251709,0.0,-79.7827711764603,40.45903498031965,269.92163527297976,-0.031430136412382126,-0.005454810336232185,-0.9964913725852966,0.07737785577774048,-0.009372947693777152,0.005845927604035223,0.0044452565690907215,0.007824359461665155,0.004024167079478502,0.007531785406172275,0.05299500110093505,0.5957617296651007,-9.79400611102581
1.8,0.5,105.0,23.05401039123535,-0.10337305814027786,-79.78277126372045,40.459035073546154,269.90736353683474,-0.031392648816108704,-0.005439415574073792,-0.9964929819107056,0.07737436145544052,-0.002280900141196677,0.003094911781027592,0.0017519766193366685,-0.002236914588138461,-0.001532012945972383,-0.005059778690338135,0.046815521987155086,0.6186376818269491,-9.791710494160652
1.9,0.5,107.0,23.06027030944824,-0.16698725521564484,-79.78277126101673,40.4590350710738,269.9075280456543,-0.03138229623436928,-0.005420721136033535,-0.9964940547943116,0.07736559212207794,-0.0026790796051378,0.0021769090874818693,0.0017047375877080881,0.007345566526055336,0.005483794026076794,0.009983300231397152,0.05371034398209304,0.5925770802050829,-9.794387349486351
2.1,0.5,107.0,23.06527900695801,-0.16698725521564484,-79.78277132048414,40.459035165281506,269.8962441711426,-0.031356289982795715,-0.005438725464046002,-0.9964945316314696,0.07736910134553909,-0.0018326742256393753,0.0016767211329489016,0.003964132059329028,-0.0019426923245191574,-0.0004852983402088285,-0.0035480279475450524,0.04690488845575602,0.603431741707027,-9.794413661956787
2.2,0.5,110.0,23.062774658203125,-0.16698725521564484,-79.78277131684015,40.45903516451232,269.8966275482178,-0.03137674182653427,-0.005438447929918766,-0.9964923858642578,0.07738800346851349,-0.002805794329884173,0.0008065065655899132,0.003970318132417993,0.006528415717184544,0.0017321978230029347,0.009099694900214672,0.05294172748457642,0.5898656166717411,-9.7948744225502
2.4,0.5,110.0,23.059017181396484,-0.16698725521564484,-79.78277138363171,40.45903525692295,269.88558471488955,-0.031361669301986694,-0.005450682248920202,-0.9964945912361144,0.0773644670844078,-0.0007247926702228218,0.0006656555857914876,0.005608777797764464,0.004932596813887358,0.004387312103062868,0.004030256997793913,0.04665875722188503,0.6109850652515888,-9.792562433481216
2.5,0.5,113.0,23.062774658203125,-0.14313192665576935,-79.78277141056154,40.45903535579571,269.8734921245575,-0.03137810528278352,-0.005450089927762747,-0.996493935585022,0.0773669183254242,-0.004455341489146677,0.0018795992154036808,0.006377384041624218,0.003218403784558177,0.0012625362724065776,0.007149726618081331,0.05060796210542321,0.5879905607923865,-9.795414120554923
2.7,0.5,115.0,23.06152153015137,-0.16698725521564484,-79.78277139498283,40.45903535589073,269.87472021865847,-0.031351737678050995,-0.005467074457556009,-0.9964951276779176,0.0773603543639183,-0.007403887545581377,-0.00035549630667758964,0.006534567307031085,0.007998569868505001,0.00038496160414069886,0.007174906786531209,0.0445587251521647,0.6180379767715931,-9.79126785993576
2.81,0.5,118.0,23.059017181396484,-0.15903547406196594,-79.78277141991059,40.459035472355005,269.8632246284485,-0.0313689261674881,-0.005459390114992857,-0.9964942336082458,0.0773661807179451,-0.010860729663943438,-0.0015893804727971405,0.007653334987498219,-0.002836391795426607,-0.0030060780700296164,0.004039685241878033,0.04977111134212464,0.5927924770116806,-9.795222331881524
3.0,0.5,119.0,23.05776596069336,-0.07951773703098297,-79.78277143852823,40.45903558998946,269.852960231781,-0.0313773937523365,-0.0054736235179007045,-0.9964946508407592,0.077356718480587,-0.012628453403819021,-0.003807151852019804,0.00782760103119041,0.008651738986372948,0.003205602988600731,0.006458286661654711,0.04437140411697328,0.6209185344725847,-9.79114974617958
3.1,0.5,125.0,23.06027030944824,-0.18289080262184146,-79.78277142317897,40.459035595269114,269.8536657123566,-0.03138088807463646,-0.0054660444147884854,-0.9964927434921264,0.0773797482252121,-0.015678882177535096,-0.004486548033364151,0.008099097600906515,-0.0037583375815302134,-0.003418979933485389,-0.004103309940546751,0.04569785412400961,0.5973918968439103,-9.792876428961756
3.3,0.5,128.0,23.06027030944824,-0.15903547406196594,-79.78277146398166,40.459035661371104,269.84581816482546,-0.03136829286813736,-0.0054423492401838285,-0.9964920282363892,0.07739610970020294,-0.01005147023788374,0.004922699365042482,0.01165165700697417,0.0049300543032586575,0.00284820725210011,0.010545640252530577,0.04824490126222372,0.6183184969425202,-9.790720560550687
3.4,0.5,131.0,23.06152153015137,-0.14313192665576935,-79.7827714489588,40.45903565867169,269.84692609596254,-0.031366236507892616,-0.005440129898488522,-0.9964916110038756,0.07740205526351929,-0.013401907102018691,0.004374097980029394,0.012021274484830393,-0.0070604770444333545,-0.0007995702908374369,-0.008184025064110756,0.0460624188836664,0.611473673209548,-9.792759484648704
3.6,0.5,131.0,23.06152153015137,-0.17493902146816254,-79.7827714985241,40.45903575991966,269.8367890148163,-0.031341101974248886,-0.005449084099382162,-0.9964912533760072,0.07741568982601166,-0.010199400771137993,0.003236057702940081,0.010598348099539185,-0.00120112847071141,0.001316448790021241,0.007647706661373377,0.04948143205605447,0.6097303258627653,-9.793791518211368
3.7,0.5,129.0,23.05776596069336,-0.17493902146816254,-79.78277148423031,40.45903575930237,269.8377848892212,-0.03133228421211244,-0.00545391021296382,-0.9964929223060608,0.077398881316185,-0.012881037835505729,0.002224293226701666,0.010828098611880374,-0.006487822625786066,-0.002477959264069796,-0.013033435679972172,0.04428969841450453,0.6199478966742754,-9.790473808050157
3.9,0.5,132.0,23.06152153015137,-0.14313192665576935,-79.78277157452065,40.45903583727284,269.8277846603394,-0.03133399784564972,-0.005434142891317606,-0.9964924454689026,0.07740563154220581,-0.005196885381228371,0.006025463680220425,0.00978562810172015,-0.007617568597197533,-0.003989903721958399,-0.002748362254351377,0.05132357450667769,0.5969301129877568,-9.794507802128793
4.0,0.5,134.0,23.06152153015137,-0.16698725521564484,-79.78277160603787,40.45903596052189,269.81751597213747,-0.03133727237582207,-0.0054503483697772035,-0.9964934587478638,0.07738909125328064,-0.009275745163004615,0.003359210682975137,0.009737516411612909,-0.0021479623392224307,-0.0010013548890128732,-0.00965641625225544,0.04779969974420965,0.6195944324880839,-9.792851285934447
4.2,0.5,134.0,23.06027030944824,-0.15903547406196594,-79.78277157988491,40.459035958858436,269.8193203239441,-0.031369626522064216,-0.005443874280899763,-0.9964912533760072,0.07740554213523865,-0.012966997003548995,0.001810868758684729,0.009841832137126062,-0.005742755252867937,-0.00022772845113649967,-0.006111275404691696,0.053895951965823766,0.5922239814698697,-9.793820754289627
4.31,0.5,127.0,23.07404327392578,-0.07156596332788467,-79.78277164264317,40.459036051499865,269.81073630142214,-0.03136095777153969,-0.0054376814514398575,-0.9964917898178101,0.07740187644958496,-0.008482986279073627,0.0054145285849016645,0.012497607877220972,0.0013463133946061134,0.00093768909573555,-0.00258682481944561,0.047373912809416656,0.6152375990152359,-9.791575423479081
4.5,0.5,126.0,23.07404327392578,-0.07951773703098297,-79.78277170021849,40.45903615838445,269.8034662036896,-0.03133932128548622,-0.005431168247014284,-0.9964924454689026,0.0774034932255745,-0.007306164603708108,0.00461452299925507,0.01497609821373557,-0.011257342994213104,-0.00594381196424365,-0.010330342687666416,0.05068384800106288,0.5886306481808424,-9.795063287615775
4.6,0.5,125.0,23.07404327392578,-0.07951773703098297,-79.78277169019412,40.45903615572047,269.80491555023195,-0.031318046152591705,-0.005424423608928919,-0.9964944124221802,0.07738768309354782,-0.007758033862688722,0.003314792605754249,0.01499031569481448,0.0025811719242483373,0.002966852393001318,-5.8673394960351295e-05,0.04758502927143127,0.6111203917488456,-9.793348299264908
4.8,0.6000000238418579,122.0,23.07654571533203,-0.07951773703098297,-79.78277175322364,40.45903628608331,269.7976526050568,-0.03134794160723686,-0.005425476003438234,-0.996492564678192,0.07739917933940887,-0.008200568184552113,-0.000685549017455006,0.01658849949282134,-0.009433383122086523,-0.004633791279047729,-0.009297703392803669,0.04993160827551037,0.5882617619633675,-9.795486041307447
4.9,0.6000000238418579,123.0,23.075294494628906,-0.07156596332788467,-79.78277174383348,40.4590362882277,269.7992497711182,-0.03133859485387802,-0.005424025934189558,-0.9964946508407592,0.0773758590221405,-0.008251830733954326,-0.0019323944331410148,0.016499035877960987,0.00906332954764366,0.0009038989082910119,0.001418443163856864,0.04977346850093455,0.6057163950428367,-9.793501496315002
5.1,0.6000000238418579,124.0,23.067781448364247,-0.07951773703098297,-79.78277178314146,40.45903639198722,269.79050886917116,-0.03131822124123573,-0.005417598877102137,-0.9964947700500488,0.07738292962312697,-0.01221299449129614,0.0013701048335695268,0.014824434455841943,-0.00686543108895421,-0.0016771213850006461,-0.010736598633229729,0.050678485007956624,0.5888466662541032,-9.794898396134377
5.2,0.6000000238418579,122.0,23.075294494628906,-0.07156596332788467,-79.78277176774475,40.45903639317348,269.7919093399048,-0.031320910900831216,-0.0054136305116117,-0.9964944124221802,0.07738679647445679,-0.01220548456956143,0.00014327761376409654,0.014774964981500403,0.008757278323173523,0.002397275762632489,0.006091540679335594,0.051222504470497365,0.6006158322840931,-9.794768003225327
5.4,0.6000000238418579,126.0,23.07404327392578,-0.07951773703098297,-79.78277183535006,40.45903650780845,269.78532159614565,-0.03130543231964111,-0.005430791061371565,-0.9964955449104308,0.07737630605697632,-0.011523874756652341,0.000633681013561662,0.016331963717641326,-0.0031356052495539197,-0.0003461585147306323,-0.00889531895518303,0.04817540162242949,0.6221216721832753,-9.791291248798373
5.51,0.6000000238418579,126.0,23.069034576416016,-0.07156596332788467,-79.78277191539009,40.45903662530442,269.7772208480835,-0.031315162777900696,-0.005414797924458981,-0.9964947700500488,0.07738380134105682,-0.0071742343500020705,0.0014485007434357807,0.01669084272396362,0.006664539221674204,0.005301980767399073,0.009601648896932602,0.05333521312102677,0.5914127899333835,-9.794349927306175
5.7,0.6000000238418579,129.0,23.0715389251709,-0.09542128443717957,-79.78277189123357,40.45903662688842,269.7804785995484,-0.03130405768752098,-0.005402672104537487,-0.9964963793754578,0.07736842334270477,-0.01088416487845535,-0.0004322885135048603,0.017011344327678826,0.004717789590358734,-0.0012429918861016633,-0.0003161175991408527,0.0445106363715604,0.6069336026161909,-9.792098749279978
5.8,0.6000000238418579,131.0,23.07654571533203,-0.08746951073408127,-79.7827719776417,40.45903674720349,269.77005923080446,-0.0312870629131794,-0.0054074740037322044,-0.9964951872825624,0.07739105075597763,-0.007929604216214305,0.0008741628862703277,0.013959344747299223,0.0022444450296461587,0.0001443208020646125,0.01121778041124344,0.05037731228861958,0.5879484973847866,-9.795729870200155
6.0,0.6000000238418579,134.0,23.06027030944824,-0.16698725521564484,-79.78277204652878,40.45903686648207,269.7619565753937,-0.03127603977918625,-0.005416082218289375,-0.9964972138404846,0.0773686021566391,-0.006587026124552206,0.0007911213434112173,0.012342466814304428,0.009276245720684528,0.003694460028782487,0.005273721180856228,0.04395579042378813,0.6199560827761889,-9.791269614100457
6.1,0.6000000238418579,130.0,23.06152153015137,-0.15903547406196594,-79.78277203712457,40.459036866902345,269.7631486682892,-0.031270600855350494,-0.005426154937595129,-0.996496856212616,0.07737480103969574,-0.009110802812408907,0.00030549432646418035,0.01258486657624918,-0.0013033399591222403,-0.002933352487161756,0.001604641554877162,0.04845841142814607,0.5958705975115299,-9.795111234784127
6.3,0.6000000238418579,132.0,23.056514739990234,-0.17493902146816254,-79.7827720739876,40.45903699690072,269.7562605171204,-0.03128719702363013,-0.005436141509562732,-0.996496081352234,0.07737737149000168,-0.012594488062926044,-7.13300265014732e-05,0.014080482760622182,0.007145206443965434,0.0018258164636790755,0.01246660202741623,0.05318462904542685,0.5921111302077771,-9.795170876383782
6.41,0.699999988079071,135.0,23.06027030944824,-0.15903547406196594,-79.78277218397847,40.45903709338703,269.74758494186403,-0.031234825029969205,-0.005418295040726662,-0.9965002536773682,0.07734571397304535,-0.003627745649308093,0.004904970338331368,0.011576033742731386,0.003398553701117635,-0.0008355203317478299,-0.0007115494809113443,0.04733491462189705,0.6033686283230781,-9.794518911838532
6.5,0.8000000119209291,133.0,23.05025291442871,-0.18289080262184146,-79.78277217788529,40.45903708977887,269.7487217216492,-0.031238807365298268,-0.005396378226578236,-0.9964993596076964,0.07735749334096909,-0.0043498270598614965,0.004042340599785007,0.011645751367685454,0.005930445622652769,0.004040914587676525,0.010795866139233112,0.04796270458493382,0.6155689899623394,-9.792975246906279
6.7,0.8000000119209291,129.0,23.0715389251709,-0.08746951073408127,-79.78277216968415,40.45903708752282,269.74986422348024,-0.03123151883482933,-0.005396317224949597,-0.9964995384216307,0.0773581862449646,-0.007364437447988432,0.003377615220111087,0.011986332191414355,-0.005946284160017967,-0.00559958117082715,-0.008347500115633009,0.04601329770404846,0.6101092619821429,-9.793326079845427
6.9,0.8000000119209291,129.0,23.07404327392578,-0.07156596332788467,-79.78277228345921,40.4590371913226,269.74689686584475,-0.03120575286448002,-0.005359361413866282,-0.9965006113052368,0.07735732942819595,-0.0006976031612593118,0.0059253621385595605,0.017989705410615238,0.0017891983734443786,0.0036444410216063257,0.008807864971458912,0.04926154020242393,0.6094145396724343,-9.792354272603989
7.01,0.8000000119209291,122.0,23.075294494628906,-0.08746951073408127,-79.78277237104756,40.45903732315618,269.73771417427065,-0.031176038086414337,-0.0053567998111248025,-0.9965025782585144,0.07734381407499312,-0.001987495340173318,0.0050853176607520605,0.015629761254910682,-0.009992947801947594,-0.0024304920807480808,-0.012453576549887655,0.04375782106071712,0.6174778135120869,-9.791684181690217
7.2,0.8999999761581421,125.0,23.067781448364247,-0.11927660554647446,-79.7827723618062,40.45903731647932,269.7407997875214,-0.031167674809694287,-0.005362887401133776,-0.996501088142395,0.0773659348487854,-0.003763220410727378,0.003499715833464349,0.01565273154283849,0.0021514715626835823,-0.0016609897138550878,0.004632484167814255,0.05103506923187525,0.6021480951458216,-9.794095573425293
7.3,0.8999999761581421,124.0,23.0715389251709,-0.10337305814027786,-79.78277243380917,40.459037481141145,269.7333363323212,-0.03115529008209705,-0.005376731976866722,-0.9965016841888428,0.07736189663410188,-0.007687059064417166,-0.0029053751950060425,0.017035810911468895,-0.007827358320355415,-0.0015597499441355467,-0.01335107907652855,0.04434299030341208,0.6200779241323472,-9.791239793300631
7.5,0.8999999761581421,123.0,23.07028579711914,-0.08746951073408127,-79.78277248715655,40.45903759279357,269.72880208778383,-0.03117965906858444,-0.005346533376723528,-0.9964994192123412,0.07738368213176727,-0.01131638533934296,0.0053907681523074616,0.02072925465943864,-0.004301046021282673,-0.0012990975519642234,-0.0014967707684263587,0.04782091417349875,0.5950197910889984,-9.794739936590195
7.6,1.0,123.0,23.06653022766113,-0.09542128443717957,-79.78277247156255,40.459037590107314,269.73080408859255,-0.0311640165746212,-0.005357906688004732,-0.9964998960494996,0.07738286256790161,-0.012608366310344107,0.004382157368527285,0.02089842991043908,-0.0016538983909413214,-0.0015727111604064705,-0.008855175226926805,0.04749461213126779,0.6184032084792853,-9.79237883090973
7.8,1.0,124.0,23.075294494628906,-0.08746951073408127,-79.78277259679642,40.45903774784749,269.7199949054718,-0.03115636855363845,-0.005355352070182562,-0.9964995980262756,0.07739043980836867,-0.005481984399212139,-0.0010202343847318688,0.011379916350125571,-0.00832145381718874,-0.001657275133766234,-0.005515932571142912,0.05342606423422695,0.5918034935742617,-9.795017679333688
7.91,0.8000000119209291,124.0,23.06527900695801,-0.07156596332788467,-79.78277259063158,40.45903774990036,269.7210940151215,-0.031134221702814106,-0.005353563465178013,-0.9965003728866576,0.07738923281431198,-0.005867299002944915,-0.0021354364888203268,0.011395319660008969,0.0024777979124337435,0.0022305904421955347,-0.004634083714336157,0.04901675656903536,0.6152869348973036,-9.792325621247294
8.0,0.8000000119209291,120.0,23.062774658203125,-0.08746951073408127,-79.78277271935026,40.45903785082332,269.71595251846315,-0.031104184687137607,-0.005321930162608624,-0.996499240398407,0.07741780579090117,0.00030206233639057075,0.004351145572787957,0.013446118666492837,-0.00987623818218708,-0.004145605489611626,-0.01269826665520668,0.05154045595787466,0.5884391884133221,-9.796112862825394
8.2,0.8000000119209291,123.0,23.022708892822266,1.1927660703659058,-79.782772718426,40.45903784750421,269.71729409980776,-0.03109651617705822,-0.005320569965988398,-0.9964975118637084,0.077443428337574,0.0008693700551802661,0.003187053051617374,0.0133161924964677,0.007738008163869381,0.00547760259360075,-0.00012985469948034734,0.05084334908053279,0.6038179503008724,-9.794989612698556
8.4,0.8999999761581421,123.0,23.06527900695801,0.22264966368675232,-79.78277275615056,40.459037985077465,269.7102948455811,-0.031081559136509895,-0.005352138541638851,-0.9964935183525084,0.07749831676483154,-0.007880597158201875,0.002258734558960961,0.012880675089262142,-0.0021433213260024786,-0.0007137978100217879,-0.0034172858577221628,0.05567396690603346,0.5974033720046282,-9.798642368316653
8.5,0.8000000119209291,123.0,23.062774658203125,0.2385532110929489,-79.78277281353405,40.45903813972586,269.7021149425507,-0.03109909780323505,-0.005358987022191286,-0.9964982867240906,0.07742927223443985,-0.011634868617705971,-3.898415503807368e-05,0.011476608254842752,0.006739712785929442,0.002639858517795801,-0.0054439734667539605,0.054701118129305545,0.5869948530569673,-9.791776567697523
8.7,0.8000000119209291,125.0,23.05776596069336,0.21469789743423465,-79.78277278252506,40.45903814423553,269.70431840705874,-0.03106956370174885,-0.005342365708202125,-0.996493637561798,0.07750304788351059,-0.013290580004926012,-0.0016099668916242176,0.012014860527513334,0.006444705184549093,0.004821212962269783,0.0013838082086294892,0.0401045994926244,0.6146699074655771,-9.793933020830154
8.8,0.8000000119209291,121.0,23.059017181396484,0.2624085247516632,-79.7827728908199,40.459038257570185,269.698923948288,-0.031057309359312057,-0.0053422763012349606,-0.996499001979828,0.07743889838457108,-0.008574407032080875,0.0044491448274847295,0.014652441005332462,-0.0051741045899689215,-0.0043152361176908025,-0.003491315059363842,0.048581600384786726,0.5881353159248829,-9.798096823096275
9.0,0.8000000119209291,120.0,23.05776596069336,0.3021674156188965,-79.7827729654992,40.45903838922798,269.6933883457184,-0.03101940080523492,-0.00535027775913477,-0.9964945316314696,0.07751091569662094,-0.0066147439965603405,0.0033271818596427184,0.01300461988425464,0.003037388669326901,0.0016126524424180384,0.005726433359086514,0.04720386846922338,0.6206271238625051,-9.79310563981533
9.1,0.8000000119209291,117.0,23.05401039123535,0.326022744178772,-79.78277295621693,40.4590383875232,269.6946424274445,-0.031000509858131405,-0.005358553025871515,-0.9965003132820128,0.07744322717189789,-0.008888182906695416,0.002752915402309709,0.01314886378302532,-0.004452813416719437,-0.0029824702069163322,-0.012590761296451092,0.047843192978762085,0.6176135420054197,-9.786862567663194
9.3,0.8000000119209291,115.0,21.76189422607422,29.80324935913086,-79.78277299893328,40.459038525520775,269.6906708507538,-0.03102260641753674,-0.005383150652050972,-0.9964959621429444,0.07748882472515106,-0.012898120875022026,0.002487947439287815,0.0144116939572587,-0.008489400148391724,-0.00779640581458807,-0.017078550532460213,0.05800733028911055,0.5925376480445266,-9.797763531804083
9.4,0.8000000119209291,111.0,22.973878860473643,1.1450554132461548,-79.78277298445029,40.459038525419054,269.6921187667847,-0.030943842604756355,-0.005329284816980362,-0.9965086579322816,0.07736077159643172,-0.010386678527019213,0.003190144637941431,0.014683274114176787,0.015178777277469637,-0.010502575896680357,0.01390013378113508,0.06758633033372463,0.5760520813241601,-9.782110535502435
9.6,0.8000000119209291,112.0,23.05776596069336,0.15903547406196594,-79.78277307723549,40.45903865654464,269.6888958244324,-0.03087713569402695,-0.005312115419656038,-0.9965091943740844,0.07738132774829865,-0.008066172498320286,0.0002301622112810688,0.016248339386527866,0.005118134897202253,0.022127622738480568,-0.0034327483735978603,0.07455811630468816,0.6436204223334789,-9.794555749297142
9.7,0.8000000119209291,110.0,22.15503692626953,15.227646827697756,-79.78277306578774,40.45903865723251,269.6904426841736,-0.030906671658158306,-0.005307593382894993,-0.9965028762817384,0.07745131850242615,-0.011356019800414516,3.935883338932801e-05,0.016867991337640748,-0.01741543784737587,-0.00022916473972145468,-0.009950206615030766,0.03941492040641606,0.5832315850630403,-9.790742195248605
9.9,0.8000000119209291,110.0,23.046497344970703,0.3419262766838074,-79.7827731578449,40.4590387652647,269.6881452827454,-0.030883003026247025,-0.005255171097815037,-0.9965092539787292,0.07738234102725983,-0.003633381652262759,0.005895437922783077,0.016746074122560083,0.011089077219367027,-0.03145015612244606,0.0054841432720422745,0.046468681599944835,0.5833886924386025,-9.807226665616037
10.0,0.8000000119209291,107.0,23.05526161193848,0.17493902146816254,-79.78277320938854,40.45903890519088,269.68280089187624,-0.030871264636516568,-0.005270841997116804,-0.9965069890022278,0.07741560786962509,-0.004927968560178117,0.0043805870097700424,0.01591733635569751,0.011470085941255093,-0.00853016506880522,0.012082790955901146,0.0434838333260268,0.558977553807199,-9.799346373081207
10.2,0.8000000119209291,106.0,22.98264312744141,1.5187888145446775,-79.78277318737551,40.45903890333742,269.6858645706177,-0.03087179735302925,-0.0053140479139983645,-0.9965053796768188,0.07743261009454727,-0.00797092864509197,0.0012561841474382548,0.01591570509851985,0.0071767191402614125,-0.013378123752772808,0.0059615885838866225,0.040507892919704316,0.6305622010678054,-9.794971486330034
10.3,0.8999999761581421,104.0,22.886234283447266,3.347696781158448,-79.78277329442128,40.459039053373104,269.682655456543,-0.03085988573729992,-0.005295588169246912,-0.9965013265609741,0.07749078422784805,-0.0023530419159762572,-0.0017648523257032254,0.01714387203634929,-0.007097604218870401,-0.01820896379649639,0.0008196145645342767,0.04767012909986079,0.6044796723872423,-9.798603776693344
10.5,0.8999999761581421,104.0,22.79358291625977,5.248170852661133,-79.7827733958765,40.45903916687523,269.67953002738955,-0.030750909820199013,-0.005245410837233066,-0.9965142011642456,0.0773722380399704,-0.00019790616202232982,0.003106451098483029,0.014426962731331002,-0.029453231021761894,-0.004416420590132475,-0.011727743782103062,0.05299823534209282,0.593646937943995,-9.807229589223862
10.6,0.8999999761581421,102.0,22.747257232666016,6.289853096008301,-79.78277339733026,40.459039163855635,269.68093192863466,-0.030724806711077687,-0.00515859154984355,-0.9965155124664308,0.0773712694644928,0.004066733552331395,0.000612927771468144,0.013480366560178364,0.040451258420944214,0.02790290303528309,0.026536194607615467,0.07136229774914682,0.5794630911201238,-9.815867096185682
10.8,0.8999999761581421,104.0,22.62956428527832,8.691288948059082,-79.78277345416245,40.45903930097586,269.6784638195038,-0.03038334473967552,-0.005103182513266803,-0.9965304136276244,0.0773172527551651,0.0026936417510369853,0.0018724301517285755,0.014811774260182478,0.0393822118639946,0.005703462287783623,-0.04727821052074432,0.024460328333079817,0.6759955783188344,-9.795324073433877
10.91,0.8999999761581421,104.0,22.581987380981445,10.766701698303224,-79.782773454748,40.45903930130892,269.68008220481875,-0.029657252132892605,-0.005392052698880434,-0.9965431094169616,0.07741588354110718,0.006877198993519842,-0.002560512200007208,0.019804811047084616,0.09476792067289352,0.12047836184501648,-0.03878716379404068,-0.06914934589527548,0.5424989306554199,-9.79164208173752
11.1,0.8999999761581421,105.0,22.43800163269043,12.897777557373047,-79.78277353268784,40.459039446526155,269.67980587768557,-0.02768602967262268,-0.005854900926351547,-0.9965904355049132,0.0775042250752449,0.0025855226213177505,0.0013183690950681042,0.02026414427868577,-0.02829061634838581,-0.011455731466412544,0.07720205187797546,0.04063910809345544,0.6846484342217446,-9.85759048819542
11.2,0.8999999761581421,104.0,22.356616973876953,14.710782051086426,-79.78277353553256,40.45903945019928,269.6817871360779,-0.0265127457678318,-0.006139150355011225,-0.9966158270835876,0.07756561040878296,0.00573579127327409,-0.007524111665131251,0.0219961802008534,0.04911233857274056,-0.011904101818799973,-0.02195851318538189,0.11745199754834175,0.6616403715312481,-9.794265727400779
11.4,0.8999999761581421,104.0,22.1988582611084,17.899442672729492,-79.78277360141945,40.45903953691585,269.6834412841797,-0.0250918548554182,-0.008782844990491867,-0.9966201782226562,0.0777268186211586,-0.0006216489789992488,-0.005769036083292254,0.03471843900838309,0.011380132287740707,0.057272981852293015,-0.0911768451333046,0.05587475024163723,0.6288349335640671,-9.882553421258924
11.5,0.8999999761581421,104.0,22.123735427856445,19.50570106506348,-79.78277364058144,40.45903965759403,269.6797062187195,-0.02647498808801174,-0.009592872112989427,-0.9965606331825256,0.07793702930212021,-0.02686845959082313,0.001918913061439316,0.043062127194778886,-0.08251728862524033,0.030601320788264275,-0.019300609827041626,0.10687313276343048,0.3121687372773886,-9.899726693630221
11.7,0.8999999761581421,103.0,21.940937042236328,23.24303436279297,-79.78277352230289,40.459039670189455,269.6891456871033,-0.02728730067610741,-0.007190175354480743,-0.9965124726295472,0.07852799445390701,-0.07805842478912907,-0.0017870026506602672,0.08832488127420299,0.01843773014843464,0.016973907127976418,0.03608071058988571,0.04810367729980499,0.3743134568631649,-9.821359970569613
11.8,1.0,100.0,21.862056732177734,25.127605438232425,-79.78277353629792,40.4590398467521,269.69330680656435,-0.026571718975901604,-0.004730319604277611,-0.9967960715293884,0.07529515773057938,-0.10377652619255627,-0.003572993537666786,0.16380192183694012,-0.024969547986984253,0.014693242497742174,0.02191285230219364,0.0937832177616656,0.3844094055891037,-10.53080615401268
12.0,1.0,97.0,22.20011138916016,18.392452239990234,-79.78277312337043,40.45904021449145,269.73034179496767,-0.012198150157928469,0.0021784736309200525,-0.9975500702857972,0.06885073333978653,-0.12385624873117425,-0.009690970495408477,0.3023016707992749,0.4031402468681336,0.10232385247945787,0.019412873312830925,0.02344579987227917,0.2345667203888297,-10.786810119152072
12.1,1.0,95.0,22.137508392333984,19.060401916503906,-79.78277294916401,40.45904022498111,269.76028120803835,0.0021101864986121655,0.0033384340349584822,-0.997610569000244,0.06897486001253128,-0.14180517268222634,0.005922804626416336,0.29969976088399225,0.252421110868454,0.04382027685642242,-0.019531043246388442,-0.06364611097611488,0.03785489240661264,-9.99346457719803
12.3,1.0,95.0,22.1988582611084,17.756311416625977,-79.78277239545162,40.45904041957865,269.7955499916077,0.009457137435674669,-0.0026408126577734947,-0.9972948431968688,0.0728466808795929,-0.12992184683725755,0.00157646831688731,0.19735316338342745,0.027152881026268,0.08216448128223419,-0.01909247040748596,-0.1087228446174413,-0.055340712158940736,-9.577984237074851
12.4,1.100000023841858,100.0,22.073654174804688,20.18955421447754,-79.78277225276666,40.45904042698472,269.81345594215395,0.009044350124895573,-0.003350022947415709,-0.997148871421814,0.07484140247106552,-0.11628575534035315,0.019701126997510858,0.1429301921836249,-0.026823410764336586,-0.05781959742307662,-0.04846132174134255,0.18112543512135745,-0.056915180040523414,-9.24714234352112
12.6,1.100000023841858,99.0,22.01105117797852,21.64472770690918,-79.78277238403498,40.4590405112914,269.8155673770905,-0.0004204896977171302,-0.0034821503795683393,-0.997053325176239,0.076632060110569,-0.054831825521889255,0.015352784179546282,0.05655489268319296,-0.09404811263084413,-0.03468852490186691,0.04388198629021645,0.11655181869864464,-0.08039830159395933,-9.303103120923044
12.7,1.100000023841858,98.0,21.974742889404297,21.946895599365234,-79.78277232225719,40.459040503272206,269.8214687137604,-0.0018002528231590984,-0.0027154129929840565,-0.9970241785049438,0.07702039182186128,-0.04190138222678449,0.026101812871443447,0.05853162830774205,0.08009914308786392,-0.05123094096779823,0.0054861772805452355,0.21046246921643616,0.021375156913418326,-9.771295525431633
12.8,1.100000023841858,99.0,21.937179565429688,22.185449600219727,-79.7827723582318,40.459040549233016,269.8388747005463,0.00433299271389842,-0.0035895337350666523,-0.9971011281013488,0.07588031888008118,-0.013513080041204438,0.038567289508580176,0.09306984109878187,0.05479249730706215,0.005244207568466663,0.02552224136888981,0.17315752571448684,-0.0774057879857719,-9.832698891162874
13.0,1.2000000476837158,97.0,21.972238540649414,21.795812606811523,-79.78277222459614,40.459040634065,269.8520602016449,0.00518767675384879,-0.006530644372105598,-0.9971563220024108,0.07489864528179169,-0.03595478892288876,0.05028561947491605,0.11050383355540123,-0.07627412676811217,0.022574106231331825,0.009494759142398834,0.20645106000825764,0.14005976350978014,-9.931279438734057
13.2,1.2000000476837158,97.0,21.99352264404297,21.239187240600586,-79.78277217125739,40.45904055630381,269.87748706626894,0.008575277402997017,-0.007620102260261773,-0.9972402453422546,0.07335085421800612,0.013131960391930169,0.04588420464291318,0.14558619258546632,0.21045048534870148,-0.017675358802080154,-0.03776747360825538,0.1672336932644248,-0.006116249242331833,-9.985869044065476
13.3,1.2000000476837158,98.0,21.96973419189453,22.137739181518555,-79.78277216153923,40.4590406679459,269.8911150722504,0.012111890129745008,-0.007699060719460248,-0.9972181916236876,0.07314298301935196,0.009611561767959177,0.04365694847623852,0.14886403308359358,0.0055876262485981,-0.04628340527415276,-0.03590008616447449,0.10456529156304896,-0.013226219080388549,-9.862980451583864
13.5,1.2000000476837158,99.0,21.869569778442386,23.05219268798828,-79.782772027337,40.45904065531553,269.9224642543793,0.007634105626493692,-0.008964166045188906,-0.9972450733184814,0.07323738932609558,0.01181280501259117,0.04682177605139788,0.14317194661301075,-0.03596629947423935,-0.029330145567655563,-0.011280069127678871,0.1241224737558514,0.053790953331626964,-9.787305201888085
13.6,1.2999999523162842,104.0,21.922155380249023,22.479665756225586,-79.78277203873556,40.45904061413156,269.93744957733156,0.0063309865072369576,-0.009234916418790816,-0.9972361326217652,0.07344888150691986,0.023750250065888216,0.044347386066271526,0.15995626631336676,-0.07993160933256149,-0.10947958379983902,-0.08226002007722855,0.062242039181292064,0.11615678446367385,-9.907503490448
13.8,1.2999999523162842,102.0,22.392927169799805,8.222134590148926,-79.7827723146862,40.45904058558863,269.97901070404055,0.008047636598348621,-0.00856047309935093,-0.997214376926422,0.07365746051073074,0.08415861967888365,0.03724814129185661,0.19461934353133745,0.011120478622615336,0.03099931217730045,0.015728550031781197,0.08959315784275533,0.11801449969410895,-9.990164408683775
13.9,1.399999976158142,103.0,21.974742889404297,21.37436866760254,-79.78277242268996,40.4590405498984,269.9977840213776,0.009988715872168541,-0.010029644705355169,-0.9971659183502196,0.07389052212238313,0.09622147195153624,0.025264168677704545,0.1483375113560601,-0.011164519004523754,-0.004279546905308962,-0.004628486000001431,0.04869351061061025,0.07831133896484971,-9.275638164281846
14.1,1.2999999523162842,105.0,21.76189422607422,25.294591903686523,-79.78277269590438,40.459040563120695,270.0185850887299,-0.0018556246068328621,-0.007395500782877206,-0.9972038269042968,0.0743401050567627,0.10568092175145384,0.02171573396100909,0.0521822042066166,-0.16788125038146973,-0.061486184597015374,-0.038965459913015366,0.15638741886243224,-0.05864229222759605,-8.920964189171789
14.2,1.2999999523162842,111.0,21.700542449951172,26.86904335021973,-79.78277282373848,40.4590405308652,270.02725374984743,-0.006928841583430767,-0.004895484074950218,-0.9971661567687988,0.0747506245970726,0.10973454199850888,0.02363940787110347,0.1308216571353397,-0.05626019462943077,-0.05182147771120072,-0.1033078134059906,0.12062550075352192,0.273140107691288,-10.422405792474748
14.4,1.2999999523162842,109.0,21.59161376953125,29.12734794616699,-79.78277281409973,40.45904035004632,270.1153172283173,-0.004430721513926983,-0.0021181378979235888,-0.997108280658722,0.07583646476268767,0.09450200086888558,0.05548381237864,0.4279765637805821,-0.012117183767259121,0.0063238623552024364,-0.02698939107358456,0.06616073347628118,0.3214481954276562,-10.850568158626556
14.5,1.2999999523162842,112.0,21.524003982543945,30.391679763793945,-79.78277266674267,40.45904037386165,270.14645707893374,-0.0024249861016869545,-0.0047974158078432074,-0.9970890283584596,0.07605669647455215,0.08569002221796862,0.047243698532037526,0.5453059826065129,0.06585603207349777,0.07930269092321396,0.000960826699156314,0.11672252998687327,-0.04126234819181264,-11.340873563289644
14.6,1.2999999523162842,113.0,21.5064754486084,30.137222290039066,-79.78277281573162,40.459040280906756,270.2917054920197,-0.0024340599775314327,-0.010039559565484524,-0.997024416923523,0.07639218866825104,0.06722793441448177,0.05511330973416249,0.9255685991356438,-0.029720691964030262,-0.05636516585946081,-0.04436031728982925,0.169418432302773,-0.06518506159074605,-11.544542609453206
14.8,1.399999976158142,117.0,21.45263671875,31.592397689819336,-79.78277296312206,40.4590403574972,270.38718283462526,-0.002732441993430257,-0.008953314274549484,-0.9970113635063172,0.07668674737215042,0.06921230788904427,0.05423425821992234,1.1521953813936348,-0.04810382798314095,-0.0738835334777832,-0.10649598389863968,0.15965014692395926,0.17087049694731832,-12.141245119571689
15.0,1.399999976158142,121.0,21.286113739013672,34.39937210083008,-79.78277320146499,40.459040423091395,270.6594413547516,-0.0034292826894670725,-0.0011360053904354572,-0.9970101714134216,0.0771864652633667,0.07345405339426776,0.04114420493108967,1.6267227563112678,-0.03668199852108955,-0.10392045974731444,-0.10585304349660872,0.15486858632415534,0.13261170811951162,-12.16743479847908
15.1,1.5,127.0,21.43260383605957,31.49697685241699,-79.78277327555539,40.45904038987213,270.83622741985323,-0.0019462421769276261,0.002511297119781375,-0.9970359206199646,0.07687201350927353,0.07867389706430238,0.03636450864940393,1.9051454464778568,0.01236578356474638,-0.08856529742479324,-0.0447395034134388,0.08552678480744362,0.05470006288960577,-12.516209517717366
15.3,1.600000023841858,131.0,21.258569717407227,34.83672332763672,-79.78277360737216,40.45904048988071,271.23136002111437,-0.00044756935676559806,0.0022641748655587435,-0.9971089363098145,0.0759502425789833,0.0769580938636115,0.03108116435027122,2.305669224867062,-0.06822298467159271,-0.018470533192157745,-0.05677969753742217,0.02607595513109117,-0.03159955937415362,-12.202498211860654
15.4,1.7999999523162842,130.0,21.39253807067871,32.11721420288086,-79.78277368858134,40.45904042975994,271.47277927684786,-0.0029661988373845816,-0.00020525068975985047,-0.9971309304237366,0.07563823461532593,0.07119359655126845,0.05251048959754194,2.5275846781940574,-0.11739153414964675,-0.028197728097438805,-0.022687628865242004,0.05249402719549835,0.09835469886660576,-12.00191181778908
15.6,1.8999999761581416,129.0,21.57032966613769,28.50710868835449,-79.78277411258009,40.45904055261318,271.9547116338015,-0.01518659945577383,-0.001546774641610682,-0.9970069527626038,0.07579110562801361,0.09996216610100482,0.07125500537716536,2.8406376325465144,-0.1415969282388687,-0.05569865554571152,-0.0654885321855545,0.15647192940115928,0.1546256527863443,-11.832146097421651
15.7,2.200000047683716,130.0,21.600378036499023,27.179162979125977,-79.78277415410244,40.45904048515647,272.2453139229417,-0.01771024987101555,-0.0027129810769110922,-0.9969487190246582,0.07597554475069046,0.12422147774836585,0.07300764130352552,2.959342141718478,0.004331921692937613,0.01816681958734989,-0.03053347021341324,0.10418669348582626,0.1886008079722524,-11.120743435621264
15.9,2.200000047683716,129.0,21.620410919189453,26.81338119506836,-79.78277460759419,40.45904075181896,272.7435549526215,-0.012543446384370329,-0.004923101514577866,-0.9970309138298036,0.07581501454114914,0.11030382105633543,0.06577348221139538,3.017299697939201,0.20534802973270416,0.04753453657031058,0.08920542895793915,0.07167459845077248,0.18136632213369014,-10.72285444378853
16.0,2.4000000953674316,124.0,21.654216766357425,26.3521785736084,-79.78277519527566,40.459041081225365,272.929601433754,-0.009373039007186891,-0.006147851236164571,-0.9970306754112244,0.07618637382984161,0.08452174331553061,0.04811892660921197,2.973995285337895,-0.07420637458562851,0.020479179918766015,-0.08177785575389862,0.04222901627887042,0.17003597136586907,-10.247605619430542
16.2,2.4000000953674316,125.0,21.70805549621582,24.984474182128906,-79.7827752087546,40.45904105078419,273.52896154212954,-0.005753068253397943,-0.010460210964083672,-0.997012495994568,0.0763128399848938,0.05154267759963931,0.05885440464297085,3.0124982838195296,0.0529804676771164,0.03203286975622177,0.011237218976020813,0.11902718262746932,-0.07638342060148716,-10.117848887443543
16.3,2.5,121.0,21.669240951538086,25.58085632324219,-79.78277606913444,40.45904149848203,273.6808631448746,-0.005038774106651546,-0.011449607089161871,-0.997035801410675,0.0759153738617897,0.07831277304435832,0.026392849759838268,2.9140545017315422,0.053822096437215805,0.022534368559718132,0.0034662946127355107,0.17424280548468232,0.05707617946900428,-9.823428715467452
16.5,2.5999999046325684,118.0,21.72182846069336,24.197248458862305,-79.78277700051103,40.459041983889975,274.1222912101746,-0.005033004097640514,-0.011737635359168051,-0.9970894455909728,0.07516445964574814,0.09792857298637037,-0.01507740026772397,2.801357402970451,-0.09389549493789673,0.01953851990401745,-0.0187776330858469,0.17066114835441112,0.12007801864296196,-9.75598985373974
16.6,2.700000047683716,113.0,21.590362548828125,26.717960357666016,-79.78277709479529,40.45904202710512,274.40261614608767,-0.005543264094740152,-0.01146313827484846,-0.9970942735671996,0.07510565966367723,0.10487895587338003,-0.02637114573642998,2.769393449357324,0.01438980642706156,-0.004325158428400755,-0.01545650511980057,0.07699156757444144,0.006925725443288684,-9.57454022705555
16.8,2.5999999046325684,110.0,21.71807098388672,24.29266929626465,-79.78277800931326,40.45904258383623,274.8405741481781,-0.005971732549369335,-0.011929032392799854,-0.9970728754997252,0.07528448849916458,0.13200606365339262,-0.08144486173517476,2.6925295977335244,0.02418903820216656,0.015318376012146471,0.03802008926868439,0.12612941175699235,0.018627155134454367,-9.750507504343988
16.9,2.5999999046325684,106.0,21.75563240051269,23.354360580444336,-79.78277812686301,40.45904267736165,275.11127198028566,-0.0063387262634933,-0.012408864684402944,-0.997051477432251,0.07546072453260423,0.1310460601985586,-0.0900044427918274,2.6729602392678697,0.06169407442212105,0.038803741335868835,0.06260387599468231,0.12448527521453802,-0.0418499202746898,-9.638639743924141
17.1,2.5999999046325684,106.0,21.686769485473643,24.6027889251709,-79.78277901055559,40.459042675399424,275.6248382358551,-0.004779954440891743,-0.014789142645895481,-0.9970159530639648,0.07561623305082321,0.16952014237789442,-0.09162200301166032,2.571115404338684,0.10346588492393494,0.03385712578892708,-0.03008726984262466,0.15292794113047425,-0.014602827234193684,-9.500269478559494
17.2,2.5,99.0,21.71807098388672,24.05411529541016,-79.78277919101748,40.45904280691021,275.8797575263977,-0.003704509465023875,-0.015747923403978348,-0.9970027804374696,0.07565566897392273,0.162417436185153,-0.10309794001549066,2.5315427542290982,0.1016114354133606,0.010664448142051695,-0.0029540169052779675,0.13720604818314314,0.1202275611832738,-9.419096091985704
17.4,2.4000000953674316,99.0,21.74186134338379,23.12375831604004,-79.78277939855505,40.45904221237405,276.6376706390381,-0.0014316976303234696,-0.015114189125597475,-0.9970153570175172,0.07569627463817596,0.17809784033788922,-0.06378879518029673,2.567311661871428,0.022545309737324715,-0.02880262024700642,0.003638213267549872,0.15621395755559206,0.11171359492465854,-9.443940326571463
17.5,2.299999952316284,95.0,21.660476684570312,25.04808807373047,-79.78277844084197,40.45904207062925,277.1092125205994,-0.0007809521048329773,-0.01454021502286196,-0.9970136880874634,0.07584068924188614,0.13013534234228474,-0.06460202701305659,2.6147924330689034,0.03174642100930214,0.004785221070051193,-0.0036429446190595627,0.1538966146297753,0.005436734261456877,-9.539476813673973
17.7,2.299999952316284,95.0,21.76439666748047,22.686410903930664,-79.78277877121727,40.45904231721543,277.6273041992188,0.0010641447734087708,-0.013718565925955772,-0.9969891309738159,0.07631143182516098,0.1452357396147279,-0.09824658442660923,2.5827707652693466,0.17083244025707245,0.026247762143611908,0.0414041094481945,0.16820531778037548,-0.07952965202741326,-9.60651806473732
17.8,2.4000000953674316,90.0,21.654216766357425,24.952667236328125,-79.78277784796373,40.45904229415153,278.0937505989075,0.0018208480905741453,-0.012796023860573769,-0.9970007538795472,0.07630588114261627,0.09377224642874776,-0.09698868325392454,2.6432065946541923,0.05970349162817001,-0.010403330437839031,0.021889908239245408,0.17472055954858662,0.09939799745567143,-9.640537750124931
18.0,2.4000000953674316,90.0,21.64169692993164,25.07194328308105,-79.78277724298877,40.459042338571095,278.80020296859743,0.00032106813159771264,-0.010325890965759754,-0.9970721006393432,0.07576602697372438,0.0736172726367093,-0.10571137086264347,2.6857286533356937,0.01940780878067017,-0.011336946859955788,0.050117351114749915,0.13330831250175834,-0.00669933769851923,-9.732913817167283
18.1,2.299999952316284,86.0,21.665485382080078,24.73796844482422,-79.78277736289475,40.459042479145886,279.0681945114136,0.0003425339818932116,-0.009839596226811407,-0.9970932602882384,0.07555220276117325,0.08890749146468681,-0.11898966928843654,2.679255214684793,0.07333820313215256,0.0032394330482929945,0.00044583872659131885,0.2044878025352955,-0.024183174879290163,-9.779769310355187
18.3,2.299999952316284,83.0,21.652965545654297,25.10375022888184,-79.78277674823819,40.459042495921395,279.78926575469967,0.001370333251543343,-0.010523074306547642,-0.9970503449440002,0.07601318508386612,0.06097181554297727,-0.10555952543492103,2.7391935879280176,0.00843303557485342,0.05108921229839325,0.01127132587134838,0.16321007799357176,0.14484830422326922,-9.768379518985748
18.4,2.0999999046325684,82.0,21.70805549621582,23.87917709350586,-79.78277684021786,40.459042623986655,280.0630914001465,0.002586446003988385,-0.010654804296791552,-0.9970062971115112,0.07653958350419998,0.07132122089578137,-0.10643688545146568,2.734604152270741,0.0019554474856704482,0.0453900583088398,0.024965660646557808,0.14131134174764154,0.11414227249100806,-9.757294367551804
18.6,2.0,79.0,21.574085235595703,26.43964767456055,-79.78277647460249,40.4590425504399,280.7897244720459,0.0036061322316527367,-0.010840465314686298,-0.9969068765640259,0.077757328748703,0.06987164860980283,-0.0872637528382943,2.780383492051195,0.09799055010080338,0.04512365907430649,-0.010255537927150726,0.12514523399993774,0.013942518986295907,-9.689386559128762
18.7,2.0999999046325684,77.0,21.584102630615234,26.30446815490723,-79.78277659819742,40.45904267095022,281.0676127700806,0.0022612630855292077,-0.010386071167886255,-0.9968851208686828,0.07814783602952957,0.07049122464790962,-0.0900607422970632,2.7866261434234607,-0.044391386210918427,-0.022106874734163284,0.01631741784512997,0.13196448530070484,0.1524732104782015,-9.805346201062203
18.9,2.0,76.0,21.695533752441406,23.815563201904297,-79.78277625119459,40.4590426461809,281.7613488464356,-0.001033547567203641,-0.009859548881649971,-0.9968662261962892,0.07848259806632996,0.09573687289505596,-0.08283477040198389,2.874325073443017,0.04831114411354065,0.06343825161457063,0.01810917630791664,0.1469219644367695,0.007857753345742822,-9.963105833530426
19.0,2.0,76.0,21.602882385253906,25.326400756835927,-79.78277627118091,40.45904262705147,282.1161443023682,-0.002704644110053777,-0.009837817400693892,-0.99686861038208,0.07841521501541138,0.09915717202204316,-0.06871726773280554,2.9003780457340183,-0.1004408746957779,-0.0023349795956164607,-0.03984886035323143,0.17693701973184944,0.24812003636732705,-9.849768083095553
19.2,1.8999999761581416,74.0,21.619159698486328,25.159412384033203,-79.78277655199307,40.45904282812988,282.695085647583,-0.002935912692919373,-0.008308181539177895,-0.9969363212585448,0.07771998643875122,0.12370744180660688,-0.07450601700610332,2.9002308763191325,-0.012218389660120009,-0.038301821798086166,-0.036564163863658905,0.22615776646882296,0.08583289568312466,-9.887428829669954
19.3,1.7999999523162842,73.0,21.642948150634766,24.83338928222656,-79.78277655967614,40.45904279553609,283.0446654586792,-0.002770442748442292,-0.006880669854581356,-0.9969623684883118,0.07753171026706696,0.11544663427839892,-0.06556652542643829,2.9201462494097243,0.002958396216854453,-0.04418690502643585,0.017436474561691284,0.184470444470644,0.10428779549896718,-9.823305923938753
19.5,1.7000000476837158,73.0,21.610395431518555,25.07989501953125,-79.78277682239728,40.459042899928576,283.67993653106686,-0.002451921347528696,-0.006471747998148203,-0.9969980120658876,0.07711796462535858,0.12893995697095564,-0.07163013122801205,2.9092961151250187,0.0009942437754943967,0.058943204581737525,0.02211366780102253,0.1821982530131936,0.09799982769414783,-9.730222928524018
19.6,1.7000000476837158,70.0,21.68927383422852,23.592912673950195,-79.78277696707907,40.45904297778324,283.97068226623537,-0.003261997830122709,-0.0081150708720088,-0.9969959855079652,0.0769590362906456,0.1237727429915079,-0.06457246919985699,2.905959415351117,-0.02457544207572937,0.04613582417368889,-0.030965959653258324,0.17749442383646966,0.13414346848614514,-9.74675768494606
19.8,1.7000000476837158,68.0,21.576589584350586,26.07386589050293,-79.78277708970336,40.4590430632313,284.6015969543457,-0.0038439254276454453,-0.01004581619054079,-0.9969876408576964,0.07681135088205338,0.12218102943902412,-0.03622937744186471,2.9047597312584847,-0.09011006355285643,-0.005581182427704334,-0.03230203315615654,0.18793018715456128,0.26444685118272904,-9.72457276403904
19.9,1.7000000476837158,65.0,21.652965545654297,24.332427978515625,-79.78277722309181,40.45904313020929,284.89202034759523,-0.0038326513022184368,-0.009532425552606584,-0.9969868063926696,0.0768885388970375,0.1246636305959734,-0.034491707901002755,2.9056387395579932,-0.029471246525645256,-0.02781506069004536,-0.0342647023499012,0.23202734772115946,0.07967637145891786,-9.837733343839648
20.1,1.7999999523162842,62.0,21.54153251647949,26.36808204650879,-79.78277736084719,40.45904314026256,285.5134078292847,-0.004675080068409443,-0.008287481963634491,-0.9969482421875,0.07748390734195709,0.11713346185486602,-0.027369125740885927,2.8998534812392283,-0.029144139960408214,0.018036138266325,0.008817048743367195,0.19525249086320395,0.16669852685183287,-9.752746403217317
20.2,1.7000000476837158,54.0,21.62166404724121,24.44375228881836,-79.78277747857031,40.459043195053475,285.8035012512207,-0.0041668666526675216,-0.008328857831656933,-0.9969103932380676,0.0779939591884613,0.119885867247979,-0.028969365323072937,2.9035458754099817,-0.024225777015089992,0.03695790469646454,0.014294002205133438,0.18522219540551305,0.07535358888097107,-9.83025124669075
20.4,1.7000000476837158,51.0,21.629175186157227,24.54712677001953,-79.78277778409446,40.45904328413157,286.43034661102297,-0.0056901383213698855,-0.008103773929178716,-0.9968461394309998,0.07873903959989548,0.11295088796180762,-0.025856291654513686,2.9205222323411966,-0.13097335398197174,-0.02617255225777626,-0.018200334161520004,0.13908649446442725,0.17313227305188775,-9.824444961547849
20.5,1.7999999523162842,44.0,21.56532096862793,25.57290458679199,-79.78277783477287,40.45904323031676,286.7616311340332,-0.007152928039431572,-0.00851114559918642,-0.996818482875824,0.0789264589548111,0.11838425297686594,-0.0121606478521084,2.9225642460851686,-0.0876755341887474,-0.0017952946946024895,-0.02282779291272164,0.14988278430886567,0.12538069406524302,-9.721020580530167
20.6,1.8999999761581416,37.0,21.59537124633789,24.849292755126953,-79.78277794198323,40.45904326891566,287.05351841735836,-0.007440532557666302,-0.009301328100264072,-0.9967933893203736,0.07912790030241013,0.12104857036241455,-0.008672673891848549,2.9162281854760645,-0.01997301541268825,0.020446425303816795,-0.07887285202741623,0.23607387676835065,0.22296705052256585,-9.758259742856026
20.8,2.0,30.0,21.557809829711914,25.88302421569824,-79.78277814665981,40.45904346973528,287.6706439285278,-0.007848164066672325,-0.011156804859638214,-0.9967808723449708,0.0790053978562355,0.11893742260855067,-0.014570635342838506,2.925858011310137,0.0013189800083637238,0.05992994457483292,0.017320021986961358,0.2805350447818637,0.01854143632343039,-9.805463730096818
20.9,2.0,28.0,21.636688232421875,24.332427978515625,-79.78277823576536,40.45904352256861,287.96287358093264,-0.008082224987447262,-0.011176926083862782,-0.9967979788780212,0.07876257598400116,0.10550181668698193,-0.006518203682838057,2.9186717671018982,-0.007646811194717884,-0.007441725116223097,-0.05478687211871147,0.20695571126416326,0.18913496939465405,-9.736195274591447
21.1,2.200000047683716,22.0,21.57158088684082,24.89700508117676,-79.78277845946734,40.45904353409182,288.57166302490236,-0.006482093129307032,-0.009944000281393528,-0.9968487024307252,0.07843410223722458,0.11549581691293148,0.0009401879303520752,2.9176169267627503,0.08023184537887572,0.03163101896643638,0.03603613749146462,0.20091995945200325,0.06319801325909792,-9.902754381895068
21.3,2.200000047683716,20.0,21.520248413085934,26.23290252685547,-79.78277855791667,40.45904353613476,289.1820851593018,-0.005364109296351671,-0.01080044358968735,-0.996952474117279,0.077074334025383,0.07722413565180929,0.02009731220740244,2.9598980465061837,-0.05958908051252365,0.011279430240392685,0.02985365130007267,0.2491004865244031,-0.03286143419332802,-9.985320575237273
21.4,2.299999952316284,16.0,21.57158088684082,25.437725067138672,-79.78277861776634,40.459043564461524,289.47909176635744,-0.006393409799784422,-0.01206925418227911,-0.996947705745697,0.07686874270439148,0.08052683213447173,0.02363461116432703,2.978606558824412,0.02776550129055977,0.06464605033397675,-0.045796126127243035,0.26366392727941274,0.12705129839479926,-10.007397322654723
21.5,2.4000000953674316,15.0,21.650461196899414,23.457733154296875,-79.78277871847388,40.45904353762965,289.79267323303225,-0.0052553839050233355,-0.01340309623628855,-0.9968966245651244,0.07739445567131042,0.08893641378356934,0.03734441990750241,2.985307840106972,0.034395184367895126,0.06130820140242576,-0.015851289033889767,0.29450669249519706,0.24591846831142905,-9.963538527488707
21.7,2.5999999046325684,15.0,21.48518943786621,26.69410514831543,-79.78277884296584,40.45904357113811,290.38720143127443,-0.0021466962061822414,-0.011828271672129631,-0.9967939853668212,0.0791030153632164,0.0739471759189628,0.053080068007760176,2.9391816602980763,-0.0266640055924654,-0.026299966499209404,0.0610402300953865,0.24245501630008226,-0.014159343335777522,-9.547976326346395
21.8,2.700000047683716,16.0,21.55906105041504,25.44567680358887,-79.78277886333505,40.45904353327311,290.6976529388428,-0.004155553411692381,-0.010517510585486887,-0.9967592358589172,0.07964454591274261,0.07688150065211011,0.04991428555541756,2.932165426196645,0.06126634776592255,0.00896625779569149,0.05804663896560669,0.30038699973374605,-0.03938611830119044,-9.778947776556016
22.0,2.799999952316284,15.0,21.48894691467285,26.67820167541504,-79.78277896007991,40.45904350881955,291.3081342010498,-0.005392000079154968,-0.012108984403312206,-0.996691644191742,0.08018835633993149,0.09657605506176696,0.04727986705774545,2.955965935593776,0.06474875658750534,0.05398477986454964,0.0059778597205877295,0.24580930810421706,0.12631681501865388,-9.88298728466034
22.2,2.700000047683716,17.0,21.53151512145996,25.588808059692386,-79.7827790947164,40.45904351197078,291.90196240234377,-0.0037608144339174032,-0.014089075848460197,-0.996746301651001,0.07927315682172775,0.09106231847098603,0.06527509425119712,2.9779387399342685,-0.024663500487804413,-0.0019368107896298168,0.05674565210938454,0.2021924049407244,0.220349233802408,-9.890951192378997
22.3,2.700000047683716,16.0,21.617908477783203,23.93483924865723,-79.78277907248639,40.459043432688986,292.2156201629639,-0.0036807300057262174,-0.013675445690751076,-0.9967970848083496,0.07870937138795853,0.07852613203539971,0.06715041796119088,2.9814714481566837,0.030197495594620705,0.019860656931996342,-0.0006890337681397796,0.21750364976003767,0.162959232442081,-9.897004230022429
22.4,2.5999999046325684,14.0,21.53151512145996,25.71603775024414,-79.78277913064989,40.4590434369618,292.51392948913576,-0.0050639808177948,-0.0140869515016675,-0.996820867061615,0.07825616002082825,0.06767012980761862,0.05922468220705473,2.976728454865588,-0.09651153534650804,0.007678290363401174,0.007814413867890835,0.20301752015948296,0.17759342450648544,-9.776342841982842
22.6,2.5999999046325684,16.0,21.596622467041016,24.181344985961914,-79.78277918943073,40.45904340392785,293.1236954956055,-0.007971388287842274,-0.012272323481738569,-0.9968019127845764,0.07856177538633348,0.08247715973340436,0.05998065267705121,2.957541974254953,-0.015334387309849262,-0.021289734169840813,0.004505685530602932,0.2345856690220535,0.09874946814961733,-9.781289001703264
22.7,2.4000000953674316,16.0,21.53026390075684,25.58085632324219,-79.78277923174531,40.45904341573072,293.4192868499756,-0.006704424042254686,-0.010263756848871708,-0.9967666864395142,0.07941007614135742,0.08336990901160636,0.04883354112323796,2.9494618254038603,0.07240096479654312,-0.023814762011170387,0.03351795300841332,0.21998272301629188,0.082040464701131,-9.7229834908247
22.9,2.4000000953674316,17.0,21.50271797180176,26.1772403717041,-79.78277928986947,40.45904334653387,294.03575527954104,-0.005873736459761858,-0.009299309924244879,-0.9966764450073242,0.08071612566709517,0.06538452648768818,0.04818564631538561,2.9529086294527462,0.025681694969534874,0.0055034481920301906,-0.0027412932831794024,0.2408723577484489,0.031834151493385435,-9.764847216010097
23.1,2.4000000953674316,18.0,21.554052352905273,25.14350891113281,-79.78277930137062,40.45904331637217,294.6495229034424,-0.006691017188131809,-0.01115330308675766,-0.9966984391212464,0.08014484494924545,0.0486524411672769,0.06651857283043194,2.9598014235648846,-0.0936688631772995,-0.04719251021742821,-0.046922970563173294,0.2282592192292213,0.2261459624022245,-9.768587679862977
23.2,2.200000047683716,15.0,21.55906105041504,25.056039810180664,-79.7827793173049,40.45904330999186,294.9457131652832,-0.006176123861223459,-0.01197114959359169,-0.9967325925827026,0.07964164018630981,0.06217471868045745,0.0705255620374495,2.9618191553707187,0.03036184422671795,-0.009510605596005915,0.01784745790064335,0.2532638867944479,0.0006093164160847664,-9.826280987262725
23.3,2.0999999046325684,14.0,21.58785820007324,24.29266929626465,-79.78277929809205,40.459043273335816,295.26144612121584,-0.004573087207973003,-0.01253408845514059,-0.9967620968818665,0.0792933851480484,0.05003171375820902,0.07528517836213497,2.9720593766370595,0.1055363118648529,-0.0026398345362395052,-0.02061253041028976,0.2509411900117994,0.05001735221128911,-9.799192006587985
23.5,2.0,10.0,21.577842712402344,24.39604187011719,-79.78277934443678,40.45904313960918,295.87134373474123,-0.002740201074630022,-0.014532191678881643,-0.9967551827430724,0.07912352681159973,0.03405097727235621,0.09706084800881937,2.9595107843283732,-0.025066971778869632,-0.0002572677622083574,-0.012110316194593906,0.19070999002084132,0.09141942601650954,-9.71638256907463
23.6,1.8999999761581416,10.0,21.52525520324707,25.41386985778809,-79.78277936394302,40.4590431105178,296.4605675964356,-0.0021394253708422184,-0.013337694108486177,-0.996759831905365,0.07929354906082152,0.035786553127665835,0.0919783276786767,2.9327846677468616,0.015513387508690355,-0.007465354632586241,0.03885287418961525,0.20043981168419125,0.003595663039013744,-9.649651220440864
23.81,2.0,11.0,21.511484146118164,25.50929069519043,-79.78277933031552,40.45904304527571,296.77876866149904,-0.002243636874482036,-0.012642073445022106,-0.9967424273490906,0.07962284982204437,0.027675376043727246,0.08446353118238939,2.9450698472145382,0.04088421911001205,-0.02188863605260849,0.010148310102522371,0.19709538705646992,0.04114786610472946,-9.751994451284409
23.9,2.0,10.0,21.58159828186035,24.141586303710927,-79.78277933949451,40.459043038709844,297.0735322265625,-0.0018040629802271726,-0.011985691264271736,-0.9967212080955504,0.0799999088048935,0.02719023803382547,0.08020414909358199,2.9496078886547368,-0.03206012025475502,-0.033946305513381965,-0.011100742965936659,0.1856184539012611,0.14442910454235972,-9.797119168639183
24.1,2.0999999046325684,13.0,21.57533836364746,24.32447624206543,-79.78277927503706,40.4590429642662,297.68495571899416,-0.0031073992140591145,-0.010129735805094242,-0.9966648817062378,0.08091286569833755,0.02814821926275985,0.07801343836207672,2.959470757840861,0.0005435452912934124,-0.04345700144767761,-0.01851264387369156,0.22545462051406506,0.07233096211217344,-9.812720124721528
24.2,2.200000047683716,11.0,21.500215530395508,25.75579643249512,-79.78277928570513,40.459042951871545,297.981125,-0.004225852899253368,-0.009788500145077705,-0.9966578483581544,0.08099167048931122,0.03097543421058243,0.07189755883571425,2.9604283482941205,-0.06823834031820297,-0.025733314454555508,0.03088752552866936,0.20677877817302945,0.12030486320145428,-9.811051329374317
24.4,2.299999952316284,15.0,21.561565399169922,24.74592018127441,-79.78277929634895,40.45904287557728,298.58783543396,-0.005299575626850128,-0.01263260468840599,-0.9966593384742736,0.0805143341422081,0.04367003796932906,0.0774095002398462,2.9751102661294597,0.006408281624317168,0.04316480085253716,-0.039026875048875816,0.2302368571981788,0.22252543956041332,-9.911058597564695
24.5,2.4000000953674316,14.0,21.521499633789066,23.815563201904297,-79.78277920671778,40.459042814797094,299.20028889465334,-0.004829561803489924,-0.01438488718122244,-0.996697962284088,0.07976839691400528,0.03446656497067112,0.09497902401178536,2.9850498885477235,-0.008122451603412628,0.04688213393092156,0.034549113363027566,0.2265651164017617,0.21636176163330675,-9.877377465963363
24.7,2.299999952316284,17.0,21.51899528503418,25.04808807373047,-79.7827791974281,40.45904280464975,299.49852383422854,-0.004260084591805935,-0.01433128584176302,-0.9967079758644104,0.07968512922525406,0.03889138139751512,0.09141043519240608,2.9735700964156586,0.05954299867153168,0.046170882880687714,0.04646873474121094,0.3028686494193971,-0.021579133376944813,-9.763472535610198
24.8,2.4000000953674316,19.0,21.546541213989254,24.483510971069336,-79.78277915394945,40.45904276052294,299.80702984619137,-0.0035013491287827487,-0.01383963692933321,-0.9967094659805298,0.07979009300470352,0.03044068607744596,0.09153524632281704,2.973497380234038,0.08507636934518814,0.017215177416801453,0.01981111615896225,0.31910422939807176,0.0639896440319717,-9.808100239634514
25.0,2.5,23.0,21.592866897583008,23.82351493835449,-79.78277916100515,40.45904272859326,300.41216290283205,-0.004266435280442238,-0.01155690848827362,-0.9966614246368408,0.08071073144674301,0.01651624810282389,0.08165333709456253,2.9651625109805457,-0.11431483179330824,-0.01616516150534153,-0.05853855609893799,0.2075826789624989,0.18165058817714447,-9.738296179175377
25.2,2.5,23.0,21.55530548095703,24.3721866607666,-79.7827791549821,40.45904271773013,301.00273716735836,-0.004934750963002443,-0.01194144319742918,-0.996586263179779,0.08154138922691345,0.031492521120969175,0.07150388343949715,2.93465682213192,0.013280760496854782,0.018773239105939858,-0.00806182436645031,0.1979978682473302,0.0944249314069748,-9.698798822164537
25.3,2.5,22.0,21.57533836364746,23.70423889160156,-79.78277921852356,40.459042645154135,301.30968678283693,-0.005192059557884932,-0.012287192977964878,-0.9965603947639464,0.08178957551717758,0.033664052793919305,0.08125240127152478,2.9291879884351664,0.017387863248586655,0.015404087491333485,0.03718885034322738,0.2244159174710512,0.11209617641754448,-9.662479426860813
25.4,2.5,21.0,21.451385498046875,26.19314384460449,-79.78277921484231,40.45904263041741,301.6020509033204,-0.005317788105458021,-0.0123812323436141,-0.9965584874153136,0.0817902609705925,0.03443831876226165,0.08450513855092266,2.9159594050721567,-0.003012749832123518,0.012492956593632698,0.06618759036064148,0.21036626424640412,0.07792766111902892,-9.65581710934639
25.6,2.4000000953674316,22.0,21.521499633789066,24.952667236328125,-79.78277918889526,40.45904258814736,302.205698135376,-0.005209986120462418,-0.0120250191539526,-0.9965702295303344,0.08170761168003082,0.02783949227801004,0.08711606131459311,2.9514609377305385,0.04921985790133476,-0.033557403832674026,0.0024826352018862963,0.21791478211060167,0.03517499926965684,-9.943068594932557
25.7,2.5,21.0,21.46515655517578,26.01820373535156,-79.78277917368759,40.459042574614415,302.5017167358398,-0.004238451365381479,-0.011136457324028015,-0.9965908527374268,0.08163834363222122,0.02168174600919151,0.08624659736882673,2.965546975717925,0.025278937071561813,-0.06223496422171593,0.05362896621227264,0.2161639612913132,0.061550368387252086,-9.902092477083208
25.9,2.4000000953674316,21.0,21.554052352905273,24.332427978515625,-79.78277914817164,40.45904249205142,303.1087857513428,-0.0019487618701532485,-0.010124441236257551,-0.9965905547142028,0.08185932785272597,0.011284626553464277,0.08234828632072995,2.9967439538642524,0.014635655097663403,0.0305290799587965,-0.0197489783167839,0.21389237282797696,0.061465428443625576,-9.968725007772447
26.1,2.4000000953674316,17.0,21.566574096679688,23.74399757385254,-79.78277927868876,40.45904238154285,303.7057515411377,-0.004304307047277689,-0.01242230460047722,-0.9965006709098816,0.0825449675321579,0.029033183222086117,0.0961282900311082,2.977996839087509,-0.027478136122226715,0.05599183589220047,0.006928142625838518,0.19675902597606185,0.07800963177345692,-9.856660780906678
26.2,2.299999952316284,14.0,21.561565399169922,24.403993606567386,-79.78277927836973,40.459042351933476,304.0029431610108,-0.0047341929748654366,-0.013146347366273405,-0.9964838624000548,0.08261209726333618,0.04096944621481147,0.1057065103570936,2.9597123499760283,0.016023265197873116,0.017602575942873955,0.012380084954202177,0.24714285699650645,0.017536845845170318,-9.647938570976258
26.3,2.299999952316284,11.0,21.500215530395508,25.318449020385746,-79.78277934876591,40.459042319098074,304.3033601074219,-0.003886232618242502,-0.012758302502334118,-0.9964774250984192,0.0827946737408638,0.043680652199565885,0.10233216269546802,2.9336994968719408,0.04687751457095146,-0.013929038308560848,0.02671686373651028,0.19450868848711253,-0.028888223748654133,-9.596066751480103
26.5,2.299999952316284,6.0,21.520248413085934,24.316524505615234,-79.78277942722093,40.45904224984962,304.8972321777344,-0.00012237593182362616,-0.013079611584544182,-0.9964017868041992,0.0837407335639,0.02353469818037611,0.0951630978163627,2.9231807535061223,-0.005087570752948523,0.032813917845487595,-0.0029894316103309393,0.2356532975099981,0.1251673803292215,-9.705248301029206
26.7,2.299999952316284,3.0,21.44512367248535,26.185192108154297,-79.78277945207317,40.459042208532864,305.4783211975098,-0.00034682123805396264,-0.01465641148388386,-0.9964037537574768,0.08345431834459305,0.01935319176017584,0.09701745031556894,2.8855615371325136,-0.052370484918355935,0.019411534070968628,0.024792741984128952,0.19931964961811904,-0.014041969617828729,-9.642070305347444
26.8,2.299999952316284,1.0,21.515239715576172,24.722064971923828,-79.78277929770941,40.459042159895695,305.7825738220215,-0.0018347068689763546,-0.015588943846523762,-0.9964107871055604,0.08318156749010086,-0.0008485063771510406,0.09566895940969164,2.8960993297100512,0.023302175104618083,0.007665615528821945,0.023804521188139915,0.2225858486071229,0.044132266701199116,-9.714556483626367
27.0,2.299999952316284,359.0,21.501466751098643,24.36423492431641,-79.78277905413825,40.45904214995964,306.3877640991211,-0.0023298836313188076,-0.01571669802069664,-0.9963986277580258,0.08329050987958908,-0.014111052333010068,0.09846138447933164,2.9228560510211063,0.035310763865709305,-0.010135703720152378,-0.0023631909862160683,0.2133143755607307,0.09242958733811976,-9.712885934114457
27.1,2.299999952316284,356.0,21.44512367248535,25.779651641845703,-79.78277900707815,40.459042154984395,306.68051922607424,-0.0007556414348073304,-0.015903912484645844,-0.996376633644104,0.0835476815700531,-0.015591907578995428,0.08962079427949929,2.9284841527365315,0.08921059221029283,-0.014814303256571291,-0.02610115706920624,0.2915340046025813,0.013664422212168577,-9.862598043680194
27.2,2.4000000953674316,353.0,21.443872451782227,25.20712280273437,-79.78277896213571,40.459042164120895,306.97350704956057,3.689895675051957e-05,-0.015781281515955925,-0.9963573813438416,0.0838029608130455,-0.02574520253975444,0.08876777351439212,2.9333057655920505,-0.02163785882294178,-0.02238801307976246,-0.011836004443466663,0.2541290919855237,0.017280733231455087,-9.882402563095091
27.4,2.299999952316284,351.0,21.483938217163086,25.54904937744141,-79.7827789587363,40.4590421202029,307.57432568359377,-0.0023949234746396537,-0.015048482455313206,-0.9963718056678772,0.08373294770717621,-0.02956250907487955,0.08642382984641145,2.955194912240008,-0.07549484819173813,-0.03416336700320244,0.025692246854305267,0.23929474242031576,0.060915273972786975,-9.773678265810009
27.5,2.4000000953674316,350.0,21.500215530395508,24.78567886352539,-79.78277899123485,40.45904208046794,307.8733178405762,-0.004838942084461451,-0.014197259210050106,-0.9964016675949096,0.08341959863901137,-0.008336656840361759,0.08743876269590528,2.9342722097227587,-0.02112989686429501,-0.022474490106105804,-0.020415032282471657,0.2924129690229893,0.05378758204635233,-9.70777078986168
27.7,2.5,346.0,21.415075302124023,26.30446815490723,-79.78277891450185,40.45904209097891,308.45881665039065,-0.002447876846417785,-0.012694846838712692,-0.996496856212616,0.08262593299150467,-0.0021989878366172767,0.07468467205582124,2.9323718326412527,0.030781514942646027,-0.036647923290729516,0.026151789352297783,0.2641763991862536,0.05884785840287805,-9.860771373510364
27.8,2.5999999046325684,348.0,21.46515655517578,25.533145904541016,-79.78277899276996,40.45904206027177,308.7653962402344,-0.0002693159622140229,-0.012727685272693634,-0.9964908361434937,0.08272893726825714,0.001988128477125106,0.07698886475500269,2.9589769085711084,0.07584547996520996,0.008205282501876354,-0.010183459147810936,0.25620717415586114,-0.059365483168512576,-9.9821116232872
28.0,2.700000047683716,349.0,21.427595138549805,26.08976936340332,-79.78277901469323,40.45904200276307,309.35840618896486,0.0008853311301209034,-0.01638743281364441,-0.996388018131256,0.08331692963838577,-0.0013956215700422227,0.0919640925041314,2.9790072027867103,0.0110373143106699,0.0652448758482933,0.029921486973762512,0.31334066547453404,-0.1069200383964926,-9.996441979408266
28.1,2.700000047683716,350.0,21.421335220336914,26.360130310058594,-79.78277900520011,40.45904199701119,309.65776837158205,-0.00039821240352466697,-0.01859538070857525,-0.9963423013687134,0.08340363949537277,-0.007394973366397732,0.10374066768227014,3.0044877465081066,-0.04341559484601022,0.02099156379699707,-0.08855464309453964,0.30228794781491164,0.2114291966892779,-9.989921164512637
28.3,2.700000047683716,347.0,21.430099487304688,26.06591415405273,-79.78277887644367,40.45904204385381,310.25684750366213,-0.0050433692522346965,-0.01833628863096237,-0.9963558912277222,0.08314719051122665,-0.0008636611879973112,0.09979822587290507,3.02784387024697,0.08793574571609497,-0.005817530211061239,0.01726161502301693,0.3585607655346394,0.0014766503591090439,-10.031172101497653
28.5,2.799999952316284,346.0,21.471418380737305,25.040136337280273,-79.78277891627975,40.4590421351566,310.8538743286133,-0.0037767207249999046,-0.01469413284212351,-0.9964444041252136,0.0828758031129837,-0.0013417059117671805,0.06854028992279512,3.0282730771545268,0.07350669801235199,-0.05127577483654022,-0.006478630471974611,0.2972098054736853,-0.01350378823466599,-9.949022229909897
28.6,2.799999952316284,342.0,21.443872451782227,25.39796638488769,-79.78277887324944,40.45904216776858,311.1569863586426,-0.0012539105955511332,-0.013848958536982536,-0.9964657425880432,0.08284123241901398,-0.02246817803538225,0.06115190957499968,3.0314581922249486,0.009585020132362844,-0.07245250791311264,0.004267819691449404,0.291743243560195,0.10784964518621563,-9.830522557497023
28.7,2.799999952316284,341.0,21.47892951965332,24.66640281677246,-79.78277882399684,40.45904220032742,311.460243347168,0.0005912224878557026,-0.013352015987038612,-0.996488392353058,0.08265780657529831,-0.030043302668029487,0.05498717102181589,3.0348883693095594,0.02425555884838104,0.008550734259188175,-0.0051659783348441115,0.30632375087589025,-0.08239272289909423,-9.885397506952287
28.9,2.9000000953674316,339.0,21.422588348388672,25.5570011138916,-79.78277891573093,40.45904220601837,312.0656052856445,0.0024526047054678197,-0.016171671450138092,-0.9963602423667908,0.08365851640701294,-0.02085314790855606,0.0584315497711529,3.0030695649436274,0.012965670786798,0.04124980047345162,0.008458731696009636,0.3060593836382032,0.002765180259011686,-9.724108495116234
29.1,2.799999952316284,339.0,21.4426212310791,25.5649528503418,-79.78277889260566,40.45904234330385,312.6652871398926,0.00239791302010417,-0.015632448717951775,-0.9962540864944458,0.0850164145231247,-0.035320354129743936,0.04568121079715354,2.986890617890288,-0.03148411214351654,-0.03763654083013535,-0.0903243124485016,0.2413233242556453,0.018290211616549642,-9.757075681686402
29.2,2.700000047683716,338.0,21.461400985717773,25.04808807373047,-79.7827788848718,40.4590423935081,312.96388638305666,0.0023188027553260326,-0.01509016938507557,-0.996233344078064,0.08535917103290558,-0.025404760080750814,0.03918861654301328,2.986621703603465,-0.0724363625049591,-0.06043457612395287,0.03490870073437692,0.20867402521893386,0.0539094096980989,-9.776104860305788
29.4,2.700000047683716,335.0,21.652965545654297,20.921117782592773,-79.78277889851029,40.45904246154358,313.5687600402832,0.002886264817789197,-0.01495965011417866,-0.9962364435195924,0.08532798290252687,-0.015232454969419896,0.03066508499557464,2.9650508265654425,0.03376200050115585,0.01981179416179657,-0.0035437541082501407,0.2504166582226753,-0.0497746470803395,-9.7576124560833
29.5,2.700000047683716,336.0,21.72808837890625,19.664737701416016,-79.78277890339704,40.45904246989355,313.87586224365236,0.0018631140701472761,-0.014689804986119269,-0.9962556958198548,0.0851781889796257,-0.015732168056615283,0.029747300392639217,2.9246620828440086,-0.03945648297667504,0.03550907224416733,0.04550973698496818,0.23818064684048296,-0.025438923826441168,-9.33815659403801
29.6,2.700000047683716,337.0,21.680509567260746,20.316781997680664,-79.78277891124544,40.4590425228206,314.1636086730957,0.0009134481078945099,-0.015096976421773434,-0.9962470531463624,0.08522407710552216,-0.008909423923141693,0.02061134270675334,2.8236151757117964,-0.028620073571801182,0.029922835528850555,0.002888071583583951,0.2091234933771193,0.039062173417769366,-8.90663851082325
29.8,2.5999999046325684,338.0,21.74812126159668,18.91727066040039,-79.78277897589193,40.459042612532016,314.7318917541504,-0.00036365370033308864,-0.016647959128022194,-0.9962613582611084,0.08477069437503815,0.009057687615447507,0.021794577591330803,2.5909324821622146,-0.03045824915170669,-0.015297520905733109,-0.0402345210313797,0.2077636685594917,0.14743052601814272,-8.400956098437309
29.9,2.5,339.0,21.75563240051269,18.77413749694824,-79.78277899600003,40.45904266931971,314.983192565918,7.660616392968221e-05,-0.01572996936738491,-0.9963204860687256,0.0842505469918251,0.014715066666944204,0.014242691687389309,2.4380411356421314,0.008426997810602188,-0.0402771458029747,0.021632613614201542,0.19261786339804526,0.024528110353276136,-8.298596495389939
30.1,2.5,343.0,21.76064109802246,19.012691497802734,-79.78277906697527,40.4590427188803,315.4659348754883,-0.0004134891496505588,-0.013262594118714329,-0.9964278936386108,0.0833992213010788,0.008298184384566514,-0.0047959511017183,2.180232421554609,-0.056444257497787476,-0.01580386608839035,0.042358942329883575,0.15421117655932906,-0.025231987209990626,-8.447915087342261
30.3,2.5,345.0,21.670494079589844,20.55533599853516,-79.78277910192635,40.459042776130964,315.898834350586,-0.002397316275164485,-0.014274160377681257,-0.9964543581008912,0.08288092166185379,0.010988722697076195,-0.005243855620233731,1.9729553654722085,-0.009539680555462835,-0.01617787592113018,0.002842392306774855,0.27255001399666073,0.07227102815173568,-8.497602387070657
30.4,2.4000000953674316,347.0,21.576589584350586,22.360387802124023,-79.78277911452938,40.459042831152026,316.0918885498047,-0.0017468351870775225,-0.01417991518974304,-0.996461033821106,0.08283302932977676,0.010453317013019485,-0.010549825373691035,1.8898909165883668,-0.028743738308548924,0.009008290246129036,0.05675444751977921,0.2576762505434453,-0.004347464223392308,-8.928270869851113
30.5,2.299999952316284,347.0,21.64795684814453,20.92906951904297,-79.78277908115275,40.459042775473826,316.31836712646486,-0.0010581774404272435,-0.014035460539162159,-0.99645334482193,0.08296214789152145,-0.0035016820648544893,0.0015914050774897374,1.8688153237976213,0.002782308496534825,-0.032749075442552567,0.02916736900806427,0.1912743194215,0.010328393820673229,-9.098424845337867
30.7,2.200000047683716,347.0,21.616655349731445,21.461837768554688,-79.78277908242326,40.45904287380929,316.679538848877,0.0005967295728623867,-0.01501557417213917,-0.996420919895172,0.08318425714969635,0.00047387175065367713,-0.005298763878723918,1.7303475302886382,0.047669921070337296,-0.017391905188560486,-0.012936960905790329,0.2094792050868273,-0.048701660167425866,-9.019203844070436
30.8,2.0999999046325684,350.0,21.72808837890625,19.48184585571289,-79.78277890668473,40.45904274465606,316.9247552185059,0.0012036047410219908,-0.015246543101966381,-0.9963933229446412,0.08346600085496902,-0.018545279087765067,0.012109320481228258,1.7163893111076782,-0.05311479791998863,-0.00017293583368882537,0.031527992337942116,0.20812321750447155,0.03528511421754956,-9.03903876900673
31.0,1.8999999761581416,353.0,21.67800521850586,19.65678596496582,-79.78277864367655,40.45904257498599,317.3489686279297,0.0012991043040528893,-0.014253244735300541,-0.9963125586509703,0.08459598571062088,-0.022881337146083727,0.032152368409437776,1.6354407011913918,0.03459681943058968,-0.03774288296699524,0.013837644830346107,0.2920128915645182,-0.019911084920167924,-9.102901473641397
31.2,1.7999999523162842,353.0,21.664234161376953,20.626901626586914,-79.78277859770637,40.45904261368955,317.6655732421875,0.0010357704013586042,-0.011817860417068005,-0.9962261319160458,0.0859818384051323,-0.011194782548763677,0.020023366574300348,1.5135821549593949,-0.0012820316478610039,-0.002581018721684813,-0.008328160271048546,0.27363342996686696,0.049827815629541874,-9.14871616244316
31.3,1.7000000476837158,354.0,21.64169692993164,21.06424903869629,-79.7827783396176,40.45904233976333,317.91272747802736,0.0012836961541324856,-0.011349047534167768,-0.9961720705032348,0.08666504174470901,-0.03142490519071948,0.04506998666670164,1.5289426524616312,-0.0226801335811615,0.0037256197538226843,-0.027156764641404152,0.26520042937248944,0.09892394358292222,-9.186383340954784
31.4,1.600000023841858,356.0,21.69428253173828,19.8635311126709,-79.78277830832768,40.4590423344251,318.06301129150387,0.00022026408987585455,-0.011053388006985188,-0.9961194396018982,0.0873148962855339,-0.019731720266637668,0.045916847519448786,1.4764819732674406,0.025072874501347545,-0.01741555891931057,-0.01167973317205906,0.24681144777685404,-0.05446558954194188,-9.250857664346695
31.6,1.5,0.0,21.705551147460934,19.37052154541016,-79.78277795803999,40.459041993465256,318.4536172180176,-0.0002493887732271105,-0.012385684065520763,-0.9959417581558228,0.08914438635110855,-0.03457687117194532,0.07160513975588202,1.2244570895655733,-0.015282298438251019,-0.021359553560614586,-0.168349489569664,0.12921802069991828,-0.03695454453583807,-7.422752587795258
31.8,1.399999976158142,3.0,21.679258346557614,20.10208511352539,-79.78277782718818,40.45904192567887,318.687896850586,-0.000302457861835137,-0.011802214197814465,-0.98747718334198,0.15731962025165558,-0.0731758033331562,0.06066503265530275,0.7749653233160705,0.03271879255771637,-0.06412829458713531,-1.0180337429046629,0.19402589119970806,-0.20927595952525727,-7.219488753676415
31.9,1.2000000476837158,6.0,21.686769485473643,19.67268943786621,-79.78277773143066,40.4590419108749,318.758339050293,0.0010827482910826802,-0.010375398211181164,-0.9774371981620787,0.2109684646129608,-0.07126535030351466,0.05132627245364872,0.6412484645504827,0.046797946095466614,-0.02220302261412144,-1.2200140953063965,0.12694825949147345,0.02086830153129995,-8.297782562971115
32.0,1.2000000476837158,9.0,21.680509567260746,20.01461410522461,-79.78277778873789,40.45904194687128,318.81946957397463,0.0027090683579444885,-0.009800033643841743,-0.9622935652732848,0.2718232274055481,-0.06581105722318284,0.04717046692996158,0.5636193468398674,0.02943344041705132,0.0005013311165384948,-1.3181729316711426,0.05174777172971517,0.10548758933320644,-8.727944092154504
32.2,1.0,359.0,21.683013916015625,19.839675903320312,-79.78277763373272,40.45904193082451,318.9172860412598,0.0050048246048390865,-0.009709382429718971,-0.9152162075042723,0.4028151333332062,-0.04775343964529069,0.043466308972596096,0.4236672142370738,-0.015532587654888632,-0.02013807371258736,-1.5088882446289062,0.10300646955147386,0.08617789967916906,-9.16432764351368
32.3,1.0,354.0,21.69303131103516,20.300878524780273,-79.7827776964513,40.45904198854913,318.94292462158205,0.004856214392930268,-0.008956080302596092,-0.8822405338287354,0.4706888794898987,-0.02519226940927101,0.039972291555761236,0.38575684614938255,0.004064127802848816,0.0013475570594891904,-1.5208523273468018,0.16906993824988606,0.04266215334646404,-9.313781306147577
32.5,0.8999999761581421,4.0,21.596622467041016,21.597017288208008,-79.78277771545524,40.45904206075548,318.9810067443848,0.006416672840714455,-0.0049855695106089115,-0.7990565896034241,0.6012009382247925,0.01961932098556473,0.02135281794428771,0.34554982788603444,0.1497010439634323,0.011423703283071518,-1.5194026231765747,0.08915333759039641,0.1058689557015896,-9.61316693365574
32.7,0.8999999761581421,10.0,21.60538673400879,21.49364471435547,-79.78277770733824,40.45904199295345,319.0520478515625,0.010221167467534542,-0.0010842178016901016,-0.7004312872886658,0.7136458754539491,0.05481642282835485,0.0007715452876887982,0.3785515472389818,0.020662538707256317,-0.049019847065210335,-1.374752163887024,0.1198988471645862,0.10734672982245684,-9.822934041023254
32.8,0.8000000119209291,358.0,21.66172981262207,20.284975051879886,-79.78277768895286,40.4590419846306,319.0494424133301,0.01171729527413845,0.001749768853187561,-0.6545756459236145,0.7559036612510681,0.08945626606916916,-0.005506816468738726,0.4093139250817757,0.009980618953704834,-0.017886636778712273,-1.1136890649795532,0.09363153733313084,0.336346498914063,-10.035224221944807
32.9,0.8000000119209291,355.0,21.606639862060547,21.28689956665039,-79.78277769837183,40.45904187445957,319.09000790405275,0.0125354565680027,0.004711119458079338,-0.6177316308021545,0.7862749099731445,0.12805270353347906,-0.014234260315401141,0.4069671497285664,-0.05643689259886741,-0.0435299277305603,-0.8209416270256042,0.1096234711445868,0.2846331024169922,-9.812600841522217
33.1,0.8000000119209291,9.0,21.522750854492188,22.70231437683105,-79.78277729107977,40.45904159765843,319.13702786254885,0.013973127119243143,0.005036145448684692,-0.5739532709121704,0.8187533617019653,0.21327692397815307,-0.01994410813178828,0.43392414690588416,-0.06469428539276123,0.08222653716802597,-0.327808290719986,0.1997463684529066,0.1668295958451927,-10.06401591181755
33.3,0.8000000119209291,15.0,21.477678298950195,23.88712882995605,-79.78277641575295,40.459040983186796,319.1701699523926,-0.013409452512860298,0.01327260211110115,-0.5624708533287048,0.8266018629074097,0.3290893551672289,0.11137783797660747,0.5032193143758179,0.013371743261814116,-0.5566314458847046,-0.016799405217170715,0.35948707412928343,0.15662371946498752,-10.1787102162838
33.4,0.8999999761581421,15.0,21.594118118286133,21.93894386291504,-79.78277611083054,40.45904074214818,319.2222405700684,-0.03976574540138245,0.030978012830018997,-0.5641672611236572,0.8241204023361206,0.3451375182534152,0.16956510942137498,0.5491859857036844,-0.010491124354302885,-0.6299314498901367,0.038640424609184265,0.22577656455338002,0.29656376123428346,-10.198324116468427
33.5,0.8999999761581421,11.0,21.560312271118164,22.11388397216797,-79.78277640671178,40.4590408994756,319.0871850280762,-0.06270535290241241,0.047240175306797035,-0.5683386325836182,0.8190407156944275,0.3480627044957602,0.24053332346479275,0.5387089646524775,0.01495276391506195,-0.5765600800514221,0.189145028591156,-0.051679167444817715,0.07071507493034006,-10.208094813823699
33.7,1.0,21.0,21.510231018066406,23.012434005737305,-79.78277513535029,40.45904057311761,319.19837582397463,-0.08918549865484238,0.062478456646204,-0.5793011784553528,0.8078073263168335,0.36353180328276574,0.5447045711970591,0.6885955531817581,0.0021768228616565466,-0.17620988190174106,0.13133880496025085,-0.1409921751357615,0.06441390520893038,-10.307372349500657
33.81,1.100000023841858,24.0,21.510231018066406,22.495569229125977,-79.78277489521406,40.459040841355296,319.1066476135254,-0.095645971596241,0.06392158567905426,-0.5837914347648621,0.8037123084068298,0.3442078224611605,0.7242798207138512,0.7303566798639057,0.0323212631046772,-0.113971509039402,0.09714321047067642,-0.009509596335701646,0.014556759854312987,-10.370107126235963
34.0,1.2000000476837158,24.0,21.447628021240234,24.51531982421875,-79.78277271545083,40.45904129224309,319.0923119812012,-0.10688244551420213,0.06595758348703384,-0.5885681509971619,0.7986320853233337,0.2928813071488988,1.1531469451099752,0.8317378978951658,-0.036223988980054855,-0.051631402224302285,0.004903558176010847,0.07511325918138027,0.12617105489596725,-10.235735771656037
34.2,1.2999999523162842,26.0,21.48894691467285,23.82351493835449,-79.78276900024515,40.45904168320155,319.2033730773926,-0.11401517689228058,0.06698033213615417,-0.5880021452903748,0.7979773283004761,0.2522676185279513,1.6165468316620564,1.019249677569774,-0.07346329092979431,-0.062191721051931374,-0.13771875202655792,-0.18779661482200027,0.2967685965076089,-10.226718195676805
34.3,1.600000023841858,32.0,21.470165252685547,23.52134704589844,-79.78276719763942,40.459042381058545,319.16115200805666,-0.11524398624897005,0.06588822603225708,-0.586077094078064,0.7993067502975464,0.2287884877190849,1.8254185509392984,1.0637993186679977,0.04894549399614333,-0.06266193836927414,0.05333581939339639,-0.1484576808102429,-0.1566174337081611,-10.265480557680132
34.4,1.7999999523162842,34.0,21.624168395996094,20.897262573242188,-79.78276468976969,40.45904279719323,319.2174607543945,-0.11633916199207305,0.06577383726835251,-0.5834569334983826,0.8010725378990173,0.21238803229372172,2.0665372849833425,1.1416259573185048,-0.04823923483490944,0.007294866722077131,-0.07816294580698012,-0.09298179290257397,0.16913464134559034,-10.248034805059431
34.6,2.200000047683716,37.0,21.456392288208008,24.197248458862305,-79.78275954376745,40.45904445432386,319.2109071044922,-0.12024948745965958,0.06920433044433594,-0.5761208534240723,0.8055033683776855,0.16986623920609595,2.504780056347872,1.2100738206381785,-0.028842095285654068,-0.1309659630060196,-0.15781261026859286,-0.2786066147871316,0.1508564370777458,-9.973881082534788
34.7,2.4000000953674316,39.0,21.490198135375977,23.24303436279297,-79.78275629769065,40.45904514855217,319.26116955566414,-0.12182006984949112,0.07139182835817337,-0.5727676749229431,0.8074654340744019,0.17478316013508288,2.725851634044544,1.2991303111762462,-0.04561247304081917,-0.07673966884613037,0.013663536868989471,-0.3593266046047211,-0.11333268893882632,-10.189732217788695
34.9,2.9000000953674316,42.0,21.584102630615234,21.54930686950684,-79.7827497989497,40.45904764266056,319.2435685424805,-0.12696313858032227,0.07707234472036363,-0.5669902563095093,0.8102236390113831,0.13257656151216754,3.1603236119502336,1.4243653033759918,-0.036074668169021606,-0.2182687371969223,0.015920087695121758,-0.5030988201498986,0.012935502827167513,-10.0675651717186
35.1,3.2000000476837163,44.0,21.576589584350586,21.84352302551269,-79.78274246883021,40.45905083315829,319.20092785644533,-0.13810643553733826,0.08669128268957138,-0.562390148639679,0.8106347322463989,0.07730341267852267,3.580333931586232,1.570269950218394,0.05031320452690125,-0.05246485024690628,-0.2565862536430359,-0.6790068943798543,0.2345584063790739,-9.74338968873024
35.2,3.700000047683716,44.0,21.546541213989254,22.583038330078125,-79.78273801270441,40.459052044978854,319.2384835510254,-0.14075900614261627,0.08961447328329086,-0.5620484352111816,0.8100973963737488,0.0783257592668272,3.8082209043236768,1.666232735643934,-0.014282469637691975,-0.0826277881860733,-0.008260177448391914,-0.6122913697734476,-0.13789214584976436,-9.809183728694915
35.3,4.0,41.0,21.56782531738281,22.52737617492676,-79.78273399697363,40.45905428721906,319.1758996276856,-0.14293155074119568,0.0904739648103714,-0.5604396462440491,0.8107357621192932,-0.005051561223088322,4.013201658869308,1.6995119612449183,0.05231954529881477,-0.08093394339084625,-0.017168575897812843,-0.772553500905633,0.16772409193217755,-9.724935291409492
35.5,4.599999904632568,42.0,21.53276824951172,22.360387802124023,-79.78272464923208,40.45905840592387,319.15008938598635,-0.1456371545791626,0.09063370525836943,-0.5586568713188171,0.8114665150642395,-0.09951100027970453,4.468320581911747,1.8081833652888848,0.09123211354017258,0.0915759578347206,-0.06782727688550949,-0.7228365265578032,0.3695775410905481,-9.749680123329163
35.7,4.800000190734863,43.0,21.659225463867188,20.038471221923828,-79.78271361005099,40.45906183701524,319.18186962890627,-0.1449487954378128,0.08880943059921265,-0.5584660768508911,0.8119226694107056,-0.0929386124091722,4.934803273999295,1.9150686050954655,0.07304792106151581,0.07712088525295258,-0.02723241783678532,-0.8170146323740483,0.1154840714391321,-9.766858658194543
35.8,5.400000095367432,43.0,21.497711181640625,23.42592620849609,-79.78270843741548,40.45906486779533,319.1437608032227,-0.14451657235622406,0.08827786892652513,-0.5567092895507812,0.8132630586624146,-0.2081351184685256,5.15207444771,1.9386517113763777,-0.07142089307308197,-0.015920443460345268,-0.02952587604522705,-0.8762423222512007,0.10310860396362842,-9.794473888278008
35.9,5.599999904632568,44.0,21.51774406433105,22.78183174133301,-79.78270235369975,40.459066863050055,319.1512376098633,-0.1443447768688202,0.09041190892457962,-0.5573471784591675,0.8126220703125,-0.17746795563063258,5.381718746854969,1.96331197832708,0.09011144936084747,-0.17254705727100372,0.2300107032060623,-0.978480376303196,-0.3040530029498041,-9.571403195858002
36.1,6.099999904632568,44.0,21.590362548828125,21.50954818725586,-79.78269019173828,40.459072377387535,319.1216088562012,-0.14226602017879486,0.09401019662618636,-0.5562400221824646,0.813338577747345,-0.2996950269593273,5.782043604372567,2.076555077433525,-0.07002429664134979,-0.0352630577981472,0.006904515903443098,-1.0524628570675851,-0.08800434144213796,-9.781198954582214
36.2,6.4000000953674325,45.0,21.53026390075684,22.765928268432607,-79.78268345381925,40.459074676002395,319.1208421020508,-0.14183703064918518,0.09493377804756163,-0.5565140843391418,0.8131187558174133,-0.2946477387119256,5.994916541168907,2.107337908050452,0.08581848442554474,-0.05551333352923393,-0.1163867637515068,-1.301158825904131,0.07273689592257143,-9.60634966492653
36.4,6.9000000953674325,46.0,21.526508331298828,22.217256546020508,-79.78266935961122,40.45908053131033,319.1072121887207,-0.14280745387077332,0.09368710219860077,-0.5544478297233582,0.8145038485527039,-0.3372484801366227,6.4050667667904735,2.2472279258171133,0.05098041146993637,0.045956794172525406,-0.03303549066185951,-1.160621801689267,-0.07316695406567306,-9.85308228492737
36.6,7.099999904632568,46.0,21.457645416259766,23.91098403930664,-79.78265429188163,40.459086550435735,319.0756112365723,-0.14411911368370056,0.09160753339529036,-0.5530744791030884,0.8154425024986267,-0.39800424699603615,6.796944803460278,2.3520443342823745,-0.020949285477399826,-0.07088492065668106,0.1941595375537873,-1.3294723597168925,0.13220071281306447,-9.699381204843524
36.7,7.5,47.0,21.564069747924805,21.80376434326172,-79.78264648488727,40.45908931658892,319.0683747558594,-0.14472724497318268,0.09145887196063997,-0.5533017516136169,0.8151971697807312,-0.3885654412987406,6.982416352252241,2.418488824639939,0.06043273583054544,0.07735229283571242,0.04430436342954636,-1.5158820332586769,-0.18584066636860366,-9.941826646327973
36.9,7.800000190734862,47.0,21.470165252685547,23.354360580444336,-79.78263029188685,40.459095930453906,319.0240403442383,-0.14410068094730374,0.09503887593746184,-0.5529769659042358,0.8151191473007202,-0.4460869905705086,7.357598635003523,2.5430916014820624,0.172040656208992,0.06254950910806656,-0.04181641712784767,-1.3115541520714755,0.2378745999187231,-9.726337453722953
37.0,8.199999809265138,48.0,21.467660903930664,22.75002479553223,-79.78262193097649,40.45909962194031,318.9702492980957,-0.14353854954242706,0.09878064692020416,-0.5520757436752319,0.8153843283653259,-0.5263576945249818,7.527743081283626,2.6055852601564453,0.02617046423256397,-0.06858471781015396,-0.14490103721618652,-1.5543147584795949,0.1303373970463872,-9.701138877868653
37.2,8.399999618530272,47.0,21.473920822143555,24.04616355895996,-79.78260452575846,40.45910593976241,318.94563305664065,-0.14634811878204346,0.10055472701787947,-0.5510333776473999,0.8153731226921082,-0.5165142356201624,7.879795271004003,2.7632113309500346,-0.044229604303836816,0.03716893494129181,-0.1212468445301056,-1.5095632396638394,-0.029366178810596468,-9.656380780935287
37.31,8.800000190734863,48.0,21.33995246887207,26.95651435852051,-79.78259553546505,40.45910972711997,318.888523223877,-0.1479000598192215,0.09933847188949584,-0.5493909120559692,0.8163498044013977,-0.5318755338360306,8.043083002854864,2.8421396537117145,0.04759323596954346,-0.014384041540324688,0.12734699249267578,-1.5430185225605966,-0.10704999276436866,-9.783063631653787
37.4,9.0,49.0,21.481433868408203,23.36231231689453,-79.78258633694014,40.4591130703552,318.87469876098635,-0.14840659499168396,0.09954461455345154,-0.5490294098854065,0.8164761066436768,-0.4987526643112325,8.210300788043803,2.939356848979878,0.0660637840628624,-0.11502860486507414,0.14547933638095856,-1.8880244189500808,-0.3135635174810886,-9.957213009595874
37.6,9.300000190734863,49.0,21.44011688232422,24.53122329711914,-79.7825672265738,40.45912063877081,318.7961350708008,-0.14719724655151367,0.10318983346223833,-0.5487417578697205,0.8164357542991638,-0.5237780695018759,8.567308488502391,3.100094226338268,0.03935439884662628,-0.10436870902776718,0.168279230594635,-1.7208311811089516,-0.37054342802613977,-9.957674939632415
37.7,9.5,49.0,21.477678298950195,23.282794952392567,-79.78255741725155,40.45912421109888,318.7857590942383,-0.14857135713100433,0.10617315769195557,-0.5486725568771362,0.8158506751060486,-0.5295346520180684,8.732482084718523,3.1918665125206696,0.11677809804677965,0.004300946369767189,-0.07257816940546036,-1.8416548293828965,0.026911791767925027,-10.016012610197068
37.9,9.899999618530273,49.0,21.417579650878906,24.865196228027344,-79.78253729489364,40.459132200379706,318.7055665283204,-0.15214771032333374,0.10312750935554504,-0.5468212962150574,0.8168245553970337,-0.5538761390523262,8.998900024939902,3.3947648131032206,-0.009207258000969887,0.01675315573811531,0.14103399217128754,-2.1560394421219837,0.0003741669841110707,-9.61043102145195
38.0,10.100000381469727,49.0,21.481433868408203,23.537250518798828,-79.78252696258652,40.45913647316072,318.63489926147463,-0.1460178643465042,0.096363365650177,-0.5462905764579773,0.8191211223602295,-0.5737153546731452,9.145722045746268,3.380254596845333,-0.051821932196617126,0.3902102112770081,-0.3355244398117065,-1.8756983421742919,0.30130835646763443,-9.713739042878153
38.2,10.399999618530273,51.0,21.455141067504886,24.29266929626465,-79.7825059851303,40.459144196607966,318.60522091674807,-0.12851670384407046,0.08284515887498856,-0.5478742718696594,0.8224682211875916,-0.5125682462861548,9.486433921735896,3.054968897057246,0.14203056693077087,0.050759710371494286,0.04329562932252884,-1.9499926257133484,0.07434502640739084,-9.676308676600458
38.4,10.600000381469727,53.0,21.58284950256348,21.09605598449707,-79.78248409446878,40.459152611078224,318.5184594421387,-0.1180812120437622,0.08395344763994217,-0.5489594340324402,0.8231964111328125,-0.5650314449154586,9.763931980374194,2.8378894971990865,-0.1321800947189331,0.14550019800662994,0.017929278314113617,-1.901424336880445,-0.2747057727724314,-9.841021817922591
38.5,10.899999618530273,54.0,21.49896240234375,21.620872497558594,-79.7824728810681,40.45915719448937,318.4504853515625,-0.11945278197526933,0.07955919206142427,-0.5489693284034729,0.8234282732009888,-0.6151252983228945,9.879053528859224,2.8015660048450206,-0.10774710029363632,0.17332400381565094,0.1957340240478516,-2.0615782579779625,-0.12750961960293353,-9.768096513748171
38.6,11.0,54.0,21.711811065673828,18.106189727783203,-79.78246193974006,40.45916125638474,318.43740093994137,-0.11950277537107468,0.07700589299201965,-0.5498567223548889,0.8230715990066528,-0.5942968215168255,9.936305327238225,2.8267681192121117,-0.014409505762159824,0.1740427017211914,-0.1031484752893448,-2.379096247404814,0.1959836120903492,-9.83122422337532
38.8,11.300000190734865,57.0,21.58785820007324,20.8177433013916,-79.78243945903688,40.45916999124143,318.35588848876955,-0.10834329575300217,0.07174757122993469,-0.5497275590896606,0.8251749873161316,-0.6431619021399286,10.097836187770683,2.7097722233243893,-0.11258448660373688,0.14962592720985413,-0.1645798236131668,-2.245687344521284,0.01889065442606807,-9.409683828949928
39.0,11.399999618530273,57.0,21.610395431518555,19.457990646362305,-79.78241676272637,40.459178852431975,318.275974395752,-0.08754182606935501,0.059384766966104514,-0.5491794347763062,0.8289825320243835,-0.6108010638485504,10.255940829164107,2.308238427465945,0.02524343878030777,0.3121190965175629,0.017090842127799988,-2.2469602833688262,-0.2960555468313396,-9.447590158581734
39.1,11.699999809265135,57.0,21.71431541442871,18.36859703063965,-79.78240562508508,40.45918302619851,318.2585908203125,-0.07907271385192871,0.054028093814849854,-0.5493189096450806,0.8301067948341371,-0.5966036740418628,10.306223345079832,2.03005975499928,-0.01217425987124443,0.13554039597511292,0.08523725718259811,-2.117088945955038,0.0638714206404984,-9.420093042254447
39.2,11.800000190734865,57.0,21.735599517822266,18.24932098388672,-79.78239451447341,40.459187195207136,318.2386971740723,-0.0759100541472435,0.05032079294323921,-0.5489701628684998,0.8308654427528381,-0.5789066329790701,10.31352747964487,1.7854839902417408,-0.05126214027404785,0.06917547434568405,-0.1934991329908371,-1.9368206030130388,0.07180489542894065,-9.367495583295822
39.41,12.0,63.0,21.642948150634766,20.40425109863281,-79.78237195450279,40.45919558248684,318.1582528381348,-0.07315470278263092,0.05028726905584335,-0.5482680797576904,0.8315778970718384,-0.533796320746739,10.272827107266238,1.6382520571453725,0.01186305284500122,-0.1058140993118286,0.011611455120146276,-2.158674636036157,-0.18536494055762887,-9.425591763854026
39.5,12.0,63.0,21.622915267944336,19.99871063232422,-79.78236035780778,40.459200112951116,318.10608685302736,-0.0751936212182045,0.04726264625787735,-0.5469638705253601,0.8324319124221802,-0.5432142053630253,10.291357190910498,1.6354210561611056,-0.028129123151302338,0.04634971544146538,0.07989691942930223,-1.9389576141536238,0.03474302250891924,-9.75377785205841
39.7,12.100000381469727,63.0,21.6917781829834,18.59124755859375,-79.78233836725809,40.459208399867975,318.0689317016602,-0.07462762296199799,0.04013371095061302,-0.5484209060668945,0.8318982124328613,-0.5415185665927486,10.212643456853082,1.640825511821569,-0.0383111871778965,0.12032553553581238,-0.1842430233955384,-1.9118645404279235,0.1954585503973067,-9.804189621806145
39.8,12.100000381469727,63.0,21.61415100097656,20.475818634033203,-79.78232684787406,40.459212969529254,318.0092049865723,-0.07213623821735382,0.04060259088873863,-0.548742413520813,0.8318831920623779,-0.5631415145252003,10.243409547573982,1.5687469862654153,0.012296635657548904,-0.028053134679794308,0.08686449378728868,-1.9527650830149648,-0.06169104874134064,-9.58085931301117
40.0,12.100000381469727,64.0,21.617908477783203,20.34063720703125,-79.78230441689006,40.4592216444654,317.93190777587887,-0.06641624867916107,0.04384731128811836,-0.5489776134490967,0.8320396542549133,-0.5854933856868999,10.184768260624027,1.4960306427968684,0.08836644142866135,0.03728758916258812,-0.1301508992910385,-1.9551071852445605,0.08542210137471556,-9.798076942563057
40.1,12.199999809265135,64.0,21.709306716918945,18.479923248291016,-79.78229355930439,40.459225773890545,317.9158440856934,-0.06185618042945864,0.042678870260715485,-0.5490615963935852,0.8323964476585388,-0.6000696177353226,10.129146573501117,1.4871696028490269,-0.027159607037901882,0.13647781312465668,0.17360226809978485,-2.172663953304291,-0.0299861207138747,-9.860495384931564
40.3,12.100000381469727,64.0,21.61289978027344,19.163774490356445,-79.7822714141777,40.45923420203338,317.83982861328127,-0.046958137303590775,0.029770979657769207,-0.5479631423950195,0.8346527218818665,-0.5570250090416474,10.052455847228256,1.2243710249926532,-0.09291386604309082,0.3144646883010864,0.057825058698654175,-1.7744266135990616,0.1371469821687788,-9.916815766096118
40.5,12.100000381469727,64.0,21.699291229248047,18.32088661193848,-79.78224976062126,40.459242663670565,317.7630311279297,-0.03302592411637306,0.014686126261949541,-0.5480648279190063,0.8356545567512512,-0.5251753383927579,9.919277607060092,0.7977086221725124,0.18330389261245728,0.19859109818935394,0.2711772322654724,-1.971327069103718,-0.1981728827208281,-9.871267125606536
40.6,12.0,69.0,21.706802368164066,17.80402183532715,-79.78223931733979,40.459246663395255,317.7539788513184,-0.028165368363261226,0.010800705291330814,-0.5480889081954956,0.8358760476112366,-0.5336492948363402,9.817497876556462,0.6254268801715596,0.15987667441368106,0.1752995252609253,-0.137862890958786,-1.7023054477572441,0.026069852099753918,-9.822958599328995
40.7,11.899999618530273,72.0,21.753129959106445,17.28715705871582,-79.78222901176993,40.4592506279938,317.7454682617188,-0.02466812916100025,0.008253575302660465,-0.5481587052345276,0.8359697461128235,-0.5487343662176982,9.691569498003902,0.4953713446090897,0.17066022753715515,0.12701046466827393,0.15069560706615448,-1.8340869243443008,0.03380856435745955,-9.715056420564652
40.91,11.699999809265135,72.0,21.711811065673828,18.654861450195312,-79.78220804906529,40.45925858601323,317.64455426025387,-0.024053210392594337,0.00674806023016572,-0.5478033423423767,0.8362340927124023,-0.5439324816790102,9.479554049598397,0.32540504645506085,0.10297474265098573,-0.08026590198278427,0.2973521649837494,-1.837699187994004,-0.2665143718197942,-9.564744386672976
41.1,11.600000381469727,72.0,21.72182846069336,17.85173225402832,-79.7821874252878,40.45926653319422,317.5652314453125,-0.01835949718952179,0.004959254991263151,-0.5482012629508972,0.8361302018165588,-0.5615486983065627,9.271242495776011,0.24957721246411704,-0.20691336691379547,0.1506466120481491,-0.09610871225595474,-1.6713030718266966,-0.28166702918708325,-9.847406977415083
41.2,11.399999618530273,75.0,21.62541961669922,20.110036849975586,-79.782177731055,40.459270316167455,317.5491219787598,-0.01949706487357616,0.005785851273685694,-0.5485308766365051,0.8358829617500305,-0.5857711186454354,9.162331898054418,0.16617308097351133,-0.030856089666485783,-0.07024794071912767,-0.10917135328054428,-1.4893859602510928,0.08527661534026265,-9.520442957282066
41.3,11.300000190734865,77.0,21.69303131103516,18.535585403442386,-79.78215918927758,40.459278288598036,317.4211159973145,-0.02814573608338833,0.004763757344335318,-0.5492069125175476,0.8351988196372986,-0.6781355468302692,8.876808908875132,0.19127724074023966,-0.029727410525083545,-0.1251547932624817,-0.12234658747911452,-1.586595335751772,0.017148184161633252,-9.75964202463627
41.5,11.100000381469727,77.0,21.789438247680664,16.53173828125,-79.78214943333991,40.45928215997921,317.3395234375,-0.0356970950961113,0.0063200551085174075,-0.5485370755195618,0.8353399634361267,-0.6669067787308945,8.810991657293563,0.2244199808609164,0.07001693546772003,-0.024392332881689068,-0.12361345440149307,-1.6480144889652732,0.1638930693268776,-9.472097008824347
41.6,11.0,77.0,21.680509567260746,18.797992706298828,-79.782140264678,40.45928585736148,317.31224072265627,-0.044121310114860535,0.010568113066256045,-0.5486217141151428,0.8348388075828552,-0.6847433523908003,8.724512907488425,0.30160117713466805,0.008264265954494476,-0.10328523814678192,0.02038249559700489,-1.295254307538271,0.15005077298730612,-9.386162234544754
41.8,10.800000190734863,73.0,21.69803810119629,18.567392349243164,-79.78212154929938,40.459293365903775,317.1947938232422,-0.05706073716282845,0.02272021770477295,-0.5473752021789551,0.8346306085586548,-0.6947390980323934,8.609486289797756,0.5447966191445693,0.10271813720464706,-0.026433365419507027,0.025968130677938458,-1.3650219690799714,0.050155561203137036,-9.383094200491906
41.9,10.600000381469727,70.0,21.6091423034668,20.475818634033203,-79.78211258333712,40.459297024123394,317.1538773803711,-0.061314746737480164,0.027913978323340416,-0.547353208065033,0.8341857194900513,-0.6880893739842517,8.566314594363062,0.612033948896361,0.17977750301361084,-0.07461259514093399,-0.1376587599515915,-1.6895745974779133,0.18322515198960893,-9.10740675330162
42.1,10.399999618530273,70.0,21.54153251647949,21.787860870361328,-79.78209409049185,40.45930449565014,317.02243817138674,-0.07004354894161224,0.0355483740568161,-0.5459901690483093,0.8341013789176941,-0.6918666159527026,8.534146254620062,0.7323744858094129,-0.06758438795804977,-0.15084843337535858,-0.09325075149536133,-1.3523270791769029,-0.02458275441080332,-9.336689527630806
42.3,10.300000190734863,70.0,21.48644256591797,23.227130889892567,-79.78207569029385,40.45931187208723,316.891510131836,-0.08461438119411469,0.04597772657871246,-0.5435400605201721,0.8338410258293152,-0.6689505666819638,8.524382604618424,0.9753820782676614,-0.005908681079745293,-0.4251485466957092,0.124714694917202,-1.7734160685539246,0.12766264306381345,-9.336488968133926
42.4,10.199999809265137,65.0,21.4138240814209,24.78567886352539,-79.78206674780822,40.459315524312224,316.8402787475586,-0.0945904329419136,0.05223565921187402,-0.5420988202095032,0.8333384394645691,-0.6451942137754936,8.538349015235536,1.1492408978282005,0.02601340040564537,-0.14665551483631134,-0.14271950721740725,-1.3732102636992929,0.19008746255189185,-9.64684104859829
42.5,10.199999809265137,62.0,21.298635482788086,26.717960357666016,-79.78205728128084,40.45931916549268,316.77221691894533,-0.10479974001646042,0.05843822285532953,-0.5395500659942627,0.8333593010902405,-0.6062381962185422,8.551990298181586,1.4181038170854374,-0.05498743802309036,-0.2536871135234833,0.05618571862578392,-1.4371081978082658,-0.11691416334360838,-9.977810411453248
42.7,10.100000381469727,62.0,21.362489700317386,25.5570011138916,-79.78203903224181,40.459326572486944,316.694130065918,-0.11977101117372513,0.06684461981058121,-0.5367221832275391,0.832535982131958,-0.5647776605272512,8.63094743616383,1.9734505122445751,-0.052278444170951836,-0.2030638903379441,0.013654399663209915,-1.6704620960354806,0.1445905242394656,-10.302585818767547
42.8,10.199999809265137,61.0,21.50271797180176,22.84544563293457,-79.78202967090957,40.45933008616552,316.6267815856934,-0.12493474781513215,0.07240630686283113,-0.5356715917587279,0.8319883346557617,-0.5070569132322736,8.65866287162061,2.180968512355145,0.023462828248739243,-0.15082529187202454,0.03656720370054245,-1.945176128000021,0.01611088810488582,-10.314853277206419
43.0,10.199999809265137,57.0,21.271089553833008,27.354103088378906,-79.78201089584991,40.459337666677754,316.51683438110354,-0.13550493121147156,0.08345656841993332,-0.5369361639022827,0.8284764289855957,-0.5243934269713931,8.776996392429346,2.4908198122737755,0.04778492078185082,-0.06977597624063492,-0.031666070222854614,-1.4846251572668554,0.07387306474149227,-9.961883765459064
43.2,10.300000190734863,54.0,21.088289260864254,30.91649627685547,-79.78199153877647,40.459345407585026,316.46899044799807,-0.14316444098949432,0.08939290791749954,-0.5370540022850037,0.8264901041984558,-0.5764147799352136,8.931974644840091,2.9024830662985663,0.01318542193621397,0.16997475922107694,-0.16031450033187866,-1.9139281690120693,-0.21145033802837127,-9.969883925914763
43.31,10.399999618530273,54.0,21.408815383911133,23.338457107543945,-79.78198168209614,40.459349443569494,316.4116479187012,-0.1354692429304123,0.08724474161863327,-0.5377447009086609,0.8275670409202576,-0.5851600274476587,8.97919834230235,3.0812723537891573,-0.029175078496336937,0.2347313761711121,-0.1305496096611023,-2.1879219701886177,0.17542423540726304,-10.648441607952119
43.4,10.5,54.0,21.42884826660156,23.847370147705078,-79.7819716608095,40.459353419951185,316.40810025024416,-0.12306688725948335,0.08144170045852661,-0.5385914444923401,0.8295426368713379,-0.5761130222333974,9.118344189057437,3.0648686581596887,0.02987056039273739,0.2915942072868347,-0.15034329891204834,-2.0278696444630624,0.14079291298985486,-10.530561740398408
43.6,10.600000381469727,55.0,21.455141067504886,23.410022735595703,-79.78195113665029,40.45936166639999,316.3633996276856,-0.1056106686592102,0.07017581164836884,-0.5396897196769714,0.8322600722312927,-0.5550809217008383,9.383525545492613,2.6768445699396946,-0.09339596331119536,0.07385474443435669,-0.10787860304117204,-1.9941152764856809,-0.0729100831411779,-10.049517155885695
43.8,10.699999809265137,57.0,21.57533836364746,20.77003288269043,-79.78193020295416,40.459370022710296,316.30270016479494,-0.10111402720212936,0.06201515719294547,-0.5391278266906738,0.8338294029235841,-0.5202350360465929,9.558033451792117,2.4012309438572963,-0.015286999754607676,0.1822853982448578,-0.017322489991784096,-1.7862767270207407,0.10200241126120092,-9.928004997968674
43.9,10.899999618530273,57.0,21.562816619873047,21.23123550415039,-79.78191984588861,40.45937408459708,316.30567181396486,-0.1002289056777954,0.06022563576698304,-0.5386355519294739,0.8343852758407593,-0.4965049112339003,9.59900814744372,2.3507318690141608,0.059971932321786874,0.024285541847348213,0.062345553189516074,-1.9581842824816704,0.19939398234710096,-9.529754648208616
44.0,11.0,57.0,21.55906105041504,20.865455627441406,-79.78190909169908,40.45937849269532,316.27105725097664,-0.09992832690477373,0.06058793514966965,-0.5376895070075989,0.8350051045417786,-0.4835692841654844,9.654103215287249,2.272770085496605,0.06768715381622313,0.05593996122479439,-0.2884190678596497,-1.922275215536356,0.06663554109167308,-9.333665932416915
44.2,11.199999809265137,59.0,21.594118118286133,20.587142944335934,-79.78188825388838,40.45938666751771,316.25958264160164,-0.09261870384216307,0.06405467540025711,-0.5379040837287903,0.8354507684707642,-0.4751487135788634,9.687442785375136,2.20086976942732,-0.02180754579603672,-0.07475995272397995,-0.17682747542858124,-2.2360677976906302,0.09680360614322127,-9.34416811645031
44.3,11.199999809265137,59.0,21.53276824951172,20.97677993774414,-79.78187732339917,40.45939100495143,316.25378430175783,-0.0898774117231369,0.06373884528875351,-0.5382755994796753,0.8355351686477661,-0.4616457072870189,9.722963393257944,2.137091646949851,0.07911988347768784,0.1481790542602539,-0.07590433955192566,-2.10410315707326,0.13779781381599607,-9.349497853517533
44.5,11.300000190734865,59.0,21.57909393310547,21.310754776000977,-79.78185598340427,40.45939944257574,316.2422601013184,-0.08516327291727066,0.062080703675746925,-0.5395203828811646,0.8353508114814758,-0.4883214944564689,9.779972438606721,2.057791686369002,-0.0962347760796547,0.019091920927166942,0.0130350012332201,-2.072751994729042,0.008194150971248747,-9.476456692814828
44.7,11.399999618530273,60.0,21.597875595092773,20.35654067993164,-79.78183498719372,40.459407600358965,316.2228165893555,-0.08280081301927568,0.05950625613331795,-0.5399906635284424,0.8354718685150146,-0.4679494395105233,9.781113630234344,1.9323248849939023,-0.020692266523838043,0.2161013633012772,0.1053714007139206,-2.0854582867026332,0.16001455636695028,-9.355164974927902
44.81,11.399999618530273,61.0,21.47892951965332,21.771957397460934,-79.78182404546091,40.459411825423395,316.2209817199707,-0.08119350671768187,0.057803276926279075,-0.5401503443717957,0.835645854473114,-0.4556997918110898,9.793698225983807,1.9058243869285656,-0.0748509094119072,-0.07683737576007843,0.18741066753864288,-2.1400005295872693,-0.11239400982856752,-9.335593174695966
44.9,11.399999618530273,61.0,21.63167953491211,19.91124153137207,-79.78181354204865,40.45941587490867,316.2089005737305,-0.08059829473495482,0.05607587099075317,-0.5402063727378845,0.8357850313186646,-0.4367565047386697,9.800572423547742,1.8510263439782089,0.034876402467489236,0.060707923024892814,-0.1928587108850479,-1.877861958146096,0.02048095090314746,-9.553615965843203
45.1,11.399999618530273,62.0,21.610395431518555,20.046422958374023,-79.78179197529279,40.45942406364412,316.2081109313965,-0.08219462633132935,0.05309978127479553,-0.5391756296157837,0.8364892005920409,-0.40385429040952575,9.8032344857973,1.8143954582740025,-0.07767682522535324,-0.029824035242199894,-0.2227814495563507,-1.9265121079981329,0.0002822651993483305,-9.368137607574463
45.2,11.399999618530273,62.0,21.6279239654541,19.426183700561523,-79.78178147520866,40.45942808413531,316.19464505004885,-0.08265432715415955,0.05142876133322717,-0.538693368434906,0.8368589282035828,-0.3823462268184761,9.778597529115595,1.7950937201295185,0.04621497914195061,-0.04633558169007301,0.07218823581933975,-2.1905975098907957,-0.0798870265390724,-9.3078148072958
45.4,11.399999618530273,62.0,21.53026390075684,21.33460998535156,-79.78175991987631,40.45943626867968,316.18830883789065,-0.08099660277366638,0.04903830587863922,-0.5387424230575562,0.8371329307556152,-0.3747200986741751,9.795336251462778,1.7702731590953504,-0.08844780176877975,0.029057513922452927,-0.001331369043327868,-1.8656539951264857,0.007586003998294473,-9.491695706248283
45.6,11.399999618530273,63.0,21.580345153808594,20.038471221923828,-79.78173860911478,40.4594443458016,316.17287457275387,-0.08085998147726059,0.04778985306620598,-0.5385473966598511,0.8373437523841858,-0.35662554421761833,9.7691372610226,1.7301512835314283,0.026207637041807168,0.20578613877296448,-0.12818659842014313,-1.5281616246700287,0.05668268012814224,-9.797779904007912
45.7,11.399999618530273,63.0,21.56907844543457,20.467866897583008,-79.78172815058697,40.45944835172703,316.1599160461426,-0.08164630085229874,0.048599585890769965,-0.538348376750946,0.8373488783836365,-0.3715655093508127,9.748699686304292,1.7180034404171476,0.009920026175677776,-0.07443898171186447,0.2524575293064117,-2.1770508268475535,-0.0563312716037035,-9.387084340453148
45.8,11.399999618530273,63.0,21.5352725982666,21.54930686950684,-79.78171727253793,40.459452490461906,316.1569215087892,-0.08200958371162415,0.05062966048717499,-0.5382842421531677,0.8372342586517334,-0.3621257330367336,9.77762550812173,1.7659278106039804,-0.023209348320961,0.033325575292110436,-0.09572560340166092,-1.7044740338623523,0.09693843014538288,-9.648647253513337
46.0,11.300000190734865,65.0,21.574085235595703,20.26907157897949,-79.78169585905484,40.45946050571374,316.14276516723635,-0.08288031816482544,0.051343683153390884,-0.5378276705741882,0.8373984098434448,-0.35441449337351355,9.757745153028404,1.8282328457094144,-0.06004621088504791,0.17410123348236084,0.07024796307086945,-1.8334916777908803,0.0065710644051432615,-9.6774301725626
46.1,11.300000190734865,63.0,21.610395431518555,19.6965446472168,-79.78167492517882,40.45946850873585,316.1256715087892,-0.08371125906705856,0.050575155764818185,-0.5369989871978761,0.8378942012786865,-0.3241778680029244,9.750364382072275,1.8493672790572613,0.13666723668575287,0.029286418110132217,-0.33692336082458496,-2.107536495923996,-0.029800115302205086,-9.618720034360884
46.3,11.399999618530273,63.0,21.592866897583008,20.54738426208496,-79.78166405963266,40.45947259473857,316.12363446044924,-0.0836763009428978,0.05071178451180458,-0.5366712212562561,0.8380994200706482,-0.3291439610683973,9.744378227904972,1.845618776094484,-0.037191260606050484,0.04773972555994988,0.04757897555828095,-2.0806759952008727,0.1957651089504361,-9.513495880365372
46.4,11.300000190734865,63.0,21.61415100097656,19.664737701416016,-79.78165359642752,40.459476597434815,316.11467755126955,-0.08439917117357254,0.0500805638730526,-0.5365769267082214,0.8381253480911255,-0.3207964132350083,9.7543757271142,1.8441783196978223,-0.06308572739362718,0.05127505213022232,-0.04253976047039032,-1.7133996623754502,0.08282611121423543,-9.649582808017731
46.6,11.300000190734865,63.0,21.55906105041504,20.68256378173828,-79.78163238191121,40.45948466806399,316.0949097900392,-0.08351349830627441,0.05252120643854141,-0.5370546579360962,0.8377585411071777,-0.3065816194500897,9.739981880255023,1.8393925885884308,0.21692128479480746,0.005648786202073097,0.1219528391957283,-1.8656886398792267,0.07063008016906679,-9.564501727223396
46.7,11.300000190734865,64.0,21.58159828186035,20.49967384338379,-79.7816219198754,40.459488660694745,316.0843430786133,-0.08270271867513658,0.05433729663491249,-0.5374639630317688,0.8374606966972351,-0.32360564628796645,9.739209430436171,1.8412014151227243,-0.01700650528073311,0.04979418218135834,0.16251663863658905,-2.0374465066194536,0.10310844864696264,-9.484377915859225
