time,wind_speed,wind_angle,battery_voltage,battery_current,position_x,position_y,position_z,orientation_x,orientation_y,orientation_z,orientation_w,velocity_x,velocity_y,velocity_z,angular_x,angular_y,angular_z,linear_acceleration_x,linear_acceleration_y,linear_acceleration_z
0.0,1.7000000476837158,156.0,23.179214477539066,0.03180709481239319,-79.78237872853518,40.458037387826316,268.47513735866545,-0.0007519781938754022,0.005758498795330525,0.2977215647697449,0.9546351432800292,-0.012857099972811994,0.00946131258427838,0.003068803602738523,0.0030463768634945154,-0.0006172345019876957,0.00537034822627902,0.02042143721133471,-0.11944438146427275,-9.806448985934258
0.1,1.600000023841858,158.0,23.18797874450684,0.04771064221858978,-79.78237874772344,40.45803738791004,268.4754630384445,-0.0007517745834775269,0.005758754443377256,0.2977215647697449,0.9546351432800292,-0.013860413510696001,0.00934936222546065,0.003066579045935251,-0.002882438944652677,-0.001129075768403709,-0.0036195036955177775,0.021195320771075787,-0.1041461466997862,-9.805132192969324
0.3,1.600000023841858,161.0,23.177963256835927,0.04771064221858978,-79.78237891376673,40.45803753188214,268.48163772201536,-0.0007537557976320388,0.0057538244873285285,0.2977257072925568,0.954633891582489,-0.018026626154060414,0.0069907905316578854,0.001829784095606361,-0.00420376705005765,-0.00066094018984586,-0.0033159430604428053,0.020521591336000712,-0.11960696146823467,-9.80627766251564
0.41,1.5,166.0,23.18297004699707,0.039758868515491486,-79.78237904124677,40.458037709486014,268.48812914466856,-0.0007613521302118897,0.005757406819611789,0.29772987961769104,0.9546325206756592,-0.013421842538788257,0.007427860404392931,0.0014822627491026846,0.001809090143069625,-0.0019694927614182234,0.001377544947899878,0.019841893629636616,-0.12057327780872586,-9.805198266506196
0.6,1.5,168.0,23.177963256835927,0.04771064221858978,-79.78237907726222,40.45803770655794,268.488489156723,-0.000760861614253372,0.005757144652307034,0.29772987961769104,0.9546325206756592,-0.013686605374345396,0.007522634947048808,0.001886241940031887,0.0015807156451046467,-0.0007627678569406271,-0.0013642978155985475,0.021526983522344386,-0.10710840096697212,-9.806894543766976
0.7,1.5,170.0,23.185474395751953,0.03180709481239319,-79.78237917753783,40.4580378727222,268.4953719434738,-0.0007609476451762023,0.005763310939073564,0.2977328300476074,0.9546315670013428,-0.008895531274384581,0.00010192574998173654,0.0011733111285517682,0.002220328664407134,0.0028628255240619183,0.0030590207315981392,0.02202216731384397,-0.11135550778359177,-9.806833148002623
0.9,1.600000023841858,170.0,23.17545890808105,0.04771064221858978,-79.78237931156208,40.45803806478501,268.5037468729019,-0.000771135208196938,0.0057650646194815644,0.2977392077445984,0.9546295404434204,-0.004766722800562871,0.0027689255195163845,0.003868666680602495,0.006036959122866392,0.0019361359300091863,0.005887710489332676,0.02105237462092191,-0.1133583070524037,-9.807817234396936
1.0,1.7000000476837158,171.0,23.17671012878418,0.03180709481239319,-79.78237931850605,40.458038064355065,268.5041470584869,-0.000771135208196938,0.0057650646194815644,0.2977392077445984,0.9546295404434204,-0.005593189640413262,0.002990577423072703,0.003959962170311977,-0.0039048760663718,-0.003463795408606529,-0.0040370021015405655,0.02033071400597692,-0.10749075405299664,-9.804984258413317
1.2,1.7000000476837158,173.0,23.181718826293945,0.03180709481239319,-79.78237943023478,40.45803826085535,268.51481140232084,-0.0007765180780552328,0.005770351737737657,0.2977467179298401,0.9546271562576294,-9.818197893043552e-05,0.00026176128544510354,0.010929990590806942,-0.004916368518024683,-1.27151520246116e-06,-0.0052157845348119744,0.02197246826486662,-0.1180309084430337,-9.805849061608317
1.3,1.7999999523162842,173.0,23.181718826293945,0.02385532110929489,-79.78237943004953,40.45803826135077,268.5159152803421,-0.0007765180780552328,0.005770351737737657,0.2977467179298401,0.9546271562576294,0.0007352449343746035,0.0004620335159478295,0.01116823744717342,0.00400897953659296,-0.0004177478840574622,0.0051112500950694075,0.019746508640237158,-0.1220033971220255,-9.806447231769562
1.5,1.8999999761581416,173.0,23.17671012878418,0.03180709481239319,-79.782379404257,40.458038496232696,268.5403666553497,-0.0007895385497249662,0.0058166044764220715,0.29776641726493835,0.9546207785606384,0.028901407114085318,-0.008308970919172366,0.044370257367060816,0.0030678980983793736,0.002017093589529395,0.0020881029777228832,0.02028878535842523,-0.10650010781362654,-9.805027527809145
1.6,2.0,170.0,23.18046760559082,0.039758868515491486,-79.78237937036208,40.458038504983634,268.5447715578079,-0.0007867514505051076,0.005828844849020243,0.2977694869041443,0.9546197056770324,0.02884688314676892,-0.00847917289727352,0.044454225709429286,0.0003984981740359217,0.0018664732342585921,0.0022958854679018268,0.01987918104976416,-0.10261532736942172,-9.807168778181076
1.8,2.0999999046325684,169.0,23.177963256835927,0.039758868515491486,-79.78237945770907,40.45803871523324,268.5743696746826,-0.0007754969992674887,0.005809793714433909,0.29778602719306946,0.9546146988868712,0.023815174659333103,-0.0080825687366031,0.06903431372043772,0.0008563015144318343,0.0008993501542136072,0.001908787526190281,0.02005543577251956,-0.11876436855643988,-9.80569586455822
1.9,2.200000047683716,163.0,23.177963256835927,0.04771064221858978,-79.7823795947495,40.458038932047,268.59071982479094,-0.0007760693551972507,0.0057932548224926,0.2978041172027588,0.954609215259552,0.0176912450416854,-0.002420394721172364,0.07275293691054159,-0.004262235481292009,-0.002447320381179452,-0.004414293449372053,0.01849417323363013,-0.11029475891031323,-9.804011281728744
2.1,2.200000047683716,161.0,23.17545890808105,0.06361418962478638,-79.78237957475316,40.458038940047004,268.5979828891754,-0.0007934707682579756,0.005797714926302433,0.2977900803089142,0.9546135067939758,0.018584643597519847,-0.002179531224358486,0.07301548124479754,0.0048431637696921825,-0.0010573825566098094,0.005703706759959459,0.02008130284957588,-0.11827767007984225,-9.807139542102815
2.2,2.200000047683716,155.0,23.179214477539066,0.04771064221858978,-79.78237968168735,40.458039172935095,268.61906374073027,-0.000825781375169754,0.00579630583524704,0.29781973361968994,0.9546042084693908,0.01680885363299827,0.0007671339100721562,0.06860413006640623,0.005115617532283068,-0.0001987994473893196,0.0016315720276907086,0.019550512712448842,-0.12270941186696292,-9.806186445951463
2.4,2.200000047683716,155.0,23.18297004699707,0.039758868515491486,-79.78237981144538,40.458039399694364,268.6371408758163,-0.000815251434687525,0.005785998422652483,0.2978166341781616,0.9546052813529968,0.009632009724848218,0.002251013357582973,0.05720974076342668,2.5298519176431e-05,-0.002299447311088443,-0.003636547364294529,0.02218127096537501,-0.1165815389994532,-9.805692940950395
2.5,2.200000047683716,154.0,23.18046760559082,0.02385532110929489,-79.78237980266837,40.458039406363184,268.6428548154831,-0.0008194358670152724,0.005781589541584253,0.297814816236496,0.9546058177947998,0.010143904906914716,0.0021822005838873643,0.05738657012688439,0.0043102530762553215,0.0016507777618244288,0.0031047291122376927,0.0245144584751688,-0.11429262815974653,-9.807696197032927
2.7,2.299999952316284,154.0,23.174205780029297,0.04771064221858978,-79.78238000224741,40.45803963700463,268.65733016109465,-0.0008282188791781664,0.005764251574873924,0.2978208065032959,0.954604148864746,-0.003341130811618657,0.008376280902668077,0.04416555237065175,0.0007923705852590501,-0.0026685467455536127,-6.703994586132467e-05,0.01800209349137731,-0.10583611079491677,-9.806269476413727
2.8,2.299999952316284,154.0,23.177963256835927,0.03180709481239319,-79.78238001076394,40.458039641656256,268.6617549715042,-0.0008282188791781664,0.005764251574873924,0.2978208065032959,0.954604148864746,-0.0034610545870094296,0.008482704321364528,0.04416829877710972,0.0004585479910019785,0.00035110983299091464,0.0008652055403217673,0.021517643965780736,-0.10892538668587803,-9.806557744145394
3.0,2.299999952316284,154.0,23.17671012878418,0.04771064221858978,-79.78238015445699,40.45803989223867,268.67659807777403,-0.000837012950796634,0.005765711888670921,0.2978259325027466,0.9546024203300476,-0.00015577157835830295,0.009910408412650094,0.03807577735516346,0.006513927597552538,0.0016208926681429148,0.005372342187911272,0.017008467684499918,-0.10973010974004864,-9.80455916583538
3.1,2.0999999046325684,157.0,23.179214477539066,0.05566241592168808,-79.78238016133409,40.45803989920244,268.6804102716446,-0.000836306600831449,0.0057653067633509645,0.2978258728981018,0.9546024203300476,-0.0008525612039645737,0.01023105919406117,0.038152790780956576,-1.1167187949467916e-05,0.0036876844242215157,0.0019307376351207493,0.024787715307902542,-0.1040126748662442,-9.807005056142806
3.3,2.0,159.0,23.17545890808105,0.039758868515491486,-79.7823803595172,40.4580401384483,268.6913073120117,-0.0008435843046754599,0.0057561444118618965,0.2978312373161316,0.9546008110046388,-0.00748470125842213,0.011920523419776051,0.025946621068501523,0.005476632155478001,-0.0022319660056382413,0.00685211317613721,0.019291044801939286,-0.11629651464521885,-9.804219442605973
3.4,2.0,161.0,23.18297004699707,0.039758868515491486,-79.78238051800203,40.45804040213859,268.70157909965513,-0.0008536157547496259,0.005756719037890434,0.2978379428386688,0.9545987844467164,-0.006232681198318273,0.014078688382718297,0.01983154563142523,-0.0016081284265965225,0.0006344469147734344,-0.005305916536599398,0.02013805967057124,-0.1049817046802491,-9.805426307916642
3.6,2.0,162.0,23.185474395751953,0.06361418962478638,-79.78238053268912,40.458040409930064,268.7035796699524,-0.0008536157547496259,0.005756719037890434,0.2978379428386688,0.9545987844467164,-0.005476817780732078,0.014467392281046763,0.01994708201787328,-0.001498221536166966,-0.0013116936897858975,-0.0007648455793969332,0.01996503005269915,-0.12407418854534627,-9.804345742464069
3.7,2.0,165.0,23.172954559326172,0.06361418962478638,-79.78238070611927,40.45804064822449,268.71299195861815,-0.0008510745828971268,0.005753940436989069,0.2978455722332001,0.9545964002609252,-0.010036262667454398,0.006779872047514088,0.00959270404157976,-0.002680361503735185,-0.00014197325799614188,-0.0044639958068728456,0.017947568205418058,-0.11231103418394923,-9.80427031338215
3.9,1.8999999761581416,168.0,23.184223175048828,0.039758868515491486,-79.78238086858673,40.458040899861366,268.7237083969116,-0.0008542273426428437,0.005756125319749117,0.2978552877902985,0.9545933604240416,-0.008789598623654471,0.0025700800060093625,0.0066167825138429785,0.0004907696275040507,-0.0005813684547320008,-0.0032815919257700443,0.0219240071810782,-0.11840318421833218,-9.806402208209036
4.01,1.7999999523162842,171.0,23.17671012878418,0.03180709481239319,-79.78238087853805,40.45804089774168,268.7243932542801,-0.0008542273426428437,0.005756125319749117,0.2978552877902985,0.9545933604240416,-0.008388951615191088,0.0030505504900886662,0.006855639820295656,0.0012716413475573065,-0.001586994738318026,-0.0007696112152189016,0.0185437466588337,-0.11951715189032255,-9.80432059943676
4.2,1.7000000476837158,173.0,23.17671012878418,0.039758868515491486,-79.78238105880965,40.458041168518136,268.7351160106659,-0.0008645015768706799,0.005754522979259491,0.2978669106960297,0.9545897245407104,-0.008549778197074684,0.005271687701424831,0.0045501136578296394,-0.006027973257005215,0.00023524883727077403,-0.005682208575308323,0.023473526181187483,-0.11324455129913985,-9.807704383134842
4.31,1.600000023841858,174.0,23.172954559326172,0.039758868515491486,-79.78238107025143,40.458041168571,268.735586648941,-0.0008645015768706799,0.005754522979259491,0.2978669106960297,0.9545897245407104,-0.007608831469862037,0.005820387444470222,0.0047125929998308,0.0005604651523754001,-0.0008422519895248115,0.0021010967902839184,0.019097860562615098,-0.12131907189264896,-9.805305855274199
4.5,1.5,173.0,23.181718826293945,0.04771064221858978,-79.78238125540796,40.45804142826237,268.74583316421507,-0.0008679188904352486,0.005751402582973242,0.2978806793689728,0.9545854330062866,-0.01120114724316064,0.003143070379579221,0.002718626556514691,-0.009012972936034204,-0.0010703383013606071,-0.0010250936029478908,0.02282657973468304,-0.10777121940627694,-9.806399869322776
4.6,1.399999976158142,173.0,23.179214477539066,0.039758868515491486,-79.78238126796863,40.45804142503934,268.74612534618376,-0.0008669088711030781,0.005751570221036673,0.2978806793689728,0.9545854330062866,-0.010250064425778936,0.003293517687780155,0.0029337138584804826,0.0073974067345261565,-0.0010581044480204582,0.0006618749466724694,0.01955508770188317,-0.11851206120103598,-9.806667087078095
4.8,1.2999999523162842,172.0,23.174205780029297,0.06361418962478638,-79.78238145726186,40.458041715595314,268.7565170583725,-0.0008791174623183906,0.005751570221036673,0.2978942394256592,0.9545812010765076,-0.0091790444635574,0.006217754303860762,0.0020872018047456307,-0.0014221986057236786,-0.001243383390828967,-0.0017079102108255027,0.020076940278522668,-0.10331319255754352,-9.806416826248167
4.9,1.2000000476837158,171.0,23.184223175048828,0.039758868515491486,-79.78238163399531,40.458042002469725,268.7679879722595,-0.0008884422131814063,0.0057509765028953535,0.2979107201099396,0.954576015472412,-0.008534331935852431,0.006960245620950878,0.004729528594351954,0.0009620309574529528,0.0011572755174711347,0.001103774062357843,0.02194017610279843,-0.10956304382532836,-9.806413317918775
5.1,1.100000023841858,172.0,23.179214477539066,0.04771064221858978,-79.78238166053298,40.45804200448972,268.7689898071289,-0.0008874671184457837,0.00575075624510646,0.2979106605052948,0.954576015472412,-0.008124753184505966,0.007843398284624867,0.005016135224517175,0.006736793089658022,0.0010495377937331798,0.005174094345420599,0.0190304508456029,-0.1128435602132231,-9.804642781019213
5.2,1.0,172.0,23.17545890808105,0.04771064221858978,-79.78238184226132,40.45804229920176,268.78108549690245,-0.0008970582857728002,0.005750314332544804,0.2979284226894379,0.954570472240448,-0.008655346297768185,0.007878684119486626,0.00791642169035873,-0.00583801232278347,9.249353752238676e-05,-0.007603689096868037,0.01974859399488196,-0.10842508429661392,-9.805170199871064
5.4,1.0,172.0,23.18297004699707,0.04771064221858978,-79.78238202990264,40.458042607494455,268.792720085144,-0.0009050872176885604,0.0057538170367479324,0.2979422807693481,0.9545661211013794,-0.005335264440049089,0.006354119834713589,0.005240423738948812,-0.006036837585270405,0.0004654489457607269,-0.0010327149648219347,0.01971103020245209,-0.11960911762900653,-9.805977700352667
5.5,0.8999999761581421,171.0,23.17045021057129,0.03180709481239319,-79.78238203888965,40.45804260999015,268.7932598648071,-0.0009050872176885604,0.0057538170367479324,0.2979422807693481,0.9545661211013794,-0.004321174274295314,0.006975514878175165,0.005400857581338088,0.0035293365363031626,-0.0023724171333014965,0.0032038402277976274,0.021917020215187225,-0.12131433930248026,-9.805622189641
5.7,0.8999999761581421,172.0,23.17170333862305,0.04771064221858978,-79.78238222129751,40.45804292581431,268.8078090009689,-0.0009134567808359859,0.005756253842264414,0.29796332120895386,0.9545595645904541,-0.0020320619233685573,0.00614037584175209,0.012105450302788073,0.0026353015564382076,-0.003506426699459553,-0.0012732428731396794,0.020969280204735697,-0.10426932195201516,-9.804804748892783
5.8,0.8000000119209291,172.0,23.17170333862305,0.04771064221858978,-79.78238222759244,40.458042929333295,268.80902600860594,-0.0009134567808359859,0.005756253842264414,0.29796332120895386,0.9545595645904541,-0.002533366440639503,0.006476262036241185,0.012239016528855595,-0.0018352135084569454,0.00023856590269133449,-0.002550016390159726,0.02038318819832057,-0.10502085361629723,-9.806668841242793
6.0,0.699999988079071,171.0,23.18797874450684,0.039758868515491486,-79.78238239887386,40.45804326415231,268.8219260034561,-0.0009242406813427807,0.005760968662798405,0.29798081517219543,0.9545540809631348,0.0027714296009968237,0.0070476166593691075,0.012015127516733285,-0.0017738509923219679,0.0017233970575034616,-0.0022067648824304342,0.018574627266498285,-0.12182164921425286,-9.80429604113102
6.1,0.699999988079071,170.0,23.17545890808105,0.04771064221858978,-79.78238240083164,40.45804327107067,268.8231411037445,-0.0009227938135154543,0.00576062547042966,0.2979807257652283,0.9545541405677797,0.002986378513102425,0.007719302820352181,0.012306469681419695,0.002210338832810521,0.0002507339231669904,-0.0010761301964521408,0.019471541040111333,-0.11838733278214933,-9.805154412388802
6.3,0.699999988079071,167.0,23.18046760559082,0.05566241592168808,-79.7823826190797,40.45804357874234,268.83553326702116,-0.0009268024587072432,0.005752104800194503,0.29800650477409363,0.9545461535453796,-0.005391366309130645,0.0047645530870540406,0.011554539816273692,-0.00406317925080657,-0.002252121455967427,-0.0072068823501467705,0.022446211504284292,-0.10956063184887173,-9.806803911924364
6.4,0.699999988079071,165.0,23.179214477539066,0.039758868515491486,-79.78238280975113,40.45804391968915,268.8464332876205,-0.0009364931029267607,0.00575376208871603,0.2980271875858307,0.9545395970344543,-0.001901325998017457,0.004199368591961261,0.011176838692127605,0.005191359203308821,-0.001833448302932084,0.005975064821541309,0.020613975059241056,-0.1176278434228152,-9.806735499501231
6.6,0.8000000119209291,164.0,23.177963256835927,0.05566241592168808,-79.7823828148307,40.45804392179864,268.8475594577789,-0.0009364931029267607,0.00575376208871603,0.2980271875858307,0.9545395970344543,-0.002804498587979073,0.0045933525735364225,0.01123521004974341,-0.00239428854547441,-0.00061769038438797,-0.0008022655965760349,0.01972650705138221,-0.10582685574889183,-9.804208332896232
6.7,0.8000000119209291,164.0,23.17545890808105,0.04771064221858978,-79.78238304546939,40.45804428124728,268.85896862125395,-0.000948234519455582,0.005749068222939968,0.2980535924434662,0.9545313715934752,-0.005258461215723832,0.0073050221009379485,0.01088614482975041,-0.002148930914700032,0.004094302654266357,0.0008330969722010195,0.021563848389778286,-0.1054195971786976,-9.80624199450016
6.9,0.8000000119209291,163.0,23.177963256835927,0.03180709481239319,-79.7823832503504,40.458044611463954,268.86838067150114,-0.0009596836753189565,0.005747823510318994,0.2980763018131256,0.9545243382453918,-0.003736771135699013,0.010841027517114727,0.011078824300032698,0.0043768337927758685,0.0020244112238287926,0.006239283829927445,0.02011140915798024,-0.11568559938110412,-9.804611790776251
7.0,0.8999999761581421,164.0,23.181718826293945,0.039758868515491486,-79.78238326177795,40.458044617645456,268.8694981393814,-0.0009596836753189565,0.005747823510318994,0.2980763018131256,0.9545243382453918,-0.004580029829992982,0.011379660426382469,0.011119777590890148,-0.004236453212797642,-0.003354847664013505,-0.005832183640450239,0.01990892875939608,-0.10456130814738572,-9.804546301960944
7.2,0.8999999761581421,162.0,23.174205780029297,0.039758868515491486,-79.7823834155776,40.45804490095993,268.87825346565245,-0.0009631713619455695,0.005753919016569853,0.298095166683197,0.9545183777809144,0.0007083413177589732,0.007054620682706416,0.01461367909361971,-0.0010119363432750106,0.0001696377294138074,0.0014457858633249998,0.01875892876298167,-0.12253614242188632,-9.804490168690682
7.3,1.0,158.0,23.181718826293945,0.03180709481239319,-79.78238341955672,40.45804490703952,268.8797266540527,-0.0009631713619455695,0.005753919016569853,0.298095166683197,0.9545183777809144,0.0007495883250218947,0.007796276388914831,0.01487568165630169,-0.0030700599309057,0.0016906727105379105,-0.0036711513530462976,0.01888468272867613,-0.11612862646579745,-9.804519404768945
7.5,1.100000023841858,157.0,23.17671012878418,0.039758868515491486,-79.78238355715528,40.45804515051832,268.887268787384,-0.0009672436863183976,0.005753527861088514,0.298113077878952,0.9545127749443054,0.000487045166875388,0.0066781584435139174,0.01751698180388989,-0.006286841817200185,-0.0001504224055679515,-0.0065177399665117255,0.022738094916567208,-0.11427568037062885,-9.807155914306641
7.6,1.2000000476837158,158.0,23.17545890808105,0.04771064221858978,-79.78238356059578,40.458045156067975,268.8890231904984,-0.0009658056660555304,0.005753226112574339,0.2981129884719849,0.9545128345489502,0.0016135313398723654,0.007144545001014141,0.01762509119694795,0.007837114855647087,-0.0013034887379035356,0.002937821205705405,0.019816944748163225,-0.11980792296119035,-9.805512846708297
7.8,1.2000000476837158,158.0,23.17671012878418,0.03180709481239319,-79.78238371590064,40.45804536950895,268.89503276920317,-0.0009720328962430358,0.005747613962739706,0.2981321513652801,0.9545068740844728,-0.002838380861979671,0.009067165553728563,0.01906759673278506,0.00011595350952120498,-0.001611249172128737,0.000654103176202625,0.019995312234386803,-0.1046304149273783,-9.80544735789299
7.9,1.2999999523162842,161.0,23.17545890808105,0.04771064221858978,-79.78238381633402,40.45804555002962,268.8962552604675,-0.0009740085806697607,0.005751119926571846,0.2981423139572144,0.9545036554336548,0.00023130914974227467,0.006247703950886854,0.016664726107513312,0.0009776507504284382,0.004485715180635452,0.002849508076906204,0.020546044574584813,-0.10653461552225052,-9.805973607301713
8.1,1.2999999523162842,162.0,23.185474395751953,0.05566241592168808,-79.78238382027025,40.45804555521669,268.8979338464737,-0.0009740085806697607,0.005751119926571846,0.2981423139572144,0.9545036554336548,0.00028993427310710826,0.00700185643341137,0.016910729057387473,-0.005661784205585718,-0.0008128163171932101,-0.0050467224791646,0.019449086361564696,-0.11757144520059228,-9.804822875261307
8.2,1.399999976158142,161.0,23.174205780029297,0.04771064221858978,-79.78238390667713,40.45804571480124,268.9001169261932,-0.0009743968839757144,0.0057549518533051005,0.29815050959587097,0.9545010924339294,0.0033836058363689173,0.0042966609209142415,0.01837778414162497,-0.0021639622282236814,0.00029233889654278755,-0.006547176279127598,0.020569193609990183,-0.1150161936879158,-9.805477763414382
8.4,1.399999976158142,161.0,23.172954559326172,0.039758868515491486,-79.78238401590147,40.45804586978246,268.89935231781004,-0.000981928315013647,0.005750375799834728,0.2981621325016022,0.954497456550598,0.0008333792811230758,0.010355599670438332,0.014825748290352278,-0.002206840319558978,-0.0023458609357476234,-0.0030299671925604343,0.02242357638431713,-0.1133426566142589,-9.80686706185341
8.5,1.399999976158142,159.0,23.17170333862305,0.03180709481239319,-79.78238402160541,40.45804587842846,268.9008369503021,-0.000981928315013647,0.005750375799834728,0.2981621325016022,0.954497456550598,0.0017626446157358484,0.010950723941593988,0.014869942463830178,0.0017500114627182484,0.0002621962630655616,0.0025988942943513393,0.0205058586713858,-0.11743845758959652,-9.806030910015107
8.7,1.399999976158142,158.0,23.17545890808105,0.039758868515491486,-79.78238413940498,40.458045984457456,268.9012755212784,-0.0009746436262503264,0.005742022767663002,0.29817819595336914,0.954492449760437,-0.006498451086441466,0.005817778841276536,0.017784046751542628,0.005639710929244757,0.0006308057345449923,0.004897140432149172,0.020405709114857017,-0.10580183149315417,-9.805244459509847
8.8,1.399999976158142,159.0,23.172954559326172,0.03180709481239319,-79.7823841499334,40.45804598555299,268.903067117691,-0.0009746436262503264,0.005742022767663002,0.29817819595336914,0.954492449760437,-0.006985821444830722,0.006390558866693054,0.01787053658610381,-0.0016179726226255298,-0.002372497459873557,0.0010716712567955256,0.02223992356332019,-0.10354187350720168,-9.807013826966287
9.0,1.399999976158142,161.0,23.172954559326172,0.03180709481239319,-79.78238418928085,40.458046102716985,268.9026761112213,-0.0009737442596815523,0.0057540982961654654,0.2981794476509094,0.9544920921325684,0.0028174049737717663,0.0016240090846193973,0.0186503419809068,0.0002549799391999841,0.0010827566729858518,0.007466833107173444,0.021166173771489414,-0.11737758259288968,-9.804075601100925
9.1,1.399999976158142,161.0,23.17045021057129,0.04771064221858978,-79.78238418788631,40.458046105390096,268.9045504388809,-0.0009722332470119,0.0057541271671652785,0.2981794476509094,0.9544920921325684,0.002015872249922789,0.002221906253001938,0.01883890198806505,-0.005585570354014635,-0.002069187816232443,-0.0034446504432708025,0.019917601367924358,-0.10538777553476393,-9.805507584214213
9.3,1.5,162.0,23.181718826293945,0.04771064221858978,-79.78238426465299,40.45804621252349,268.90390170192717,-0.0009752597543410957,0.005752264056354761,0.2981872856616974,0.9544895887374878,0.0016315614655795635,0.003282311507516701,0.019527124501496563,-0.00043002396705560386,5.108058758196421e-05,0.0005354078602977097,0.019699536769185216,-0.12169089085422455,-9.806357184648514
9.4,1.5,164.0,23.18297004699707,0.04771064221858978,-79.78238435643945,40.458046305808246,268.9009069261551,-0.0009775899816304443,0.005746509879827499,0.29819703102111816,0.954486608505249,-0.002833631422768873,0.00577649274563601,0.01967273216036176,-0.001354490057565272,-0.001627459074370563,-0.0010907045798376203,0.01892117186682299,-0.11215356135740877,-9.805501152276994
9.6,1.5,162.0,23.17671012878418,0.04771064221858978,-79.78238436897412,40.4580463128069,268.9048813638687,-0.000976007548160851,0.005746752955019474,0.2981970608234405,0.954486608505249,-0.002599151384839801,0.006819701160652887,0.02008380146923805,-0.0054661137983202926,0.0013242707354947927,-0.003018594346940517,0.01997768150875345,-0.12107376292347907,-9.806463603973393
9.7,1.600000023841858,162.0,23.169198989868164,0.06361418962478638,-79.78238443624254,40.458046400008456,268.90132117843626,-0.0009772730991244316,0.005747528746724129,0.29820120334625244,0.954485297203064,-0.0014016865200966208,0.005701974893865206,0.020135247088763644,-0.0005300196353346108,-0.0020491739269346,0.0009915989357978106,0.0183162134536542,-0.11972327537834646,-9.805383623242381
9.9,1.5,161.0,23.174205780029297,0.039758868515491486,-79.78238451820438,40.45804647999853,268.8997341451645,-0.0009780748514458537,0.0057436348870396605,0.2982072234153748,0.9544834494590759,-0.003800722991068564,0.007306405035145856,0.02004754094849236,-0.0047306790947914115,-0.002448529936373234,-0.0072573302313685435,0.023989008490461858,-0.11145079912617804,-9.807486866712573
10.0,1.5,162.0,23.17545890808105,0.04771064221858978,-79.78238452622797,40.458046484059466,268.9017522392273,-0.0009780748514458537,0.0057436348870396605,0.2982072234153748,0.9544834494590759,-0.002869269916055827,0.008031823174709634,0.0202605490063536,0.0037188630085438494,-0.0003705708077177405,0.004802819807082415,0.022244578495156014,-0.12150791868567468,-9.806398699879649
10.2,1.5,164.0,23.181718826293945,0.039758868515491486,-79.78238461145601,40.45804654024331,268.90012920475004,-0.0009721389506012199,0.005738677456974983,0.2982158064842224,0.9544807672500608,-0.008605182508397109,0.0044049840616148155,0.020171060316686053,0.0010777913266792893,-0.002178699243813753,0.00036642252234742045,0.01970615828409791,-0.10601659789681436,-9.805957819819447
10.3,1.600000023841858,169.0,23.17170333862305,0.03180709481239319,-79.78238462278448,40.458046539343954,268.9021641073227,-0.0009721389506012199,0.005738677456974983,0.2982158064842224,0.9544807672500608,-0.008509633291081108,0.004788772273037035,0.020333544714490445,0.0020910282619297504,-0.0005800847429782152,0.003869464155286551,0.019907663385383783,-0.10906604876741767,-9.806361862421037
10.5,1.600000023841858,168.0,23.17045021057129,0.04771064221858978,-79.78238468827395,40.458046626471706,268.8987904844284,-0.0009773587808012962,0.00574381509795785,0.2982141971588135,0.9544811844825744,-0.002294068536938095,0.008363910086386926,0.016209571302924188,0.005176807288080454,-0.001941353664733469,0.006604081951081753,0.019457418643869462,-0.11267743533477187,-9.805779479742053
10.6,1.5,170.0,23.17170333862305,0.04771064221858978,-79.7823846964058,40.458046631375616,268.9004285392761,-0.0009760394459590317,0.005744097288697958,0.29821425676345825,0.9544811844825744,-0.0032504477435747665,0.008847123792296041,0.01645278058119034,-0.004516486544162035,-0.0008259343449026346,-0.007267494220286608,0.02105372907361016,-0.10736999077722433,-9.804647458791733
10.8,1.399999976158142,171.0,23.177963256835927,0.02385532110929489,-79.78238478371597,40.45804669590247,268.8964012918472,-0.0009762825211510062,0.005740312859416008,0.2982186079025269,0.9544798731803894,-0.0062146079022536655,0.009179151872775132,0.012912117849662973,-0.0037700084503740072,0.0012222736841067672,-0.0021588229574263096,0.018980384061578662,-0.12187696935608985,-9.806771167516713
10.91,1.399999976158142,171.0,23.16794586181641,0.039758868515491486,-79.782384822035,40.45804675884101,268.8931968269348,-0.0009743823902681473,0.005745142232626677,0.2982192933559418,0.9544796347618104,-0.0017839959895794265,0.006342721695720619,0.014894077405062732,0.003614047775045037,-0.004704288672655821,0.002495705848559737,0.018484726325841614,-0.12282508623786273,-9.804911752939224
11.1,1.399999976158142,171.0,23.17045021057129,0.04771064221858978,-79.78238483486727,40.45804676723017,268.8962009010315,-0.0009727053693495693,0.005744948517531157,0.2982192039489746,0.9544796943664552,-0.0016216449066345196,0.00788277211267184,0.015183344937536846,0.001959682442247868,-0.0020409398712217808,0.0021210138220340014,0.02161259041400626,-0.10239215559326112,-9.807138372659683
11.2,1.2999999523162842,170.0,23.179214477539066,0.04771064221858978,-79.78238482967281,40.458046820431726,268.89733517742155,-0.0009685264667496084,0.005757993552833796,0.2982203960418701,0.9544792175292968,0.008242379779482075,-0.00034691578524383837,0.028184221036502026,0.003984449431300163,0.0011025905841961503,0.0012657393235713243,0.022929906430654227,-0.1082213088311255,-9.80576720058918
11.4,1.2999999523162842,170.0,23.177963256835927,0.039758868515491486,-79.78238478278065,40.458046890006884,268.9054572639465,-0.0009653891902416943,0.005776622332632543,0.29821813106536865,0.9544798135757446,0.024579155481150344,-0.007291657398393558,0.050013075751908935,0.005647281650453806,0.0010381022002547982,-0.00023509295715484765,0.01819511213572696,-0.11620887950062753,-9.805136870741844
11.5,1.399999976158142,167.0,23.17545890808105,0.039758868515491486,-79.78238475373956,40.45804689761289,268.9104454574585,-0.0009653891902416943,0.005776622332632543,0.29821813106536865,0.9544798135757446,0.02397044996478056,-0.006757323718183369,0.05025104309907507,-0.00411464273929596,0.0008965580491349101,-0.0004444676451385022,0.01910146368085407,-0.11146394622512162,-9.804373224377633
11.7,1.5,166.0,23.18046760559082,0.06361418962478638,-79.782384749531,40.45804695856727,268.9210696277618,-0.0009673353051766752,0.0057736923918128005,0.29822638630867004,0.9544772505760192,0.0233346113219516,-0.003637907026016379,0.06317533933618659,-0.006156636867672205,-0.0017417155904695392,-0.0077499602921307096,0.01987735836300999,-0.119327208744362,-9.806291695833208
11.8,1.600000023841858,162.0,23.169198989868164,0.039758868515491486,-79.78238472368588,40.458046968445686,268.92737234210966,-0.0009673353051766752,0.0057736923918128005,0.29822638630867004,0.9544772505760192,0.024042617665185548,-0.0028992622749394077,0.06343963773005629,0.003009905107319355,-0.0044990717433393,0.002899331273511052,0.019969187057577074,-0.11984475128352642,-9.804905905723572
12.0,1.7000000476837158,159.0,23.181718826293945,0.04771064221858978,-79.78238473388505,40.45804703255868,268.9361236152649,-0.0009686762350611387,0.0057686613872647285,0.298231840133667,0.9544755816459656,0.0202883621504831,0.0004402337338224983,0.06572689304727605,0.001004690071567893,-0.002346305409446359,3.703799666254781e-05,0.019166611027903856,-0.11719533219002187,-9.805342108011246
12.1,1.8999999761581416,157.0,23.17671012878418,0.04771064221858978,-79.78238471340093,40.45804704396153,268.9426820335388,-0.0009672754094935954,0.0057686991058290005,0.2982318699359894,0.9544755816459656,0.020947614161084947,0.0010210777988070244,0.06594229981753204,0.004932076204568148,-0.0006908096838742495,0.004877122584730387,0.022580009959638117,-0.11716492666862904,-9.807613166570665
12.3,2.0,154.0,23.181718826293945,0.06361418962478638,-79.78238478072241,40.458047105817954,268.9482230005264,-0.0009717438369989396,0.0057560540735721605,0.2982373833656311,0.954473912715912,0.01224940752465745,0.008086078178339711,0.05999507039154736,0.004512003622949122,-0.0014348225668072698,0.0051726107485592365,0.02152855039341376,-0.10789611227810383,-9.80630105137825
12.41,2.200000047683716,150.0,23.169198989868164,0.04771064221858978,-79.78238482777687,40.458047137285476,268.94638932323454,-0.0009665538091212512,0.0057506924495100975,0.2982379198074341,0.9544737935066224,0.005784698984266433,0.005414535179053451,0.05080781044087029,-0.005704262759536505,0.0006004521274007858,-0.0031284946016967297,0.02091254622442648,-0.10345334300771357,-9.806234393119812
12.6,2.299999952316284,147.0,23.18297004699707,0.06361418962478638,-79.78238482516909,40.45804714491349,268.9514800367355,-0.0009665538091212512,0.0057506924495100975,0.2982379198074341,0.9544737935066224,0.006536925615500193,0.006135571492091878,0.05115969986458506,0.004368254449218512,-0.0021103397011756893,0.0006537735462188723,0.01795551562216133,-0.1188858353253454,-9.805457298159599
12.7,2.4000000953674316,145.0,23.179214477539066,0.05566241592168808,-79.78238489720721,40.458047202118,268.9557776508331,-0.0009693565662018957,0.005744681693613529,0.2982413172721863,0.9544727206230164,0.0018333141131644645,0.011161433205199241,0.046457103201097326,-0.0031284107826650143,-0.0011422340758144855,-0.003205506829544902,0.019235900533385576,-0.11647447099909188,-9.804382579922676
12.9,2.4000000953674316,144.0,23.18297004699707,0.06361418962478638,-79.78238494995858,40.45804726053615,268.96008372879027,-0.0009691974264569581,0.005745092872530222,0.2982405424118042,0.9544729590415956,0.0027511254361820107,0.011754497939189305,0.04171133179629831,-0.003727665403857827,0.0014320886693894865,-0.0075700641609728345,0.02230877681169659,-0.11599948522634805,-9.806199309825898
13.0,2.4000000953674316,143.0,23.17045021057129,0.04771064221858978,-79.7823849542838,40.45804727140034,268.9642534313202,-0.0009691974264569581,0.005745092872530222,0.2982405424118042,0.9544729590415956,0.004037280747919714,0.012480508228298774,0.04173264402541398,0.0026571406051516533,-0.0011652999091893435,0.005073429550975561,0.02008680745493621,-0.12071512760594487,-9.805408181548119
13.2,2.5,142.0,23.17170333862305,0.05566241592168808,-79.78238497033308,40.458047326923705,268.966728931427,-0.0009653175948187707,0.005753807723522186,0.2982330322265625,0.9544752836227416,0.010780289933613529,0.007827953430864716,0.03354871473228846,-0.0007518441416323185,0.0006583858048543334,0.0015264893881976604,0.02145383850904182,-0.10251627188175916,-9.805275449752806
13.3,2.5,139.0,23.169198989868164,0.03180709481239319,-79.78238496493414,40.45804733865076,268.9700779972076,-0.0009653175948187707,0.005753807723522186,0.2982330322265625,0.9544752836227416,0.011002299851976855,0.008275902194553058,0.033623726359477996,0.001745318295434117,-0.00017542988643981516,0.0037041248288005603,0.020127509557642042,-0.10933400656096638,-9.806851859092712
13.5,2.5,138.0,23.17170333862305,0.039758868515491486,-79.78238505069062,40.458047350750064,268.97423947429655,-0.000956105184741318,0.005740941967815161,0.2982414662837982,0.9544727206230164,-0.0012556252261148875,0.004777981371670818,0.031962525960741166,0.0047597670927643785,-0.0005292880232445897,0.005084491800516844,0.022224318806547672,-0.11644967515021565,-9.806278831958773
13.6,2.5,138.0,23.174205780029297,0.039758868515491486,-79.7823850552182,40.45804735377717,268.97744644260405,-0.0009545967914164066,0.005741275381296872,0.298241525888443,0.9544727206230164,-0.0020528233407251764,0.005428451949795488,0.03212599720027455,-0.004367697518318892,-0.0020498286467045546,-0.00507795438170433,0.019488187332171947,-0.10761087778955697,-9.804902982115744
13.8,2.4000000953674316,138.0,23.17545890808105,0.03180709481239319,-79.78238511617518,40.45804740918322,268.980006819725,-0.0009588878601789474,0.005742480978369714,0.29823994636535645,0.9544731974601746,0.001158914912398592,0.008544272977139321,0.027252566458436128,-0.004943628329783678,0.0009057967108674347,-0.0037269217427819967,0.020855033376719803,-0.12068184415809813,-9.805104126334195
13.9,2.299999952316284,137.0,23.1641902923584,0.03180709481239319,-79.782385173646,40.45804744442076,268.98100483989714,-0.0009560648468323053,0.005741738248616457,0.2982418239116669,0.9544726014137268,0.0008000859769501585,0.006803163670947939,0.02502087448994185,0.0016254076035693288,-0.0010692804353311658,0.0014021756360307336,0.01953626926057041,-0.11905844695866108,-9.804683126807213
14.1,2.200000047683716,135.0,23.181718826293945,0.09542128443717957,-79.78238518116154,40.45804745648918,268.98603368377684,-0.0009549004607833922,0.005741832312196493,0.2982418239116669,0.9544726014137268,0.0004028531858264262,0.008057159885047172,0.025283496518950486,-0.00432627834379673,0.0016463523497805,-0.0034702145494520664,0.022350545574445282,-0.1115818772558123,-9.806915593743325
14.2,2.200000047683716,136.0,23.177963256835927,0.039758868515491486,-79.78238525941444,40.45804748839204,268.9875896034241,-0.0009545607608743012,0.005736552178859711,0.2982456982135773,0.9544714093208312,-0.002486647982796059,0.008390831357907507,0.023370368769073103,0.0038875609170645475,0.006141320802271365,0.0009815674275159836,0.02064867006149143,-0.12229038577526807,-9.806167150139807
14.4,2.0999999046325684,134.0,23.174205780029297,0.039758868515491486,-79.78238534952565,40.45804752320149,268.99210072135924,-0.0009524438646622002,0.0057329838164150715,0.2982494533061981,0.95447039604187,-0.006068943505917847,0.008574791772569711,0.02196059949785972,-0.004442967940121889,-0.002419421216472984,-0.002587023889645934,0.021267860506195568,-0.10505837629549206,-9.806994531154633
14.5,2.0999999046325684,132.0,23.174205780029297,0.039758868515491486,-79.78238536073536,40.458047526805615,268.99430943107603,-0.0009524438646622002,0.0057329838164150715,0.2982494533061981,0.95447039604187,-0.005210644828464107,0.009064347507085376,0.02207188912998651,0.005514581222087146,-0.000799729663413018,0.005880428943783046,0.021697564618662,-0.11719434547238053,-9.806818529963492
14.7,2.0999999046325684,131.0,23.18046760559082,0.03180709481239319,-79.78238543735023,40.4580475588695,268.9991703090668,-0.000949158042203635,0.005735378246754408,0.2982487976551056,0.9544704556465148,-0.003254688015490045,0.006307145178606876,0.021394300282514482,-0.0024739799555391073,-0.0020122923888266087,-0.0031887211371213198,0.020394341305363925,-0.10311896449886264,-9.805775386691094
14.8,2.0,132.0,23.177963256835927,0.03180709481239319,-79.78238544446873,40.45804756217064,269.00131500339506,-0.000949158042203635,0.005735378246754408,0.2982487976551056,0.9544704556465148,-0.0026749944663346107,0.0067621690979900225,0.021425825766963773,0.005161060951650143,0.0035876254551112647,0.004237385932356119,0.021810600890312344,-0.11571245089173318,-9.806020969748495
15.0,1.8999999761581416,132.0,23.172954559326172,0.039758868515491486,-79.78238554344117,40.45804760576832,269.00625742053984,-0.0009515011915937066,0.005732639227062464,0.2982516884803772,0.9544696807861328,-0.002915369497756043,0.010562021467601254,0.021435641526222814,0.0009835693053901196,-0.0024448405019938946,0.0012579727917909622,0.01948566343635321,-0.10542650420218706,-9.804343403577805
15.1,1.7999999523162842,131.0,23.172954559326172,0.05566241592168808,-79.78238555339794,40.45804761210381,269.0084025917053,-0.0009498526924289764,0.005732435267418623,0.29825156927108765,0.9544696807861328,-0.002761059162107571,0.011079597882389582,0.02133396985153141,0.004493630491197109,0.0008912979392334819,0.0025329450145363808,0.024297478809021413,-0.11151121730916204,-9.80595665037632
15.3,1.7999999523162842,131.0,23.169198989868164,0.04771064221858978,-79.78238564340936,40.45804764519881,269.01364553546904,-0.0009470047662034633,0.005733214318752289,0.2982540726661682,0.9544689059257508,-0.001835534430289782,0.008030217696918248,0.020895368117875845,-0.0005149341886863112,-0.0017643251921981575,0.0032586914021521807,0.021579117388464512,-0.10536781277507544,-9.804122378826145
15.4,1.7000000476837158,130.0,23.181718826293945,0.039758868515491486,-79.7823857508769,40.45804767389446,269.01745260334013,-0.0009456658153794707,0.005728345364332199,0.2982590794563293,0.9544673562049866,-0.00481572977655935,0.008057358983472988,0.020582783834880738,0.0015928498469293118,0.0002342786465305835,0.00451417826116085,0.021716817033011468,-0.1114328189380467,-9.806302220821381
15.6,1.7000000476837158,132.0,23.17545890808105,0.07951773703098297,-79.78238577179181,40.458047681846686,269.02163684940336,-0.0009444272727705537,0.005728817079216242,0.2982591688632965,0.9544672966003418,-0.004586467693832907,0.00941515374202236,0.02111868278747781,0.0041974987834692,-0.00017503970593679694,0.0027742281090468173,0.01932158051524312,-0.10955640175379812,-9.804893041849136
15.7,1.7000000476837158,132.0,23.185474395751953,0.07156596332788467,-79.78238588950144,40.458047708251954,269.0257073698044,-0.0009444017778150736,0.005725005641579628,0.29826346039772034,0.9544659852981568,-0.0067719806360562644,0.008997040013007516,0.02070471265417176,0.002839106135070324,0.0016035353764891624,0.00274290656670928,0.02261386442463845,-0.1060626264475286,-9.806872909069062
15.9,1.7000000476837158,133.0,23.179214477539066,0.039758868515491486,-79.78238602057108,40.45804774201605,269.03063726997374,-0.0009433857048861679,0.005723016336560249,0.29826581478118896,0.9544652700424194,-0.007085412548071228,0.009359665012645159,0.016784361766514218,0.006231295410543679,-0.0013517364859580994,0.0036915398668497796,0.020956676714122296,-0.11052674719132484,-9.804328785538674
16.0,1.7000000476837158,134.0,23.17045021057129,0.03180709481239319,-79.78238603418055,40.45804774527986,269.0323354063034,-0.0009433857048861679,0.005723016336560249,0.29826581478118896,0.9544652700424194,-0.007899786770285275,0.009762473714560413,0.016894530019689866,-0.003625214798375964,0.002137215808033943,-0.0003689847362693399,0.0199056122917682,-0.10537728709168732,-9.805995241999627
16.2,1.7000000476837158,133.0,23.17170333862305,0.039758868515491486,-79.78238615229776,40.45804777729249,269.03898716545103,-0.0009407235193066301,0.005726038012653589,0.2982690632343292,0.9544641971588136,-0.0039071720423828355,0.007081926235709567,0.018537805521777768,0.004270138218998909,-0.004306098911911249,0.004395465832203628,0.018280032664770258,-0.1178712977282703,-9.804780190587042
16.3,1.7000000476837158,133.0,23.18046760559082,0.039758868515491486,-79.78238616129039,40.45804778059093,269.040864115715,-0.0009407235193066301,0.005726038012653589,0.2982690632343292,0.9544641971588136,-0.004886909161791537,0.007548789848797277,0.01874722377801381,-0.006264661904424429,-0.0001334934349870309,-0.002618623897433281,0.01943376026116312,-0.10355615350417792,-9.80510295689106
16.5,1.7000000476837158,133.0,23.172954559326172,0.03180709481239319,-79.78238632621121,40.45804782660785,269.0479672012329,-0.0009463122114539146,0.005718638189136982,0.2982759773731232,0.9544620513916016,-0.00708868194795092,0.014457388057794519,0.0195425480803608,0.0007187057053670287,-0.0007625282742083073,0.002013049554079771,0.023022826910018918,-0.11149630690924824,-9.806391683220863
16.6,1.600000023841858,132.0,23.18046760559082,0.04771064221858978,-79.78238634293159,40.45804783378712,269.04994023418425,-0.0009451506193727256,0.005718842148780823,0.2982759773731232,0.9544620513916016,-0.007856604819460955,0.01506153358809856,0.019691582907481492,-0.00753082288429141,0.000318355712806806,-0.0017051063477993011,0.019909154882188886,-0.10793040985241532,-9.804846264123915
16.8,1.600000023841858,131.0,23.177963256835927,0.03180709481239319,-79.78238645825903,40.45804785601632,269.0543183145523,-0.0009401437127962707,0.005722275469452143,0.2982761263847351,0.9544621109962464,-0.003725183772145047,0.009004219921829522,0.014779434793378956,0.0019510032143443825,0.0036522010341286655,0.0010126200504601002,0.020995055919047448,-0.10604099174961447,-9.806118033528328
16.9,1.600000023841858,130.0,23.17045021057129,0.039758868515491486,-79.78238660706096,40.45804788831181,269.0584728775024,-0.0009430741774849594,0.005716167390346527,0.29828163981437683,0.954460382461548,-0.006343492334372218,0.012967421576008036,0.013887349119391795,-0.0022276320960372686,-0.004003574140369892,-0.00012423945008777082,0.020679651168175044,-0.11188190337270497,-9.804466779828072
17.1,1.600000023841858,128.0,23.177963256835927,0.05566241592168808,-79.78238662158326,40.458047895149434,269.0598760900497,-0.0009430741774849594,0.005716167390346527,0.29828163981437683,0.954460382461548,-0.00541546140059391,0.013625950465869244,0.014115187091388638,0.008937343955039978,0.002376651624217629,0.004514360800385475,0.02261399690061808,-0.11967122602276505,-9.807737712264062
17.2,1.600000023841858,129.0,23.181718826293945,0.05566241592168808,-79.78238675745594,40.458047920417826,269.06734252548216,-0.000937789271119982,0.005717394407838583,0.2982856631278992,0.9544591307640076,-0.004016894318314729,0.009333014074902904,0.017062437086667874,-0.001711966935545206,-0.0005646185600198804,-0.0013171038590371607,0.018804718628525736,-0.11876189262606204,-9.803244127035141
17.4,1.7000000476837158,129.0,23.18046760559082,0.04771064221858978,-79.78238690292629,40.458047926224324,269.0728627500534,-0.0009296549833379686,0.005714744795113802,0.2982887029647827,0.9544581770896912,-0.005843297853377557,0.0031603532488836865,0.014233534822617576,-0.003757994854822755,0.0036611496470868587,-0.002624415559694171,0.02102812466444448,-0.11478996125981213,-9.805739133954047
17.5,1.7000000476837158,127.0,23.172954559326172,0.04771064221858978,-79.78238691025211,40.45804792608476,269.0743043479919,-0.0009296549833379686,0.005714744795113802,0.2982887029647827,0.9544581770896912,-0.0050940236776884145,0.0038948253047393455,0.0144950446397629,0.003139659529551864,-0.00030759681249037385,-0.002468538004904985,0.01988917384995148,-0.12065539464354515,-9.804939234852787
17.7,1.600000023841858,127.0,23.179214477539066,0.04771064221858978,-79.78238708223941,40.45804793668836,269.07915044403074,-0.0009304551058448851,0.005708288867026568,0.29829445481300354,0.9544563293457032,-0.008188616833652051,0.006415214593716463,0.012605326121868666,-0.004891190677881241,-0.0011615140829235315,-0.004497838206589222,0.02239573358790949,-0.10970156801864506,-9.806751871705057
17.8,1.7000000476837158,127.0,23.177963256835927,0.039758868515491486,-79.78238709414973,40.45804793764489,269.08042681789397,-0.0009304551058448851,0.005708288867026568,0.29829445481300354,0.9544563293457032,-0.007332721373518542,0.007016533749238642,0.012735256649811974,0.0043029822409152985,-2.563178350101225e-05,0.002345528220757842,0.02026760975830257,-0.12146191754378376,-9.80467611014843
18.0,1.7000000476837158,129.0,23.172954559326172,0.039758868515491486,-79.78238727523578,40.45804794426485,269.0851950702667,-0.0009301648824475707,0.005703368689864874,0.2982997596263885,0.9544547796249392,-0.00930747332830238,0.008487389648981563,0.011882495720232913,-0.002176866633817553,0.0020015756599605088,-3.083577030338347e-05,0.02004791205050424,-0.1069017567113042,-9.805739133954047
18.11,1.8999999761581416,131.0,23.181718826293945,0.039758868515491486,-79.78238728960841,40.458047946119386,269.08639264678953,-0.0009288176661357284,0.005703603383153677,0.29829972982406616,0.9544547796249392,-0.008413305611957066,0.009196765188177409,0.01188589749592938,0.005630063358694315,0.0007167706498876214,0.0017309155082330108,0.022476870557293298,-0.12013430722989142,-9.805460806488991
18.3,2.0,132.0,23.169198989868164,0.039758868515491486,-79.7823874690487,40.45804795385798,269.0908751544952,-0.0009295216877944767,0.005699757486581802,0.2983047366142273,0.9544533491134644,-0.009505897942119227,0.010060312033385446,0.011612456916650712,-0.002669824054464698,-3.350658153067343e-05,-0.006295964121818543,0.019872858747839933,-0.1165628279093653,-9.803890829086304
18.4,2.0999999046325684,132.0,23.179214477539066,0.039758868515491486,-79.78238765474106,40.458047939485716,269.0939948616028,-0.0009242097730748355,0.005690363701432943,0.2983141541481018,0.9544503688812256,-0.01545737650134665,0.007913795696135019,0.010961890305519405,0.003704431001096964,0.00010746307816589251,0.006493063177913427,0.02087575444718823,-0.11561228077858687,-9.806074179410937
18.6,2.0999999046325684,132.0,23.17170333862305,0.14313192665576935,-79.78238767578806,40.458047937396096,269.0951173362732,-0.0009242097730748355,0.005690363701432943,0.2983141541481018,0.9544503688812256,-0.01650788118334141,0.008378071466352856,0.010960328014040123,-0.0007273778319358826,0.002174281980842352,-0.0004465165548026562,0.019784727960359304,-0.10186426165513694,-9.80457027554512
18.71,2.200000047683716,134.0,23.17045021057129,0.13518016040325165,-79.78238784582322,40.45804793422137,269.0986265001297,-0.0009230654104612768,0.005694500636309385,0.2983156442642212,0.9544498920440674,-0.009849965086254684,0.006880470167009089,0.01097082563378142,0.0015266132541000845,0.004055033903568983,0.006594464648514986,0.02204362842254341,-0.11780791939236225,-9.806790463328364
18.9,2.200000047683716,134.0,23.1641902923584,0.12722837924957275,-79.7823880331283,40.458047891039136,269.1015058813095,-0.0009114017593674363,0.005688052158802748,0.29832252860069275,0.9544477462768556,-0.016140510695449483,-0.001377909927079886,0.010617610052876718,-0.001273568021133542,0.00020322814816609022,0.0003722629917319864,0.020612951796501883,-0.10264512989670037,-9.804322353601457
19.01,2.200000047683716,136.0,23.17545890808105,0.11927660554647446,-79.78238804798156,40.45804788193527,269.10258091068266,-0.0009114017593674363,0.005688052158802748,0.29832252860069275,0.9544477462768556,-0.01565344061917967,-0.0008943016205054222,0.010561882009825376,0.0070053478702902785,0.002272849204018712,0.004047836642712355,0.02219421935034916,-0.11278390034101905,-9.806612707972523
19.2,2.200000047683716,138.0,23.169198989868164,0.13518016040325165,-79.78238824368691,40.458047864024905,269.1048767623901,-0.0009148025419563056,0.005682614166289568,0.2983282506465912,0.954446017742157,-0.01727142936771436,0.004060599832360902,0.01080235684421389,-0.0023811848368495703,-0.0005249054520390928,-0.0007980509544722736,0.019305726794991644,-0.10278676042333246,-9.80494566679001
19.3,2.299999952316284,142.0,23.169198989868164,0.14313192665576935,-79.7823882631563,40.458047858399844,269.10598099803923,-0.0009148025419563056,0.005682614166289568,0.2983282506465912,0.954446017742157,-0.016829182427426745,0.004662255419541137,0.010870768923340416,0.0071838037110865125,-0.0008342571672983468,0.0039488086476922035,0.02197331337025389,-0.11585378905758265,-9.805993487834929
19.5,2.299999952316284,142.0,23.165441513061523,0.11132483184337616,-79.78238846758939,40.45804783852303,269.1059494075775,-0.0009174693841487168,0.005676565691828728,0.2983308136463165,0.9544452428817748,-0.018060132207887467,0.009554333565227087,0.0066512582659478394,-0.0003207731933798641,-0.0030474187806248665,0.0004420492332428693,0.018835238353349267,-0.10456284304149448,-9.805399995446203
19.6,2.4000000953674316,142.0,23.169198989868164,0.13518016040325165,-79.78238849147675,40.458047836174394,269.1066417751312,-0.0009162377100437881,0.005676703061908484,0.29833072423934937,0.9544452428817748,-0.017866769911949642,0.010041408510544112,0.006662036242967237,0.002926626242697239,0.004950430244207382,0.0032948635052889585,0.02761143852956593,-0.11254042776301504,-9.8064448928833
19.8,2.4000000953674316,142.0,23.174205780029297,0.11927660554647446,-79.78238866950811,40.45804781076618,269.10516870594023,-0.0009161726338788867,0.005677741952240467,0.29833102226257324,0.9544451236724854,-0.013922386063473548,0.009334986303435577,0.003363729840027981,0.0029324749484658237,-0.002357165794819593,-0.0017384761013090608,0.020475873418618,-0.10600744334980848,-9.805628036856653
19.9,2.4000000953674316,145.0,23.17045021057129,0.11927660554647446,-79.78238885714345,40.45804776212528,269.1012831983566,-0.0009109439561143515,0.005669565405696631,0.2983357608318329,0.9544437527656556,-0.01850002872747245,0.007690143741203364,-0.0028047652013773825,0.004378081299364567,-0.003054094733670354,0.005606273654848336,0.022761214259080592,-0.1121061989106238,-9.8054707467556
20.1,2.4000000953674316,147.0,23.17545890808105,0.12722837924957275,-79.78238890488802,40.45804775493795,269.10079670524595,-0.0009096235153265297,0.005670600105077028,0.2983359098434448,0.9544436931610109,-0.018563714533654373,0.008944460805807691,-0.0025826882832741,0.003212351351976395,-0.002624632092192769,0.004677443765103817,0.018701355387456715,-0.11994877690449356,-9.804372054934502
20.2,2.299999952316284,148.0,23.16168594360352,0.12722837924957275,-79.78238908123706,40.45804770491889,269.0977772531509,-0.0009072808898054064,0.0056653008796274645,0.2983415126800537,0.9544419646263124,-0.020603809105293167,0.007887651537167736,-0.0019227618777354707,0.001679332461208105,0.0007358072325587273,0.0023492102045565844,0.023633219122421,-0.10831494650803508,-9.806755964756013
20.4,2.299999952316284,151.0,23.16669464111328,0.14313192665576935,-79.7823893016126,40.45804764469828,269.09254956817625,-0.0009048139327205716,0.005656675901263952,0.29834747314453125,0.9544401168823242,-0.0251652727733998,0.009497718864390398,-0.005519560075245436,0.006358514074236154,0.002425042912364006,0.002353205112740397,0.02094507364556193,-0.1118236322142184,-9.804290778636929
20.5,2.299999952316284,152.0,23.17671012878418,0.11927660554647446,-79.78238933314903,40.4580476387176,269.09202802753447,-0.0009048139327205716,0.005656675901263952,0.29834747314453125,0.9544401168823242,-0.02637425232546114,0.009919603366823796,-0.005523152252925249,-0.0007505344692617655,-0.0021009310148656373,-0.004416076000779867,0.01858916422119364,-0.10611766336485744,-9.80469072818756
20.6,2.299999952316284,152.0,23.179214477539066,0.12722837924957275,-79.78238936520545,40.458047632985455,269.0915139970779,-0.0009039000724442304,0.005657031200826168,0.2983474433422089,0.9544401168823242,-0.02584146991896372,0.010636211151565964,-0.005331828464232229,0.0015987062361091375,0.0007084259996190668,0.0011707893572747707,0.01812195684411563,-0.1222197532374412,-9.804681957364084
20.8,2.4000000953674316,151.0,23.16669464111328,0.11927660554647446,-79.78238952387632,40.458047559565685,269.08269739723204,-0.0008977431571111082,0.005663038231432438,0.2983452081680298,0.9544407725334167,-0.01906238314587069,0.004316696034500293,-0.01153507384142363,-0.003331077983602881,-0.0004437978495843709,-0.0067816926166415215,0.01977756055304781,-0.11398924903012812,-9.80434749662876
21.0,2.4000000953674316,152.0,23.1641902923584,0.11132483184337616,-79.78238972480283,40.45804750412178,269.075655585289,-0.00090106506831944,0.005652910098433496,0.29834994673728943,0.9544394016265868,-0.022308130548268187,0.010671094070329418,-0.011488563297180432,0.005650454666465521,0.0015363319544121625,0.005878246854990721,0.021754753128625445,-0.11452850849367678,-9.806050790548325
21.1,2.200000047683716,152.0,23.1641902923584,0.14313192665576935,-79.78238978467905,40.45804749701952,269.07342804050444,-0.0008999331621453166,0.005653290543705225,0.29834991693496704,0.9544394016265868,-0.02280035879599793,0.01190120715154628,-0.011385328949720441,0.0022277985699474807,0.0006471928209066392,-0.0015326908323913813,0.01998618509620428,-0.12250563640147448,-9.804671432375908
21.3,2.200000047683716,153.0,23.17170333862305,0.07951773703098297,-79.78238998362458,40.458047420166594,269.06467867469786,-0.0008961414569057523,0.005649427883327007,0.29835453629493713,0.954438090324402,-0.02401622419986257,0.010569452281097602,-0.011085131890617205,-0.003176466794684529,-0.00044132422772236174,-0.0009935335256159306,0.0210568788042292,-0.10495193869806826,-9.80585841715336
21.41,2.200000047683716,154.0,23.169198989868164,0.08746951073408127,-79.7823901106775,40.458047357521664,269.0582608041763,-0.0008913541678339242,0.005660009104758501,0.2983540594577789,0.9544381499290466,-0.011950078610016812,0.004999171994843611,-0.003359973742756914,0.005770482588559389,0.0016278291586786509,0.0071037570014595985,0.023582521935459226,-0.11426384889520705,-9.806865307688714
21.5,2.0999999046325684,152.0,23.17671012878418,0.02385532110929489,-79.78239012654902,40.458047354820366,269.0579414424896,-0.0008913541678339242,0.005660009104758501,0.2983540594577789,0.9544381499290466,-0.013282987537245215,0.005489473693256581,-0.003399463804370948,-0.0043741585686802855,-0.00020527129527181392,-0.003109518438577652,0.020512069053947927,-0.10448634501546622,-9.804135827422142
21.7,2.0,152.0,23.1641902923584,0.039758868515491486,-79.78239026122709,40.45804728386519,269.0518999156952,-0.0008866561111062765,0.005666212644428015,0.2983571290969849,0.9544371366500854,-0.005624010636637609,0.0019878500333427246,0.0059809454928443926,0.0012178338365629315,-0.002102291444316507,0.0008823754033073783,0.023304098539520056,-0.10588728306815028,-9.80586192548275
21.9,1.8999999761581416,154.0,23.179214477539066,0.039758868515491486,-79.78239026806871,40.458047282780115,269.05250824069975,-0.0008866561111062765,0.005666212644428015,0.2983571290969849,0.9544371366500854,-0.0060044892926457896,0.002570981615970373,0.006109076959991185,-0.002671567490324378,0.0002510006306692958,-0.0024231213610619307,0.01958597059361637,-0.11793870516121388,-9.804432865977287
22.0,1.7999999523162842,156.0,23.17045021057129,0.04771064221858978,-79.78239039585036,40.458047187030246,269.04834068393706,-0.0008773021982051432,0.005667021498084068,0.2983625531196594,0.9544354081153872,-0.004346691927614204,-0.0034673627935300627,0.01564275766375869,-0.00585530698299408,0.00060568266781047,-0.0037726380396634345,0.02120445247739553,-0.10623844491317867,-9.80463810324669
22.2,1.7000000476837158,156.0,23.17671012878418,0.07951773703098297,-79.7823905517181,40.4580471185348,269.04158807373045,-0.0008804003591649234,0.005660598166286945,0.2983652651309967,0.95443457365036,-0.005128543397795092,0.002561594176578859,0.016568306554469357,-0.003518082434311509,0.00586692476645112,-0.003169041592627764,0.021566751440986992,-0.12197470922023056,-9.80435509800911
22.3,1.5,154.0,23.181718826293945,0.03180709481239319,-79.78239055841073,40.45804711831553,269.0432522354126,-0.0008804003591649234,0.005660598166286945,0.2983652651309967,0.95443457365036,-0.004974120041342546,0.003374487301489499,0.016642954937221018,0.0008492382476106286,-0.002098328433930874,0.001257075695320964,0.017553171225590632,-0.12030372116714715,-9.804037594199182
22.5,1.5,153.0,23.17045021057129,0.02385532110929489,-79.7823907120087,40.45804703988289,269.03439605808256,-0.0008782691438682378,0.005653737112879753,0.29836907982826233,0.9544334411621094,-0.007842128937263753,0.004921699791322678,0.017440261659932968,0.000702430959790945,0.0011530343908816574,0.001225082902237773,0.02164402148220688,-0.10754885162226856,-9.80606248497963
22.6,1.5,153.0,23.17170333862305,0.05566241592168808,-79.78239073443234,40.45804703994274,269.0379334745407,-0.0008773569716140628,0.005654056556522846,0.29836905002593994,0.9544334411621094,-0.007778138154404175,0.0060977326960367645,0.01761228335063619,0.004170590080320835,0.0008277167798951267,0.004397186450660229,0.02210363090503961,-0.11492942648939787,-9.80696412563324
22.8,1.399999976158142,152.0,23.18046760559082,0.03180709481239319,-79.7823908981002,40.45804695939336,269.0304291305542,-0.0008753793663345277,0.005648737773299217,0.29837170243263245,0.9544326663017272,-0.009124712787404564,0.007095445878540349,0.018211517577686475,0.0005903435521759093,0.0010720561258494854,0.005944172386080028,0.0192243591346778,-0.10955102962441744,-9.803509590625763
22.9,1.399999976158142,151.0,23.17045021057129,0.039758868515491486,-79.7823910400064,40.45804685746689,269.01872456645964,-0.0008662926848046483,0.005643450655043125,0.2983730137348175,0.9544323086738586,-0.013629711606138227,0.002388282779645568,0.01337187914948812,-0.0049088355153799074,0.0012088340008631349,-0.003942566923797132,0.019770100784953684,-0.10292871071957052,-9.804955607056618
23.0,1.399999976158142,148.0,23.17545890808105,0.039758868515491486,-79.78239105459335,40.45804685280398,269.0200815258026,-0.0008662926848046483,0.005643450655043125,0.2983730137348175,0.9544323086738586,-0.01302166096736193,0.003055685865272452,0.013457247259564315,0.00389496167190373,0.002098772674798965,0.001292070373892784,0.01927803703118116,-0.1205596738960594,-9.805512846708297
23.2,1.5,150.0,23.17170333862305,0.039758868515491486,-79.78239121495706,40.45804676788932,269.0096038637161,-0.000865568348672241,0.005638221744447946,0.2983734905719757,0.9544321894645692,-0.015406903198771069,0.006215355262061762,0.009763996788373482,-0.0024305384140461683,0.001683305250480771,-0.00383664364926517,0.01831128900172189,-0.121271490175277,-9.803697286248207
23.31,1.600000023841858,151.0,23.177963256835927,0.03180709481239319,-79.78239123422408,40.45804676477633,269.01059592342375,-0.000865568348672241,0.005638221744447946,0.2983734905719757,0.9544321894645692,-0.015160748805484743,0.006675574825638308,0.00975390322674992,0.003202385501936078,0.0038478625938296322,0.004098464734852314,0.020827423555310816,-0.1096075922995806,-9.807141880989075
23.5,1.7999999523162842,147.0,23.172954559326172,0.02385532110929489,-79.78239137731225,40.45804668089522,268.99916673278807,-0.0008631250821053983,0.005637781228870153,0.2983715534210205,0.9544328451156616,-0.013471352937299086,0.007696310635867505,0.005280390936699172,0.003566237632185221,-0.0006849395576864481,0.0034626289270818233,0.02341778577072546,-0.12087429064325987,-9.805429816246033
23.7,1.8999999761581416,147.0,23.177963256835927,0.05566241592168808,-79.7823914937338,40.458046581462575,268.9873642978668,-0.0008536289096809924,0.005640324205160141,0.2983713448047638,0.9544328451156616,-0.01182552300124575,0.0012175057922958054,0.0022663894894091115,-0.0007017996395006776,-0.003420949913561344,-0.0013565669069066644,0.02142026498448104,-0.10232736113481224,-9.80606248497963
23.8,2.0999999046325684,148.0,23.181718826293945,0.03180709481239319,-79.78239150614796,40.45804657665849,268.9876041469574,-0.0008536289096809924,0.005640324205160141,0.2983713448047638,0.9544328451156616,-0.011410333561417305,0.0020007751721215373,0.002273123970592509,0.0015239596832543616,-1.7442416719859463e-05,0.0053171217441558855,0.023011132478713992,-0.1134783120173961,-9.805346201062203
23.9,2.0999999046325684,150.0,23.181718826293945,0.06361418962478638,-79.78239162601842,40.45804647557181,268.9754402694702,-0.000846866169013083,0.005635789129883051,0.2983728647232056,0.9544323682785034,-0.01481466261562969,-2.91929512555222e-05,0.00037236231032998886,-0.005125392228364945,-0.00021056311379652468,-0.00107903522439301,0.020835972824133932,-0.10538565591908992,-9.80468605041504
24.1,2.200000047683716,153.0,23.169198989868164,-0.03180709481239319,-79.78239165506723,40.458046461315774,268.97555363750456,-0.000845852482598275,0.005636464338749647,0.2983728647232056,0.9544323682785034,-0.014784077722518725,0.0010324555164448776,0.00035990768452270536,0.0007852070266380906,0.0006840365240350367,0.000241251997067593,0.022324073219206184,-0.10492872342467308,-9.805982378125194
24.3,2.299999952316284,154.0,23.16669464111328,0.03180709481239319,-79.78239178395216,40.45804637392472,268.9641000089645,-0.0008457335061393678,0.0056338324211537855,0.2983723282814026,0.9544325470924376,-0.013916473241893278,0.003329164164204786,-0.0001111872024070811,0.00322572304867208,0.00019155618792865425,0.002441591816022992,0.022599013410508642,-0.11348948568105698,-9.804266805052755
24.41,2.299999952316284,156.0,23.174205780029297,0.039758868515491486,-79.78239185943073,40.45804629192392,268.9528424797058,-0.0008415048359893262,0.005642266944050789,0.2983691394329071,0.9544335007667542,-0.005860265353911282,-0.0004101169811430176,-0.0007091748585666867,-0.0024780353996902704,0.0019608885049819946,-0.0017618348356336355,0.01842233699164354,-0.10386099443770944,-9.804494261741636
24.5,2.299999952316284,154.0,23.1641902923584,0.03180709481239319,-79.78239186494984,40.45804628903718,268.9527846632004,-0.0008415048359893262,0.005642266944050789,0.2983691394329071,0.9544335007667542,-0.005784956703788143,0.00043794631394686567,-0.0005745253201380714,-0.0014334814622998238,-0.004003208596259356,-6.357624079100789e-05,0.018436492506880314,-0.1207012770138681,-9.803549936413765
24.72,2.299999952316284,155.0,23.17545890808105,0.039758868515491486,-79.78239200809283,40.45804618678999,268.9416462240219,-0.0008368178969249129,0.005629793740808964,0.29837408661842346,0.9544320106506348,-0.015415490048101681,0.0023206794469606607,-0.0010870002536230708,-0.002837954787537456,-0.0030691006686538467,-0.008129964582622051,0.020275211138650776,-0.10851980005390943,-9.803158757686617
24.8,2.299999952316284,155.0,23.17671012878418,0.03180709481239319,-79.78239202446326,40.45804618096068,268.94156241989134,-0.0008368178969249129,0.005629793740808964,0.29837408661842346,0.9544320106506348,-0.014717874909579915,0.002930518531013329,-0.000892149633252752,0.005655886139720678,-0.0010563167743384838,0.0033615038264542822,0.02206099648028613,-0.121017081476748,-9.805467238426207
25.0,2.200000047683716,160.0,23.177963256835927,0.02385532110929489,-79.78239215155624,40.45804607223469,268.9331561384201,-0.0008305051596835256,0.0056274160742759705,0.2983780801296234,0.954430878162384,-0.016316618078022038,0.0007148457160465835,0.004141071142972993,-0.002067185938358307,-0.0015773666091263294,-0.0015100794844329355,0.016009057473856957,-0.12025791188701987,-9.803123089671136
25.2,2.200000047683716,158.0,23.17545890808105,0.039758868515491486,-79.78239216796322,40.4580460646158,268.9335874376297,-0.0008296977030113338,0.005628123879432678,0.2983780801296234,0.954430878162384,-0.01620609294317338,0.0011954646075659034,0.004073702081409344,0.0033622311893850565,0.0016292163636535404,0.006823815405368805,0.020754694242496045,-0.11170701680704953,-9.805688263177872
25.31,2.200000047683716,156.0,23.1641902923584,0.04771064221858978,-79.78239228108481,40.45804597462251,268.92499363994597,-0.0008284573559649289,0.005628622602671385,0.2983782291412353,0.9544307589530944,-0.013197366642293205,0.0017623320502841934,0.005381689018258935,0.004509781952947378,0.0028067578095942736,0.003944083116948605,0.02087675715330988,-0.12080562240444125,-9.806584641337396
25.51,2.200000047683716,155.0,23.174205780029297,0.03180709481239319,-79.78239240199812,40.458045893005476,268.9173027334213,-0.0008286423981189728,0.005627487786114216,0.2983789145946503,0.9544305801391602,-0.012154005998868712,0.004871197988803561,0.007333059619545533,-0.0008503542630933224,0.0020314797293394804,0.00014234636910259724,0.020685091819614167,-0.12149115362204613,-9.804130564928057
25.6,2.0999999046325684,155.0,23.18297004699707,0.04771064221858978,-79.78239241717816,40.458045890207316,268.9180492219925,-0.0008280112524516879,0.005628101527690888,0.29837894439697266,0.9544305801391602,-0.012364325598025493,0.005027810570483478,0.0073301343474520934,0.0020860075019299984,-0.00027594686252996325,0.005529365967959166,0.02210468614473939,-0.10747981793247163,-9.805674229860307
25.7,2.0,156.0,23.17170333862305,0.04771064221858978,-79.7823925009277,40.45804578956293,268.9099129495621,-0.00081937963841483,0.005629776977002621,0.29838138818740845,0.954429805278778,-0.010778330121855202,-0.0013664407286896054,0.008296168620048667,-0.005657420959323646,-0.0009046877967193725,-0.0017384334933012724,0.018035435182973743,-0.11306962818838655,-9.8041264718771
25.9,1.8999999761581416,157.0,23.169198989868164,0.039758868515491486,-79.78239257524258,40.45804568641879,268.9027584848404,-0.0008113638032227755,0.005636492278426886,0.2983815371990204,0.9544297456741332,-0.005377308788659082,-0.0069725156116181896,0.008272011574646833,-0.0010096122277900577,0.00035403773654252285,-0.004965350031852722,0.02113239011261612,-0.1079027452133596,-9.804537531137466
26.1,1.8999999761581416,158.0,23.172954559326172,0.05566241592168808,-79.7823925753986,40.45804567894831,268.9035900888443,-0.0008113638032227755,0.005636492278426886,0.2983815371990204,0.9544297456741332,-0.004645584770611518,-0.0065551441105272034,0.008237143470432176,0.005014855880290271,-0.001099293469451368,0.004312494769692421,0.01946465000510216,-0.12257376560010015,-9.804312413334848
26.2,1.7999999523162842,158.0,23.18046760559082,0.05566241592168808,-79.78239257598605,40.45804567162853,268.9044171628952,-0.0008109521004371345,0.0056377025321125976,0.2983816862106323,0.9544296860694884,-0.005620763622623846,-0.006080757978052248,0.008203403785865595,-0.0026936589274555445,0.0030011143535375595,-0.00012247110134921968,0.01994271470233798,-0.10393504394218328,-9.804762064218524
26.4,1.7999999523162842,157.0,23.17671012878418,0.039758868515491486,-79.78239283385564,40.45804550910772,268.88752389526366,-0.0008151581860147418,0.0056205601431429395,0.2983855903148651,0.9544285535812378,-0.013735785106340258,0.0061565253487355105,0.002911280969802927,0.0015530330128967762,-0.0008814652683213352,-0.0017805984243750574,0.021713416054844857,-0.1033700658660382,-9.806460680365564
26.5,1.7999999523162842,158.0,23.17170333862305,0.02385532110929489,-79.78239285156684,40.45804550670085,268.88782835578917,-0.0008151581860147418,0.0056205601431429395,0.2983855903148651,0.9544285535812378,-0.014025019745709529,0.006501680235907702,0.002890430256688593,0.002767207799479365,0.002943809842690825,0.0009237878257408738,0.021337622813880446,-0.11040232026949526,-9.80639577627182
26.7,1.7999999523162842,159.0,23.17671012878418,0.03180709481239319,-79.78239286990913,40.45804550437436,268.88814104175566,-0.00081436283653602,0.005621274467557669,0.2983855903148651,0.9544285535812378,-0.01477992863517722,0.0070996637572657345,0.003032912544287186,0.001316287089139223,0.002268275711685419,-0.007743257097899914,0.01911292742122896,-0.11585070099681614,-9.804075601100925
26.8,1.7000000476837158,161.0,23.17045021057129,0.015903547406196594,-79.78239297041839,40.4580453915319,268.88216186141966,-0.0008062098640948534,0.0056193736381828785,0.29839077591896057,0.9544269442558287,-0.016500764571344726,0.002693585730205275,0.006239025470002651,-0.0035725776106119156,-0.002234549494460225,-0.002831598278135061,0.019345905845984817,-0.10814046193845572,-9.804005434513092
27.0,1.7000000476837158,163.0,23.169198989868164,0.03180709481239319,-79.78239304516474,40.45804530258262,268.87540603256224,-0.0008039366221055387,0.005625006277114153,0.2983909845352173,0.9544268250465392,-0.010207160800071188,0.001831472699972048,0.007399611665966871,-0.004205160308629274,0.003554901340976357,-0.0007117216009646652,0.022899382137693467,-0.12050032465718688,-9.80614726960659
27.1,1.600000023841858,165.0,23.174205780029297,0.03180709481239319,-79.7823930560765,40.45804529902652,268.87616360759733,-0.0008033044869080187,0.005625265184789896,0.2983909249305725,0.9544268250465392,-0.009844766870397946,0.002275202905422869,0.0075772822622093,0.0023923097178339967,-0.00016957076149992645,-0.0009783890563994646,0.017939443773357197,-0.12160543927922846,-9.805047993063928
27.2,1.600000023841858,166.0,23.16669464111328,0.05566241592168808,-79.78239312096095,40.45804521420848,268.8688395080566,-0.0008009105804376304,0.0056255245581269256,0.29839256405830383,0.9544262886047364,-0.007971826962471125,0.0017199935738336342,0.007858345416236593,0.0014405129477381704,-0.00034451502142474055,0.0010375489946454763,0.020450545381754642,-0.10587790925055744,-9.806556574702265
27.4,1.5,169.0,23.181718826293945,0.03180709481239319,-79.78239320648834,40.45804512147619,268.8621956167221,-0.0007992777391336857,0.0056220353581011295,0.2983947396278381,0.9544257521629332,-0.008716594624957481,0.0039138199803757,0.00840940013121727,0.004226796329021454,0.0010901286732405424,0.002996067982167005,0.020181301657576117,-0.11109046446159483,-9.805504660606383
27.5,1.399999976158142,170.0,23.177963256835927,0.05566241592168808,-79.78239321821806,40.45804511988521,268.86305189704893,-0.0007992777391336857,0.0056220353581011295,0.2983947396278381,0.9544257521629332,-0.009785480634754831,0.0044516951389263325,0.008521484235143921,-0.001876239781267941,3.630377250374295e-05,-0.002322871703654528,0.01955813236534596,-0.11036456918343902,-9.804902982115744
27.7,1.399999976158142,173.0,23.16669464111328,0.06361418962478638,-79.78239323043266,40.458045118431905,268.86391974067686,-0.0007987081771716473,0.0056223967112600795,0.2983947098255157,0.9544257521629332,-0.009204731612819182,0.004944524206240197,0.008616965234959481,0.006234377156943083,0.003188040107488632,0.004226981662213802,0.02273799898568541,-0.11682892190292478,-9.807182811498645
27.9,1.399999976158142,174.0,23.15041732788086,0.3101191818714142,-79.782393313145,40.45804502541835,268.8570729551315,-0.0007893709116615355,0.005611843429505825,0.2983284890651703,0.9544464945793152,-0.009769519956323287,0.005935654725800928,0.00881127530180782,0.004210952203720808,3.832162838079967e-05,0.008053097873926163,0.01796643689624034,-0.12211670519784093,-9.80422587454319
28.0,1.2999999523162842,178.0,23.147912979125977,0.3180709481239319,-79.78239341955285,40.458044909750335,268.84994555091856,-0.0007675936794839798,0.005621518008410932,0.2984437942504883,0.9544103741645812,-0.017874864431401374,0.004706210070022628,0.008558830731175877,-0.005724644288420677,0.004181811586022377,0.003450444433838129,0.020633074440993368,-0.10545313644222916,-9.806796310544014
28.1,1.2999999523162842,179.0,23.15667724609375,0.3419262766838074,-79.78239344046844,40.458044904103396,268.850824719429,-0.0007697442779317497,0.005628659389913082,0.2983826994895935,0.9544294476509094,-0.018067224657879133,0.004915658078607185,0.008571972018536987,0.0011246573412790897,0.003921763505786657,0.005219082348048687,0.023981678914278742,-0.0981220710463822,-9.805826842188836
28.3,1.2000000476837158,179.0,23.15041732788086,0.326022744178772,-79.78239347922455,40.45804480224643,268.8426507768631,-0.0007800256134942174,0.005652788560837507,0.2984190285205841,0.9544179439544678,-0.011379620391002241,0.0024516839755423627,0.005803400196856239,0.003986440133303404,0.0008718831813894213,0.008840533904731274,0.022686982029117644,-0.12215008000843228,-9.807512009739877
28.4,1.2000000476837158,179.0,23.15667724609375,0.326022744178772,-79.78239352458901,40.45804471815344,268.8353798446655,-0.0007725825998932122,0.00565629405900836,0.2983939349651337,0.9544257521629332,-0.010180519521682129,0.00638176549916872,0.007001029909614267,-0.0014063154812902212,0.0016691088676452635,-0.00599612994119525,0.012220159946009515,-0.1209701667074114,-9.8011332821846
28.61,1.100000023841858,178.0,23.14540863037109,0.3896369338035584,-79.78239355279739,40.45804471885969,268.83676529502867,-0.0007772803655825554,0.005664943717420101,0.2984118163585663,0.9544201493263244,-0.00960074373838898,0.008035222032095984,0.006799107273830742,-0.00021808150631841272,-0.0011260794708505273,-0.000918940466362983,0.025112439058721063,-0.10345911713317037,-9.804588401913644
28.8,1.100000023841858,178.0,23.142906188964844,0.4373475611209869,-79.7823935767178,40.45804459984882,268.83083296394346,-0.0007787740323692559,0.005691590253263712,0.2984754741191864,0.9544000625610352,-0.0092328848568926,0.00021487029052334736,0.007666970431446877,-0.0016209116438403726,-0.001777716912329197,0.005456592421978712,0.020363111235201358,-0.11365265040658415,-9.802392187714577
28.9,1.2000000476837158,173.0,21.82449531555176,30.0736083984375,-79.78239363341281,40.458044503337,268.8255426940918,-0.0007625478319823742,0.005683369003236294,0.29843124747276306,0.9544138908386228,-0.01433684833538821,0.006043932205405173,0.012725765356606512,-0.0022072892170399427,0.00043748525786213577,0.002689976012334228,0.03301795684732497,-0.12227224113419652,-9.806426181793213
29.0,1.2000000476837158,169.0,23.05526161193848,1.7652938365936282,-79.7823936493799,40.45804450216792,268.8269593772888,-0.0009892253438010812,0.005932321306318046,0.29831650853157043,0.9544481039047241,-0.009611142474933158,0.007331318900348209,0.013628550752289765,0.005904303397983314,0.004493999760597943,0.025825301185250282,0.006782866087742151,-0.1207084763981402,-9.803435330986977
29.2,1.2000000476837158,160.0,23.14666175842285,0.2862638533115387,-79.7823936626331,40.45804439852447,268.823416715622,-0.0010388990631327033,0.005962470546364784,0.2983340620994568,0.9544423818588256,-0.0095443904677594,-0.003068549521041246,0.013194898578081751,-0.00819716975092888,0.0020177522674202928,0.003247301559895277,0.0009859661827795207,-0.08901874199509621,-9.81229561686516
29.4,1.2000000476837158,153.0,23.07028579711914,1.391560435295105,-79.7823936724219,40.45804439294992,268.8248065767288,-0.0009564065258018671,0.0058932621031999605,0.2983800768852234,0.954428493976593,-0.010878081825046834,0.00019113531090113496,0.01346076854439046,-0.020061541348695755,0.01185743883252144,0.0045767677947878855,0.056192943840287626,-0.12192188328132035,-9.797800369262696
29.5,1.2000000476837158,143.0,23.13163757324219,0.4612028896808624,-79.78239369363546,40.45804431094046,268.8218188343048,-0.0010635944781824944,0.005959541071206331,0.2986575663089752,0.9543411731719972,-0.0039009846899938,0.002839944085872563,0.015274514881952719,0.013529662974178793,0.014155238866806032,0.021575570106506348,0.015410924999741837,-0.1116280428506434,-9.805733286738397
29.7,1.2000000476837158,140.0,23.147912979125977,0.278312087059021,-79.78239372296817,40.45804421921286,268.8164955434799,-0.000987826264463365,0.005942977499216795,0.29879316687583923,0.9542989134788512,-0.0038083182740434717,0.0036266528119019686,0.012396787316698278,0.027525292709469795,0.011147432960569859,0.01769767515361309,-0.010925273483153431,-0.17511060537770393,-9.80162561774254
29.8,1.2000000476837158,133.0,23.082807540893555,1.852763295173645,-79.78239373369722,40.458044218692386,268.81779873943333,-0.0009471039520576595,0.005877898074686527,0.2987937331199646,0.9542992115020752,-0.007212246847313214,0.0035650908407167297,0.012896154665118523,0.03044753521680832,0.009770567528903484,-0.01089370995759964,0.027243159874342383,-0.1217023294698447,-9.810740257501603
29.9,1.2999999523162842,132.0,22.95760154724121,3.578298330307007,-79.78239368587609,40.458044119919904,268.81181407546995,-0.0009662327938713133,0.005863535683602096,0.2987619340419769,0.9543092250823976,0.0014352346488324993,-0.0044039255800170495,0.016051974960438174,-0.0056597194634377965,0.00046288728481158603,-0.019663268700242043,0.01831062319572084,-0.08648433946073056,-9.81018944978714
30.1,1.399999976158142,125.0,22.85243034362793,5.446965217590332,-79.78239367591861,40.458044119616105,268.81502581214903,-0.0010742326267063618,0.00606530299410224,0.2988379895687103,0.9542840123176576,0.005881812269456777,-0.002375243935981177,0.016279980461554086,0.03541531413793564,0.0032812622375786304,-0.017919883131980896,0.026914557775016883,-0.17355367457494142,-9.801515690088273
30.3,1.399999976158142,126.0,22.72221565246582,7.554185390472412,-79.78239367682512,40.458044017253215,268.80936110591887,-0.0011300429468974473,0.00622527813538909,0.29879769682884216,0.954295575618744,-0.0015421962669636864,0.0005540486868945125,0.019709747466534186,-0.015296357683837412,-0.0471576526761055,-0.053532153367996216,-0.02105039433343336,-0.06010414182208479,-9.796794063448909
30.4,1.399999976158142,126.0,22.63457298278809,8.731047630310059,-79.78239368603067,40.458043916596864,268.8071283159256,-0.0015024611493572593,0.007175910286605358,0.2989476025104523,0.9542413949966432,-0.0015466161991613265,0.003304950940907169,0.0209049956858954,-0.034785415977239616,-0.006274745333939791,0.011702172458171844,0.007851979220286012,-0.13472655465826394,-9.840998429059985
30.6,1.5,128.0,22.47430992126465,11.434650421142578,-79.78239368538559,40.4580439263525,268.8113080320358,-0.0021164794452488427,0.009040839970111849,0.29973503947258,0.9539772868156432,0.004889051304943396,0.008760051533099745,0.018996914023674715,0.010880437679588795,-0.019769921898841858,-0.12905864417552948,0.007433645201381295,-0.2425974508188665,-9.799335263371466
30.7,1.600000023841858,135.0,22.392927169799805,13.048860549926758,-79.78239368774952,40.45804381435535,268.80748344039915,-0.0027812249027192593,0.010296645574271679,0.30076858401298523,0.9536375403404236,-0.000469084748747354,-4.6804176735984335e-05,0.021858238259643708,0.015300690196454525,-0.010829951614141464,-0.0034715544898062944,-0.1513486904092133,-0.16527615509927274,-9.760101031064988
30.9,1.7000000476837158,138.0,22.20261573791504,16.094390869140625,-79.78239368335194,40.45804382115285,268.80988514995573,-0.003215429373085499,0.01206880435347557,0.3024151623249054,0.953094482421875,0.0004155885380901784,0.006206210227750985,0.023952438345056615,0.0256824754178524,-0.003479453269392252,-0.04889079555869103,0.030456140921451155,-0.14667928671464325,-9.747874503135682
31.0,1.7000000476837158,144.0,22.10245132446289,17.637035369873047,-79.78239363581048,40.45804368949965,268.80647600269316,-0.002423656638711691,0.015087102539837359,0.3046128451824188,0.9523537158966064,0.00551274507638732,-0.0008331659130647383,0.025304731482963232,-0.026334783062338836,0.0007999855442903937,-0.00695267366245389,0.10450987092219294,-0.2442156860232353,-9.823695348501207
31.2,1.7000000476837158,146.0,21.91965103149414,20.952924728393555,-79.78239357922506,40.458043602464606,268.80417860126494,-0.001319156028330326,0.011075549758970736,0.30879518389701843,0.9510632157325744,0.012587330512170048,0.007562734139993367,0.03764593113987172,-0.05180147290229797,0.06405464559793472,-0.0804951936006546,0.16820582941174508,-0.34038553621619944,-9.830468763113023
31.3,1.7999999523162842,148.0,21.801958084106445,22.535327911376953,-79.7823935853092,40.458043620561455,268.8087494430542,-0.0004846440569963307,0.005149553995579481,0.31348031759262085,0.9495806694030762,-0.00151477090552501,0.02923925268061868,0.0618173376081847,-0.20617267489433289,-0.011549988761544228,-0.08136853575706482,0.17314747581258416,-0.15509752308949828,-9.971024132966997
31.4,1.7000000476837158,148.0,21.683013916015625,24.165441513061523,-79.78239340827146,40.45804363366828,268.79868507957457,-0.0005718287429772317,-0.0019102769438177347,0.3184287846088409,0.9479447603225708,0.02707662975415487,0.039135376586294734,0.13906264713003316,-0.0646781474351883,-0.010824418626725674,-0.19338878989219666,0.3452220240980387,0.029732031784951686,-10.549327794313433
31.6,1.600000023841858,155.0,21.93592834472656,18.6787166595459,-79.78239344539307,40.45804376318289,268.85041666603087,-0.00392941664904356,-0.004179378505796194,0.3295155465602875,0.9441328048706056,0.04489144263740315,0.086943800126855,0.3693580171332404,0.06483080983161926,0.0326574333012104,-0.08644638955593109,0.0440723099000752,0.29053610416129233,-10.77656813621521
31.7,1.600000023841858,155.0,22.061134338378906,18.328838348388672,-79.78239336645572,40.458043655853636,268.870884185791,-0.0018652816070243718,0.0016774784307926893,0.3325366675853729,0.9430870413780212,0.07270659912287122,0.09921364546756732,0.3605724895781627,0.0998985394835472,0.00205761450342834,-0.010225467383861542,0.2302911083959043,0.30266821783035996,-10.158796938657762
31.9,1.600000023841858,155.0,21.85454559326172,20.706418991088867,-79.78239326650579,40.458043621812585,268.9211884794235,0.003986596129834652,0.005594407208263874,0.3330518305301666,0.942883551120758,0.10819203725018353,0.09820406309334127,0.2321354917605871,-0.04854965955018997,0.17395244538784027,0.0002631497336551547,0.3873305283486843,0.00756986933760345,-9.44191602051258
32.1,1.7000000476837158,155.0,21.80070686340332,22.0025577545166,-79.78239324323471,40.45804375334404,268.9429127035141,0.01263777446001768,0.001879931078292429,0.33098533749580383,0.9435494542121888,0.10706420543474088,0.10598425974697892,0.19951928434800348,-0.14219598472118378,0.12817557156085968,0.08119974285364151,0.21881439451128248,0.011456029359251262,-9.495772969722747
32.2,1.600000023841858,148.0,21.78818702697754,21.62882423400879,-79.78239322216452,40.458043896789505,268.9618709144592,0.018489310517907143,-0.0010869374964386225,0.3289689421653748,0.9441590905189514,0.10944167395845747,0.12172543307206372,0.1808014337696207,-0.10490772873163223,0.060834594070911414,-0.016189374029636383,0.2553918712958694,0.2584452142193914,-9.572245194911957
32.3,1.600000023841858,148.0,21.7844295501709,22.137739181518555,-79.78239280554888,40.4580438569821,269.0078719911575,0.015763126313686367,0.003166535403579473,0.32403072714805603,0.9459099173545836,0.1525772239352033,0.098142630153944,0.1790333569097439,0.046508561819791794,-0.0919387713074684,-0.03145759925246239,0.3607093980163336,0.2022625349834561,-9.74908019900322
32.5,1.600000023841858,146.0,21.731843948364254,22.77388000488281,-79.78239233151162,40.458044042274146,269.04722595787047,0.0062051075510680676,-0.002416632603853941,0.31872743368148804,0.9478231072425842,0.17449692344846598,0.0854946683777889,0.21362126363299555,-0.10444097220897676,-0.08683622628450394,0.03308459371328354,0.2654594610258937,0.02741880018264056,-9.786538631916047
32.6,1.7000000476837158,143.0,21.79820251464844,20.8177433013916,-79.78239223917632,40.458044195504655,269.0696519670486,0.006728550419211389,-0.008700228296220303,0.3166196644306183,0.9484887719154358,0.1669078407284577,0.10077517257982173,0.233687173680172,-0.06714717298746109,-0.003120896872133017,0.09553924202919006,0.3485300132632256,-0.1028867112658918,-10.024074751138688
32.8,1.7000000476837158,148.0,21.649208068847656,23.46568489074707,-79.78239180676086,40.45804431649782,269.10566223239897,0.01149062253534794,-0.010152834467589857,0.3125417530536652,0.9497803449630736,0.15100710460688527,0.11152233004902536,0.2385430452568905,0.02236505225300789,0.050428859889507294,0.05375814437866211,0.258273488804698,-0.011991963218897582,-9.830338954925537
33.0,1.7999999523162842,149.0,21.731843948364254,22.097980499267575,-79.78239137233703,40.45804453417181,269.1729559955597,0.01715891808271408,-0.008194769732654095,0.3125229179859161,0.9497199654579164,0.11910037339230793,0.11837783459776673,0.2963353163869078,-0.04889367148280144,0.026106148958206173,-0.03441134095191956,0.3204901656880975,-0.08350422377698125,-9.998718885183335
33.1,2.0,151.0,21.69803810119629,22.376291275024414,-79.78239135780909,40.4580446736529,269.20361996269224,0.018647076562047005,-0.011059727519750595,0.31419920921325684,0.9491095542907716,0.09018011565040217,0.14093574331145067,0.3097086853601949,-0.06269723922014236,-0.01953745074570179,-0.11487821489572525,0.4540116640180349,0.10631327100098134,-9.956678574085236
33.2,2.0,149.0,21.70805549621582,22.352436065673828,-79.78239123479187,40.45804487479046,269.2266779003143,0.01718584261834621,-0.012929914519190788,0.316890150308609,0.9482184052467346,0.11132732098188107,0.15921758538976755,0.31896309094233743,0.07199546694755554,-0.03968784213066101,-0.04041435942053795,0.4037503869831561,0.06751219860278071,-10.021586176156998
33.41,2.0999999046325684,147.0,21.686769485473643,22.304725646972656,-79.7823911064312,40.45804523260959,269.28801823234556,0.02079515717923641,-0.013083573430776596,0.32023629546165466,0.9470191597938538,0.08110432323043712,0.18294803334454404,0.3264443120129873,-0.05188082903623581,0.08945351839065553,0.010344374924898148,0.3794698239862919,-0.03482892632950098,-9.841072103977204
33.6,2.200000047683716,145.0,22.30528259277344,8.071050643920897,-79.7823911922383,40.458045392655094,269.32185149765013,0.02556156739592552,-0.01593116298317909,0.31936347484588623,0.9471535682678224,0.04822011938176975,0.20352160854668166,0.3360240621131885,-0.04851767793297768,0.08441754430532455,-0.04534313827753067,0.5207034708559514,0.07778212026692928,-9.905055845975877
33.7,2.299999952316284,143.0,21.90087127685547,20.451963424682614,-79.78239132008177,40.45804554039274,269.35645294761656,0.029384691268205643,-0.01670270599424839,0.317695289850235,0.9475902915000916,0.013857252666612894,0.21618495093893506,0.32966462367381816,0.016843080520629883,0.04685376212000847,0.004085796885192393,0.44897118140012027,0.06420517331454903,-8.549382405281067
33.8,2.299999952316284,143.0,21.43886375427246,25.73989295959473,-79.7823912306557,40.45804593905567,269.38670063591,0.029504876583814618,-0.005470419302582741,0.3116195797920227,0.9497330188751221,-0.0037093571645126673,0.21431328177225287,0.03145216837896702,0.26795002818107605,-0.028431627899408337,0.09041214734315872,0.4575616913661361,0.11954510889016093,-8.561801891326905
34.0,2.5,142.0,21.358732223510746,28.1572322845459,-79.78239118361317,40.45804638368157,269.4147772846222,0.02479160949587822,0.01192792970687151,0.3059848248958588,0.9516388177871704,-0.025430769286855684,0.2155036129769204,0.09534015828717976,-0.09760932624340056,0.03755607828497887,0.020871400833129883,0.5037328045070172,-0.13259603027254346,-10.262713655233384
34.1,2.5,133.0,21.249805450439453,29.04783058166504,-79.78239134976302,40.45804651157717,269.43080425834654,0.029339848086237907,0.006443112157285214,0.3046461343765259,0.951991856098175,-0.03757412753638864,0.20430395228472512,0.2115528970458868,-0.16372771561145782,0.02628861740231514,0.005433418322354554,0.4519533344730735,-0.12394458135589954,-10.789076499938963
34.3,2.5999999046325684,132.0,21.02443504333496,33.59624481201172,-79.78239136759089,40.458046962385566,269.51093698120116,0.03901254758238792,-0.007297554053366184,0.30292537808418274,0.952187478542328,-0.0459465767234666,0.20138369667033368,0.5682029666968837,-0.16113899648189545,0.02520654909312725,-0.0279656071215868,0.5146911809965968,0.09819508815184236,-11.608360290527346
34.5,2.700000047683716,132.0,21.06450080871582,32.22058868408203,-79.78239125323533,40.45804731535097,269.5602471885681,0.04220158234238625,-0.009690757840871813,0.3030228614807129,0.9519991278648376,-0.04170465700337498,0.205453740404204,0.7612493076855262,-0.0010292601073160768,0.01399873849004507,-0.08264561742544174,0.5605706277117133,0.053126120343804366,-11.897085274457929
34.6,2.799999952316284,142.0,21.0382080078125,32.252395629882805,-79.78239165534552,40.45804735702086,269.76101780509947,0.04187627136707306,-0.00894063152372837,0.3060155808925629,0.9510630965232848,-0.11602087238772825,0.17467339446300786,1.2287014041663078,0.12353915721178055,0.02175925113260746,-0.07099313288927077,0.5580694812163711,0.07648837812244892,-12.105869464874267
34.7,2.700000047683716,142.0,21.056989669799805,32.872634887695305,-79.78239169762786,40.4580475853526,269.87499189949034,0.041156481951475136,-0.005096515640616417,0.3063134253025055,0.9510270357131958,-0.1378754823350291,0.16730233783695198,1.4235040419552998,0.1445835530757904,0.04826463758945465,-0.05887722223997116,0.5560251849889756,0.06463141249492765,-12.035028108358386
34.91,2.799999952316284,142.0,20.73896789550781,36.95984649658203,-79.78239210712357,40.4580478065861,270.159010892868,0.04427654668688773,0.005675053223967552,0.3070452213287353,0.9506475329399108,-0.1944066450247761,0.1416900188431417,1.8149533355549003,0.11750483512878418,0.10319314897060394,0.051416147500276566,0.5186990453302861,0.08440812109038234,-12.076537492275241
35.0,2.799999952316284,142.0,20.771520614624023,36.13286209106445,-79.7823923222414,40.458047653896884,270.35292339897154,0.04544491693377495,0.013446984812617302,0.3065101504325867,0.9506868720054626,-0.21822318199129428,0.12174408688873907,2.06383643493272,0.1595408320426941,0.07236101478338243,-0.01915265992283821,0.6035280014947058,0.05886222519446165,-12.235209875106811
35.21,2.9000000953674316,133.0,20.95181655883789,31.85480690002441,-79.78239288930263,40.45804778111345,270.7588534412384,0.042067892849445336,0.01544630154967308,0.30279043316841125,0.9520030617713928,-0.2578850582876147,0.11060902493492886,2.482929227339464,0.054926246404647834,-0.08701958507299422,-0.004829942248761654,0.6071434811130166,-0.0480037173209712,-12.111190431118011
35.4,3.0,135.0,21.043216705322266,31.34589195251465,-79.78239383985633,40.45804823579896,271.18581605529783,0.03174925968050957,0.021492574363946915,0.2987847924232483,0.9535501599311828,-0.2420511462790557,0.08495410009800489,2.7472786450616504,0.10136263817548752,-0.021497420966625214,0.0320342592895031,0.4098730064928532,0.026371600404381752,-11.39632387876511
35.5,3.2000000476837163,138.0,21.19596672058105,27.958436965942386,-79.78239392000093,40.45804801679411,271.4669592437744,0.030296936631202694,0.02764376997947693,0.2985029220581055,0.9535271525382996,-0.2460439823269756,0.02630271680933019,2.8700146801711486,0.10576460510492323,0.06723673641681671,0.002714391564950347,0.377525844052434,-0.01871348835993558,-11.142654122114182
35.6,3.2000000476837163,139.0,21.254812240600586,28.037954330444336,-79.78239405377391,40.458047846320135,271.74593854522703,0.032673995941877365,0.032605551183223724,0.2982870638370514,0.9533594846725464,-0.23836194125364804,0.005891067061407067,2.9378809651523614,0.07593367248773575,0.08398821204900743,-0.02495466358959675,0.366259392388165,0.06732131898868829,-10.64896551847458
35.8,3.4000000953674316,142.0,21.1846981048584,28.46735000610352,-79.78239516579315,40.458048503865534,272.2062227783203,0.039608463644981384,0.03847549855709076,0.2957944869995117,0.9536543488502502,-0.17985911856891992,0.043499390934170316,2.941958614206245,0.09231901913881302,0.05375712364912033,0.06052431464195252,0.35954558283090593,-0.08215066644363106,-10.279365355968476
36.0,3.4000000953674316,144.0,21.288618087768555,27.67217254638672,-79.7823962447525,40.458049116383,272.447167640686,0.04097266495227814,0.037929534912109375,0.293811172246933,0.9542315006256104,-0.16951122846309646,0.08722042392133793,2.943899574714912,-0.07503922283649445,0.0346774123609066,-0.06059297546744346,0.5185048446804286,0.1983585866354406,-10.226611776351927
36.1,3.5999999046325684,148.0,21.281105041503906,27.28253555297852,-79.78239584767233,40.45804877706253,273.0408117828369,0.03888083621859551,0.03153220936655998,0.2939500212669373,0.9545090794563292,-0.0490381162112185,-0.007478599941727252,3.007100228414642,-0.056910473853349686,-0.06029295176267624,0.0030792662873864174,0.41877575777471066,-0.0016265309415757654,-10.069076092243195
36.3,3.700000047683716,149.0,21.43886375427246,24.3721866607666,-79.78239641667446,40.458048894138756,273.6341235694885,0.03388552367687225,0.03265414014458656,0.29132652282714844,0.9554656147956848,0.0372086529143916,-0.02299444424678616,3.036417314149664,0.10304778814315796,-0.0512714721262455,-0.00322620221413672,0.5743588007614017,0.03977296186611057,-10.046456723213195
36.4,3.9000000953674316,163.0,21.38627815246582,25.294591903686523,-79.78239752345426,40.4580488917539,273.968784576416,0.03204785287380218,0.03870466724038124,0.28934723138809204,0.9559043645858764,0.008586578367350967,-0.008018073001528167,3.047241022077967,0.11571937799453735,-0.043876152485609055,-0.075673408806324,0.7189180149883032,0.1456102877855301,-9.824815675020217
36.5,4.0,160.0,21.44512367248535,24.28471755981445,-79.78239716870002,40.4580487692241,274.2709848937988,0.034488432109355927,0.04585151746869087,0.29066890478134155,0.9551019668579102,0.04490798847646399,-0.03690738458095952,3.026174171096613,0.10007795691490172,0.12878960371017456,0.016734015196561813,0.588663867674768,0.027319420357234774,-9.550234521031381
36.7,4.199999809265137,162.0,21.403806686401367,24.626644134521484,-79.78239847343454,40.45804839108129,274.9007456359863,0.04241210967302322,0.05361925438046456,0.28800490498542786,0.9551855325698853,0.03507270272055632,0.00698466234276858,2.9246341991356988,0.05626184493303299,0.02645997516810894,0.05795503780245781,0.8724925759434701,0.02395448936149478,-9.220365019440653
36.9,4.199999809265137,162.0,21.322423934936523,26.1772403717041,-79.78239797940084,40.45804829203889,275.1872799453735,0.04109449312090874,0.05719628930091857,0.2874268591403961,0.9552097916603088,0.09403653395901247,-0.0124188335675054,2.865296919077502,-0.01720073260366917,-0.10918445140123367,0.055164635181427,0.747616880312562,-0.02538924990221858,-9.122669740319251
37.0,4.400000095367432,149.0,21.354976654052734,24.6027889251709,-79.78239920569412,40.45804762345458,275.824630027771,0.027290496975183487,0.05621513724327088,0.2802652418613434,0.9578865766525269,0.09644070259745473,-0.06720328855458596,2.833881790811556,-0.01900296658277512,-0.2438376545906067,-0.05024251714348793,0.6484250794351101,-0.12608423287980258,-9.51797718644142
37.2,4.400000095367432,155.0,21.36749649047852,25.11170196533203,-79.78239974432071,40.45804688326372,276.46838117218016,0.017519572749733925,0.05544023215770722,0.2770730853080749,0.959088146686554,0.14852745816187074,-0.1438971655417452,2.8709451853918297,0.08748467266559601,-0.0383591428399086,-0.1253015249967575,0.6900587897747755,-0.11209130678325893,-9.720637003183363
37.3,4.599999904632568,152.0,21.430099487304688,23.93483924865723,-79.78239908375768,40.458046847058405,276.7507040557861,0.015292986296117306,0.057415273040533066,0.2803151905536652,0.9580673575401306,0.2277613028203084,-0.1410980683060112,2.866598028914885,0.08708329498767853,0.020495044067502025,-0.039995402097702026,0.8497341893613339,-0.1395869338978082,-9.786920455098151
37.5,4.699999809265137,150.0,21.36624526977539,25.27868843078613,-79.78240019529487,40.45804594178219,277.1395599899292,0.012967895716428757,0.059210382401943214,0.27841562032699585,0.958546221256256,0.17768416741214527,-0.13940236461799513,2.8974181749336028,0.07062513381242752,0.025435250252485275,-0.0037024184130132203,0.7730375041812658,-0.19615939401090146,-9.670404742956162
37.6,4.800000190734863,150.0,21.425090789794922,24.28471755981445,-79.78239911685554,40.45804581809485,277.7080195007324,0.01200483925640583,0.0603441521525383,0.284110963344574,0.956815242767334,0.3256751925260493,-0.09376391217258398,2.85427168457816,0.04391133412718773,-0.03707148134708405,-0.0358414463698864,0.8705505694448948,-0.06195141885895283,-9.47941362977028
37.8,4.800000190734863,152.0,21.30990219116211,25.60471153259277,-79.7823990479614,40.45804482635889,278.3840086517334,0.0030140350572764874,0.056414727121591575,0.28313565254211426,0.9574145078659058,0.4060559859376817,-0.07047437393156293,2.8673522650841505,-0.05567744001746178,-0.16753287613391876,-0.0691957175731659,0.9434532156586648,0.16028087876737118,-9.485802882313731
37.9,4.800000190734863,149.0,21.27359390258789,27.05988693237305,-79.7823996240511,40.45804311088098,278.7818434295654,-0.001293251756578684,0.052378442138433456,0.27583545446395874,0.9597759246826172,0.3820173790122472,-0.1371056347911176,2.9018072992840565,-0.0665738433599472,-0.1296960562467575,0.014447005465626715,0.9748274745047092,-0.13580231443047525,-9.687424818277359
38.0,4.800000190734863,147.0,21.26107215881348,26.04205894470215,-79.78239875502355,40.45804330669633,279.0655109939575,-0.00782555527985096,0.048144325613975525,0.2758660018444061,0.9599578380584716,0.4880182820065833,-0.0962683886073116,2.9062034561534316,-0.1219499334692955,-0.21590502560138705,0.08304791897535324,0.7890531009435654,-0.11328050253912808,-9.820209238529204
38.2,4.699999809265137,149.0,21.193462371826172,27.17121124267578,-79.78239731102221,40.45804202662458,279.73026300048826,-0.020474603399634358,0.03679061681032182,0.2664921581745148,0.9629170894622804,0.6020221691879134,-0.15539732475216156,2.9663417631328746,-0.05754545331001281,-0.18022462725639346,0.10042013227939606,0.5355583587661386,-0.2826976192183793,-9.92754540681839
38.3,4.599999904632568,154.0,21.218503952026367,27.77554702758789,-79.78239635065019,40.45804238276389,280.0213968811035,-0.025902487337589264,0.031200097873806964,0.2657290995121002,0.9631946086883544,0.6959221494602994,-0.09221672762907387,2.987453399738181,-0.055988635867834084,-0.0966624841094017,-0.0027591262478381395,0.6944499025493861,-0.12092187236063184,-10.06683076143265
38.5,4.599999904632568,150.0,21.178438186645508,28.16518402099609,-79.78239438835041,40.45804140303787,280.67707563018797,-0.03687901049852371,0.02142742834985256,0.2574371993541717,0.96535325050354,0.769500520062265,-0.056034289514489084,3.065297271812634,-0.11923090368509293,-0.12388259172439575,0.07495850324630737,0.6003705415874719,-0.3904349978640676,-10.086241178512571
38.7,4.5,149.0,21.21975517272949,26.670249938964844,-79.78239193314407,40.458039953516455,281.3297464904785,-0.04303399845957756,0.007237044628709555,0.2471834868192673,0.9679856300354004,0.8445165966077457,-0.055997787726979664,3.1028417550324248,-0.06959433108568193,-0.11553571373224256,-0.11374161392450333,0.6235021997988225,-0.4138295249640942,-10.082622921466829
38.8,4.300000190734863,154.0,21.24104118347168,26.10567283630371,-79.78239105099264,40.45804057916866,281.635252243042,-0.04617288336157799,0.002139345509931445,0.2482146471738816,0.967601716518402,0.8801323088227365,0.07449044282131967,3.1078228529423617,-0.14933732151985168,-0.05112084746360779,-0.07839999347925186,0.5628618957102299,-0.14187627414241433,-9.973337291479114
38.9,4.300000190734863,159.0,21.24855232238769,26.46350288391113,-79.7823887261202,40.45803844125631,281.96631742095946,-0.048500582575798035,-0.003651323728263378,0.23668479919433594,0.9703683853149414,0.9037956614784924,-0.018631459442423115,3.1170907989954766,-0.08745284378528595,-0.04610271006822586,-0.007570314686745404,0.5811408765614033,-0.3873132790625096,-10.08359823703766
39.1,4.199999809265137,154.0,21.30364227294922,25.19917106628418,-79.78238719455781,40.45803992647621,282.58390641784666,-0.0517875961959362,-0.012697901576757431,0.2392278015613556,0.9694982767105104,0.9112879176022142,0.2685831242159257,3.128911378004158,-0.05706145614385605,0.004817505367100239,0.0062632174231112,0.5490106458216906,-0.3885517193377018,-9.822144666910171
39.3,4.099999904632568,151.0,21.232275009155273,26.15338516235352,-79.7823835094255,40.458038972901,283.2010386047363,-0.05287742614746094,-0.024569520726799958,0.22627706825733185,0.9723163843154908,0.8910820573326341,0.4004758071912123,3.0791064166324023,-0.16384105384349826,-0.14947067201137546,-0.043238498270511634,0.522641969025135,-0.45021963503211737,-9.68432871758938
39.4,4.099999904632568,153.0,21.302391052246094,24.316524505615234,-79.78238063151784,40.45803809455742,283.4979116973877,-0.05470538884401322,-0.032369792461395264,0.2151777297258377,0.974504053592682,0.9514614295007768,0.3907056679831236,3.055980285653653,-0.1930447518825531,-0.10081778466701508,-0.05770409852266312,0.4963551532477141,-0.35736895680427555,-9.802474633455278
39.5,4.099999904632568,155.0,21.32993507385254,24.920860290527344,-79.78238017059834,40.45803908401882,283.7990534362793,-0.05459264665842056,-0.04131374880671501,0.21747738122940066,0.9736613631248474,0.8883172633007854,0.5478141806691263,3.0628930031272636,-0.18031026422977448,0.02285413257777691,-0.1686466932296753,0.5220872144401074,-0.2396703894808889,-9.889670652151107
39.7,4.0,150.0,21.165916442871094,27.33819961547852,-79.78237649702605,40.458039638244564,284.39296365356444,-0.04842329397797585,-0.057269178330898285,0.2094281762838364,0.9749437570571899,0.9278477594341809,0.7042722459880488,3.0364347822989948,-0.20106004178524012,0.11795613169670105,-0.020864507183432586,0.3666258666291833,-0.40981690976768737,-9.9185371863842
39.8,3.9000000953674316,148.0,21.22225952148437,25.485435485839844,-79.78237640395481,40.458040830845,284.6919691619873,-0.04083540663123132,-0.06610842049121858,0.21197396516799927,0.9741813540458679,0.829974140884596,0.8854535595021246,3.05762700379256,-0.18065182864665985,0.1818394660949707,0.02413887344300747,0.4290104682371021,-0.3717919182032347,-10.077020119428637
40.0,3.700000047683716,155.0,21.23477935791016,25.5649528503418,-79.78237007545395,40.458040543063184,285.2761156616212,-0.02607261575758457,-0.08199220895767212,0.1874951422214508,0.9784902334213256,0.8867602507516321,1.0485759523304297,3.0034954451079905,-0.17737461626529696,0.1194642260670662,-0.010766210965812206,0.42121982082724574,-0.3839908180385828,-9.85398626446724
40.2,3.5999999046325684,158.0,21.21725082397461,26.50326156616211,-79.7823640902835,40.458038512520936,285.55166268920897,-0.021702850237488747,-0.09034663438796996,0.1466018259525299,0.9848220944404602,1.1492150138328838,0.9844727973878766,2.9375276448521364,-0.20272651314735413,0.06512419879436493,-0.013272110372781757,0.3367629668489099,-0.3046419820189476,-9.84286486029625
40.3,3.4000000953674316,151.0,21.23352813720703,26.081817626953125,-79.78236013105557,40.4580410894368,286.14439416503905,-0.01066484674811363,-0.11135263741016388,0.13885827362537384,0.983974277973175,0.9125340350054756,1.2752869869084162,2.9464020801415116,-0.2858667075634003,0.07998079061508179,-0.10559023171663284,0.27125246202573183,-0.012935575917363171,-9.984259890317915
40.5,3.299999952316284,148.0,21.11833953857422,28.30831527709961,-79.78235929688547,40.45804465681554,286.7353689727783,0.005656095687299967,-0.12568937242031095,0.13973411917686462,0.9821632504463196,0.6513920778235625,1.496165407084093,2.964160847237872,-0.14736230671405792,0.18552808463573456,0.0037924996577203282,0.2237099027261138,-0.17809686977416278,-10.059297208786012
40.6,3.0999999046325684,154.0,21.07576942443848,28.46735000610352,-79.78235992245894,40.45804600471645,287.0327837524414,0.016069380566477776,-0.1320001631975174,0.14259397983551025,0.9808081984519958,0.449113277487784,1.580956297795077,3.0051724809612614,-0.16035933792591095,0.19505895674228668,-0.08570697158575058,0.2813433127105236,0.05432420569472015,-10.261748864650727
40.71,3.0,157.0,21.11833953857422,27.560848236083984,-79.78235852943814,40.458048295598736,287.3195669708252,0.026357581838965416,-0.13665220141410828,0.13686828315258026,0.9807643294334412,0.3783770496934589,1.7117711147954482,3.0318743066852063,-0.0838298574090004,0.22388438880443573,-0.0836772695183754,0.2821647734194994,-0.013794438249897213,-10.3779283618927
40.9,2.700000047683716,146.0,21.09079360961914,28.80927658081055,-79.78235801184663,40.45805222017758,287.9026930389404,0.04857880249619484,-0.14456266164779666,0.1278897225856781,0.9799928665161132,0.04263195212052273,1.9053894276575605,3.0979718545261865,-0.07606986910104753,0.21930107474327087,0.022290879860520363,0.15397248225286606,0.04716188271995634,-10.382856395244596
41.1,2.700000047683716,141.0,21.04947662353516,27.72783470153809,-79.7823597335355,40.4580535022077,288.2082579193115,0.061008915305137634,-0.14562369883060455,0.12765316665172574,0.9791712760925292,-0.2416093198859144,1.9042186700189483,3.1785775598452872,0.0450570248067379,0.2739341855049133,0.1019945666193962,0.15139941500499846,0.05459544797893614,-10.464011070728302
41.2,2.5999999046325684,138.0,20.974353790283203,30.35192108154297,-79.78235974744082,40.458057669676506,288.797397857666,0.08592355996370317,-0.13709916174411774,0.10929778218269348,0.9807522892951964,-0.6135392102713669,2.0420115405302743,3.257474389225364,0.1482381969690323,0.3295385837554932,0.07743323594331741,0.07544761028140784,0.2348785231634975,-10.573842830657961
41.4,2.5999999046325684,134.0,20.920515060424805,29.827104568481445,-79.78236459519522,40.45805956691977,289.4294149932861,0.1127827912569046,-0.11887241154909135,0.10747552663087843,0.9806113243103028,-1.2346976948396151,1.889630398258901,3.4239023521605163,0.17206916213035586,0.2908807098865509,-0.004444058518856764,0.15445003531873228,0.2257686890847981,-10.634308887720106
41.51,2.700000047683716,100.0,20.96183204650879,30.065656661987305,-79.78236316452156,40.45806291240464,289.71034074401854,0.12395036220550534,-0.11141682416200638,0.09162697196006776,0.9817469716072084,-1.3655162594002714,1.9974385810801096,3.4042678977858882,0.13951586186885834,0.3173514604568481,0.09461025148630142,0.20183846566826105,0.2164507306739688,-10.70393519282341
41.7,2.799999952316284,77.0,20.851652145385746,31.58444595336914,-79.78236563014354,40.458063677287115,290.0336573181152,0.1366933137178421,-0.10568077862262726,0.08988026529550552,0.9808506965637208,-1.6586240439081008,1.8209942518001685,3.4889087851444764,0.006085448898375034,0.2646083831787109,-0.07016333192586899,0.1755534040555358,0.4867057856172323,-10.713334007263184
41.8,3.0,58.0,20.711421966552734,33.35769271850586,-79.78236866926078,40.458067068093534,290.65247369384764,0.16050297021865845,-0.09351874142885208,0.0771978348493576,0.9795579314231871,-1.9803479133362425,1.6281308100638243,3.612026401081928,0.21819044649600985,0.2419823408126831,0.12559743225574493,0.2447579056397081,0.3533668300509453,-10.854237871170044
42.0,3.0999999046325684,55.0,20.896726608276367,30.137222290039066,-79.782371372453,40.458071142079774,291.25614572143553,0.1789829581975937,-0.06929629296064377,0.06213328987360001,0.9794400334358216,-2.2857310722009747,1.41328730632065,3.675265542232596,0.310640811920166,0.2559125125408173,-0.02436155080795288,0.4650305591896177,0.7093690001964571,-10.559411902427676
42.1,3.299999952316284,36.0,20.91300392150879,30.3042106628418,-79.78237458650439,40.45807102762137,291.5955984649658,0.1882733404636383,-0.0536470040678978,0.06314918398857118,0.97861510515213,-2.4688249181668027,1.1875204730736133,3.6939378129106366,0.2689422369003296,0.1959955245256424,0.036897383630275726,0.3014753858372569,0.6021005865186453,-10.389294179677963
42.2,3.5,29.0,21.04947662353516,27.89482307434082,-79.7823747176183,40.45807563642461,291.8388330993652,0.196794867515564,-0.04436396062374115,0.0451933816075325,0.978397250175476,-2.62834557362187,1.2346518477415351,3.5618076837947785,0.18345241248607635,0.1861577033996582,0.08835025131702423,0.30242782417684794,0.6163641382008791,-10.160730028152466
42.4,3.799999952316284,42.0,21.033199310302734,26.42374420166016,-79.78238008693191,40.4580782786577,292.43671250915526,0.21399977803230288,-0.02317364327609539,0.03163149207830429,0.9760464429855348,-2.8317278862829016,0.8034975285173395,3.5099684313037747,0.3340526521205902,0.21833522617816925,-0.04002898186445236,0.5713994518294929,0.7991167438030243,-10.02441505908966
42.5,4.0,51.0,21.07451820373535,27.370006561279297,-79.78238366865115,40.458077296021045,292.7623884735107,0.2216844856739044,-0.007751476485282183,0.03243330866098404,0.9745481610298156,-2.8761012761803846,0.4025385930965514,3.5434379475775755,0.2753748297691345,0.17133215069770813,0.07058802247047424,0.481302739083767,0.7640168584138155,-9.734185001850127
42.7,4.400000095367432,41.0,20.89547348022461,30.51890754699707,-79.7823656405409,40.458100833864435,292.58337617492674,0.22208361327648168,-0.012233101762831213,-0.0740499496459961,0.9721347093582152,-3.141041933866203,1.542114828492183,2.8009872705145744,0.41356027126312256,0.12283509969711305,-0.08336183428764342,0.7261529941856861,0.9135392258316279,-9.674030016660687
42.9,4.599999904632568,36.0,20.68012237548828,33.65985870361328,-79.78237293269916,40.45810574397097,293.13081575012205,0.2318677306175232,0.024335410445928574,-0.09053236991167067,0.9682195782661438,-3.2692033196751433,0.3211202060263719,2.9854575180724434,0.3932967185974121,-0.014937889762222769,0.11946813762187958,0.7825007841736079,0.6357210532575847,-10.000597010850909
43.0,5.0,65.0,20.930532455444336,28.77746963500977,-79.78238386544183,40.45810767946436,293.78423524475096,0.2383535951375961,0.05427578091621399,-0.10384523868560792,0.9640840291976928,-3.330160658503607,-0.3376821333305657,3.04566939324541,0.33261096477508545,0.018669063225388527,0.04341133683919906,1.2477325241267685,0.6101155842840672,-10.318215426206587
43.1,5.199999809265137,85.0,20.836627960205078,31.53673553466797,-79.78238746472981,40.45810668421364,294.0757467803955,0.23645253479480746,0.0688905268907547,-0.10352008044719696,0.9636535048484802,-3.1951204951117416,-0.6542415987863288,3.0843526499966263,0.2416944056749344,-0.07757186144590378,-0.025830000638961792,1.2667773440480232,0.7788077558577061,-10.16078265309334
43.3,5.699999809265138,77.0,20.950565338134766,28.30036354064941,-79.78239865699204,40.45810432145667,294.71449113464354,0.2182249873876572,0.09687107056379317,-0.10576294362545012,0.965302050113678,-2.970438882087901,-1.3400660830937874,3.1925536788458904,0.19993355870246887,-0.30984988808631897,0.10575520992279053,1.3886305408179758,0.4858554542809725,-10.174642893075942
43.4,5.9000000953674325,72.0,21.145883560180664,25.66037368774414,-79.78240562188519,40.45810285949632,295.05092835998533,0.2046805024147033,0.1107725203037262,-0.10884907841682434,0.9664301872253418,-2.8843238951377965,-1.6926221766776857,3.2043005713631647,0.29787954688072205,-0.2800125479698181,0.2310913354158401,1.2536136536300182,0.34344695560634136,-10.09839637041092
43.6,6.300000190734862,96.0,21.065753936767575,26.996273040771484,-79.78241139031245,40.45809802861685,295.60516954040526,0.18121211230754847,0.1432657688856125,-0.10976865142583847,0.9667409658432008,-2.3379315751143452,-2.3282093416059157,3.1752614004845268,0.3842216432094574,-0.19085875153541565,0.20832876861095428,1.4881750018894673,0.3139887927845121,-9.947620067596436
43.8,6.599999904632568,100.0,21.163414001464844,26.02615547180176,-79.78242028743338,40.45809228673786,296.19738412475584,0.16362416744232178,0.168585404753685,-0.11497931182384492,0.9651869535446168,-1.8576089653209105,-2.854037405869388,3.143296403011055,0.2170654833316803,-0.20113880932331085,0.09122606366872787,1.4600164192914964,0.31781100802123546,-9.935159651041033
43.9,7.099999904632568,93.0,20.99814224243164,27.05193519592285,-79.78242813707661,40.458092267225254,296.51903558349613,0.1578088253736496,0.17814019322395325,-0.13222858309745789,0.9622256755828856,-1.8924552871630944,-3.0430475954568568,3.055630879803634,0.14235103130340576,-0.21674524247646326,0.1373969316482544,1.6037080894410611,0.33797768935561184,-9.629093579649926
44.0,7.300000190734862,90.0,20.976858139038086,28.8887939453125,-79.78242991518083,40.45808896142154,296.7707121429443,0.147372767329216,0.19165687263011927,-0.13218460977077484,0.9612888097763062,-1.3974340688601483,-3.214836136758224,3.1152604596426983,0.20426292717456812,-0.1648745834827423,-0.0453646145761013,1.7601753410696983,0.422335506118834,-9.694964218139653
44.2,7.599999904632567,106.0,20.949312210083008,29.43746757507324,-79.78243707641666,40.45808097675983,297.3557074127197,0.12215431034564972,0.2157282382249832,-0.13607868552207947,0.9591779112815856,-0.8382775707530923,-3.5667520058158018,3.09533368506546,0.14691044390201569,-0.4653984308242798,0.10132072865962982,1.6393788823485376,-0.18087709290906787,-9.78679532468319
44.4,7.800000190734862,112.0,21.03194808959961,27.234825134277344,-79.78243767495528,40.45807721929748,297.5868895111084,0.10622524470090866,0.22261634469032288,-0.13282136619091034,0.9599565863609314,-0.3854055132155629,-3.634604403274096,3.1220926585191267,0.16209298372268674,-0.35087767243385315,0.2465729564428329,1.6863274924457077,-0.40853107050061227,-9.918669333457947
44.5,8.199999809265138,106.0,20.827863693237305,33.158897399902344,-79.78244175277473,40.4580681705713,298.14034486389164,0.07435479760169983,0.2348739206790924,-0.12874847650527954,0.9605881571769714,0.3239984926634133,-3.786863190351936,3.1553519374238803,0.04149637371301651,-0.3855585753917694,-0.09519466757774353,1.7749139790236952,-0.01653709530830384,-10.141041283607484
44.7,8.300000190734862,103.0,20.698902130126953,32.48299789428711,-79.78244398151018,40.45805872052895,298.68489099121086,0.04439155384898186,0.2513144016265869,-0.12676158547401428,0.9585416316986084,0.9839501761010104,-3.8532003184213597,3.3455028319393634,0.07413735240697861,-0.33454468846321106,-0.2268121540546417,1.863860361725092,-0.23551954245194795,-10.590996222496033
44.8,8.600000381469728,114.0,21.07451820373535,26.821332931518555,-79.78244210741515,40.458054691921134,298.91191506958006,0.026027273386716843,0.2585690915584564,-0.12299786508083345,0.9577766656875608,1.4197663128709015,-3.739946025131122,3.5215716299514686,0.0409994050860405,-0.3828884959220886,-0.04406318441033363,2.066843090951443,-0.4204619120433927,-11.198809611797333
44.91,8.699999809265138,118.0,20.579957962036133,34.462989807128906,-79.78244385619648,40.45804883732019,299.19697595214836,0.006194747984409332,0.2631716728210449,-0.12624695897102356,0.9564329981803894,1.6980195293485183,-3.7843254800271664,3.5508492811803682,-0.053115393966436386,-0.3698323965072632,0.03443949669599533,2.2041263589262963,-0.670237021073699,-11.032684367895126
45.11,8.899999618530273,112.0,20.67260932922364,32.896488189697266,-79.78243734094656,40.45804108107585,299.65234017944334,-0.039185885339975364,0.2636808156967163,-0.12364023178815844,0.9558504223823548,2.601638805065435,-3.4426364506802605,3.826766562435896,-0.1263015866279602,-0.6451722979545593,0.3452818989753723,1.7530835455656053,-1.0370109318941831,-11.406764667034151
45.3,8.899999618530273,109.0,20.43096351623535,36.57020950317383,-79.78243689708387,40.458034911005996,299.9200251159668,-0.0647033303976059,0.2574333846569061,-0.12700384855270386,0.9557257294654846,2.9767026972333883,-3.3899112846214483,3.8845656841431504,-0.21896131336688995,-0.4529900252819061,0.2655367851257324,1.850713482052088,-1.2418186502158644,-11.559994461536407
45.4,9.0,119.0,20.343320846557614,38.07309341430664,-79.78242926685627,40.45802543983589,300.4175913391113,-0.11904576420783995,0.2271495163440705,-0.12644228339195251,0.9582502841949464,3.846317288793225,-2.914862018055856,4.057534524889803,-0.4918992817401886,-0.6079162359237671,0.32821619510650635,1.869393728077412,-1.5576236978173257,-12.112803093194964
45.6,9.100000381469727,126.0,20.548656463623047,34.14491653442383,-79.78242344371284,40.458022568767575,300.6702883300781,-0.1475699096918106,0.2032103538513184,-0.1253790557384491,0.9597963094711304,4.298810310979119,-2.533183934254657,4.154789239513571,-0.6132691502571106,-0.567423939704895,0.0922125056385994,1.4948801502585412,-1.2921314558386805,-12.37100327253342
45.71,9.100000381469727,120.0,20.652576446533203,33.28612518310547,-79.78241213214864,40.458014970656606,301.21272302246086,-0.1949760615825653,0.14496909081935885,-0.13368044793605804,0.9607797861099244,5.0841274322451175,-1.7922487775670697,4.173205942480095,-0.599747896194458,-0.19726933538913727,0.4957366287708282,1.4733667820692062,-1.8963881300389769,-12.929290745258331
45.9,9.100000381469727,116.0,20.47854232788086,36.69743728637695,-79.78240504527969,40.45801346170109,301.5040094909668,-0.2002822756767273,0.12047813832759854,-0.14136050641536713,0.9619715213775636,5.430983063872721,-1.2232761964633196,4.1762018738061135,-0.3048722743988037,0.042271748185157776,0.3977328240871429,1.1011688478291035,-1.7023643584549428,-12.423541674613952
46.0,9.0,133.0,20.761505126953125,30.94035148620605,-79.78239140303441,40.45800858762247,302.0873911437988,-0.19443528354167933,0.09371152520179747,-0.16304823756217954,0.9627193212509156,5.69802300785048,0.02092489117012175,4.3780487167960045,-0.16530658304691315,0.02527719363570213,0.3005398511886597,1.0036459153890611,-1.9359696869552137,-12.130659320354464
46.2,9.0,136.0,20.920515060424805,27.57675170898437,-79.78237611878653,40.458006208270774,302.6428873596191,-0.1819167882204056,0.06609757989645004,-0.16766533255577087,0.9666570425033568,5.725406578477777,1.0459274643572254,4.454042971628462,-0.4573701322078705,0.07861986011266707,-0.2329518646001816,0.5485900482907892,-1.6742852979898453,-11.481088625192642
