time,wind_speed,wind_angle,battery_voltage,battery_current,position_x,position_y,position_z,orientation_x,orientation_y,orientation_z,orientation_w,velocity_x,velocity_y,velocity_z,angular_x,angular_y,angular_z,linear_acceleration_x,linear_acceleration_y,linear_acceleration_z
0.0,1.8999999761581416,67.0,23.29189872741699,0.015903547406196594,-79.78276771473178,40.458998358056476,273.06302244400985,0.008059155195951462,-0.006391638424247503,0.9900082945823668,0.14063388109207153,-0.02073188221653098,-0.0315145816975071,0.02147155466056391,-0.0005031159380450845,1.2789329048246145e-05,-0.004459374584257603,-0.13711426516994835,0.14785073982551694,-9.806744855046274
0.19,1.8999999761581416,71.0,23.29189872741699,0.02385532110929489,-79.78276776214861,40.45899850190617,273.0687763783932,0.008066348731517792,-0.006436703260987997,0.990011751651764,0.14060696959495544,-0.023075845377544167,-0.02286717493847212,0.02186411730914077,-0.0036800792440772057,-0.000287330592982471,-0.011516802944242954,-0.13836962582543494,0.14705504341050984,-9.806232054233552
0.3,1.7000000476837158,74.0,23.2856388092041,-0.02385532110929489,-79.78276784927624,40.45899867049713,273.07406316137315,0.008032225072383879,-0.006432700902223587,0.9900141954421996,0.14059218764305115,-0.015419777572981254,-0.01931468954872223,0.025323652735187416,0.00530677568167448,0.004678530618548393,0.007966001518070698,-0.1319492642674595,0.12943926472216846,-9.808155788183214
0.5,1.7000000476837158,77.0,23.29690742492676,-0.02385532110929489,-79.782767791469,40.458998698210756,273.0791937205792,0.008019859902560711,-0.0064221094362437725,0.9900171160697936,0.1405724585056305,-0.02283139629704994,-0.025863880442260984,0.02601596456614216,0.0020574512891471386,0.00019294484809506685,0.00096171599579975,-0.1333393666986376,0.14233955634757878,-9.807025521397591
0.6,1.600000023841858,80.0,23.295656204223643,0.007951773703098297,-79.78276788528474,40.45899887034117,273.0866316947937,0.00797791313380003,-0.006451884284615518,0.9900183081626892,0.14056508243083954,-0.01673856524678204,-0.02156127058590216,0.032145723469511354,-0.004447372630238533,-0.0035959193482995033,0.0008462308906018733,-0.14050054307095708,0.126409484250471,-9.808513053059578
0.79,1.600000023841858,76.0,23.29064750671387,0.0,-79.78276793145398,40.458999069414155,273.0926413331032,0.007994948886334896,-0.006436397321522236,0.9900203943252563,0.14054976403713226,-0.013878224835917451,-0.02515437304651174,0.029408697665677996,0.001628480269573629,-0.0008475923095829785,0.012038849294185637,-0.13588764723390342,0.1257638420071453,-9.809364407658578
0.9,1.399999976158142,72.0,23.29189872741699,0.007951773703098297,-79.78276790675265,40.45899908736235,273.09560880994803,0.007996241562068462,-0.006436772644519806,0.9900214076042176,0.14054283499717712,-0.01852667630073072,-0.028299811907220494,0.029939033417768768,-0.007314523681998253,-0.0016327485209330914,-0.008618224412202835,-0.13788380443118514,0.14373758906498552,-9.808040598034859
1.09,1.399999976158142,75.0,23.295656204223643,0.0,-79.7827679641381,40.45899929288622,273.1009111199379,0.007986077107489109,-0.006430324167013168,0.9900285601615906,0.1404934823513031,-0.01339617087890947,-0.028802207629770014,0.02712330947871431,-0.0014493109192699196,-0.0026959402021020647,0.0009285864070989194,-0.1372179710213095,0.1305466816853732,-9.80907613992691
1.29,1.2999999523162842,73.0,23.294403076171875,-0.06361418962478638,-79.78276804861574,40.45899946607138,273.10369453763957,0.007952886633574963,-0.006428201217204332,0.9900304079055786,0.14048224687576294,-0.006419365173512652,-0.02017283937622677,0.021282884767312885,0.0002505031879991293,0.0030023783911019572,0.0059481938369572145,-0.1336318553891033,0.14582989641465247,-9.807134864330292
1.39,1.2999999523162842,69.0,23.29315185546875,0.02385532110929489,-79.78276803403989,40.45899948208158,273.1058470401764,0.007937978953123094,-0.006408487446606159,0.9900332093238832,0.14046438038349152,-0.01059234427860353,-0.023533806611130054,0.021638064116249682,-0.002774230204522609,-6.256068445509301e-05,-0.006827755365520716,-0.13854534379206598,0.14637609944678845,-9.806636681556704
1.5,1.0,64.0,23.295656204223643,0.015903547406196594,-79.78276801214076,40.45899950061888,273.10802457666404,0.007960575632750988,-0.006397384684532882,0.990034818649292,0.14045242965221405,-0.01271947117115332,-0.026819827427555988,0.02178138636122274,0.0041931155137717715,0.0019065353553742173,0.011109715327620506,-0.13570235445164144,0.12700608297251165,-9.809204778671266
1.7,1.0,62.0,23.29690742492676,0.02385532110929489,-79.7827680275393,40.45899966920716,273.11012492513663,0.007981880567967892,-0.006423422135412693,0.9900330305099488,0.14046217501163485,-0.01937701735765229,-0.023569275316367308,0.018009878007639778,0.001559040043503046,0.0012639345368370414,0.004888395778834821,-0.13576947866007685,0.14163836555555465,-9.80666650235653
1.8,1.0,60.0,23.29941177368164,0.015903547406196594,-79.7827680943608,40.45899986107671,273.1113440785408,0.007965748198330402,-0.006399607751518488,0.9900367259979248,0.1404382884502411,-0.013663480974557652,-0.023799949296993368,0.016005895883998755,-0.0006249200669117273,-0.0010462960926815867,0.0042534107342362395,-0.13572430891916154,0.12765509650111198,-9.808086791038512
2.0,1.0,58.0,23.29816055297852,0.03180709481239319,-79.78276804106284,40.45899989837568,273.11460594272614,0.00796053744852543,-0.006398550700396299,0.9900410771369934,0.1404077559709549,-0.019515268992165057,-0.03034590406189209,0.016514205417671454,0.003750890726223589,0.002894471632316709,0.009486513212323187,-0.13447385444305834,0.1255627982877195,-9.809304766058922
2.09,1.100000023841858,60.0,23.29941177368164,0.02385532110929489,-79.7827681002295,40.45900006112929,273.11558262443543,0.007946371100842953,-0.006424079183489084,0.9900434613227844,0.14039091765880585,-0.018458751884638858,-0.023342499092571186,0.015091345513759041,-0.005055204965174197,-0.0035169471520930533,-0.009563244879245758,-0.14113458224572242,0.14240414067171514,-9.808295536637306
2.3,1.100000023841858,58.0,23.294403076171875,-0.02385532110929489,-79.78276817593199,40.45900027554632,273.1161460671425,0.00792725384235382,-0.006406733300536871,0.990049421787262,0.14035074412822726,-0.008693965606186729,-0.024412551370946087,0.01014453997505107,-0.004630370531231165,0.0001629106409382075,-5.400646841735579e-05,-0.1385191135481,0.12900838888250293,-9.808918265104293
2.4,1.100000023841858,55.0,23.29816055297852,-0.04771064221858978,-79.78276815832098,40.459000294819006,273.1171816382408,0.007896341383457184,-0.006407078821212053,0.9900509119033812,0.14034177362918854,-0.01181078012969922,-0.027866176962319928,0.01039734323474916,-0.0016546726692467928,-0.0010664436267688868,-0.006490033119916916,-0.1355316705722362,0.14771068987436595,-9.805946710109714
2.59,1.100000023841858,55.0,23.30316734313965,-0.05566241592168808,-79.7827681740693,40.459000511653116,273.1194678339958,0.007877463474869728,-0.006413621827960014,0.9900563359260559,0.14030462503433228,-0.015603432317099628,-0.030372820143793205,0.01084102717109812,-0.0022835335694253445,-0.0011000537779182196,-0.008658891543745995,-0.13774541728198528,0.14627118760719895,-9.806415072083473
2.7,1.100000023841858,57.0,23.301916122436523,-0.05566241592168808,-79.78276814455566,40.459000535078246,273.12056068515784,0.007894420996308327,-0.006393854971975088,0.9900559186935424,0.1403072625398636,-0.017684256905499372,-0.033814086185104945,0.010871166644683223,0.006549023557454348,0.00242075533606112,0.00531473895534873,-0.1319771481771022,0.1314407666400075,-9.808094977140428
2.89,1.100000023841858,56.0,23.29816055297852,-0.07951773703098297,-79.78276818182461,40.45900071594296,273.12067208623887,0.007878830656409264,-0.006431702524423599,0.9900597929954528,0.14027902483940125,-0.01719530566044983,-0.029125428379466106,0.008433188971534656,-0.0007099694339558482,-0.00015208593686111271,-0.005097563844174147,-0.13223463580012326,0.14636995073407888,-9.807726602554322
3.0,1.100000023841858,55.0,23.29941177368164,-0.06361418962478638,-79.7827681503439,40.45900073765954,273.1215253863336,0.007907247170805931,-0.006431030109524728,0.9900635480880736,0.14025121927261353,-0.019996159009111846,-0.03227478690663719,0.008631090570078446,-0.00019678051467053592,-7.085475772328209e-06,0.008452539332211021,-0.1347583306208253,0.1245022595487535,-9.80914630651474
3.2,1.100000023841858,56.0,23.30066299438477,-0.05566241592168808,-79.78276817331162,40.45900095638683,273.1213515195846,0.007877450436353683,-0.006410162430256604,0.9900677800178528,0.1402236968278885,-0.018668303737643662,-0.03428344504035498,0.006304902060458453,0.0046628499403595924,0.002223756164312363,0.006902677472680807,-0.13451067362912,0.13172441141679886,-9.808780270814896
3.3,1.100000023841858,56.0,23.29941177368164,-0.06361418962478638,-79.78276825955112,40.45900111464876,273.12267694807053,0.007850458845496178,-0.006449055392295122,0.9900716543197632,0.1401958167552948,-0.012099586565246777,-0.02211078234589435,0.008042359811069417,-0.0018683081725612285,-0.004348399117588997,-0.00020959264656994486,-0.13830637539736929,0.12997635888867082,-9.809690682291984
3.5,1.100000023841858,53.0,23.29941177368164,-0.07156596332788467,-79.78276821130144,40.45900115016405,273.1243426594734,0.007857788354158401,-0.006456306669861078,0.9900745749473572,0.14017519354820251,-0.017496955958067356,-0.028448515281010407,0.00850610139070127,0.003049520077183843,0.0002503125870134681,0.011034471914172173,-0.135304168201983,0.12450273463502527,-9.808506621122358
3.6,1.100000023841858,54.0,23.294403076171875,-0.03180709481239319,-79.78276830352522,40.45900133043778,273.1232447419166,0.00780901266261935,-0.006472068838775158,0.9900785684585572,0.1401486098766327,-0.011044744080910971,-0.022648881358812014,0.005636703697252539,-0.005241686478257179,-0.002014499623328448,-0.00952076818794012,-0.13745784390717747,0.14378965669311586,-9.807341271042823
3.8,1.100000023841858,55.0,23.30316734313965,-0.05566241592168808,-79.78276831612061,40.45900153083336,273.1245077047348,0.007804078049957751,-0.006458439398556948,0.990084171295166,0.1401098668575287,-0.013047512334210523,-0.02432017945957525,0.007075423048665998,-0.001989186042919755,-0.0028396600391715765,-0.00017635500989854336,-0.1377280492242426,0.12963975112885234,-9.80933458685875
3.9,1.100000023841858,54.0,23.301916122436523,-0.07951773703098297,-79.78276829437101,40.459001548840334,273.12522605991364,0.007783210836350919,-0.0064704823307693005,0.9900840520858764,0.14011122286319733,-0.015802632131207202,-0.02763913286374358,0.007275120153151214,0.00030793691985309124,0.0020052881445735693,-0.0015045598847791553,-0.13543208518065514,0.14599324386566878,-9.806306313872335
4.09,1.100000023841858,54.0,23.30316734313965,-0.06361418962478638,-79.78276831472355,40.45900174440821,273.1266692075729,0.007753208745270966,-0.006481179967522621,0.9900903701782228,0.14006777107715607,-0.015778505541123963,-0.02573931146929929,0.008724865788814514,-0.004792576190084219,-0.002218487672507763,-0.009229536168277264,-0.13966151330620052,0.1450135702919215,-9.807508501410485
4.2,1.100000023841858,49.0,23.301916122436523,-0.05566241592168808,-79.78276828679084,40.45900176381723,273.12754313087464,0.007752177305519581,-0.006476856302469969,0.9900895357131958,0.1400739997625351,-0.017686494192684483,-0.02908356640614204,0.00875637878976376,0.003948890138417482,0.004555762279778719,0.005589291919022799,-0.13484001805074514,0.1343869958817959,-9.808745772242547
4.39,1.100000023841858,49.0,23.29816055297852,-0.06361418962478638,-79.78276836455399,40.459001979151076,273.1288733277321,0.00770495180040598,-0.006474363151937722,0.9900954961776732,0.14003434777259827,-0.008257949274153029,-0.02858964504161804,0.009352918151553036,0.0007905674865469338,0.00041472510201856494,-0.004779280163347721,-0.13789447559975088,0.14898451494053008,-9.805875374078749
4.5,1.100000023841858,51.0,23.30066299438477,-0.08746951073408127,-79.78276834375765,40.45900200262289,273.12983612155915,0.007708314340561628,-0.0064714960753917685,0.99009907245636,0.14000926911830902,-0.010449951421673698,-0.03156505165630845,0.009529751227494259,0.005817221477627754,0.0022315457463264465,0.00678563304245472,-0.13573474254459145,0.12423314144834875,-9.809304181337355
4.7,1.100000023841858,52.0,23.301916122436523,-0.05566241592168808,-79.7827683674648,40.4590021828306,273.1308396849633,0.007687863428145647,-0.006494301371276379,0.9900987148284912,0.14001186192035675,-0.012992968107757623,-0.02626990056609503,0.010024461321422769,0.002422539284452796,0.00607116287574172,0.0020390485879033804,-0.134981904393062,0.13513395027257502,-9.807605565190316
4.8,1.100000023841858,48.0,23.30316734313965,-0.039758868515491486,-79.78276840012248,40.45900236413385,273.13072107172013,0.007697616703808308,-0.0065052127465605744,0.9901027083396912,0.13998256623744965,-0.012382461753949652,-0.02365940517159311,0.01011091040689045,-0.0009250942966900766,-0.001986687770113349,-0.002058695303276181,-0.13857764965854585,0.1265039441920817,-9.808681452870367
4.99,1.2000000476837158,50.0,23.29941177368164,-0.06361418962478638,-79.78276835105456,40.45900240186708,273.1328157577516,0.007701127789914608,-0.006505894474685192,0.9901058673858644,0.13996025919914246,-0.01734816111322795,-0.02982363381541108,0.010596317055676359,0.0061275889165699465,0.0006694651092402638,0.008395884186029434,-0.13701224039308724,0.12442128474824132,-9.808470953106882
5.1,1.2000000476837158,49.0,23.29690742492676,-0.07156596332788467,-79.78276839447834,40.45900259436356,273.13441721534736,0.007658617105334997,-0.006517685018479824,0.9901074767112732,0.13995052874088287,-0.01408016588824449,-0.028529396671662818,0.014074362987454956,-0.007871107198297976,-0.001736305421218276,-0.010879428125917913,-0.13850528122857214,0.14470773350447416,-9.807430733442306
5.3,1.2000000476837158,49.0,23.30066299438477,-0.06361418962478638,-79.78276840704437,40.45900281051008,273.1346247587204,0.007638553157448769,-0.006519521586596966,0.9901074767112732,0.13995176553726196,-0.011549925595456735,-0.02887291299242117,0.012598722377583542,-0.0027760488446801897,-0.002490884158760309,-0.0014248923398554325,-0.1383593566529453,0.13178578890860082,-9.80826571583748
5.4,1.2000000476837158,52.0,23.29941177368164,-0.07951773703098297,-79.78276838469944,40.45900283291802,273.13590166902543,0.007627484854310752,-0.006519957445561886,0.9901078343391418,0.1399497389793396,-0.013999569988723298,-0.03210316267730127,0.012805509229062146,0.0005648398073390126,0.004334046971052885,-0.004501289688050747,-0.13770853414200246,0.14808231697417795,-9.806302805542947
5.6,1.2000000476837158,48.0,23.301916122436523,-0.05566241592168808,-79.78276840454207,40.45900301269524,273.1354629192353,0.007629943545907736,-0.006566062569618225,0.9901136159896852,0.13990601897239685,-0.014777699500904271,-0.024075723844733,0.01205640392519919,-0.0020482076797634363,-0.00143513607326895,-0.014534834772348404,-0.13795831988565624,0.14669325607828795,-9.807164100408556
5.7,1.2000000476837158,55.0,23.29690742492676,-0.04771064221858978,-79.78276837836236,40.45900303070114,273.1366719994545,0.007628525141626596,-0.006558051332831383,0.9901143908500672,0.13990113139152527,-0.016329353757948962,-0.027074499132244325,0.01204479200926104,0.004279737360775471,0.002686615101993084,0.007387310732156037,-0.13413446011953056,0.13139503958635032,-9.80772426366806
5.89,1.100000023841858,54.0,23.29816055297852,-0.08746951073408127,-79.78276839904102,40.45900324427117,273.1378133687973,0.007602889556437732,-0.0065609770826995355,0.9901137948036194,0.13990634679794312,-0.01362411833700801,-0.02923602742203088,0.014620075589572063,0.002252374077215791,0.002562354085966945,-0.0005964167648926378,-0.13259698958136146,0.14511963330209254,-9.806435537338258
5.99,1.100000023841858,51.0,23.30316734313965,-0.039758868515491486,-79.78276837158658,40.45900326675801,273.13929448461533,0.0076154377311468124,-0.006551364902406931,0.9901194572448728,0.13986635208129886,-0.016314178546652715,-0.03196570619281382,0.014824089894579956,-2.482439595041797e-05,0.001757867750711739,0.007341308519244194,-0.13624041706323625,0.12582848114892842,-9.809252725839617
6.2,1.100000023841858,47.0,23.29941177368164,-0.07951773703098297,-79.7827683782448,40.459003430929215,273.13782743549353,0.007606133818626405,-0.0065714241936802855,0.990123689174652,0.13983577489852905,-0.01781831205762573,-0.02399852767001962,0.013549881491173926,0.006577222608029842,0.003111882833763957,0.00896538607776165,-0.13476227749139072,0.125920419478789,-9.808232971429826
6.3,1.100000023841858,45.0,23.30066299438477,-0.07951773703098297,-79.78276841740005,40.459003617087006,273.1363048348427,0.007587870582938193,-0.006583481561392546,0.9901252985000608,0.13982516527175906,-0.014295239294251647,-0.02052424520444944,0.01591396581943525,-0.005872101522982121,-0.0015628389082849026,-0.007449349388480186,-0.14069019385613502,0.13976119006052615,-9.806771167516713
6.5,1.100000023841858,50.0,23.30066299438477,-0.07156596332788467,-79.78276836659946,40.45900364826575,273.1394873056412,0.0075756129808723935,-0.006578247994184494,0.9901293516159058,0.1397968977689743,-0.018969661356665776,-0.0262098626389462,0.016031252226180386,5.037478331360034e-05,0.0010355997364968061,0.004376313183456659,-0.13762388655915858,0.1267264947015792,-9.807416115403175
6.6,1.0,45.0,23.29941177368164,-0.06361418962478638,-79.78276843516008,40.4590038544917,273.13960407114035,0.007540537510067224,-0.006577393040060997,0.990132749080658,0.13977521657943726,-0.0095585560037459,-0.02521866876730519,0.021146096988657718,-0.0004183648561593145,-0.0003943493647966534,-0.007319770287722348,-0.13640346301719547,0.15056086032651367,-9.805260246992107
6.79,1.0,47.0,23.30316734313965,-0.05566241592168808,-79.78276844919304,40.459004068644134,273.14031265115744,0.007534359581768513,-0.00656219618394971,0.9901349544525146,0.13976049423217773,-0.00815259793623189,-0.026995809719755355,0.023551646915403755,-0.005624455399811268,-0.003369315061718225,-0.007927095517516136,-0.14091353008523586,0.14277983341366055,-9.806345490217213
6.89,1.0,47.0,23.301916122436523,-0.07156596332788467,-79.78276843180905,40.459004089906614,273.14269075727464,0.007513865362852813,-0.006576347164809704,0.9901357889175416,0.1397552788257599,-0.00929117085093961,-0.02988785874115215,0.023656769092125628,0.00375466956757009,0.007099878508597612,0.002422646852210164,-0.13379915884695948,0.13562455907464027,-9.80797160089016
7.09,0.8999999761581421,46.0,23.29941177368164,-0.07156596332788467,-79.78276843176859,40.45900428751581,273.14302269554145,0.00751932244747877,-0.00658537819981575,0.9901383519172668,0.1397360861301422,-0.01090073981217012,-0.027121631486947524,0.025902521529185457,-0.0004231977509334683,-0.0009330793982371688,-0.009918596595525742,-0.13331232332624496,0.14831627869047226,-9.806085289120675
7.2,0.8999999761581421,47.0,23.29690742492676,-0.02385532110929489,-79.78276840849846,40.459004308802974,273.145632127285,0.007545798085629941,-0.006586717907339335,0.9901413321495056,0.13971368968486786,-0.012740487519765078,-0.029986373532071994,0.0260797605267545,0.001807096065022052,0.002455825451761484,0.009782126173377035,-0.13640654194168747,0.1254621987696737,-9.809480767250061
7.39,1.0,49.0,23.294403076171875,-0.11927660554647446,-79.7827684440273,40.459004498209296,273.14337919092185,0.007524085231125355,-0.006613847333937882,0.9901441931724548,0.13969343900680542,-0.00839210175791822,-0.024965583054352168,0.023574202224529186,0.007127529475837945,0.00538413692265749,0.00480489106848836,-0.1366639382019639,0.1365122486371547,-9.806833148002623
7.5,1.0,55.0,23.29941177368164,-0.11132483184337616,-79.78276844615284,40.459004713031604,273.1404955778122,0.007499536965042354,-0.006612589582800865,0.9901492595672609,0.1396583616733551,-0.008961492268269521,-0.0269569435991618,0.022005228741978786,-0.005880301352590322,-0.0003679458459373564,-0.007116363383829594,-0.13884347870014607,0.12809673487208784,-9.809090173244476
7.69,1.100000023841858,55.0,23.29816055297852,-0.07156596332788467,-79.78276842526516,40.459004734678395,273.14271865224845,0.007527207024395466,-0.006616043392568828,0.9901497960090636,0.13965322077274325,-0.010714534263231549,-0.029605394902360686,0.02212850892865456,0.00407465035095811,-8.691348921274765e-05,0.0097261480987072,-0.13575725432485342,0.12379784365184605,-9.809809965491297
7.8,1.100000023841858,63.0,23.29941177368164,-0.07951773703098297,-79.78276842915103,40.45900490956942,273.1375972423553,0.007526746019721031,-0.006623428780585527,0.9901530146598816,0.1396302580833435,-0.011411085089929692,-0.02611804629897248,0.021490560961771592,-0.0053294552490115174,-0.00249032792635262,-0.009635474532842636,-0.1408193990495056,0.14339907182380554,-9.806944245100023
7.99,1.100000023841858,64.0,23.29816055297852,-0.08746951073408127,-79.78276838153252,40.459004951429854,273.14193616247184,0.007527334615588187,-0.006614893674850464,0.9901559352874756,0.13960981369018555,-0.015924695966212397,-0.031600511778135665,0.02185111028105652,-0.0022528411354869604,-0.0002653759147506207,0.00345189799554646,-0.1362161967996508,0.1286050497740507,-9.80940709233284
8.09,1.100000023841858,66.0,23.30066299438477,-0.06361418962478638,-79.78276841907447,40.45900508675353,273.13621799087525,0.007475704420357943,-0.006664566230028868,0.990156888961792,0.13960333168506622,-0.01203598240501235,-0.018443723033966825,0.0210844626960529,-0.003100436646491289,0.0036247204989194866,-0.007866020314395428,-0.1353262323047966,0.14975551600567996,-9.805736795067787
8.29,1.100000023841858,64.0,23.29816055297852,-0.11927660554647446,-79.78276841011001,40.459005273927936,273.1320016775132,0.007478938903659581,-0.006659728940576315,0.9901615977287292,0.13957007229328156,-0.011905878961046765,-0.018155401305764984,0.020322284476799214,-0.009105287492275238,-0.0011697561712935571,-0.003936484921723604,-0.13847330426797272,0.14107147799804806,-9.805985886454582
8.4,1.100000023841858,62.0,23.29816055297852,-0.06361418962478638,-79.78276839083512,40.45900528677711,273.13403473234183,0.007455107290297747,-0.006661409977823496,0.9901608228683472,0.13957688212394714,-0.013184321632631741,-0.02084158462990272,0.020374661053160763,0.0006535829161293805,0.0004634949436876923,0.002267909934744239,-0.13125652452930808,0.13865456795319914,-9.808089129924772
8.6,1.100000023841858,63.0,23.29941177368164,-0.07951773703098297,-79.78276838126516,40.45900551761229,273.1291310582161,0.007436804939061403,-0.00662801181897521,0.990164041519165,0.13955642282962802,-0.011145451462082859,-0.02809185018532472,0.019768057029810705,-0.002538339933380485,0.0006283721304498612,-0.0077206012792885295,-0.13622528739273548,0.14825124668888748,-9.806510381698606
8.7,1.2000000476837158,65.0,23.27061462402344,0.5884312987327576,-79.78276835766806,40.459005539758294,273.1311218533516,0.007454431615769862,-0.006633530836552382,0.9901617765426636,0.13957180082798004,-0.012808391565676315,-0.030829954842022608,0.01977426439446295,0.001943116309121251,0.003645012620836496,0.012503203935921192,-0.13707621258683506,0.12461698374710978,-9.808171575665476
8.89,1.2000000476837158,73.0,23.28689193725586,0.2306014448404312,-79.78276836064,40.45900572176686,273.12619117832185,0.007427725940942764,-0.006632647011429071,0.9901700019836426,0.1395142376422882,-0.009681772674760458,-0.02754653804911731,0.019586160064952854,0.004309763200581075,0.001923083793371916,0.00700737815350294,-0.13409800638444722,0.1462589084543288,-9.807947627305985
9.0,1.2000000476837158,73.0,23.288143157958984,0.22264966368675232,-79.7827683441147,40.459005926908006,273.12092153167725,0.007387830410152674,-0.006679618265479803,0.990173876285553,0.13948681950569153,-0.009809255963769544,-0.028561420244582237,0.019271270842358898,-0.0029408494010567665,0.002664320869371295,-0.0031913449056446552,-0.1357493788562715,0.11812142151407898,-9.808020132780076
9.2,1.2000000476837158,73.0,23.28313446044922,0.2306014448404312,-79.78276832077455,40.45900594955964,273.12287274932856,0.007405972108244895,-0.00668308325111866,0.9901717305183412,0.13950103521347046,-0.012410841988568004,-0.03161574708887823,0.019343298244776246,0.0028549584094434977,-0.0024375871289521447,0.0006897480343468487,-0.13791889686137435,0.12354865176603196,-9.80708340883255
9.3,1.2000000476837158,73.0,23.27812767028809,0.22264966368675232,-79.78276833241036,40.4590060956498,273.1150657925606,0.007371135987341405,-0.006719074677675962,0.9901815056800842,0.13943175971508026,-0.011753627387870546,-0.02015757565349112,0.0191955149551314,-0.005715067032724619,0.0007856070878915489,-0.00845961458981037,-0.14196164349094034,0.15288728470914068,-9.805598216056824
9.49,1.2999999523162842,68.0,23.284387588500977,0.2703603208065033,-79.78276828834449,40.45900612716885,273.11892489528657,0.007362845819443464,-0.006721248850226402,0.9901843667030334,0.13941170275211334,-0.015846825062775145,-0.025239500590018168,0.019589348115808404,-0.003981571178883314,-0.004798024892807007,-0.0021688875276595354,-0.13915450489148498,0.14074872083030646,-9.80731378912926
9.59,1.2000000476837158,69.0,23.280630111694336,0.3339745104312897,-79.78276827825225,40.45900629973781,273.1101240310669,0.007328246720135213,-0.006740090437233448,0.9901835918426514,0.13941830396652222,-0.015966276900414928,-0.022392758503667082,0.019033990662007345,0.0016716457903385162,0.005734009202569722,-0.0010559053625911474,-0.13497118754312395,0.13172444796189667,-9.810265463590623
9.79,1.2000000476837158,70.0,23.268110275268555,8.420928955078125,-79.78276824730109,40.459006501176326,273.1032948884964,0.007338474038988352,-0.006728674750775099,0.9901865124702454,0.1393972784280777,-0.0153543748244476,-0.025441987233774298,0.018585154194929846,-0.00039425198337994516,-0.0017740175826475024,-0.012741342186927795,-0.14155777447856965,0.14412382506765425,-9.80516201376915
9.89,1.2000000476837158,72.0,23.072790145874023,3.3317933082580566,-79.78276822328091,40.45900651873939,273.105222741127,0.007304229773581028,-0.006771834567189218,0.9901770949363708,0.13946373760700226,-0.014205907913883915,-0.02680820778049269,0.018974824679328726,0.015414957888424397,-0.010062012821435928,0.0003970790421590209,-0.15439671602100136,0.09333162085153164,-9.800906994938847
10.09,1.2000000476837158,75.0,23.280630111694336,0.17493902146816254,-79.78276822708011,40.45900671250318,273.09965536928183,0.007285133004188538,-0.006741100456565618,0.9901980757713318,0.13931719958782196,-0.006196782970696587,-0.02482474559740393,0.021289520446607958,0.028925843536853787,0.012296774424612522,0.013362505473196508,-0.13086425858549774,0.0920904762391001,-9.795377283096316
10.2,1.2000000476837158,73.0,23.265605926513672,12.015130043029785,-79.78276820316634,40.459006730287406,273.1018513832093,0.007286612410098314,-0.006776646245270968,0.9902045726776124,0.1392691284418106,-0.013954608775292495,-0.026371468075620737,0.02164388252914409,-0.018012385815382004,0.02062502503395081,-0.006372041068971157,-0.15602088980376722,0.13250539842993025,-9.810126299858092
10.4,1.2000000476837158,72.0,23.260597229003906,0.4612028896808624,-79.78276817991558,40.45900687653537,273.09693775510794,0.007265603169798852,-0.006852485239505768,0.990203857421875,0.13927188515663147,-0.013098452875681644,-0.015416356321554903,0.029401643422533062,0.009950148873031141,0.005184142384678125,0.006438527256250382,-0.17396299794316292,0.12388890489935875,-9.79281152486801
10.5,1.2000000476837158,71.0,23.27812767028809,0.17493902146816254,-79.78276815534383,40.459006887380255,273.0997761282921,0.007214802782982588,-0.006826371420174837,0.9902140498161316,0.1392029970884323,-0.018391643420863187,-0.01941343159164206,0.029168346095386405,-0.003316291142255068,0.00908216554671526,-0.016659816727042198,-0.14192551866173744,0.1325784794893116,-9.806606860756872
10.7,1.2999999523162842,68.0,23.258094787597656,1.017827033996582,-79.78276794518473,40.45900691814031,273.1090958509445,0.0072815055027604094,-0.006887045688927175,0.9902154207229614,0.1391875445842743,-0.04555681084581503,-0.003383552429729791,0.049146501660936336,-0.0017358261393383145,-0.005616993177682161,-0.0016473900759592652,-0.14419594681821765,0.13875592578202486,-9.81559578537941
10.79,1.100000023841858,75.0,23.151670455932607,3.6498641967773438,-79.78276795077501,40.45900711936198,273.1024784836769,0.007294461131095886,-0.006887941621243954,0.9902152419090272,0.13918760418891907,-0.032266824610429484,-0.008567658901800184,0.05239531276061366,-0.0052730655297636994,0.008152339607477188,-0.0065222573466599,-0.13937021233141422,0.16774885123595595,-9.791734467744828
10.99,1.100000023841858,74.0,23.06152153015137,5.439013481140137,-79.78276786581397,40.45900712051496,273.1128080282212,0.007279673125594854,-0.006893154233694077,0.9902099370956421,0.13922569155693054,-0.03428125556942815,-0.013906337519616865,0.05324766059406808,0.01086078304797411,0.011977783404290676,0.0012279177317395804,-0.17481895722448826,0.12377398883923887,-9.798524254560473
11.1,1.100000023841858,77.0,23.000171661376953,6.647683143615723,-79.78276791795922,40.45900730371193,273.099764564991,0.007221652660518885,-0.0068907346576452255,0.9902023673057556,0.1392827183008194,-0.02239486421383976,-0.011545067532165469,0.0484415615847438,0.0072936974465847015,-0.01594499871134758,0.003879415802657604,-0.14723002133890986,0.11162149214185776,-9.795835120081902
11.29,1.100000023841858,76.0,22.90251159667969,8.961648941040039,-79.78276789258281,40.4590074904301,273.092185655594,0.006996703334152698,-0.007056860718876123,0.99018532037735,0.1394071727991104,-0.015055458056876525,-0.009596887530566629,0.04346127470740617,-0.0676189512014389,-0.06010892242193223,0.03029894456267357,-0.1314881656318903,0.16530135294422507,-9.812928285598757
11.4,1.0,78.0,22.833648681640625,10.39296817779541,-79.78276786854134,40.459007498619044,273.09622071123124,0.006857980974018575,-0.007045503240078688,0.9901729226112366,0.13950268924236298,-0.01931420097588501,-0.015410975870990896,0.04103905649581052,-0.03057380951941013,-0.0414714477956295,0.03166444227099418,-0.14698090254329144,0.2120491111837328,-9.793976874947546
11.59,1.0,78.0,22.712200164794922,12.977294921875,-79.78276789322487,40.45900764105059,273.08650116062165,0.006464445032179357,-0.007185613736510277,0.9901110529899596,0.13995234668254852,-0.013371405751586926,-0.008417635935910418,0.0360789140979415,-0.03476308286190033,-0.04920076206326485,-0.04122450202703476,-0.06938534500077367,0.40474485218524936,-9.847157886028288
11.7,1.0,76.0,22.628313064575195,14.68692684173584,-79.78276787897227,40.45900765012842,273.0903410408497,0.006180991418659687,-0.006772958673536778,0.9901370406150818,0.13980241119861606,-0.01595061423306889,-0.01811751354393808,0.0427281454942409,-0.07811442762613298,-0.0421992726624012,0.04277874156832695,-0.1957842037640512,0.4401938163489104,-9.824395844936367
11.89,1.0,75.0,22.469301223754886,18.04257583618164,-79.7827679122759,40.45900794915254,273.0785826239586,0.00399762624874711,-0.003753489581868053,0.9902051091194152,0.13951292634010315,-0.009563238154248723,-0.02596857952207756,0.049959632156521314,-0.061818640679121024,0.00637042336165905,0.008437814190983772,-0.05732495108619332,0.12038168099708856,-9.862559452056882
12.0,0.8999999761581421,78.0,22.391674041748047,19.45003890991211,-79.78276790191974,40.45900797221749,273.08340630865104,0.003384919371455908,-0.0017590264324098823,0.990347981452942,0.13855110108852384,-0.010233454276627021,-0.02445746319506591,0.03957653240038457,-0.061693537980318076,-0.00650152238085866,0.020901544019579887,-0.01136319910059683,0.048734148759394885,-9.691551783084867
12.19,1.0,76.0,22.21012687683105,23.489540100097656,-79.78276786688744,40.45900811162058,273.07078776693345,0.003418364329263568,-0.0012686190893873572,0.990401566028595,0.1381717026233673,-0.0020250598904916948,-0.010006513866378287,0.07078331166904267,0.0339898094534874,0.031615298241376884,-0.0166927557438612,0.2354324189387262,0.05452699901070447,-10.289090445041657
12.3,1.0,76.0,22.129995346069336,25.000377655029297,-79.78276789462866,40.45900830737794,273.06026856040955,0.002936802338808775,-0.004069850780069828,0.990581512451172,0.1368323564529419,0.0054143407710414045,0.020314471890662333,0.14522569169320784,0.046802300959825516,-0.047608938068151474,-0.17308536171913147,0.19014069048687812,0.2936217346787453,-10.567210918664934
12.49,1.100000023841858,75.0,22.406700134277344,17.454143524169922,-79.78276792810581,40.45900824709131,273.10977695322043,0.005252454895526171,-0.0069510112516582,0.9909592270851136,0.13388071954250336,0.01979066136524865,0.04759558881314431,0.3292774241831619,0.06907877326011658,-0.0025720102712512016,-0.005696781445294619,-0.009229132124455643,0.4160280049592257,-10.540055279731751
12.6,1.100000023841858,72.0,22.366634368896484,19.100160598754886,-79.7827680377242,40.45900829804997,273.1364186797142,0.004129698034375906,0.0033026449382305145,0.9909884929656982,0.13384290039539334,0.02296581903279216,0.08311842498648142,0.26676106024511026,-0.047809597104787833,0.07036425918340683,0.019697271287441254,0.06389838635455818,0.035368229190353304,-9.971170313358307
12.8,1.2000000476837158,73.0,22.30528259277344,20.165699005126953,-79.78276812399066,40.45900814142305,273.11011407709117,0.005762898828834295,0.0055401725694537145,0.9909016489982604,0.1343509554862976,0.04007761840436703,0.1037480842862884,0.17295623949150865,0.015748774632811546,0.01093999482691288,0.0476435124874115,0.0862513461895287,0.12979196146130562,-9.65000614643097
12.9,1.2999999523162842,76.0,22.283998489379886,20.92906951904297,-79.78276819194973,40.4590080669099,273.1263710055352,0.0057472921907901755,0.005879934411495924,0.9908316135406494,0.13485249876976013,0.042883924128530856,0.10823788675879173,0.14850153323768092,-0.0011181135196238756,-0.061776559799909585,0.0700182095170021,0.19501229820773008,0.1505827234312892,-9.538723107576367
13.09,1.399999976158142,76.0,22.192598342895508,22.0105094909668,-79.78276837525188,40.459007980621145,273.1388075146675,0.008002647198736671,0.009412962943315506,0.9907721877098083,0.13497383892536166,0.04582671610987876,0.12194582158143948,0.12254749446841535,0.054727308452129364,0.015697609633207318,-0.030203057453036312,0.19857703495770693,0.06620662955101579,-9.693822256922724
13.2,1.5,77.0,22.2526969909668,21.350513458251953,-79.7827684522455,40.45900788887558,273.1514858994484,0.00943311769515276,0.009482914581894876,0.990794599056244,0.1347116380929947,0.03358079815242345,0.11946161760162885,0.1252569695260891,-0.06738817691802979,-0.04976792261004448,-0.023035820573568344,0.14819336839020253,0.20352787245064974,-9.75481865644455
13.4,1.5,81.0,22.230159759521484,20.952924728393555,-79.78276865246286,40.4590079073372,273.1751304063797,0.009529940783977509,0.010932163335382937,0.9909147620201112,0.1337076723575592,0.04253139151663903,0.11021008516599154,0.1860643614564669,-0.010355697013437748,0.013597767800092695,-0.02765652909874916,0.1820568234845996,0.17307264972478156,-10.089017436504363
13.49,1.5,78.0,22.22640419006348,21.088104248046875,-79.78276873079703,40.459007833566936,273.19546327924735,0.010424423962831495,0.013831896707415579,0.9909142851829528,0.13337545096874234,0.04716656671820853,0.09569342532206344,0.20803927304625566,0.03933544084429741,0.046581774950027466,0.1097155138850212,0.28326437886804345,-0.03825306038372218,-10.057644785642623
13.7,1.600000023841858,79.0,22.23141288757324,20.984731674194336,-79.78276883633454,40.45900771682084,273.22401289081574,0.015310311689972878,0.01925949193537236,0.9906441569328308,0.13423456251621246,0.028873311700227267,0.09774702932231333,0.2301477298345557,-0.13834938406944275,-0.01600129716098309,-0.01292763464152813,0.292534499745816,0.1384963733609766,-9.92227940440178
13.8,1.600000023841858,78.0,22.18759155273437,21.71629524230957,-79.78276901645063,40.459007938685545,273.23078505134583,0.01929064281284809,0.017852971330285072,0.9904701709747314,0.13519644737243652,0.047093825194190836,0.07186521740482332,0.2289425978920028,-0.0935535803437233,-0.023454297333955758,0.062434930354356766,0.20756636157631875,0.10022034438326956,-9.845524173974992
14.0,1.600000023841858,77.0,22.160045623779297,22.757976531982425,-79.78276912485774,40.45900788142952,273.28081510400773,0.016960060223937038,0.018262214958667755,0.9903391003608704,0.136408731341362,0.02660586337411211,0.03277615312278113,0.2649268907425442,0.022244427353143692,-0.032029025256633765,-0.03923419490456581,0.21664001600816848,0.2850812549516559,-9.95381928563118
14.1,1.600000023841858,76.0,22.251445770263672,20.22931289672852,-79.78276907399172,40.459007989853546,273.2960191760063,0.014728265814483166,0.017415881156921387,0.9903501868247986,0.13669812679290771,1.4003746193714845e-05,0.02650749040856477,0.2840252914597826,-0.028476284816861163,0.002238465240225196,0.02828994393348694,0.2366433590278029,0.11594831295311453,-10.03840510725975
14.29,1.600000023841858,76.0,22.16254997253418,21.024490356445312,-79.78276921915803,40.459008136436466,273.34368536806113,0.013081158511340618,0.014635059051215647,0.9903269410133362,0.13735862076282498,0.020685874580760447,0.00447492100444394,0.2824841436812825,-1.7830439901445058e-05,-0.013164602220058441,0.0816192775964737,0.14384121268987654,0.12796154541894794,-9.867190446853636
14.4,1.5,71.0,22.22515296936035,14.496084213256836,-79.7827692358197,40.45900814584925,273.3723448905945,0.01132787764072418,0.014528123661875725,0.9903799891471864,0.13714264333248138,0.023628532723100625,-0.0035301734209917954,0.2922090604193182,0.0482555478811264,0.03592277690768242,-0.058820534497499466,0.1692437832802534,0.2555315466597676,-9.857613877058027
14.59,1.600000023841858,71.0,22.099946975708008,24.61869239807129,-79.78276918804093,40.459008143527186,273.4174246582985,0.010712203569710256,0.011529874056577679,0.9905910491943359,0.13594768941402435,0.0039357471103909115,0.027957457295832426,0.0727380500380439,-0.003625253681093455,-0.15479250252246854,0.05976884812116622,0.2315861022099853,0.10347725263796748,-8.561461583375934
14.71,1.600000023841858,73.0,22.071149826049805,23.473636627197266,-79.78276920822171,40.45900811597593,273.4220424089432,0.007377427536994219,0.0032631619833409786,0.9907298088073728,0.13560788333415985,0.014487406713516943,0.03586395644638718,0.0374411680918092,0.08945855498313904,-0.1753661036491394,0.10239426791667937,0.1928364944458008,0.05541939832270146,-9.371651784181596
14.89,1.600000023841858,72.0,21.905879974365234,27.46542739868164,-79.7827693208218,40.45900808496036,273.449215868473,0.008891282603144646,0.00015039127902127802,0.9907699227333068,0.13526247441768646,0.02135795539091291,0.05703982655097314,0.19025745705344088,-0.08138017356395721,0.032694343477487564,-0.07047972828149797,0.22599254608154296,0.1722647837921977,-10.487532080411912
15.0,1.600000023841858,72.0,21.91965103149414,26.9167537689209,-79.78276936020458,40.45900803704947,273.47436074352265,0.01281300000846386,0.00386706879362464,0.9907284379005432,0.1351967751979828,0.027104451709438853,0.07307601300838519,0.3153508294800898,-0.048523273319005966,0.045631304383277886,-0.11641982197761536,0.2927104826644063,0.2158215885423124,-10.970602140426635
15.2,1.600000023841858,72.0,21.79820251464844,29.509033203125,-79.78276946512128,40.45900823889164,273.5800156388284,0.017952773720026016,0.012128652073442936,0.9905720353126526,0.1352693885564804,0.020911956421184312,0.08214313773272706,0.6467729124906202,-0.09874634444713593,-0.016489850357174873,-0.044304724782705314,0.33110772259533405,0.2812728172168136,-11.357191972732544
15.29,1.7000000476837158,70.0,21.683013916015625,32.47504425048828,-79.78276953535078,40.459008364679065,273.63684968090064,0.01783216930925846,0.012588108889758587,0.9905755519866944,0.1352176070213318,0.032367975098132135,0.07959398156704778,0.8053316169096669,0.001729535055346787,-0.10758097469806673,0.06624350696802139,0.3751546153798699,-0.030717433802783488,-11.643953461647037
15.5,1.7000000476837158,72.0,21.597875595092773,33.78708648681641,-79.78276953796984,40.45900828204247,273.84533444976813,0.015509605407714844,0.010091230273246763,0.9907267093658448,0.13460421562194824,0.01034917147558555,0.07221484771901496,1.2871009132167457,0.001519450219348073,0.025242364034056664,-0.1229676604270935,0.2883323068544269,0.3754311521351338,-12.21749398112297
15.61,1.7999999523162842,76.0,21.594118118286133,33.0634765625,-79.78276952422858,40.459008431109545,273.96807829475404,0.014918115921318531,0.011140277609229088,0.9907185435295104,0.13464805483818054,0.004566655957000018,0.06574351740105816,1.5161647875266893,-0.007328349631279706,-0.036369666457176215,0.018787870183587074,0.2878798602707684,0.21378443688154225,-12.315222004652025
15.79,1.7999999523162842,76.0,21.516490936279297,35.80683898925781,-79.78276943046238,40.45900857383417,274.2953215036393,0.015032152645289896,0.010995930060744286,0.990729033946991,0.13457034528255465,0.002588517441489468,0.0616174617990353,1.987633443249862,0.04990822076797485,0.00624317629262805,-0.0022886411752551803,0.2690096345543861,0.2772706904634833,-12.292289224863053
15.9,1.8999999761581416,74.0,21.481433868408203,34.622024536132805,-79.78276936736825,40.45900855694635,274.50678912734986,0.013624681159853935,0.01088535226881504,0.9907158613204956,0.13482622802257538,-0.0011297304110041721,0.05757298877760609,2.2419476837121683,0.052624817937612534,0.033645205199718475,-0.04860508814454079,0.30669344108551744,0.37804770804941656,-12.353689666986465
16.09,2.0,73.0,21.789438247680664,27.886871337890625,-79.78276919995756,40.45900871919647,274.9701539669037,0.00849959161132574,0.009584665298461914,0.9904791712760924,0.13706545531749725,-0.011199682354255376,0.051904105699492435,2.685049027576538,0.04550591483712197,0.024672947824001312,0.05739163234829904,0.2940804304741323,0.12230292988009753,-12.144620132446287
16.19,2.0999999046325684,71.0,21.672998428344727,31.4890251159668,-79.78276912435899,40.459008712502964,275.24696747398383,0.007430235855281353,0.010287184268236159,0.990355372428894,0.13796856999397278,-0.02431639901522244,0.04560987774668503,2.8397922870939123,0.006362770684063436,0.09840892255306244,-0.05176904797554016,0.21286691738292576,0.22131771543994547,-11.504378085136414
16.39,2.200000047683716,69.0,21.80070686340332,26.9724178314209,-79.78276894974607,40.45900888923725,275.7797259483337,0.008271594531834127,0.01543530821800232,0.990226149559021,0.13836722075939178,-0.02126223594703989,0.04876230625014828,3.0135329883356605,-0.047920897603034966,0.04941469803452492,0.0020856710616499186,0.1581477596797049,0.10448668305762113,-10.91170430660248
16.49,2.299999952316284,68.0,21.928415298461914,23.95869445800781,-79.78276887219594,40.459008906643575,276.0854784641266,0.011483697220683098,0.017635680735111237,0.9902702569961548,0.13755734264850614,-0.024091466544603715,0.05784799849610199,3.0960308712006275,-0.04091375321149826,0.043353598564863205,0.007260990794748069,0.2290544222854078,0.1492505084350705,-10.656182152032851
16.69,2.299999952316284,65.0,21.9209041595459,26.01025199890137,-79.78276872432687,40.45900915776754,276.62952224349976,0.01738738641142845,0.01987963356077671,0.9904734492301941,0.13514745235443115,0.014863516955438662,0.04609545366988707,3.0859696982701785,-0.01631828770041466,0.05797461420297623,0.004025639034807682,0.2387065673433245,0.09259571221657098,-10.040264521837237
16.8,2.4000000953674316,63.0,21.89210700988769,25.52519416809082,-79.78276856705244,40.459009428773406,276.87033216094966,0.01831030659377575,0.02092746272683144,0.9905348420143129,0.1344156414270401,0.0012305151685309042,0.0185688067619582,3.0518013853274684,-0.04796501249074936,-0.04434330016374588,0.03696437180042267,0.22122430616989733,0.18343926971778274,-10.01822168827057
16.99,2.5,63.0,21.974742889404297,23.688335418701172,-79.7827683122353,40.45900958070899,277.4778427276612,0.016596760600805286,0.01964644156396389,0.9906430840492249,0.13403324782848358,-0.015261971095496409,-0.012577155568464627,3.0490213141189795,0.04786307737231255,-0.06767838448286058,-0.02384990639984608,0.17057256303727628,0.3319549841433764,-9.707198347449305
17.1,2.5999999046325684,60.0,22.004791259765625,24.006404876708984,-79.78276782251682,40.45900972952593,277.8858422431946,0.0132795050740242,0.017336392775177956,0.990662693977356,0.13457603752613068,-0.04959443987176311,-0.03698890558397866,3.0807037356840854,0.010551013983786106,-0.13727355003356936,0.028175614774227142,0.1834044970571995,0.2321295460872352,-9.588902742862702
17.29,2.5999999046325684,56.0,21.915895462036133,25.342304229736328,-79.78276765068642,40.45900975523822,278.57210342025763,0.007708186283707619,0.0126362731680274,0.9905009269714355,0.13670708239078522,-0.08491226454430073,-0.05966568852320376,3.0413361479518564,-0.037621159106492996,-0.09212011843919754,0.030618304386734962,0.16565068753436207,0.2036405409872532,-9.52862028837204
17.39,2.799999952316284,49.0,21.959716796875,23.56905746459961,-79.78276746368516,40.45900983702672,278.87361375427247,0.007751103024929763,0.01129503920674324,0.9902774095535278,0.13843083381652832,-0.08567838856523914,-0.07573259770304215,3.0299900875342165,-0.04269420355558395,-0.021606281399726868,0.0010518055642023683,0.25497037841007114,0.1487934297602624,-9.675469601154328
17.59,2.799999952316284,50.0,21.908382415771484,24.451704025268555,-79.78276772592878,40.459009735449705,279.59614030456544,0.006516024935990572,0.012982349842786787,0.9899702072143556,0.14052771031856534,-0.05767819794115388,-0.03834920162564817,3.0181615768676533,0.014725787565112112,0.035335898399353034,-0.008234747685492039,0.17921672120690346,0.100076585104689,-9.475648022890093
17.7,2.9000000953674316,50.0,21.998531341552734,23.799659729003906,-79.78276759216449,40.45900980756886,279.89637509918214,0.0057332105934619895,0.015305000357329844,0.9899346828460692,0.1405780017375946,-0.0580593256186395,-0.024907270116755014,2.996177820767424,0.07143263518810272,0.007878316566348076,-0.0176946260035038,0.23375454213470226,0.13678291076794266,-9.552372263073922
17.89,2.9000000953674316,48.0,21.97974967956543,23.688335418701172,-79.78276835372752,40.45900971888503,280.64340726470954,0.005581593606621027,0.017344430088996887,0.9901177883148192,0.13904982805252075,-0.007218521034193591,0.03977388465373407,2.995494827235232,-0.04603571817278862,0.014669724740087988,-0.011549300514161587,0.29173337638378144,0.0640582574531436,-9.465932874083519
18.0,2.799999952316284,45.0,21.96096992492676,24.83338928222656,-79.78276831142442,40.459009773347724,280.9413589630127,0.005637995898723602,0.017872363328933716,0.9902630448341372,0.13794207572937012,0.005746235794393783,0.03632838052189424,2.9640630292358976,-0.026467854157090187,-0.006699739024043083,0.011095439083874227,0.23936662662774325,0.090155669124797,-9.451060481071472
18.19,2.700000047683716,48.0,21.90963554382324,24.61074066162109,-79.78276761113015,40.45901041534335,281.63522569274915,0.003990874625742436,0.016605105251073837,0.9906448125839232,0.13539284467697146,0.0006879143505373452,-0.011638610280335521,2.964865097481177,0.04364632070064545,0.0071076410822570315,-0.02557286247611046,0.3786092600226402,0.0616015360923484,-9.652456129789352
18.3,2.9000000953674316,44.0,21.9309196472168,24.45965576171875,-79.78276782347969,40.45901031705029,281.9981216583252,0.0050649228505790225,0.014683928340673447,0.9908244013786316,0.13426057994365692,0.010973313419394438,0.00677341834613282,2.9874036098821346,-0.05262899398803711,0.04993565753102303,-0.017983142286539078,0.3280165554955602,0.06815940314903855,-9.7630872040987
18.49,2.9000000953674316,45.0,21.902122497558594,25.73194122314453,-79.78276776972196,40.4590104893777,282.5942329559326,0.0065346998162567616,0.01292173471301794,0.9909735918045044,0.1332734078168869,0.05193572486780405,-0.018865047893339062,2.9630833331903017,0.06245715916156769,0.04240935295820236,0.04014893248677254,0.25929715353995564,0.05236433321144432,-9.620698147416118
18.6,2.700000047683716,43.0,21.92340850830078,24.141586303710927,-79.7827679552334,40.4590102885103,282.96060124969483,0.00590930413454771,0.012287667952477932,0.9909338355064392,0.13365720212459564,0.0603701452484111,0.027341449141321767,2.9925365839673086,0.013020808808505535,-0.02534104511141777,-0.0057812687009572965,0.2394922504015267,0.21819740362465384,-9.688369143605232
18.8,2.700000047683716,43.0,21.90963554382324,24.65049934387207,-79.78276781289625,40.45901055108139,283.60149518585206,0.006502881646156311,0.010815875604748726,0.9906908869743348,0.13554508984088898,0.0677181596592427,-0.0017421679585960873,3.009354658176917,-0.05830628052353859,-0.03120693564414978,-0.0013491639401763678,0.2535706463456154,0.15559919591993093,-9.733827152252195
18.9,2.700000047683716,44.0,21.87457847595215,25.37411117553711,-79.7827678359333,40.4590106262408,283.90217630004884,0.006953274365514517,0.009414581581950188,0.9906216263771056,0.1361319124698639,0.07423070691772235,-0.0031742805462728198,3.0064630769856944,0.0008905421127565205,-0.054446592926979065,-0.032800402492284775,0.2438312864117325,0.2245165626704693,-9.74944915831089
19.09,2.700000047683716,46.0,21.90087127685547,23.688335418701172,-79.78276813746044,40.45901071901803,284.53898183441163,0.006480574607849121,0.007090005557984114,0.9906412959098816,0.13615316152572632,0.11289351283912212,0.013006680543929916,3.030661413335871,0.039285022765398026,0.04165378585457802,0.008199219591915606,0.254496845304966,0.07447002434637398,-9.905639398097993
19.19,2.700000047683716,45.0,21.91339111328125,24.865196228027344,-79.78276820836166,40.45901076894825,284.8420318756104,0.005854248534888029,0.007019489537924528,0.9906688928604126,0.13598434627056122,0.1100464725920369,0.015038999928860175,3.0247995901509395,0.03971554711461067,-0.002170904539525509,0.05058141797780991,0.249571315292269,0.06520737237296999,-9.773004081845283
19.39,2.5999999046325684,43.0,21.859554290771484,24.61074066162109,-79.78276855588355,40.45901078804003,285.4664005432129,0.009518704377114771,0.007107056677341461,0.9906479716300964,0.13592509925365448,0.12133030989571796,0.043512600357403015,2.994682693770948,-0.04864513874053955,0.0273240189999342,-0.009126693941652777,0.1850190594792366,0.1426293407008052,-9.60896863281727
19.5,2.5999999046325684,48.0,21.915895462036133,24.12568283081055,-79.78276865233497,40.45901080905667,285.7652687225342,0.01157200802117586,0.007418732158839702,0.9906316995620728,0.13586761057376862,0.13100121198987827,0.05493406699928159,2.9821006020192544,-0.03966942429542542,-0.031937118619680405,-0.002393671777099371,0.2121247412636877,0.1786870182864368,-9.656561459898947
19.7,2.5,44.0,21.81447982788086,25.032184600830078,-79.78276886715967,40.45901094675929,286.3987363967896,0.009451701305806635,0.00680224085226655,0.9907339811325072,0.13531677424907684,0.14446373143500196,0.06025691617627873,2.9815246687509704,0.03172897920012474,-0.025565531104803085,-0.019261876121163368,0.17425552317872645,0.20231199877336625,-9.664028939008713
19.8,2.5,44.0,21.845781326293945,24.761823654174805,-79.78276890585222,40.45901108121123,286.72682897186286,0.008497542701661587,0.0058973408304154856,0.9907689690589904,0.1351659595966339,0.12108966559219587,0.04549261187865592,3.012722979901969,-0.0544574074447155,-0.08993612974882126,-0.023225493729114532,0.17371975377202034,0.15103680540807546,-9.775409041643146
19.99,2.5,45.0,21.858301162719727,25.437725067138672,-79.78276907976425,40.45901111637494,287.32934896087653,0.00834044348448515,0.0069699576124548895,0.9908146858215332,0.13478955626487732,0.11561156089609224,0.05128608336704815,3.0037753752533165,-0.022352997213602063,-0.01580228842794895,-0.08509077876806259,0.2411926024407149,0.26780697192996744,-9.732609177231787
20.09,2.4000000953674316,42.0,21.85329246520996,25.93073463439941,-79.78276910689803,40.4590112062504,287.6389555130005,0.0086929090321064,0.008087445981800556,0.9907872080802916,0.13490664958953855,0.1201447427215314,0.05047880409534335,3.0043055179576807,-0.021229127421975136,0.06459575146436691,-0.04337775707244873,0.2658519919216633,0.12340219728648665,-9.800334552526476
20.29,2.5,40.0,21.894611358642575,24.61074066162109,-79.78276925419544,40.45901124446832,288.24820367431636,0.011174841783940792,0.010351971723139286,0.9906109571456908,0.13585977256298065,0.12003019972623866,0.06722212830149879,3.0209291508637968,-0.003919587470591068,0.0971752405166626,-0.02709951996803284,0.2487172380834818,0.1055633838661015,-9.881605002880095
20.4,2.5,39.0,21.89210700988769,24.12568283081055,-79.7827693283615,40.459011253313186,288.5504917297364,0.011461521498858929,0.011236983351409435,0.9905524253845216,0.13619232177734375,0.11682170401455268,0.08177920732662695,3.0189878674549684,0.008020889014005661,0.018714968115091324,-0.047598924487829215,0.2711034311167896,0.2349646234139801,-9.780342337489133
20.49,2.5,39.0,21.94719696044922,23.56110572814941,-79.78276939580645,40.45901125695893,288.85223237609864,0.010389439761638641,0.010693330317735672,0.9905074834823608,0.13664849102497098,0.1072173198019894,0.09061303246196199,3.009262050159007,-0.0027359467931091785,-0.04940532147884369,-0.04141157865524292,0.31458338152617216,0.19471821980550885,-9.72094632089138
20.7,2.299999952316284,43.0,21.858301162719727,24.435800552368164,-79.78276902378636,40.459011417651354,289.4521392974854,0.008889258839190006,0.007949994876980782,0.9903680086135864,0.1379454880952835,0.05232032395605813,0.041431885715036906,2.9753633381289104,0.02398635447025299,0.02513396553695202,0.014881202951073647,0.2424011670984328,0.042639952199533586,-9.714185185432434
20.9,2.299999952316284,42.0,21.89711570739746,23.680383682250977,-79.7827689818625,40.459011541287396,290.06067315673835,0.007721448317170144,0.008973479270935059,0.9903581738471984,0.13802389800548553,0.04306137389405598,0.03170812515144388,2.983169464911636,0.02818751148879528,0.0665573701262474,0.005056154448539019,0.23541465802118186,0.051112668178975584,-9.797521457076073
21.01,2.299999952316284,39.0,21.809471130371094,25.85121726989746,-79.7827689704738,40.45901155652089,290.3585476074219,0.007662647869437933,0.009817258454859257,0.99042546749115,0.13748598098754886,0.037084692165249546,0.03880302872813226,2.9756187452358787,0.028738826513290405,0.06853751093149185,0.05706904828548433,0.21408766983076927,-0.015479685743339359,-9.77800988316536
21.09,2.299999952316284,37.0,21.83952140808105,23.720142364501953,-79.78276912623848,40.45901146870985,290.6588691864014,0.008814247325062752,0.011431067250669004,0.9905147552490234,0.13664691150188446,0.044086865922012684,0.07033610937350851,2.9989521144624267,0.028468793258070942,0.05177518352866173,0.09503421187400818,0.24244103780016305,-0.06185350997373462,-9.983209730386736
21.3,2.299999952316284,32.0,21.79820251464844,25.191219329833984,-79.782769204096,40.459011376339475,291.2582611236573,0.009435380809009077,0.013296815566718578,0.9906840920448304,0.13520103693008426,0.050269983988634685,0.10470835436449404,3.015660671245152,0.020912867039442062,-0.07694759964942932,0.04797388240695,0.2789306784421205,0.07486074169166386,-9.923019661903382
21.41,2.4000000953674316,31.0,21.83075523376465,24.75387191772461,-79.78276921654027,40.45901136264865,291.5604995880127,0.008590500801801682,0.011967523023486136,0.9907599687576294,0.1348251849412918,0.049744321709321485,0.10403359097542232,3.0250142925372834,0.02352360263466835,-0.07977838069200516,-0.006409980356693268,0.28239424008876085,0.0856933664996177,-9.925215876102447
21.6,2.700000047683716,26.0,21.855796813964844,23.56905746459961,-79.78276933897281,40.459011228368475,292.15931741333014,0.008652934804558754,0.012423367239534857,0.9907282590866088,0.13501235842704773,0.030309537143192112,0.11715977954687296,3.0306328529277424,-0.015362215228378773,-0.03436989709734917,0.027095828205347058,0.2413124703615904,0.09489325683563947,-9.899243713617324
21.8,2.799999952316284,24.0,22.11246681213379,19.45003890991211,-79.78276927312305,40.45901113561703,292.75534669494635,0.003372453385964036,0.013458563014864922,0.9905483722686768,0.13646072149276733,0.017635013655858126,0.11777129250195285,2.9472126102032514,0.07319314032793045,0.03876990452408791,0.11049117147922516,0.2797260276786983,-0.1229395089391619,-9.2895732486248
21.91,2.799999952316284,19.0,22.160045623779297,17.811973571777344,-79.78276926372946,40.45901110070022,293.04504815673835,0.0020213155075907707,0.014680076390504837,0.9904139637947084,0.1373339742422104,-0.012287392999455252,0.11089610564986403,2.838050276496584,0.009756184183061123,0.016517406329512596,0.06651068478822708,0.25566164720803497,-0.0012385590467602016,-8.880533616542818
22.0,2.700000047683716,15.0,22.145021438598643,17.788118362426758,-79.7827692491431,40.45901106868411,293.3228878173828,0.0030378291849046946,0.016171367838978767,0.9902999401092528,0.13796861469745636,-0.022086831837159017,0.1105515674520246,2.7092233717233682,-0.018461231142282486,0.029158510267734524,-0.02327457815408707,0.1878141564689577,0.04002745279110968,-8.564828994870187
22.2,2.799999952316284,7.0,22.07740974426269,19.903289794921875,-79.78276927695019,40.45901104480114,293.861751953125,0.003055551555007696,0.018060047179460532,0.9902881383895874,0.13781872391700745,0.00611915157183502,0.10750357979376086,2.470329341330688,0.08247169107198715,0.04642784222960472,0.002873099176213145,0.3095726100727916,-0.08664115447551013,-8.492904149293903
22.39,2.799999952316284,3.0,22.157541275024414,17.907394409179688,-79.78276924290027,40.45901097189723,294.34682313537604,0.004033360630273819,0.01892413012683392,0.9904606342315674,0.13643118739128113,-0.008905578586462477,0.09288097313679458,2.2778288241856988,-0.058963552117347724,-0.013138062320649624,0.036765970289707184,0.27010527485981584,-0.09173777036368848,-8.739531519412996
22.5,2.700000047683716,2.0,22.113719940185547,19.163774490356445,-79.78276923336456,40.45901096578666,294.56889001464845,0.005320293828845024,0.018248533830046654,0.9905887246131896,0.13554593920707705,-0.0010214912093328248,0.0877484437519534,2.1554803418062205,0.004975331015884875,-0.011019504629075529,-0.01105646137148142,0.2860768165066838,-0.02773639535531402,-8.60746279835701
22.7,2.700000047683716,0.0,22.14877700805664,18.84570503234864,-79.78276914991909,40.459010935790964,294.9964412841797,0.006370146293193103,0.015166359022259712,0.9907172918319702,0.13493934273719788,-0.0005364941305114838,0.05590499967099387,1.952008964709568,0.029343599453568462,0.0042856354266405106,0.05633760988712312,0.27808571923524145,-0.09064658856019378,-8.717631942629815
22.79,2.5999999046325684,354.0,22.018564224243164,19.131967544555664,-79.78276908957648,40.45901088715113,295.21071855163575,0.008523981086909771,0.015006664209067822,0.9905869364738464,0.13579262793064115,-0.012290163206369751,0.04886388151025466,1.884599937584552,-0.04240354523062706,0.005917148664593697,0.08576644957065582,0.2323140074685216,-0.1603915373235941,-8.755669249892236
22.89,2.5999999046325684,351.0,22.19510269165039,16.865713119506836,-79.78276904667172,40.459010890182796,295.3950428161621,0.009841037914156914,0.015606124885380268,0.9904491901397704,0.13663870096206665,-0.01848288192313942,0.042666560536292066,1.7989761041482943,-0.0238774698227644,0.028741557151079174,-0.0017400110373273492,0.28485261054709554,0.04316653051413597,-8.871695550084112
23.1,2.200000047683716,343.0,22.061134338378906,20.539432525634766,-79.78276894780734,40.45901090487738,295.76007691955573,0.004239725414663553,0.019507570192217827,0.990304708480835,0.13747072219848633,-0.03688177027001882,0.030669812466123075,1.6250993008227974,0.04772575944662093,0.0002905792207457125,0.014384159818291662,0.28621926929801705,0.10155426786281167,-8.734454966783524
23.2,2.0999999046325684,341.0,21.964725494384766,21.41412734985352,-79.782768875634,40.459010917763045,295.917810836792,0.0008807220146991313,0.020167777314782143,0.9902836084365844,0.1375897079706192,-0.04920967277091567,0.028330665392977718,1.5369748053728536,0.07991261035203934,0.009316461160779,-0.01961412094533444,0.2856099163368345,-0.043355847825296216,-8.929653736352922
23.39,1.7999999523162842,336.0,22.001035690307614,21.14376640319824,-79.78276877521245,40.45901096781135,296.25816766357417,-0.0008347900002263486,0.01780710369348526,0.9902951717376708,0.13783255219459534,-0.07168362451085893,0.007188657291711069,1.4936285886900638,-0.08934393525123596,-0.05500318109989166,0.05963055416941643,0.2730044157430529,-0.06467529402114451,-9.292561760544777
23.49,1.7999999523162842,331.0,22.02357292175293,20.420154571533203,-79.78276869671458,40.45901099881081,296.405302444458,-0.0002152662927983329,0.015613888390362263,0.9903358817100524,0.1378084272146225,-0.056997365848718486,-0.006000982676906873,1.4506792217584819,0.07030579447746277,-0.03781700134277344,0.08320627361536026,0.28275320431217554,-0.21127351457253105,-9.39098969578743
23.7,1.7000000476837158,326.0,22.07615852355957,18.93317413330078,-79.78276856324909,40.45901105160093,296.75411645507813,-0.001249844441190362,0.013376213610172272,0.9904272556304932,0.13738055527210236,-0.05453501629321491,-0.020279961734759454,1.4266692369520104,-0.00626181624829769,0.020573882386088368,-0.035849414765834815,0.263474660217762,0.04935336889699102,-9.29208287358284
23.8,1.600000023841858,326.0,22.88498306274414,4.8505821228027335,-79.78276838909946,40.459011304715226,296.94069520568854,-0.0016354277031496167,0.01280985027551651,0.9904548525810242,0.13723167777061462,-0.0578231265615588,-0.04797047766126439,1.390035410783104,0.020483270287513733,-0.02736472152173519,-0.003476447891443968,0.2459700699895621,-0.10323440132662656,-8.745146600604057
23.99,1.399999976158142,322.0,22.111215591430664,19.354618072509766,-79.78276815387404,40.459011416562774,297.1592487487793,0.0016874157590791585,0.009486035443842413,0.9950948357582092,0.09845516830682756,-0.10735648662627176,-0.06841740844547048,0.8275981130365371,0.031007409095764164,-0.07513485103845596,-0.8623447418212891,0.17804077304899693,-0.19342909147962928,-7.388645778894425
24.19,1.399999976158142,320.0,22.04861259460449,20.610998153686523,-79.78276785247259,40.459011424984666,297.2832492980957,0.002584782661870122,-0.00332550797611475,-0.9999444484710692,0.009670496918261051,-0.14011322643508292,-0.05402888792901151,0.5343602396432345,0.012010956183075905,-0.043915830552577965,-1.3139680624008179,0.11403101094067095,0.039446458825841545,-8.309590430259705
24.3,1.2999999523162842,308.0,22.022319793701172,20.181602478027344,-79.78276777430429,40.459011375330356,297.29056016540534,0.004664010833948851,-0.0034989698324352503,-0.9970356225967408,0.07672011852264404,-0.14572424364556513,-0.03431839334335274,0.4387970286777214,0.0932200253009796,-0.0010340433800593019,-1.3957409858703607,0.15411151807755233,-0.1855491278506816,-8.7725519156456
24.39,1.2000000476837158,298.0,22.028579711914066,20.603046417236328,-79.78276760642727,40.45901140752253,297.33155671691895,0.007073470391333103,-0.004199175629764795,-0.9887937307357788,0.14906145632266998,-0.14434113953697136,-0.005189749871469916,0.3856926128879365,0.07993315160274506,0.008222222328186035,-1.5417194366455078,0.1326194191351533,-0.06157337809447199,-9.12152719438076
24.6,1.100000023841858,303.0,22.057376861572266,19.561363220214844,-79.78276740141888,40.45901134073885,297.34550897216803,0.011278560385107994,-0.0057234070263803005,-0.9540842175483704,0.2992713749408722,-0.10975500634972796,0.04948694222981085,0.3325880172522556,0.03944605961441994,-0.002113057766109705,-1.6994396448135376,0.1666935932636261,0.11833046860992907,-9.57145172774792
24.79,1.100000023841858,306.0,22.028579711914066,20.141843795776367,-79.7827671777658,40.45901111212589,297.3574165496826,0.01468789018690586,-0.005946082063019276,-0.8935497999191284,0.4486845135688782,-0.02832130287911697,0.07324110603382583,0.2907669297752247,0.06409317255020143,0.001035246881656349,-1.6165391206741333,0.14453289262019098,0.13962845826521514,-9.519959392547607
24.9,0.8999999761581421,291.0,21.95345687866211,21.978702545166016,-79.78276716624067,40.45901105942809,297.3852485809326,0.016181651502847668,-0.004988844506442547,-0.8547254800796509,0.518804132938385,0.021768125547975185,0.06788915725523642,0.26779718807730224,0.08710578829050064,-0.035900764167308814,-1.564474105834961,0.11986738183535635,0.11258506760001184,-9.572569130659103
25.1,1.0,284.0,21.93467712402344,21.65267944335937,-79.78276707073267,40.459010658746436,297.43349687194825,0.019212422892451286,-0.003622025484219194,-0.761333703994751,0.6480653882026672,0.11856873859254576,0.028347059222201317,0.3018576379665012,0.11464276909828185,0.031459923833608634,-1.5671180486679075,0.15722358897328378,0.09435534954071044,-9.821707295179367
25.2,0.8000000119209291,302.0,21.9497013092041,21.52545166015625,-79.78276710068577,40.45901052848236,297.464462677002,0.01950535736978054,-0.002612331649288535,-0.7100872993469238,0.7038386464118958,0.1699569891217774,0.00280252964096335,0.32468376852516906,0.11447606235742568,-0.03045550175011158,-1.3858544826507568,0.08778574693948031,0.16808872064575553,-9.960164684057236
25.29,0.8000000119209291,311.0,21.99602699279785,21.119911193847656,-79.78276723998644,40.45901019541101,297.4784759674073,0.02003427036106586,-0.0014584655873477461,-0.6627996563911438,0.7485273480415344,0.21421288002786,-0.04274636019669999,0.3835834844830303,0.017607012763619426,0.012821067124605179,-1.2103819847106934,0.10835765859112144,0.2750934797152877,-9.985826944112778
25.5,0.8000000119209291,305.0,21.950952529907227,21.24713897705078,-79.78276738716576,40.45900969869931,297.5556759033203,0.019256278872489933,-0.00150146777741611,-0.5949991941452026,0.8034942150115967,0.2998944851502691,-0.12310868618724785,0.4077021397915677,0.022687898948788643,-0.040955550968647,-0.4811813235282898,0.13370073376223446,0.006328843496739864,-9.914826543331149
25.6,0.8000000119209291,309.0,21.706802368164066,25.668325424194336,-79.78276717587994,40.45900925830537,297.47120515441895,0.01628103293478489,-0.0017782734939828515,-0.5773074626922607,0.8163626194000244,0.310695934768808,-0.1151725627379274,0.36973092055657,-0.1695076823234558,-0.1991964131593704,-0.4207473695278168,0.4169965962320567,0.2182342410832644,-9.85488673567772
25.79,0.8000000119209291,328.0,21.82699966430664,23.219179153442386,-79.7827675155431,40.45900826653629,297.37329904174806,-0.04159168154001236,0.004871050827205181,-0.5642810463905334,0.8245201110839844,0.35589605755863224,-0.06289531741890582,0.3634400253459029,-0.2187133580446244,-0.7500942349433899,-0.01707771234214306,0.2923217524588108,0.19126209508627653,-10.21312575817108
25.89,0.8000000119209291,338.0,21.858301162719727,22.272918701171875,-79.78276737991251,40.459007964120865,297.412870803833,-0.06800287216901779,0.02166616357862949,-0.565010130405426,0.8219913244247437,0.3694859169364624,0.01228296573130977,0.40677816016679547,0.0949024111032486,-0.4730497598648071,0.10732394456863403,0.10089511306956413,0.21143162693828346,-10.307374688386918
26.1,0.8999999761581421,336.0,21.82699966430664,24.714113235473643,-79.7827669138762,40.459007512276585,297.40634767150885,-0.09099830687046052,0.05100167915225029,-0.5736866593360901,0.8124050498008728,0.33382187595627,0.2767990578849647,0.5066650075406021,0.09600094705820084,-0.21713580191135406,0.1835595965385437,0.001025023756083101,-0.08430359297432005,-10.40396718263626
26.19,1.0,339.0,21.858301162719727,23.847370147705078,-79.78276625891046,40.459007400798335,297.45476190185553,-0.09676693379878998,0.05673142895102501,-0.5786501169204712,0.8078254461288452,0.3047566648466278,0.4824710125385862,0.6159205409205882,-0.0256116446107626,-0.13900268077850342,0.1016739457845688,-0.021068449895828963,0.08471047695726157,-10.519365491867068
26.4,1.100000023841858,355.0,21.86080551147461,24.51531982421875,-79.7827645820018,40.45900739561853,297.48852960205085,-0.10569629818201064,0.05496063083410263,-0.5863913893699646,0.8012195229530334,0.2538849369245645,0.8936461462593225,0.7687081262106946,-0.08872747421264647,-0.08957589417695999,0.07724050432443619,-0.04524760938249529,0.12716924769803886,-10.367310987710953
26.59,1.100000023841858,0.0,21.87708282470703,23.131710052490234,-79.78276195234636,40.45900767207689,297.5212997589112,-0.10837657004594804,0.052287526428699486,-0.5906389951705933,0.797913670539856,0.2106652841675056,1.3187294572652348,0.8814502291462882,0.05015181005001068,0.011389562860131264,-0.012531865388154984,-0.008580725016072394,0.22049322148785,-10.26310775756836
26.69,1.2999999523162842,6.0,21.90462684631348,23.17942047119141,-79.78276008637017,40.459007957568005,297.5768188629151,-0.10875855386257173,0.05310661345720291,-0.5911059975624084,0.7974616885185242,0.17729942068449656,1.5435665262806149,0.939006958027254,-0.003600094001740217,-0.04036858677864075,0.04207846149802208,-0.06910677085630595,0.09258875037543476,-10.158489375114444
26.8,1.5,12.0,21.711811065673828,26.38398551940918,-79.78275854030585,40.459008329652775,297.5313667449951,-0.11060182005167007,0.05359696969389916,-0.5904417634010315,0.7976672649383545,0.14243814104947788,1.7289640728565452,0.9358897301872932,-0.07077258080244064,-0.00884038582444191,-0.04243426769971848,-0.14300223774276674,0.2434761228784919,-10.130621545314787
27.0,1.8999999761581416,20.0,21.835763931274414,24.006404876708984,-79.78275366431788,40.45900931851685,297.64128724670417,-0.11537512391805647,0.05218777060508728,-0.586303174495697,0.8001335859298706,0.09425212254527823,2.1579509760034536,1.1567903871295675,-0.06718669086694717,-0.0505061000585556,-0.029282683506608013,-0.16361956581473353,0.15038050113245846,-10.533956633806227
27.1,2.0999999046325684,23.0,21.829504013061523,24.18929672241211,-79.78275132610584,40.45901004924141,297.6235756072998,-0.12040707468986513,0.052492473274469376,-0.5832129120826721,0.8016293048858643,0.07065267923037502,2.3528305360780637,1.1912573508819189,-0.08994968235492706,-0.18304593861103052,-0.008884584531188011,-0.2462288823723793,0.1981375801563263,-10.31304765701294
27.3,2.5,28.0,21.778169631958008,24.809534072875977,-79.78274566852372,40.459011773219736,297.6584076080323,-0.13364914059638974,0.05719099566340447,-0.5768268704414368,0.8038270473480225,0.017378212613883427,2.740490468253653,1.3399575638073409,-0.08336938172578813,-0.026868648827075958,-0.1741604506969452,-0.3159889790788293,0.4519359755516053,-10.156557455062867
27.49,2.700000047683716,27.0,21.87958526611328,22.69436264038086,-79.78273844921914,40.45901373374125,297.7701877746582,-0.13509178161621094,0.06143625825643539,-0.5721932053565979,0.8065796494483948,0.0028975815117511586,3.1918445102582664,1.5339335375439245,0.0194422397762537,-0.02688329666852951,-0.08068127930164337,-0.3416673555225134,0.17213864838704468,-10.122896203994749
27.6,3.0999999046325684,32.0,21.838268280029297,23.44978141784668,-79.78273510065222,40.459015308837145,297.7526382598877,-0.13373993337154388,0.06314821541309358,-0.570320725440979,0.8079977631568909,-0.05307852489498746,3.3841238440567265,1.5316942500995707,0.14584918320178986,0.013820945285260677,0.08895047754049301,-0.4525025707483292,0.13303280814550816,-9.882420104742053
27.69,3.4000000953674316,35.0,21.850788116455078,23.091951370239247,-79.78273092053725,40.45901655592022,297.8000587615967,-0.13365527987480166,0.0632270872592926,-0.568928599357605,0.8089863061904907,-0.08057066950172842,3.6233587226929975,1.5812179639265127,0.01999827101826668,0.04075287654995918,-0.10115835815668106,-0.463345610909164,0.3963779982179403,-9.810964790582656
27.9,3.9000000953674316,37.0,21.8282527923584,24.05411529541016,-79.7827225755199,40.45901991854785,297.83576432800294,-0.13761508464813232,0.06243469938635826,-0.5655157566070557,0.8107749223709106,-0.1549797600266899,4.029949950983843,1.6218408010999334,-0.08407759666442871,-0.11514554172754288,-0.014559130184352396,-0.6864232103526593,0.18408014282584192,-9.606854864358905
28.09,4.099999904632568,35.0,21.83325958251953,22.78183174133301,-79.782712704137,40.459023669471726,297.89643899536134,-0.14056089520454407,0.06703430414199829,-0.5638076066970825,0.811091959476471,-0.2232464121174944,4.4469420808185935,1.7222892353201065,0.17891237139701846,0.017881762236356742,-0.06086729839444161,-0.6265496955066919,0.2643800467438996,-9.602962957620619
28.19,4.599999904632568,40.0,21.888351440429688,21.779909133911133,-79.78270744022397,40.459025443498376,297.9251445922852,-0.14190401136875153,0.06877615302801132,-0.5632162094116211,0.8111231327056885,-0.2639388472658322,4.664939261347893,1.7839501039010957,-0.086641825735569,-0.1271129846572876,-0.05032898113131523,-0.8306810371577741,0.25314977472648026,-9.617677475810051
28.29,4.699999809265137,43.0,21.859554290771484,23.5849609375,-79.7827019190744,40.45902776246752,297.9595131072998,-0.14236760139465332,0.070457823574543,-0.5625365376472473,0.8113691210746765,-0.3099145143148567,4.854166791708645,1.8459391235972624,-0.034056350588798516,0.06718894839286804,-0.034957002848386765,-0.5264522340148687,0.26370356043800713,-9.705054173469543
28.5,5.099999904632568,45.0,21.950952529907227,21.477741241455078,-79.78268388673459,40.459034461567136,298.030546585083,-0.13920457661151886,0.0778021290898323,-0.5650865435600281,0.8094727993011475,-0.4327721432315884,5.4873284223317444,2.006243001754948,0.09270507097244264,-0.04172386974096298,0.11757560074329375,-0.7949204894900322,0.09513089133426547,-9.740278970003127
28.69,5.300000190734863,45.0,21.7744140625,23.78375625610352,-79.78267749791695,40.45903671975689,298.0458778533936,-0.13879451155662534,0.07806597650051117,-0.5653173923492432,0.8093566298484802,-0.4694788418944299,5.711926129273852,2.0480056943003606,-0.13753563165664673,-0.016778115183115002,-0.10467010736465454,-0.8978540698438884,0.2872340718470514,-9.692472134828568
28.79,5.599999904632568,47.0,21.83075523376465,21.39027214050293,-79.78267077995434,40.459039629025476,298.0794605407715,-0.13848909735679624,0.07608379423618318,-0.564408004283905,0.8102318644523621,-0.5072132560080143,5.891732724243716,2.119009101208245,0.03956875577569008,0.08687242120504379,-0.06887555867433548,-0.8791791594028473,-0.016095319893211127,-9.7768264067173
28.99,5.800000190734862,48.0,21.72683525085449,24.523271560668945,-79.78265692619475,40.45904460075652,298.103622833252,-0.14074866473674774,0.07727764546871185,-0.5627425312995911,0.8108876943588257,-0.5171170435812883,6.319760420082334,2.1621564028589164,-0.01866618171334267,-0.10407312214374542,0.004604753106832504,-0.961612913310528,0.2635515145584941,-9.562687920928004
29.1,6.199999809265138,48.0,21.84703254699707,22.93291664123535,-79.78264948354321,40.45904766207233,298.13363496398927,-0.14231052994728088,0.07794975489377975,-0.5616745352745056,0.8112910985946655,-0.5549093859996613,6.457829079062731,2.274051376236506,0.007900740019977094,-0.05864978954195976,-0.09709812700748444,-1.2075576210021974,0.15834312977269294,-9.651831647157671
29.19,6.4000000953674325,48.0,21.816984176635746,21.98665428161621,-79.78264207075465,40.459050355950716,298.1431907806397,-0.13888923823833466,0.07486160099506378,-0.5613877177238464,0.8123726844787598,-0.5523460933945465,6.626778491990036,2.3444132721064674,0.016678161919116974,0.2601889371871948,-0.04638401418924332,-1.3044934929907324,0.11812809099443256,-9.773740831017497
29.39,6.599999904632568,49.0,21.88709831237793,22.400146484375,-79.7826265689429,40.45905650029354,298.1817897949219,-0.11195182055234908,0.05676813423633576,-0.5631591081619263,0.8167594075202942,-0.5976052155621475,7.009080661691444,2.15701546942689,0.05585406720638275,0.33469682931900024,-0.03122687339782715,-1.3101249463856222,-0.04186398100107908,-9.603195092082023
29.49,6.800000190734862,50.0,21.84703254699707,23.60086441040039,-79.78261869725834,40.45905941771243,298.1878761444092,-0.09999759495258333,0.04903535172343254,-0.5648444294929504,0.8176472187042236,-0.6348042958054683,7.197556814799928,1.8982451818862065,-0.0266932100057602,0.20582297444343567,0.13652047514915466,-1.277260816991329,0.12343288603238765,-9.463302211761476
29.69,7.300000190734862,56.0,21.928415298461914,20.905214309692386,-79.78260217489934,40.459066003626866,298.20413629150386,-0.08789898455142975,0.04219794273376465,-0.5668854713439941,0.8180060982704163,-0.7368325301618258,7.4596309788823465,1.6116548829948176,0.033917054533958435,0.03619581088423729,0.030035194009542462,-1.2764506852626798,0.09358636759221554,-9.795991240739825
29.89,7.599999904632567,58.0,21.93342399597168,20.507625579833984,-79.78258543448213,40.45907271625735,298.21578828430177,-0.08607539534568788,0.047582775354385376,-0.5675879120826721,0.8174172043800354,-0.8217988044568083,7.601997470903842,1.5310350498631735,0.014395494945347309,-0.1377011388540268,0.19728083908557886,-1.4591767591238023,-0.21673660470172765,-9.486475896835328
30.0,8.0,59.0,21.88960266113281,21.660633087158203,-79.782577191298,40.459075885356285,298.2161468658448,-0.08726242184638977,0.05031896010041237,-0.5671080946922302,0.8174605369567871,-0.8423114640697766,7.6556289827004775,1.5252513558687648,0.07399024069309235,0.08812737464904785,0.06896807998418808,-1.3484623619914056,-0.2017166243121028,-9.40794662117958
30.09,8.199999809265138,59.0,21.915895462036133,21.620872497558594,-79.78256822956958,40.4590795396425,298.2190307769776,-0.08673455566167831,0.04974648728966713,-0.5664018392562866,0.8180412054061891,-0.8775465650422346,7.722957272714884,1.5619205787673835,-0.011478136293590069,0.010340901091694832,0.10272189974784852,-1.6448531918227671,-0.056524631716310975,-9.411449688076974
30.3,8.5,60.0,21.970985412597656,19.58521842956543,-79.78255099559233,40.459086512257926,298.20039025878907,-0.0851876437664032,0.04742026329040527,-0.5653061866760254,0.8190991282463074,-0.8997849626334892,7.859746641496621,1.5209236222761628,-0.012372446246445179,-0.014361714012920856,-0.12057606130838396,-1.3183689357340336,-0.06052307198289782,-9.545887700915335
30.49,8.699999809265138,60.0,22.008546829223643,19.76015853881836,-79.78253406168409,40.45909318479821,298.18503419494635,-0.08994581550359726,0.04122263938188553,-0.563671350479126,0.820051908493042,-0.9124760630114406,7.923323654467237,1.4841649488593456,-0.12282513827085495,0.069158636033535,-0.0182334128767252,-1.5619026902318,-0.05947035846300424,-9.324879321455956
30.6,8.899999618530273,61.0,21.89961814880371,21.501596450805664,-79.78252494070142,40.459096880668966,298.1583522949219,-0.0892276018857956,0.03802772983908653,-0.5630289316177368,0.8207258582115173,-0.9057673656579344,7.990190771027057,1.4401208040571007,0.021065043285489082,0.05703078210353851,-0.029855437576770782,-1.5400189009308816,0.13380513397045435,-9.208716781139373
30.69,9.0,62.0,21.94344139099121,21.50954818725586,-79.78251638565375,40.45910028902071,298.13992349243165,-0.08495581895112991,0.039532560855150216,-0.5627050995826721,0.8213298320770264,-0.9107358447904098,8.032865934623487,1.3821752767732849,-0.018094781786203384,0.06303595751523973,-0.057500462979078286,-1.4495135043561458,0.2885557618550956,-9.367403197288514
30.9,9.300000190734863,63.0,22.04610824584961,19.17172622680664,-79.78249864479284,40.45910765397532,298.10425225830085,-0.07701871544122696,0.04473646730184555,-0.5627537369728088,0.8218121528625488,-0.9498928168748606,8.123611228229215,1.2891510349097524,0.004082872997969389,-0.0585515983402729,0.09572798013687134,-1.5982182848453523,-0.05097746958956122,-9.386601945161821
30.99,9.399999618530273,62.0,22.01605987548828,19.704496383666992,-79.78249001668429,40.4591111398622,298.08127633666993,-0.07570245862007141,0.04596788436174394,-0.5628559589385986,0.8217964768409729,-0.9466498105501016,8.143361618336206,1.2205585936948569,0.19502711296081546,0.0662308931350708,-0.15139372646808624,-1.414680763632059,0.16135210694745186,-9.33747890174389
31.2,9.600000381469727,63.0,21.981002807617188,19.418231964111328,-79.78247221108279,40.45911845289196,298.02136842346187,-0.07346611469984055,0.04530571401119232,-0.5635369420051575,0.8215693831443787,-0.9691658492800104,8.179910898485623,1.2007182020284932,0.0723036453127861,0.11858784407377244,0.05006984248757362,-1.8402048660814765,-0.12541464446112513,-9.610078434348107
31.4,9.5,64.0,21.87332534790039,21.55725860595703,-79.782454343664,40.45912574024271,297.9558109436035,-0.07025115936994553,0.0455428771674633,-0.5646936893463135,0.8210430741310121,-0.9864253897549884,8.219678261808781,1.1511825321239957,0.06561798602342606,0.01988568529486656,0.0992681011557579,-1.840279418081045,0.12186444352380932,-9.573495329618458
31.5,9.600000381469727,64.0,22.00979995727539,19.418231964111328,-79.78244563750245,40.45912926090361,297.9291233215332,-0.06765107065439224,0.04505635425448418,-0.5654588341712952,0.8207615613937378,-1.00626809853409,8.220477448383381,1.1255485237247589,0.031574152410030365,-0.009568497538566593,-0.2206289917230606,-1.5858821216225625,0.3800140535831452,-9.645735924839977
31.7,9.600000381469727,66.0,21.968481063842773,19.74425506591797,-79.78242773815185,40.45913658128496,297.8485092315674,-0.06625466793775557,0.04403937980532646,-0.5665591955184937,0.8201716542243958,-1.0331880026050488,8.228148858963092,1.0489452395276404,-0.04045753926038742,-0.04130386561155319,-0.08549442887306212,-1.9483147671818728,0.1277203295007348,-9.443111776113511
31.89,9.600000381469727,66.0,21.970985412597656,20.2531681060791,-79.78240991417829,40.45914386713276,297.75580827331544,-0.06428370624780655,0.04050189256668092,-0.567007303237915,0.8202012777328491,-1.0396543462515355,8.241405959884222,0.9925505571111841,0.00433611124753952,-0.012222304008901121,0.19781894981861115,-1.7578906877338891,-0.17001029843464496,-9.595035302639008
32.0,9.600000381469727,66.0,22.018564224243164,18.766185760498047,-79.78240121217685,40.459147381893494,297.72457162475587,-0.06291959434747696,0.0381413958966732,-0.5670338869094849,0.8204017281532288,-1.0387168980712829,8.226702116486328,0.9416095682273788,0.007498293649405241,-0.01998309604823589,-0.08495534211397171,-1.5397753643989565,0.15696262042969467,-9.50584362924099
32.1,9.600000381469727,66.0,21.954710006713867,20.571239471435547,-79.78239196151057,40.45915117208093,297.6539787445068,-0.06063346937298775,0.03705994039773941,-0.5671278834342957,0.8205584883689879,-1.035203319853154,8.241500642975268,0.8778439420248307,0.026519354432821274,0.202058345079422,-0.004003555979579687,-1.5446298690140248,-0.0763052415009588,-9.630064802169802
32.31,9.699999809265137,68.0,22.03984832763672,17.637035369873047,-79.78237409110099,40.45915843961848,297.5512432250977,-0.05226399376988411,0.03389010950922966,-0.566661536693573,0.8215928673744202,-1.0317013890481908,8.236522601406351,0.7866111884035303,-0.059515893459320075,0.08904898911714554,0.013089570216834543,-1.4521671169996262,-0.24647638404741884,-9.895368179082867
32.4,9.600000381469727,68.0,21.992271423339844,19.092208862304688,-79.78236544374342,40.45916193993371,297.5188640747071,-0.049881789833307266,0.03139113634824753,-0.5665348768234253,0.8219274878501892,-1.025108386547843,8.191546873481888,0.7029472911430207,0.0653538778424263,-0.03326718136668205,-0.062263939529657364,-1.6839386124908926,0.11132133811712264,-9.736966522336006
32.6,9.600000381469727,68.0,22.004791259765625,20.68256378173828,-79.78234785332178,40.459169228804576,297.41106072998053,-0.0479549914598465,0.02976106479763985,-0.5665509700775146,0.8220916390419006,-1.026340210061422,8.138318110782201,0.5986584748590635,0.11357215791940688,0.11752589046955107,0.11901961266994475,-1.6555766929686069,-0.06397783996537328,-9.696756974458696
32.79,9.600000381469727,68.0,21.945945739746094,19.56931495666504,-79.7823302284048,40.459176387786066,297.29751817321784,-0.04354231059551239,0.030391352251172062,-0.5661261677742004,0.82260662317276,-1.0181847211721988,8.091190925849974,0.5231448842795227,0.02564212679862976,0.06018147245049476,0.0381304919719696,-1.4190996506810192,-0.16521017292514445,-9.811462973356248
32.91,9.5,71.0,21.948448181152344,19.8635311126709,-79.78232176283365,40.459179830800146,297.2612785491944,-0.041547402739524834,0.029828613623976707,-0.5656761527061462,0.8230398893356323,-1.0067019578263476,8.037802236907332,0.4924643716626682,0.06352619081735611,0.00043363659642636776,-0.021164897829294205,-1.5572282798588275,-0.03007449132855982,-9.759160214066505
32.99,9.5,71.0,21.970985412597656,19.22739028930664,-79.7823133513217,40.459183253356926,297.2257770690918,-0.03957705572247505,0.02837742306292057,-0.5650168657302856,0.8236410021781921,-0.9990124246963844,7.9851916790977695,0.4629440511121152,-0.10716142505407332,-0.02306818030774593,0.08564024418592453,-1.604001765847206,-0.044295171042904265,-9.751299802064898
33.2,9.399999618530273,71.0,21.92340850830078,21.056297302246094,-79.78229603605328,40.459190254038894,297.10759584045417,-0.037959858775138855,0.02447841502726078,-0.5631575584411621,0.8251142501831055,-0.9190561222155464,7.913199193728911,0.3917719125832271,0.016233693808317184,0.06942383944988251,-0.20349237322807312,-1.3302880463004112,0.11369858759455385,-9.80570814371109
33.3,9.399999618530273,71.0,21.964725494384766,20.507625579833984,-79.78228734430601,40.459193791919354,297.0256542358398,-0.0358164943754673,0.022600535303354263,-0.5622050166130066,0.8259128332138062,-0.8787109727769649,7.856012550794635,0.3707019294877893,0.07505464553833008,0.14061279594898224,0.22334201633930206,-1.5864161185920242,-0.15537298176437614,-9.963333874940874
33.5,9.399999618530273,72.0,21.978498458862305,19.720399856567386,-79.7822709861822,40.45920038307693,296.9614662322998,-0.03556189686059952,0.01971662603318692,-0.5602712035179138,0.8273106217384338,-0.834455366529147,7.734734177817995,0.31208211639915506,0.05551973357796669,0.035388365387916565,0.02493330463767052,-1.3368306420743463,0.010895454967394472,-9.81827497959137
33.7,9.300000190734863,73.0,21.90713119506836,20.897262573242188,-79.782254335635,40.459207066163664,296.84548989868165,-0.043578874319791794,0.02159327082335949,-0.5586004853248596,0.8280097842216492,-0.7866954963634759,7.629925859638977,0.34836011114792703,0.03669600933790207,0.022985903546214104,0.17146843671798706,-1.4740216702222826,-0.03425920195877552,-9.814804072380069
33.8,9.300000190734863,73.0,21.96973419189453,18.6787166595459,-79.78224576716248,40.459210567045716,296.7701324615478,-0.05025634914636612,0.024743394926190376,-0.5583209395408629,0.8277317881584167,-0.7774942668729926,7.622495399347999,0.4184576506238293,-0.1186164692044258,-0.19550402462482447,0.02173854969441891,-1.4689262603223323,-0.11255173847079278,-9.839575216770172
33.89,9.199999809265137,73.0,21.908382415771484,21.883281707763672,-79.78223779842322,40.45921377565081,296.73698274230964,-0.05481573566794395,0.027260247617959976,-0.5587825775146484,0.8270514607429504,-0.7779791573368101,7.576210744992774,0.5245141406695397,-0.005833530332893133,-0.029584601521492008,0.1957653909921646,-1.4925222605466844,-0.10910235632210973,-9.70711882531643
34.1,9.100000381469727,70.0,21.994773864746094,20.913166046142575,-79.78222153708424,40.45922045746649,296.625761428833,-0.053532104939222336,0.02515660785138607,-0.5601345896720886,0.8262873888015747,-0.8077734254775595,7.506062765422247,0.6187150504424035,0.01435863971710205,0.010351855307817459,0.21985331177711487,-1.4599520999193192,-0.0222926786961034,-9.95021272301674
34.29,9.100000381469727,71.0,21.823244094848643,23.0203857421875,-79.78220535768858,40.459227088508136,296.51280633544917,-0.0588674359023571,0.026080645620822903,-0.5606313347816467,0.8255586028099059,-0.8492634776542716,7.474286659008926,0.6324417395920165,0.01467796228826046,-0.07424002140760423,-0.07279001921415329,-1.204292462691665,-0.022638847567141056,-10.032175483703616
34.4,9.0,70.0,21.8670654296875,21.12786293029785,-79.78219752819,40.45923029735372,296.4870456848145,-0.05992063507437706,0.03162434697151184,-0.5618664026260376,0.8244487643241882,-0.8488567497626569,7.450473026857037,0.7325609690869435,0.28095543384552,0.08219728618860245,-0.015862513333559036,-1.4516895456612111,-0.005109424944967032,-10.15824963927269
34.5,9.0,71.0,21.96722984313965,19.87943458557129,-79.78218970917042,40.4592335169862,296.4652256164552,-0.05824524536728859,0.03867239877581597,-0.5635694265365601,0.8231047987937927,-0.9090755917503199,7.4437140490969504,0.8195393224915188,-0.012067893519997595,0.10243605077266693,-0.0921449363231659,-1.1610715256631374,0.16614289518445732,-10.152525215148929
34.7,8.899999618530273,69.0,21.975994110107425,19.24329376220703,-79.7821736725684,40.45924013962849,296.3739418182373,-0.0540066584944725,0.042608119547367096,-0.5658817291259766,0.8216117620468141,-0.9374472674208854,7.421114184511308,0.8465208276615677,0.047891784459352486,-0.049488894641399384,-0.10732747614383698,-1.4056129015982153,-0.07665372641757133,-9.795134623646737
34.79,8.899999618530273,69.0,21.981002807617188,18.638957977294922,-79.78216556045084,40.459243540199225,296.30795899963385,-0.05612681806087494,0.04314591363072395,-0.5663251876831055,0.8211357593536377,-0.9340019227348204,7.422377059611473,0.7923342108024597,-0.08275801688432692,-0.009564093314111231,0.02084684185683728,-1.2018019873648882,0.014649792253039778,-9.718732565045356
35.0,8.899999618530273,69.0,21.96347427368164,19.108112335205078,-79.7821499192635,40.45924989110779,296.2653831634522,-0.058312747627496726,0.03747999668121338,-0.5646255612373352,0.8224310278892517,-0.9246250648670821,7.406512333950525,0.8753495829049387,-0.011521306820213795,-0.0473535992205143,-0.0874205082654953,-1.4266247248649595,0.2164271773584187,-9.821018493175506
35.19,8.899999618530273,69.0,21.91965103149414,19.648834228515625,-79.7821339959969,40.459256399319614,296.19426576232917,-0.06551145017147064,0.039063971489667886,-0.5597594380378723,0.8251373767852783,-0.8425851940357862,7.416851349696113,0.8663737145098447,0.0051087490282952785,-0.18073365092277527,0.06643670797348022,-1.4917356638610364,0.034629490594379614,-9.770711973309515
35.3,8.800000190734863,68.0,21.954710006713867,19.21943664550781,-79.78212592557057,40.459259719057286,296.1495651397705,-0.0696907490491867,0.041209492832422256,-0.5576087832450867,0.8261461853981018,-0.7914982460476585,7.4091540964043965,0.9570683948565526,-0.030281370505690575,-0.18736498057842246,0.11252623796463013,-1.6318533696234228,-0.2919218029081821,-9.679110662341117
35.39,8.800000190734863,65.0,21.868318557739254,22.583038330078125,-79.78211807650813,40.459262871082686,296.1305393371582,-0.0717139020562172,0.04182736575603485,-0.5563130378723145,0.8268153071403503,-0.7463980088406337,7.424829427435587,1.0295163516945012,0.05630441382527353,0.09543219208717346,-0.006315525155514479,-1.3577863320708277,-0.0112830522749573,-9.77663227915764
35.59,8.800000190734863,65.0,21.76690101623535,22.93291664123535,-79.7821021043094,40.45926931314745,296.0814136657715,-0.06741952896118164,0.04343902692198754,-0.5558984279632568,0.827372133731842,-0.6912851345955733,7.442803256149117,1.1214055566516279,-0.0029611305799335237,0.002800435991957784,0.10356086492538452,-1.4207643529772758,-0.057598472870886326,-10.13043326497078
35.8,8.800000190734863,64.0,21.849536895751953,22.185449600219727,-79.78208601540217,40.459275714246026,296.03886262512214,-0.06424716114997864,0.039956871420145035,-0.5562532544136047,0.8275614976882935,-0.656897858814454,7.46595312778084,1.125635093661958,-0.08514435589313507,-0.003537473967298865,0.054092779755592346,-1.5473739673197269,0.038728320244699715,-10.239400806427005
35.9,8.899999618530273,64.0,21.83952140808105,21.45388603210449,-79.78207806069493,40.459278826799604,296.03564111328126,-0.06455698609352112,0.038144972175359726,-0.5564180016517639,0.8275122642517091,-0.6380390911482022,7.4669174667597185,1.1285659759150946,0.0771583542227745,-0.07330011576414107,0.2580023407936096,-1.5588992679119111,0.007970211748033763,-10.031726417541504
36.09,8.899999618530273,65.0,21.898366928100586,21.445934295654297,-79.78206188296332,40.45928522448004,296.00734178161616,-0.06478419899940491,0.03401445969939232,-0.5555751323699951,0.8282405138015747,-0.6258297264877531,7.482452571615754,1.1056331863422932,-0.0936618149280548,-0.15652838349342346,-0.1386844366788864,-1.4064474454522131,0.2413634690456093,-9.621304503679276
36.19,8.899999618530273,64.0,21.89335823059082,19.521604537963867,-79.7820539051842,40.45928832598908,296.00728265380866,-0.06954073905944824,0.033423550426959985,-0.554857075214386,0.8283603191375732,-0.6098461857339362,7.491712908232187,1.1050513624140534,-0.033070705831050866,-0.10686841607093812,0.07448691129684447,-1.37218568533659,0.1039009290933609,-9.682272836565973
36.3,8.899999618530273,64.0,21.932172775268555,19.823772430419922,-79.78204571746474,40.459291556631754,295.9920639190674,-0.07136528193950653,0.033153295516967766,-0.5543884038925171,0.8285297155380249,-0.5997351845225352,7.484214744500606,1.1552615537978783,-0.011359550058841705,0.02411610819399357,0.11976496130228045,-1.2938574077188971,0.028953621201217174,-9.718343140482904
36.5,8.800000190734863,64.0,21.83952140808105,22.33653259277344,-79.78202972871544,40.459297794964925,295.9880642089844,-0.07412092387676239,0.03204033151268959,-0.5540893077850342,0.8285315632820129,-0.6066403891078882,7.519122521150843,1.1646771722062197,-0.0016479607438668606,0.1272408366203308,-0.1741231232881546,-1.1998072097450496,0.1887702675908804,-9.568514671325683
36.59,8.800000190734863,63.0,21.95721244812012,19.50570106506348,-79.78202151000862,40.45930110492912,295.98150483703614,-0.07583871483802795,0.033869657665491104,-0.5544121265411377,0.8280873298645021,-0.6215945080564672,7.539370093216911,1.1934054392379856,-0.05047640949487686,0.08835551142692566,-0.15541353821754456,-1.2844575700163845,0.42794532481580977,-9.771244069933893
36.81,8.899999618530273,63.0,21.929668426513672,19.712448120117188,-79.78200519357605,40.45930747322039,295.9790615234375,-0.0747736319899559,0.0360405370593071,-0.556189239025116,0.8269000053405762,-0.6518114395308362,7.557816141472671,1.2702118476825954,-0.026048392057418827,0.093165323138237,-0.17686627805233002,-1.2608856895565987,0.37714953918009997,-9.865734490156177
36.9,8.899999618530273,63.0,22.054872512817386,17.144023895263672,-79.78199712436404,40.45931065357,295.9797042999268,-0.07259919494390488,0.034560129046440125,-0.5570389628410339,0.8265848755836487,-0.6785773814945836,7.565614984449607,1.290306296591528,0.011153198778629305,0.10222294926643373,0.09915407001972196,-1.4422844454646109,-0.05861909979488701,-9.961902476549149
37.1,8.899999618530273,62.0,21.902122497558594,19.784013748168945,-79.7819807020618,40.45931713694446,295.99187127685553,-0.0728478878736496,0.03170730173587799,-0.5558520555496216,0.8274758458137512,-0.6912336311874909,7.639052481724043,1.2304324521591137,-0.07112178951501846,-0.21052169799804688,-0.2087749689817429,-1.5331605555117132,0.12352031104266645,-9.641445237994192
37.19,8.899999618530273,63.0,21.98350715637207,18.86956024169922,-79.78197255495418,40.45932035209385,295.9958137664795,-0.0785939022898674,0.03218556195497513,-0.5536745190620422,0.8283910155296326,-0.6726690774196645,7.6443204172380685,1.2695364220192258,0.013960679061710836,-0.17998121678829193,0.05680286139249801,-1.5237428838014604,0.03950958134606481,-9.72175089776516
37.4,8.899999618530273,64.0,22.018564224243164,18.583295822143555,-79.78195615172105,40.45932694464275,296.0109714660645,-0.08166341483592987,0.03837122023105621,-0.551960825920105,0.8289741277694702,-0.6392536441569036,7.681101529504846,1.4192619629811767,0.124900683760643,-0.14951685070991516,0.10379843413829803,-1.657049021869898,0.12355956047773364,-9.475377881526947
37.59,8.899999618530273,64.0,22.01981544494629,17.446191787719727,-79.78193957317784,40.45933365162213,296.03558961486823,-0.07743826508522034,0.039746060967445374,-0.5528668761253357,0.8287109136581421,-0.6622080819686883,7.742345262265713,1.4510632254172218,-0.028852181509137164,0.04093484580516815,-0.11628220230340958,-1.5081489443778993,0.2998536605760455,-9.692237661480904
37.7,8.899999618530273,62.0,21.968481063842773,18.2811279296875,-79.78193130320021,40.45933695416604,296.0387615356445,-0.07177126407623291,0.03955727070569992,-0.55414217710495,0.8283783197402954,-0.6833143327774756,7.775295735348423,1.4000506976320757,0.05846834182739258,0.04425012692809105,-0.034316718578338616,-1.3893574959039692,0.152489034505561,-9.644546016454695
37.79,9.0,64.0,22.00979995727539,18.41630744934082,-79.78192304590542,40.459340439468924,296.0613254699707,-0.06857328861951828,0.038706738501787186,-0.555463433265686,0.8278043866157532,-0.7084949050518758,7.794410926824755,1.3425004846693158,0.07096723467111588,0.00774292554706335,0.2858765721321106,-1.3998390685021878,-0.1550549663230777,-9.599869195818902
38.0,9.0,64.0,21.997278213500977,18.02667236328125,-79.78190643453088,40.45934707976875,296.07041398620606,-0.06073736771941185,0.03811527416110039,-0.556494951248169,0.8277508616447449,-0.7363451863766438,7.824566889628475,1.254606238708892,0.09037631005048752,0.13520871102809906,-0.012954939156770706,-1.3530752304196358,0.07759552099741995,-9.857229130268095
38.19,9.0,64.0,22.014806747436523,16.11824607849121,-79.78188959558604,40.45935385634769,296.11208192443854,-0.05277335271239282,0.04018080234527588,-0.5570974946022034,0.8277939558029175,-0.7244346824035002,7.862073454166339,1.1886291818543275,0.0877726674079895,-0.05873753502964973,0.20496463775634768,-1.358687972724438,-0.2966181403398514,-9.882006121873856
38.3,9.0,64.0,22.022319793701172,19.43413543701172,-79.78188106727566,40.459357326225984,296.1313079986573,-0.055293262004852295,0.0421249084174633,-0.5572186708450317,0.8274512887001038,-0.7097074233919793,7.887770471567477,1.1531165384535598,-0.006598949432373047,0.001203934196382761,0.0462842658162117,-1.0333380764722824,0.08608224288560451,-9.738327169418335
38.4,9.0,65.0,21.959716796875,18.750282287597656,-79.78187267631698,40.459360606577725,296.13918153381354,-0.06181342527270318,0.044847659766674035,-0.556729257106781,0.8271762132644653,-0.6952618776680111,7.8714782604881375,1.1480004951814031,-0.11319397389888765,-0.21716175973415366,-0.0704350620508194,-1.4935655499994756,0.1438976291846484,-9.25404673576355
38.6,9.0,64.0,21.93342399597168,19.6965446472168,-79.7818558135357,40.45936734770417,296.1672729644776,-0.06840355694293976,0.041072681546211236,-0.5549518465995789,0.8280473947525024,-0.6400958792066971,7.8615734444992675,1.2857777307416285,-0.15195728838443756,0.08991169184446335,0.040766194462776184,-1.3667566917836669,0.1039674228988588,-9.417604467272758
38.69,9.100000381469727,64.0,21.984758377075195,18.38450050354004,-79.78184740026977,40.45937058748481,296.16817514038087,-0.06754129379987718,0.034085165709257126,-0.5543223023414612,0.8288566470146179,-0.6065145552955442,7.8648853395871425,1.2731444583766076,-0.14824670553207395,0.13628244400024414,-0.13216274976730347,-1.4231406614184383,0.425221947580576,-9.491557711958883
38.9,9.100000381469727,63.0,21.937179565429688,18.654861450195312,-79.78183047236561,40.45937726158817,296.19731561279303,-0.06339903920888901,0.020483240485191345,-0.5530505180358887,0.8304795026779175,-0.5757444997959068,7.896087713657335,1.1274639262270625,-0.12463968992233275,0.15625804662704468,-0.013574618846178057,-1.1315302227437496,0.3913883132860065,-9.684266737103464
39.0,9.100000381469727,66.0,22.00604248046875,18.225465774536133,-79.78182206728498,40.45938050257117,296.1988987121582,-0.0639752522110939,0.01931535080075264,-0.5521818995475769,0.831041157245636,-0.5630026923682345,7.893842243826598,1.0523132707087983,0.01710592769086361,-0.1612672209739685,0.05858588218688965,-1.5638584376871587,0.11764725800603627,-9.640088683962825
39.2,9.100000381469727,65.0,21.942188262939453,19.47389411926269,-79.78180509215774,40.4593871229118,296.2286285552978,-0.07136809080839157,0.02474011294543743,-0.5512043237686157,0.830944299697876,-0.548281678482653,7.884115672370111,1.0802816971329967,-0.02922692336142063,-0.1289081871509552,0.0937228724360466,-1.4036611010134221,0.30641840267926457,-9.456582591533662
39.39,9.100000381469727,65.0,21.849536895751953,20.61894989013672,-79.78178816911084,40.459393748405404,296.24698106384284,-0.07325588166713715,0.030362831428647038,-0.5526620745658875,0.8296241760253906,-0.5897692628611172,7.868065506353692,1.2072119755719917,-0.03571086749434471,-0.06884507089853288,0.022743482142686844,-1.5120759344100954,-0.07641558028757572,-9.577760873436928
39.5,9.100000381469727,63.0,21.9309196472168,19.060401916503906,-79.78177980117907,40.45939702913504,296.2440590057373,-0.07180188596248628,0.0304151251912117,-0.5541329979896545,0.8287678360939026,-0.6204187650118183,7.8627898252602355,1.221157947807769,0.03184975311160088,0.020889611914753917,0.0029680521693080664,-1.3792491218447689,0.24125882215797906,-9.65645445585251
39.59,9.199999809265137,64.0,21.902122497558594,19.680641174316406,-79.78177131487472,40.459400356825476,296.26636163330085,-0.07066405564546585,0.031092943623661995,-0.5554124116897583,0.8279837369918823,-0.6255851696309177,7.883536357983544,1.2048719417667528,0.0024696302134543657,0.07853400707244873,0.04399420693516731,-1.1486321590840818,0.15551642127335072,-9.584403310418132
39.8,9.199999809265137,64.0,21.85204124450684,21.98665428161621,-79.7817544420192,40.45940702388645,296.27410928344733,-0.07042043656110764,0.031651515513658524,-0.5555340647697449,0.8279016017913818,-0.6723990481901001,7.872266466543069,1.1886223944524743,-0.06569631397724153,0.034703560173511505,0.1930612176656723,-1.4970472745597363,0.11269426435232165,-9.59804778814316
39.89,9.199999809265137,64.0,21.90087127685547,21.19942855834961,-79.78174605519817,40.45941031708629,296.26835481262214,-0.07016503065824509,0.033621132373809814,-0.5559594035148621,0.8275601267814636,-0.6719874290648412,7.878756944024161,1.1584465785011622,0.054356612265110016,0.025702953338623047,0.018646875396370888,-1.5476598961651329,0.16777240455150605,-9.437251696586607
40.1,9.100000381469727,63.0,21.7844295501709,22.96472358703613,-79.78172933822385,40.45941700785096,296.2705482635498,-0.06972464919090271,0.03528587147593498,-0.5572207570075989,0.8266792893409729,-0.6995519928087357,7.872831571109026,1.1890905376534056,0.21634753048419952,0.04274837300181389,0.10498355329036713,-1.5687205436825753,-0.10159895338118076,-9.786115878224372
40.3,9.0,63.0,21.872074127197266,21.55725860595703,-79.78171248398772,40.459423685149176,296.2736419830323,-0.06146348267793656,0.03716582432389258,-0.5585134029388428,0.8263799548149109,-0.7253243984675761,7.89338566948329,1.2314670464492097,0.12055337429046632,0.05967432260513305,-0.18806740641593933,-1.2448482388257982,0.28912939198315146,-10.128669744729995
40.4,9.0,63.0,21.83952140808105,21.398223876953125,-79.78170407243078,40.459426989926044,296.27716294860835,-0.05895731225609779,0.037303037941455834,-0.558879554271698,0.8263088464736938,-0.7360549169642608,7.897285675661099,1.1857401609631508,0.06475838273763658,0.0342591255903244,0.09063267707824707,-1.2778974325954915,0.15243234392255545,-9.877783262729645
40.5,9.0,63.0,21.88960266113281,21.6129207611084,-79.7816956574558,40.45943029161112,296.28126565551764,-0.05894651636481285,0.03700956329703331,-0.5586837530136108,0.8264551758766174,-0.7366561432149875,7.907573202265331,1.1601553890229996,0.0195966511964798,-0.0013769017532467842,0.055189747363328934,-1.272439202964306,0.02723200905136764,-9.893136881589893
40.69,8.899999618530273,64.0,21.733097076416016,23.13966178894043,-79.78167875212878,40.459436975883044,296.28248445129395,-0.05783356353640556,0.03688468039035797,-0.5578717589378357,0.8270875811576843,-0.7160831826092183,7.915420489701368,1.1627193058734764,-0.13014192879199982,0.0283869206905365,-0.026851581409573555,-1.187202147692442,-0.050975496154278516,-9.946306782960892
40.89,8.899999618530273,65.0,21.849536895751953,21.779909133911133,-79.78166187801398,40.45944364308141,296.2931598815918,-0.058427520096302026,0.033457130193710334,-0.557122528553009,0.8276963829994202,-0.6701483851493734,7.893319390087233,1.1795106942746771,-0.006070142146199943,0.08839970082044601,-0.03376873955130577,-1.2682990819215776,0.16332877647131686,-9.99351369380951
41.0,8.899999618530273,65.0,21.932172775268555,18.750282287597656,-79.78165346519778,40.45944690563822,296.3043598327637,-0.05979631841182709,0.033632081001996994,-0.5567209124565125,0.8278618454933167,-0.6631147073337212,7.8796708924320065,1.1921804950890111,-0.02272547781467437,2.950156886072364e-05,-0.03546237200498581,-1.2448061388731004,0.3460969868302345,-9.873186181783677
41.1,8.800000190734863,66.0,21.83952140808105,23.489540100097656,-79.781645060387,40.459450251501494,296.2998050842285,-0.062008224427700036,0.034156933426856995,-0.5561427474021912,0.8280662298202515,-0.65150084837273,7.866150316566019,1.165941018331991,0.005589103326201439,-0.04920578002929688,0.22517214715480804,-1.5685410341620447,-0.03247187258675695,-9.53765540599823
41.3,8.800000190734863,66.0,21.83952140808105,21.98665428161621,-79.78162829951769,40.459456854012814,296.30680505371095,-0.06917020678520203,0.02907925099134445,-0.5537164211273193,0.8293178677558899,-0.6292626004239545,7.85839489742254,1.2303856510444329,0.0866767168045044,0.11080384999513626,0.03490439057350159,-1.4782416057586671,-0.0178408782184124,-9.706032412648204
41.4,8.800000190734863,66.0,21.85329246520996,21.366416931152344,-79.78161992376035,40.459460126909924,296.31198922729493,-0.06704909354448317,0.02829827927052975,-0.5528126955032349,0.8301215171813965,-0.6197674299452607,7.85816902351084,1.2388075430812542,0.04984675347805023,0.12739413976669312,0.059201300144195564,-1.2578379745781425,0.2291865510866046,-9.774602125883103
41.6,8.800000190734863,67.0,21.944692611694336,19.593170166015625,-79.78160299090901,40.459466688781426,296.3325599822998,-0.06090588867664337,0.03144780173897743,-0.5522568821907043,0.8308512568473816,-0.5974550077704825,7.87706617337679,1.173635662792991,-0.04509301856160164,0.027653377503156662,0.11739428341388702,-1.3631195774674416,-0.05156188052147627,-9.881690372228624
41.8,8.800000190734863,67.0,21.89210700988769,19.61702537536621,-79.78158619594913,40.459473309259465,296.35047189331056,-0.06526553630828857,0.03070535324513912,-0.5517709255218506,0.8308708667755127,-0.5885076034007559,7.86040844360933,1.1540366748129107,0.015805179253220558,-0.0480538085103035,0.17826716601848602,-1.4637770560383798,0.05333983607590199,-9.70325381577015
41.91,8.800000190734863,67.0,21.850788116455078,20.714370727539066,-79.78157783125549,40.4594765776563,296.35486451721187,-0.0635908916592598,0.03279310092329979,-0.551659345626831,0.8309951424598694,-0.5820579747525142,7.8553547102174655,1.1843364590614311,0.051681600511074066,-0.008769121952354908,-0.005021375138312578,-1.4780768604576588,0.22826429899781944,-9.650207875370981
42.0,8.800000190734863,69.0,21.843276977539066,21.175573348999023,-79.78156947357785,40.459479849591524,296.3584427032472,-0.0633915439248085,0.034154918044805534,-0.5516512989997864,0.8309608697891235,-0.5869832391236782,7.858671221967834,1.1680679438584771,-0.018052298575639725,-0.16263873875141144,0.16221332550048828,-1.4664300839602948,-0.3524530564248562,-9.635112703442577
42.2,8.800000190734863,69.0,21.80070686340332,21.41412734985352,-79.78155268347518,40.45948637068578,296.37539140319825,-0.06725125014781952,0.03486217930912972,-0.5514000654220581,0.8307947516441345,-0.5789340349464633,7.856856145966121,1.195621152199008,-0.08671390265226364,0.08912836760282516,-0.0491173267364502,-1.2098150847852231,0.07086126445792616,-9.697320061326026
42.4,8.800000190734863,69.0,21.937179565429688,19.267148971557614,-79.78153589795991,40.45949303905217,296.394409576416,-0.06565514951944351,0.03522733971476555,-0.5509373545646667,0.8312138915061951,-0.5658218340951431,7.848944257109113,1.2419062364308209,0.05485740676522255,0.05299224331974983,0.10588899254798888,-1.2848784233629704,0.06229562343098224,-9.646974949836732
42.51,8.899999618530273,68.0,21.845781326293945,20.491722106933594,-79.7815275338959,40.45949631012854,296.395838180542,-0.06604823470115663,0.03587349131703377,-0.5507282614707947,0.8312937021255493,-0.5662594212673416,7.859038558741782,1.1851698409838145,0.14559994637966156,0.0043406495824456215,0.06114909052848816,-1.4212185354530813,0.1429565472342074,-9.471738574504851
42.69,8.899999618530273,67.0,21.844528198242188,19.79196548461914,-79.78151076673015,40.459502942630216,296.4117035064698,-0.0658428817987442,0.0377906858921051,-0.5501294732093811,0.8316214084625244,-0.5681740124179182,7.855768503803332,1.2226478293818661,-0.11614511162042618,-0.05697307363152504,-0.014329551719129087,-1.572615958750248,0.04874558737501503,-9.637169753909113
42.8,8.800000190734863,66.0,21.86080551147461,20.698467254638672,-79.78150233259609,40.45950632813707,296.42741052246095,-0.0655849501490593,0.035542163997888565,-0.549990713596344,0.8318327069282532,-0.5605956563918957,7.862967405791973,1.2136098349537026,-0.08783294260501863,-0.003245372092351317,-0.08733373135328293,-1.404331338107586,0.14066599186509848,-9.700982757210733
42.89,8.899999618530273,66.0,21.83451271057129,20.2531681060791,-79.78149396124626,40.459509594232244,296.4280532989502,-0.06532452255487442,0.03261855617165565,-0.549874484539032,0.8320497870445251,-0.5511758705361542,7.862529803628704,1.1915561077380468,-0.03376077488064766,0.030532363802194595,0.18167489767074585,-1.4561785992980003,-0.1486090962868184,-9.731744374036786
43.1,8.899999618530273,67.0,21.842023849487305,21.41412734985352,-79.78147720811252,40.45951618760562,296.45362893676764,-0.06361553817987442,0.030568121001124382,-0.5498424768447876,0.832281231880188,-0.5527461311401486,7.860720131002601,1.1411527139938469,-0.07270336896181108,-0.056498605757951736,0.10790657997131348,-1.455861680209637,-0.2147988922521472,-9.558191996812823
43.19,8.899999618530273,68.0,21.890853881835934,19.752206802368164,-79.7814688613187,40.459519459197296,296.45408860778815,-0.0653800368309021,0.029182318598032,-0.5496166944503784,0.8323432803153992,-0.5515923136029552,7.862816335482808,1.119706980133607,0.055185690522193916,0.021495401859283447,-0.017665347084403038,-1.289365722835064,-0.022600036673247816,-9.601893501877788
43.39,8.800000190734863,69.0,21.823244094848643,20.475818634033203,-79.78145216368335,40.45952612618957,296.46631661987306,-0.06197741255164145,0.02898322977125645,-0.5489855408668518,0.8330268263816833,-0.5558151734747679,7.813031166763178,1.1386868027854542,0.10420314222574234,0.3642392158508301,-0.09258410334587096,-1.6347834093868734,0.17017802216112615,-9.63586231648922
43.5,8.800000190734863,69.0,21.944692611694336,18.527633666992188,-79.78144391367435,40.45952938616987,296.4658645782472,-0.03867275267839432,0.019756825640797608,-0.5492677688598633,0.8345173001289368,-0.5485647440546226,7.738667494940258,1.0753363166514358,0.1657102406024933,0.7309930324554443,-0.07814379781484604,-1.8781927643716336,0.15845815546810627,-9.811992731094358
43.69,8.699999809265138,69.0,21.96597671508789,18.31293487548828,-79.7814276219777,40.459535896649,296.4889473114014,0.028471119701862325,-0.01841551996767521,-0.5487821698188782,0.8352774977684021,-0.544845739534473,7.549843122105411,0.11157108640000177,0.009439554065465929,0.7002536654472351,0.0856248140335083,-1.4541664262115956,0.03594105304218829,-9.901925246715546
43.8,8.699999809265138,81.0,21.940937042236328,19.116064071655273,-79.7814195290192,40.459539061264856,296.4852527770996,0.05565770715475082,-0.035580847412347794,-0.5471634268760681,0.8344150185585022,-0.503160788814,7.346993572738802,-0.465637866897809,0.059553083032369614,0.6664415597915649,-0.2522454559803009,-1.1942113512754442,0.2730151234567165,-9.865852603912352
44.0,8.600000381469728,81.0,21.821990966796875,21.58906555175781,-79.78140462055434,40.45954497860181,296.49113313293464,0.0868314877152443,-0.05738763511180878,-0.5435675978660583,0.8328873515129089,-0.4568001994877275,6.720499039728744,-1.1804402734571111,0.0885123685002327,0.4071338474750519,-0.057298041880130775,-0.7317620088905097,-0.21879922829568388,-10.29789518237114
44.19,8.5,81.0,21.835763931274414,21.771957397460934,-79.78139042214487,40.45955059253138,296.51130715942384,0.09465811401605606,-0.06696288287639618,-0.5412575006484985,0.8328242301940918,-0.4219533565822131,6.089439888042303,-1.3428671926772644,0.010199162177741528,-0.010373585857450962,-0.0387699268758297,-1.0197256122529508,0.2773543239198625,-10.162334504127504
44.3,8.300000190734862,98.0,21.870820999145508,19.37052154541016,-79.78138389420462,40.459553243979286,296.5311550292969,0.0963427796959877,-0.06783033907413483,-0.5409520268440247,0.8327593207359314,-0.4073223450323269,5.793126845851576,-1.30995299554095,0.05083419755101204,0.07306664437055588,-0.157540962100029,-1.116132895946503,0.24698686424642802,-10.206353513002396
44.39,8.100000381469728,99.0,21.98976707458496,18.543537139892575,-79.78137785558555,40.45955569422056,296.5358318481445,0.09562808275222777,-0.0681772455573082,-0.5408227443695068,0.8328973650932312,-0.4059051619494368,5.4819827294271315,-1.2823237083303272,0.043029919266700745,-0.10920523852109908,0.17455632984638214,-0.9209021128714086,-0.02595644809305668,-10.099635980129245
44.59,7.800000190734862,100.0,22.053621292114254,14.80620288848877,-79.78136642193067,40.45956029902518,296.55215875244136,0.09586700052022934,-0.06440234184265138,-0.5414054989814758,0.8327917456626892,-0.3985167272026012,4.920411151165991,-1.2372795126964629,0.08771971613168716,0.00063617795240134,0.1123989075422287,-0.8957704876363278,-0.21288140751421453,-9.521343428492548
44.69,7.599999904632567,100.0,22.01605987548828,17.740407943725586,-79.78136129494212,40.45956242473185,296.5389808807373,0.10301579535007477,-0.06486068665981293,-0.5413973331451416,0.8319073319435121,-0.4036919371578608,4.623768073962964,-1.2731989537854214,-0.051080074161291115,0.2215994894504547,0.011281264014542105,-0.5882381538301706,-0.10031574536114933,-9.415493622422217
44.91,7.099999904632568,99.0,21.882089614868164,19.736303329467773,-79.78135157795906,40.45956624813884,296.51408044433595,0.12388353049755095,-0.0798482894897461,-0.5401494503021239,0.8285625576972961,-0.3536161861294333,3.9672055119735377,-1.4336304096253218,0.009056110866367815,0.44077304005622864,0.036319341510534286,-0.6103819980472327,0.15534465931355956,-9.46799694120884
45.1,6.9000000953674325,102.0,21.56532096862793,26.638442993164066,-79.78134331517735,40.459569474281246,296.4696926269532,0.1385529786348343,-0.09212692081928253,-0.5391705632209778,0.8255972862243652,-0.3406477551095564,3.2524807567347183,-1.467835197264158,-0.050327185541391366,0.15513423085212708,-0.0942993089556694,-0.2992549605108798,0.1102929225191474,-10.16436933517456
45.2,6.300000190734862,102.0,21.690526962280273,23.74399757385254,-79.78133985035167,40.45957097314528,296.4341091308594,0.14087915420532227,-0.09288766980171204,-0.5394366383552551,0.8249443769454956,-0.3427709098889136,2.8810259147764308,-1.3527697244431374,0.04250197112560272,0.1248948648571968,-0.05485903844237328,-0.13001784671097993,-0.08232727062888444,-10.791566244363787
45.3,6.0,102.0,21.54904556274414,26.185192108154297,-79.78133653205249,40.45957213644734,296.43037072753907,0.13855625689029696,-0.09194256365299223,-0.5398795604705809,0.8251538872718811,-0.3306679865664585,2.574248776710049,-1.1992631037520938,-0.11873403191566467,-0.0242522731423378,-0.12791094183921814,-0.14942210594192148,0.16157309515401722,-10.82435158252716
45.5,5.300000190734863,106.0,21.640443801879886,25.517242431640625,-79.78133153620924,40.45957445728014,296.38464776611335,0.12790974974632266,-0.0900275707244873,-0.5411596894264221,0.8262447714805603,-0.3564574404209203,1.931808883977079,-0.8409751238146546,-0.1569356620311737,-0.12539361417293549,-0.0358424186706543,-0.2211218519881368,0.010820363927632573,-10.873046025037766
45.59,5.0,106.0,21.63543701171875,25.79555511474609,-79.78132933984077,40.45957508931013,296.38363305664063,0.12724818289279938,-0.09090868383646013,-0.5403870940208435,0.826755940914154,-0.3138675719762332,1.6435490540804354,-0.6517711420773538,0.024368450045585632,0.000507972901687026,0.09734369814395903,-0.2467212179303169,-0.1408140269201249,-11.062585859298704
45.81,4.199999809265137,106.0,21.48518943786621,26.28856468200684,-79.78132641938491,40.45957604865731,296.3584350738525,0.1359577775001526,-0.09720294922590256,-0.5372734665870667,0.8266827464103699,-0.2832979938408925,1.0133267894984908,-0.3051625079697794,-0.110902301967144,0.08109154552221297,-0.09442256391048433,-0.01462996196933091,0.17880613703280687,-11.206228559017182
45.99,3.9000000953674316,105.0,21.561565399169922,28.37988090515137,-79.78132506601608,40.45957706008392,296.38047067260743,0.09839937835931778,-0.07518596947193146,-0.5433775186538696,0.8303045034408569,-0.2937544907527808,0.5633776909467735,-0.02058788589339872,-0.161391019821167,-1.5779681205749512,0.2107936143875122,0.9807097003608942,0.06510173876769841,-10.562275868654252
46.09,3.299999952316284,109.0,21.76815414428711,22.12978744506836,-79.781325167928,40.459576838299725,296.3605808410645,0.015537236817181109,-0.029078904539346695,-0.5711261630058289,0.8201999068260193,-0.2480755601244362,0.3980258546655462,0.10882686393291682,-0.2285391688346863,-1.4668464660644531,0.7145634293556213,-0.17319670205935836,0.3391992457956076,-10.64695056796074
46.19,2.9000000953674316,86.0,21.646705627441406,24.332427978515625,-79.78132496896139,40.45957714761585,296.38497201538087,-0.02399816177785397,-0.004735215567052364,-0.6085714101791382,0.7931219935417175,-0.2472846959737625,0.2499849276535717,0.2778261746957856,0.07394803315401077,-0.4414766728878021,1.0402064323425293,-0.82630848929286,0.3765015580505133,-10.61555569767952
46.4,2.4000000953674316,91.0,21.695533752441406,23.227130889892567,-79.78132501942262,40.45957707093953,296.4271797332764,-0.0006353114731609821,-0.0049115647561848155,-0.7000380754470825,0.7140883803367615,-0.2670824807015401,0.15842531844925384,0.3587003134829079,0.1413821578025818,0.3870220184326172,1.353169322013855,-0.10717824778519572,-0.004426853880286217,-10.140702145099642
46.59,2.200000047683716,91.0,21.705551147460934,22.654603958129893,-79.78132534287832,40.45957682277209,296.46818963623053,0.01720611751079559,-0.023631414398550987,-0.7956480979919434,0.6050535440444946,-0.26467736041539186,0.06079959388699914,0.33169120600431545,-0.03127218410372734,0.14706355333328247,1.5392289161682131,0.2196666627377272,-0.0694732359610498,-9.854397908449174
46.69,1.7999999523162842,113.0,21.69803810119629,22.757976531982425,-79.78132527595645,40.45957706448113,296.50189057922364,0.01911296881735325,-0.02820131555199623,-0.8399266004562378,0.5416296720504761,-0.2732332265447549,-0.01876306779259959,0.3401871014723142,-0.07714197784662248,0.0370204783976078,1.5606114864349363,0.17314431466162206,-0.008616758482530714,-9.819872438907623
46.79,1.7000000476837158,138.0,21.751876831054688,23.42592620849609,-79.78132586044342,40.4595760291447,296.467558303833,0.020575933158397675,-0.029151745140552517,-0.8794542551040649,0.4746441543102264,-0.1793307772150146,-0.08799538328349699,0.2949652995706402,-0.11600705981254578,-0.05392877012491226,1.5625373125076294,0.07177094503305853,0.17373360436409713,-9.8227095079422
47.0,1.399999976158142,199.0,21.69428253173828,23.82351493835449,-79.78132607784951,40.45957643774154,296.526604095459,0.02343207225203514,-0.027836622670292854,-0.9433634877204896,0.3297598659992218,-0.09690895182434664,-0.2607768914742531,0.32676375440609634,-0.05372797697782517,0.0014142909785732627,1.6187075376510618,0.09354870786890387,0.02004580385517329,-9.95064424753189
