time,wind_speed,wind_angle,battery_voltage,battery_current,position_x,position_y,position_z,orientation_x,orientation_y,orientation_z,orientation_w,velocity_x,velocity_y,velocity_z,angular_x,angular_y,angular_z,linear_acceleration_x,linear_acceleration_y,linear_acceleration_z
0.0,0.8000000119209291,132.0,25.78973960876465,-0.07951773703098297,-79.78276161921437,40.459030775830335,272.37981204795835,-0.01628551259636879,0.012259988114237784,0.996120274066925,0.0856093242764473,-0.024920572987800496,-0.03106192147550669,0.030329068114491837,-0.004510863684117794,0.000708295323420316,-0.00605656998232007,0.1786677772924304,-0.3569543526694179,-9.799465071558954
0.1,0.8000000119209291,137.0,25.79349708557129,-0.07951773703098297,-79.78276143834981,40.45903084987018,272.39721380281446,-0.016291692852973938,0.012231400236487387,0.996123731136322,0.08557192236185074,-0.025853901700968254,-0.028204365012326475,0.029070117829087836,-0.009645289741456509,-0.0031099074985831976,-0.010916845872998238,0.1811977761425078,-0.3865008084475994,-9.802341901659966
0.3,0.8000000119209291,138.0,25.797252655029297,-0.10337305814027786,-79.78276140233797,40.45903087299283,272.4001570205688,-0.016275528818368912,0.012249727733433248,0.9961249828338624,0.08555733412504196,-0.027973808229959225,-0.031515353316256316,0.02930582656222013,0.006969177629798651,0.002571959514170885,0.005021162796765566,0.1786770414747298,-0.3710629165917635,-9.801606321930883
0.4,0.8000000119209291,139.0,25.79474830627441,-0.12722837924957275,-79.78276122939738,40.4590309770273,272.41895763683317,-0.016302511096000668,0.012248024344444277,0.9961285591125488,0.08551117032766342,-0.02743513267526288,-0.0348287926852912,0.03165554333220417,-0.008758338168263434,-0.004660347476601601,-0.010735317133367063,0.17777329947799445,-0.38653395485132935,-9.803182731270793
0.6,0.8000000119209291,141.0,25.79474830627441,-0.12722837924957275,-79.78276119207001,40.45903100451656,272.42215459156034,-0.016311999410390854,0.012247974053025246,0.9961299300193788,0.08549356460571289,-0.029018153339187582,-0.03781970225546325,0.03188049562488486,0.009543469175696371,0.0012426098110154273,0.01146409660577774,0.1802171067148447,-0.3819607378542424,-9.803627704381944
0.7,0.8000000119209291,138.0,25.78973960876465,-0.09542128443717957,-79.78276110114723,40.45903105647764,272.437341199398,-0.01636020839214325,0.012263119220733644,0.9961315989494324,0.0854625552892685,-0.02005595679998058,-0.02999280597727157,0.029325845729393837,-0.0003816568059846759,-0.00025592485326342285,8.351727592526004e-05,0.17621132545173168,-0.3753778693825007,-9.802198060154916
0.9,0.8000000119209291,141.0,25.79975700378418,-0.11132483184337616,-79.78276107371569,40.45903108068134,272.4403051595688,-0.01637224480509758,0.01227123849093914,0.9961328506469728,0.08544483780860901,-0.02256582540611811,-0.03298310970549513,0.029776807690134306,0.0015433772932738064,0.0014303211355581882,0.006047325674444437,0.1795790658518672,-0.38786079771816734,-9.804580800533293
1.0,0.8000000119209291,145.0,25.7872371673584,-0.10337305814027786,-79.7827609013049,40.459031148348814,272.4555324177742,-0.01637292094528675,0.01227828674018383,0.9961349964141846,0.08541850745677948,-0.024350634634467995,-0.031938231555851834,0.028733514553089062,0.006125729531049728,0.003392176004126668,0.006538907531648874,0.17686840631067755,-0.3607001521065831,-9.800402380228043
1.2,0.8000000119209291,142.0,25.78973960876465,-0.11132483184337616,-79.7827608208696,40.459031144787076,272.4671438794136,-0.016395090147852898,0.012246418744325638,0.996137261390686,0.08539232611656189,-0.015947453355561438,-0.01696473205311859,0.02613918322697624,-0.005596813745796681,-0.0016726403264328835,0.00084362190682441,0.17836467225104571,-0.3822226931154728,-9.803231847882273
1.31,0.8999999761581421,143.0,25.77972412109375,-0.11132483184337616,-79.78276079807883,40.45903115931955,272.4697891335487,-0.016387538984417915,0.01225371565669775,0.996138870716095,0.08537433296442032,-0.01917417204312824,-0.02025324132603943,0.0265111701029358,-0.004396636039018631,0.0020560321863740683,-0.008341710083186626,0.1786646161414683,-0.35794768497347834,-9.80016907632351
1.5,0.8999999761581421,144.0,25.79099273681641,-0.10337305814027786,-79.78276067748277,40.459031228364225,272.48168073701856,-0.016426602378487587,0.012243094854056835,0.9961413145065308,0.08533892780542374,-0.01548597249296939,-0.02239278073964902,0.022280449625343115,-0.005777086596935988,-0.0056778271682560435,-0.008264636620879173,0.17687829175963998,-0.3670913780853152,-9.801111647486687
1.6,0.8999999761581421,146.0,25.797252655029297,-0.09542128443717957,-79.78276065608763,40.45903124676009,272.48392991828916,-0.01644652895629406,0.012230098247528076,0.9961417317390442,0.08533225953578949,-0.01721025962959504,-0.025538924252645763,0.02267881306449216,0.0034925932995975018,0.0019126975676044824,0.0018168115057051184,0.1784406129643321,-0.3688102767616511,-9.802368798851967
1.8,0.8999999761581421,145.0,25.802261352539066,-0.09542128443717957,-79.78276053044462,40.45903127892649,272.4978197674751,-0.01647317036986351,0.012217938899993895,0.9961443543434144,0.0852988064289093,-0.017654225057832592,-0.02061631639337697,0.02318836211532451,-0.005084921605885029,-0.0043197418563067904,-0.009892191737890244,0.1776259496435523,-0.35782485689967874,-9.800316426157952
1.9,0.8999999761581421,142.0,25.797252655029297,-0.07156596332788467,-79.7827605079799,40.4590312953088,272.5001651506424,-0.016493743285536766,0.012206291779875757,0.9961456656455994,0.08528083562850952,-0.01884426055477276,-0.023498644481865703,0.02340989902916249,0.0050681610591709605,0.001979965716600418,0.004845678806304932,0.18072718491777776,-0.3811130377650261,-9.802690395712851
2.1,0.8999999761581421,139.0,25.79975700378418,-0.09542128443717957,-79.7827603672775,40.459031341843406,272.51376669216154,-0.016521401703357697,0.012186077423393726,0.996147871017456,0.08525306731462479,-0.019939684927785743,-0.02177966933301872,0.023433329055284842,-0.003013373352587223,-5.6483870139345533e-05,-0.0059808399528265,0.17924100542441013,-0.3597253847122193,-9.799977287650107
2.2,0.8999999761581421,132.0,25.79975700378418,-0.08746951073408127,-79.7827602233032,40.45903136965957,272.5272605280876,-0.01648538559675217,0.012165543623268604,0.9961512684822084,0.08522351086139679,-0.02120538795002184,-0.016566530039868344,0.023374487411794626,-0.008831690065562725,-0.0022760557476431127,-0.007167861796915531,0.1817501735687256,-0.3859152463451028,-9.802517902851106
2.4,0.8999999761581421,127.0,25.79349708557129,-0.08746951073408127,-79.78276019667976,40.45903138222787,272.5296442966461,-0.016486847773194313,0.01215209439396858,0.9961541295051576,0.08519141376018524,-0.022924824899826928,-0.019688110705656042,0.02355158055970065,0.004772721324115993,0.0021566222421824928,0.00046966626541689033,0.1762182507477701,-0.3693131007626653,-9.800288944244388
2.5,1.0,125.0,25.79850578308105,-0.09542128443717957,-79.78276012033994,40.459031412988736,272.53820590782163,-0.016492851078510284,0.012152145616710186,0.9961563348770142,0.08516381680965424,-0.014234413332348138,-0.015165991653780075,0.01918788761766366,0.002018766012042761,-0.0007136029889807105,0.003795178141444922,0.17889614760875702,-0.38717945091426376,-9.804083202481273
2.7,1.0,128.0,25.801008224487305,-0.08746951073408127,-79.7827600126094,40.459031459740345,272.54801266002653,-0.016513494774699208,0.012133623473346232,0.9961585998535156,0.0851365253329277,-0.010214681372883463,-0.01592301433457459,0.01540944535785395,0.009126404300332071,0.004282379522919655,0.011265246197581293,0.17934740647673608,-0.3830403165891767,-9.803507251739502
2.8,0.8999999761581421,125.0,25.79224395751953,-0.09542128443717957,-79.78275999506376,40.4590314736346,272.549593375206,-0.016496995463967323,0.012142079882323742,0.9961604475975036,0.0851166695356369,-0.014762416012452947,-0.01886640107318901,0.016047889768904644,-0.005038103088736534,-0.0015572129050269725,-0.003948863595724106,0.17780931467190386,-0.3739262615516782,-9.803342944979669
3.0,0.8999999761581421,125.0,25.79224395751953,-0.11132483184337616,-79.78275989655438,40.45903151324409,272.560418949604,-0.016511863097548485,0.01211403124034405,0.99616539478302,0.0850600153207779,-0.010604057954334148,-0.015309168669929294,0.015350768495173141,0.0029574411455541853,-0.0011263161431998017,0.007575791794806719,0.17830044424161315,-0.3868346113711596,-9.80317162156105
3.1,0.8999999761581421,118.0,25.79850578308105,-0.09542128443717957,-79.78275976428046,40.45903158906877,272.5714109997749,-0.016512909904122353,0.012118898332118988,0.996169090270996,0.08501534163951874,-0.012297873338666051,-0.02220255417807511,0.015198478548055304,0.006503651849925518,0.004455643706023693,0.004689344670623541,0.17813144143670798,-0.3586596565693617,-9.799916476607324
3.3,0.8999999761581421,116.0,25.802261352539066,-0.09542128443717957,-79.78275974298788,40.45903160820416,272.57295642900465,-0.016484970226883888,0.012122046202421188,0.9961718320846558,0.08498817682266235,-0.016761673495249818,-0.025131689774294468,0.015647648440751113,-0.0027023360598832373,0.0006790239713154732,-0.0032020690850913525,0.17751251365989448,-0.3779328833520413,-9.802585145831108
3.4,0.8999999761581421,116.0,25.801008224487305,-0.08746951073408127,-79.78275971901512,40.45903162857258,272.5745371441841,-0.016509082168340683,0.012119711376726627,0.996172308921814,0.08497855067253113,-0.019350648163886142,-0.028001524075091936,0.015972546406188875,0.001261587138287723,-0.003674086881801486,-0.005081706214696169,0.1794439220800996,-0.3608830603212118,-9.80071520626545
3.6,0.8999999761581421,124.0,25.79850578308105,-0.08746951073408127,-79.78275961199431,40.459031612003,272.5848095874786,-0.016532542183995247,0.012077680788934227,0.9961775541305542,0.08491843938827515,-0.02132229650151154,-0.015056187217570969,0.014854609211441275,-0.006700210738927126,-0.002122024307027459,-0.009431988932192327,0.1776658568903804,-0.3597165407985449,-9.800552653670312
3.7,0.8999999761581421,124.0,25.79474830627441,-0.08746951073408127,-79.78275945493108,40.45903167487103,272.5955240588188,-0.016510842368006706,0.012091459706425669,0.996183216571808,0.08485418558120728,-0.02582568943882074,-0.020773330628300786,0.0152435909974059,-0.003895393572747707,-0.0022905473597347736,0.000454706430900842,0.17951101887971166,-0.3791140209138393,-9.802524334788323
3.91,0.8000000119209291,127.0,25.79850578308105,-0.07951773703098297,-79.78275942167531,40.459031689737095,272.5971042971611,-0.0165282841771841,0.012076414190232755,0.9961840510368348,0.08484375476837157,-0.02837771002231661,-0.023613754516047143,0.015563138552103837,-0.0022066771052777767,-0.0009361577103845775,-0.0058425748720765105,0.17791801806539298,-0.3601649491488933,-9.800435124635698
4.1,0.8000000119209291,123.0,25.79349708557129,-0.09542128443717957,-79.78275934169959,40.459031729471455,272.60770772504804,-0.016583722084760666,0.012053927406668665,0.9961888194084167,0.08477972447872162,-0.022364425839861136,-0.020769765752461915,0.015136550807650419,-0.010622909292578695,-0.0041935364715754994,-0.013185296207666395,0.1778732503205538,-0.3620980751886964,-9.80104849755764
4.2,0.699999988079071,124.0,25.796001434326172,-0.07951773703098297,-79.78275927937351,40.459031750726005,272.6167892079353,-0.016622554510831833,0.012047328986227512,0.9961905479431152,0.08475256711244583,-0.012624323135241948,-0.015682699045803564,0.01422098098028672,0.005109157878905535,0.0011611287482082846,0.002759485505521297,0.1784716032072902,-0.3753078489750624,-9.801920902132988
4.3,0.699999988079071,125.0,25.797252655029297,-0.08746951073408127,-79.78275925930089,40.45903176398031,272.6182482104301,-0.016601279377937317,0.012054440565407276,0.9961949586868286,0.08470387011766434,-0.016490729837536768,-0.01849622579612049,0.014608769837565563,-0.0036555544938892135,-0.0018261029617860913,0.0005342604708857834,0.17780885785818104,-0.382100120857358,-9.802830144166947
4.5,0.6000000238418579,127.0,25.79349708557129,-0.10337305814027786,-79.78275918516059,40.45903178003244,272.6291766028404,-0.01662580296397209,0.012027878314256668,0.9961978197097778,0.08466948568820952,-0.011633710023201769,-0.011404696715849164,0.01385336822869162,0.007858339697122574,0.007080307696014644,0.0029334891587495804,0.1801885101757944,-0.386953017488122,-9.802114444971084
4.6,0.6000000238418579,128.0,25.797252655029297,-0.08746951073408127,-79.78275910735347,40.45903180892924,272.6417326788902,-0.01666775904595852,0.0120200477540493,0.9961991906166076,0.08464626967906952,-0.008483555259490322,-0.009230414417439494,0.016849113404973956,0.0039804037660360345,0.0017943968996405602,0.003697942476719618,0.17726713160052895,-0.3659792376682163,-9.800674860477448
4.8,0.6000000238418579,131.0,25.796001434326172,-0.08746951073408127,-79.78275909372061,40.45903181711289,272.64345531272886,-0.016640374436974525,0.01200417336076498,0.9962032437324524,0.08460594713687898,-0.011999816747011132,-0.011889134258796329,0.017218661156604538,-0.0010547429556027057,-6.018747080815956e-05,0.0005497306701727211,0.17730301888659594,-0.3836115530133248,-9.803140046596527
4.9,0.6000000238418579,128.0,25.79850578308105,-0.08746951073408127,-79.78275907755513,40.459031826317066,272.6452144842148,-0.016636844724416733,0.01200083363801241,0.9962046146392822,0.08459115028381348,-0.01501994928235859,-0.014548791537567073,0.017654937079510512,-0.0029297186993062496,-7.289945187949343e-06,-0.00843281950801611,0.1781741626560688,-0.35825513888150456,-9.800413489937783
5.1,0.6000000238418579,128.0,25.79474830627441,-0.09542128443717957,-79.78275898624163,40.459031891022356,272.658547208786,-0.01665959507226944,0.012023236602544785,0.9962084889411926,0.08453813940286636,-0.013889284423200832,-0.018705013273930614,0.020027468154853914,-0.008817996829748155,-0.0014830309664830565,-0.01604941301047802,0.1779040578380227,-0.3596329987049103,-9.801549019217493
5.2,0.699999988079071,125.0,25.79224395751953,-0.08746951073408127,-79.78275890983436,40.45903190817796,272.6719226102829,-0.016659002751111984,0.01200475450605154,0.9962103366851808,0.08451861143112183,-0.01152301666315678,-0.0124746660099623,0.02134868421032572,-0.0021916849073022604,-0.002211219631135464,0.0013867960078641774,0.17819936050102114,-0.3772916630655527,-9.80240797519684
5.4,0.699999988079071,126.0,25.79474830627441,-0.10337305814027786,-79.7827588944011,40.459031918367096,272.6740903716087,-0.016673274338245392,0.011993908323347569,0.9962100982666016,0.08451996743679048,-0.013759711728875707,-0.015180186265566331,0.021798082992247367,0.0009668709826655686,0.00034440011950209737,-0.0024817490484565496,0.17870472438633442,-0.3626032380759716,-9.801785831451417
5.5,0.699999988079071,128.0,25.796001434326172,-0.11132483184337616,-79.78275880280513,40.45903200115641,272.6877857904434,-0.016672274097800255,0.012006176635622978,0.9962129592895508,0.08448523283004761,-0.013877216141130841,-0.02229850541786094,0.023168095738542727,-0.0076310085132718095,0.000180004455614835,-0.008124229498207569,0.1789595898985863,-0.3869275821000338,-9.803939360976221
5.7,0.6000000238418579,131.0,25.7872371673584,-0.03180709481239319,-79.78275872169661,40.459032034319456,272.6990377168655,-0.0166675504297018,0.011999483220279215,0.9962160587310792,0.08445075899362564,-0.011880977907915286,-0.01863543058711156,0.023012885994260927,0.010472818277776241,0.004043045453727245,0.0062885419465601436,0.17951034279540182,-0.3854183791950345,-9.803770376443863
5.8,0.699999988079071,128.0,25.78973960876465,-0.08746951073408127,-79.78275870224658,40.459032050472715,272.70137016582487,-0.016675543040037155,0.012004207819700241,0.9962188005447388,0.08441523462533951,-0.01629315943185828,-0.02129036380685805,0.023565669399259758,-0.009520665742456913,-0.0043929005041718466,-0.009947368875145912,0.1773704628646374,-0.3632584916800261,-9.801206957101822
6.01,0.699999988079071,131.0,25.79224395751953,-0.02385532110929489,-79.78275863877366,40.459032090764865,272.7147084932327,-0.016692033037543297,0.011973623186349869,0.9962234497070312,0.0843624696135521,-0.011758933242845809,-0.017499480716887648,0.023487952886027886,-0.004637827631086111,-0.0023690890520811077,-0.005222198087722063,0.17720745345577602,-0.3758680122345686,-9.802877506613733
6.1,0.699999988079071,131.0,25.77972412109375,0.05566241592168808,-79.78275857853467,40.45903211233292,272.7281742553711,-0.016702787950634956,0.011920018121600151,0.9962267875671388,0.08432764559984207,-0.008567066202172086,-0.010352028077972315,0.023322027913366586,-0.0008210818050429225,-0.0023133952636271715,0.0011835782788693905,0.17746796518564226,-0.36460722506046295,-9.801437337398529
6.3,0.8000000119209291,129.0,25.79099273681641,0.015903547406196594,-79.78275856546959,40.45903212180863,272.73053173828123,-0.016699083149433136,0.011939460411667824,0.9962260723114014,0.0843350738286972,-0.011766757951001391,-0.013090882076621149,0.023736088648352173,-0.0007079365313984454,-0.0008752457797527312,-0.008053835481405258,0.17760479003190996,-0.3578589169308544,-9.800168491601942
6.4,0.8000000119209291,130.0,25.782228469848643,0.039758868515491486,-79.78275848621769,40.4590321609033,272.7438742380142,-0.01670614816248417,0.011939561925828457,0.9962286949157716,0.08430181443691254,-0.013157662305419931,-0.012616541180391802,0.02364590460985129,-0.006695931311696768,0.0004645581357181072,-0.010928291827440262,0.17955708397552372,-0.3877599697932601,-9.804135827422142
6.6,0.8000000119209291,129.0,25.78347969055176,-0.007951773703098297,-79.7827584693059,40.459032171142674,272.74626700687406,-0.016707027330994606,0.01194697804749012,0.9962307214736938,0.08427675813436508,-0.01415989404359902,-0.015292393387374396,0.02385640433958581,0.006113958545029163,0.004869363270699978,0.00820915587246418,0.18007955096662046,-0.3845812771841884,-9.802834821939467
6.7,0.8000000119209291,127.0,25.780975341796875,-0.05566241592168808,-79.78275837165384,40.459032228006656,272.7599233846664,-0.016695009544491768,0.011955199763178824,0.99623304605484,0.08425041288137436,-0.017828658909947483,-0.01811517031360737,0.02444412510087195,0.005107014905661345,0.0007587517029605808,0.005803130101412536,0.17742725394666195,-0.3698062037676573,-9.80184430360794
6.9,0.8000000119209291,129.0,25.79099273681641,-0.03180709481239319,-79.78275834783426,40.45903224197485,272.7624245147705,-0.016715053468942642,0.011939589865505695,0.9962343573570251,0.08423305302858353,-0.02139749001173856,-0.02048832010476956,0.024989536903347667,-0.005572877824306488,-0.002641144674271345,-0.0007743215537630023,0.17794844185933473,-0.3791515161842108,-9.803148232698437
7.0,0.8000000119209291,126.0,25.7872371673584,-0.04771064221858978,-79.78275825604574,40.459032311201156,272.7762639980316,-0.016742894425988197,0.011927228420972824,0.9962358474731444,0.08421172201633452,-0.02096412095685304,-0.023520282427005417,0.025229486518866213,0.004532421939074993,0.0012922922614961865,0.005755979102104902,0.17828155042603613,-0.3618013655394316,-9.80082454919815
7.2,0.8999999761581421,124.0,25.782228469848643,-0.03180709481239319,-79.78275823954716,40.4590323204058,272.78517668056486,-0.016789795830845833,0.011899338103830814,0.9962358474731444,0.08420637249946594,-0.013545595178563382,-0.012840632086835614,0.020500351302447,-0.005844092927873136,-0.0005973723018541932,-0.0049274577759206295,0.17796212799847128,-0.3568056506663561,-9.800308824777604
7.3,0.8999999761581421,124.0,25.78598403930664,-0.015903547406196594,-79.78275822082658,40.45903233128873,272.7872617702484,-0.016774872317910194,0.011898377910256386,0.9962379336357116,0.08418519049882889,-0.014912004497658482,-0.015474346801363444,0.0207863066318293,0.008337943814694881,0.0010600981768220663,0.009917917661368849,0.1809395850263536,-0.38731587376445537,-9.804245755076408
7.51,0.8999999761581421,126.0,25.775968551635746,-0.007951773703098297,-79.78275817313406,40.459032419600334,272.80134026813505,-0.016803914681077003,0.011909283697605131,0.9962397217750548,0.08415635675191879,-0.010726554897675641,-0.021557805154482697,0.022207349915167214,0.005977640394121409,0.0013539863284677267,0.0034877005964517593,0.17904770012944934,-0.379915126003325,-9.801537324786187
7.61,0.8999999761581421,128.0,25.77972412109375,-0.07156596332788467,-79.78275812749064,40.459032460403925,272.81487386035917,-0.016852062195539474,0.011890225112438202,0.9962428212165833,0.08411290496587752,-0.009869537392216582,-0.015427485377613225,0.022739820618055028,0.00046785437734797597,0.0014082841807976365,-0.002115688286721707,0.17846363637596369,-0.3765280167013407,-9.80239920437336
7.8,0.8999999761581421,126.0,25.7872371673584,0.0,-79.78275811185922,40.45903247402594,272.81717877197264,-0.016860172152519226,0.011877978220582008,0.9962449669837952,0.08408702164888382,-0.01238805735023995,-0.017889726405466818,0.02322781973630357,0.0006924564950168133,-0.0015341233229264615,0.0042902291752398005,0.17960848465561868,-0.3875515531003476,-9.804504786729813
7.9,0.8000000119209291,126.0,25.78347969055176,-0.03180709481239319,-79.7827580940845,40.45903248856237,272.8195324401855,-0.016851995140314102,0.011872113682329656,0.9962465167045592,0.08407188951969148,-0.015512640522766196,-0.020281796784188413,0.02375408572908253,-0.005856595002114773,0.00035926871350966394,-0.008480236865580082,0.17886855605989696,-0.3561612144112587,-9.800877758860588
8.1,0.8000000119209291,129.0,25.7872371673584,0.007951773703098297,-79.7827580344639,40.45903254044867,272.83079569149015,-0.016843419522047043,0.011865561828017237,0.9962508678436279,0.08402260392904283,-0.016037968968200773,-0.01836370786015256,0.020179010376664686,-0.009465358220040798,-0.002705811988562345,-0.00964499730616808,0.1784142639487982,-0.3654608454555273,-9.801208126544953
8.2,0.8000000119209291,137.0,25.78973960876465,0.0,-79.78275796247395,40.459032617827184,272.8430601816177,-0.01683673821389675,0.011875871568918228,0.9962536692619324,0.0839889645576477,-0.016846521556038618,-0.02172759983392049,0.01923185127726384,-0.0046697864308953285,-0.0012304463889449837,-0.0003684578405227512,0.180889810603112,-0.3745127007365227,-9.803285057544713
8.4,0.8000000119209291,136.0,25.78473281860352,-0.007951773703098297,-79.7827579391688,40.459032635303615,272.8450160484314,-0.016853876411914825,0.011883016675710678,0.9962531328201294,0.08399166911840439,-0.018725208201091442,-0.024185238308557132,0.01969731865354256,0.002640527207404375,1.0411831681267357e-05,0.0013481344794854526,0.17897524947300555,-0.3621059689298272,-9.801731452345848
8.5,0.699999988079071,138.0,25.78598403930664,-0.007951773703098297,-79.78275796123997,40.45903267936888,272.856279299736,-0.016911661252379414,0.011871268972754478,0.9962546229362488,0.08396412432193756,-0.009478419441178151,-0.019004442912699558,0.017834541586177442,-0.0060533881187438965,-0.003648310666903853,-0.010326371528208256,0.17955774178728462,-0.38727878049016,-9.804432865977287
8.7,0.699999988079071,138.0,25.78598403930664,-0.03180709481239319,-79.78275791275618,40.45903273458893,272.8666117649078,-0.016904976218938828,0.011863073334097862,0.9962565302848816,0.08394301682710648,-0.009029920155401449,-0.01861265722924774,0.017157426070103298,0.009959631599485874,0.002075114054605365,0.009228393435478207,0.18050859041512013,-0.3859493063762784,-9.803685007095336
8.8,0.6000000238418579,140.0,25.79474830627441,-0.07951773703098297,-79.78275789669469,40.45903275095337,272.8683540086746,-0.01689464598894119,0.0118762431666255,0.9962583184242249,0.08392219245433807,-0.013094194737710046,-0.02105888818831151,0.017749139941684554,-0.0064218975603580475,-0.003844893770292401,-0.009296266362071036,0.17757807556539776,-0.3630982048809529,-9.801215727925301
9.0,0.699999988079071,139.0,25.79224395751953,-0.08746951073408127,-79.78275787078802,40.459032784804094,272.8795900802612,-0.01690772548317909,0.011831486597657205,0.9962634444236756,0.08386494219303131,-0.009592969998618377,-0.01403546139029936,0.016366127096872532,-0.0012124939821660519,-0.000134381145471707,0.0010392781114205716,0.17897227104753258,-0.38036506924778224,-9.803944623470306
9.1,0.699999988079071,135.0,25.79975700378418,-0.07951773703098297,-79.78275785082924,40.45903285743224,272.8907946805954,-0.01691501401364803,0.011836289428174496,0.9962679147720336,0.08381030708551407,-0.005501905152185242,-0.016598043966559978,0.0157278764423657,0.0006061589228920639,0.0004751481756102294,0.006301460321992636,0.17880074663087728,-0.36044170517474416,-9.80033513724804
9.3,0.699999988079071,137.0,25.78973960876465,-0.09542128443717957,-79.78275783961233,40.45903287258047,272.89238397884367,-0.016911165788769722,0.011858689598739149,0.9962692260742188,0.08379169553518295,-0.009093188612950713,-0.0190717665736392,0.01629698326074499,-0.008833227679133415,-0.006407120265066625,-0.010231771506369114,0.17781660541892053,-0.3576404868811369,-9.801314545869829
9.4,0.699999988079071,135.0,25.796001434326172,-0.07951773703098297,-79.78275782667095,40.45903288892992,272.89401798057554,-0.016920613124966618,0.011849709786474705,0.996270716190338,0.08377393335103989,-0.009620777372277893,-0.021453450622009568,0.01653149995933041,0.004587111528962851,0.0029394358862191447,0.008279070258140564,0.17887555444613104,-0.3809207740053535,-9.80243253350258
9.6,0.699999988079071,135.0,25.79349708557129,-0.17493902146816254,-79.78275782306739,40.45903291260497,272.9049001197815,-0.016938745975494385,0.011807410046458244,0.9962751865386964,0.08372332155704497,-0.008255989081995941,-0.014295594855454962,0.015641336905604486,0.003143878886476159,-0.0019286704482510688,-0.0027469187043607235,0.17751932932063938,-0.3618558908253908,-9.800719299316409
9.7,0.699999988079071,130.0,25.796001434326172,-0.08746951073408127,-79.78275778045695,40.45903297358594,272.91590623664854,-0.0169467031955719,0.011807472445070744,0.9962782859802246,0.08368422091007233,-0.012246072244103928,-0.016437515322182104,0.0159016681836494,-0.007388326805084944,-0.004875646904110909,-0.010989367961883543,0.17947317643091085,-0.3870467922091485,-9.803482693433764
9.9,0.699999988079071,129.0,25.79349708557129,-0.07951773703098297,-79.78275776485505,40.45903298696477,272.91752033042906,-0.016965501010417938,0.011811930686235428,0.9962781667709352,0.0836816355586052,-0.012594926095489685,-0.018676560080933505,0.016210453559143058,0.005597108975052834,0.002241413341835141,0.005219419486820698,0.18072541248053314,-0.3796574830636382,-9.803075142502783
10.0,0.699999988079071,133.0,25.79224395751953,-0.08746951073408127,-79.78275778566555,40.459033017295646,272.9278558950424,-0.017006013542413708,0.011807361617684364,0.9962801933288574,0.08364923298358917,-0.007497102946207341,-0.013315462179555966,0.015861326593959342,0.0005155534599907696,0.0013067156542092562,6.156269228085877e-05,0.17785857746377587,-0.3754945578798652,-9.802655897140504
10.21,0.8000000119209291,129.0,25.79349708557129,-0.09542128443717957,-79.78275780001097,40.45903305245291,272.93663434791563,-0.017026754096150398,0.011797891929745674,0.9962807297706604,0.08364084362983704,-0.0026679689613436394,-0.009938208891567052,0.014653438067361862,0.003977501764893532,-0.001515955664217472,0.005464022047817707,0.18010745314881207,-0.3864068875461817,-9.805161429047585
10.3,0.8000000119209291,126.0,25.79224395751953,-0.07951773703098297,-79.78275779385088,40.459033062081744,272.9381143312454,-0.017030278220772743,0.011798497289419174,0.996281087398529,0.08363472670316696,-0.005551553930935366,-0.012300420526591523,0.015185457964661428,-0.003415863960981369,-0.001977583859115839,-0.006535416003316641,0.17799330096691848,-0.35604408737272025,-9.800736256241796
10.5,0.8000000119209291,128.0,25.79349708557129,-0.07951773703098297,-79.78275780273755,40.45903308283794,272.9483761053085,-0.017068957909941673,0.01176378782838583,0.9962852001190186,0.08358244597911835,-0.00462544244570612,-0.007689240116266919,0.01460448643978234,-0.00939019862562418,-0.001530354144051671,-0.012308025732636452,0.17715831857174635,-0.3630289884656668,-9.802387509942058
10.6,0.8000000119209291,126.0,25.79224395751953,-0.07951773703098297,-79.78275780311981,40.459033115179416,272.9585092525482,-0.0170706007629633,0.011726845987141129,0.99628883600235,0.08354441076517105,-0.004989220543217807,-0.006888657745307758,0.01465926525736521,-0.004153115674853325,-0.0027145505882799625,0.00126644445117563,0.17846844205632806,-0.3774011521786452,-9.802747698426248
10.8,0.8000000119209291,129.0,25.78973960876465,-0.09542128443717957,-79.78275779562034,40.4590331219052,272.95999758052824,-0.01707036234438419,0.01174020953476429,0.9962877035140992,0.08355575799942018,-0.006612369796859458,-0.009336696901420971,0.015081366122720203,-0.001720047788694501,0.0008269018144346774,-0.0019158640643581746,0.17616149621084334,-0.3617165078222752,-9.801147900223732
10.9,0.8000000119209291,127.0,25.79474830627441,-0.09542128443717957,-79.78275778700353,40.45903312966872,272.9615359764099,-0.01708388887345791,0.011711890809237957,0.9962906241416932,0.0835227221250534,-0.008180908538809865,-0.011312926517861371,0.01555364532242427,0.0034864107146859173,-0.0004449938714969903,0.0051178052090108395,0.1782097393088043,-0.3882322055473924,-9.805009986162188
11.1,0.8000000119209291,128.0,25.79349708557129,-0.08746951073408127,-79.78275780883298,40.45903314085799,272.97174815940855,-0.017121423035860058,0.011666825041174887,0.9962928891181946,0.08349426090717316,-0.004953797692943259,-0.006386858146325935,0.015461609091042603,0.00799440313130617,0.006042478140443564,0.010620228946208954,0.1796683272533119,-0.3868729837238789,-9.80391480267048
11.2,0.8000000119209291,121.0,25.79099273681641,-0.07156596332788467,-79.78275782796959,40.459033200395325,272.9818438749313,-0.017136530950665474,0.011681932024657726,0.9962931275367736,0.08348679542541504,-0.002584465836137346,-0.011601580622962786,0.015126680004055459,0.006894143298268318,0.0016121610533446074,0.006703259889036417,0.17861621215939522,-0.3655117527768016,-9.80230331003666
11.4,0.8000000119209291,124.0,25.782228469848643,-0.08746951073408127,-79.78275782226206,40.45903321080407,272.98337201881407,-0.017154699191451073,0.011677800677716732,0.9962946772575378,0.08346492052078247,-0.005732105275613885,-0.013574961765570392,0.015618856886917281,-0.003757335478439928,-0.0008806197438389063,-0.0007726101903244853,0.1779472358711064,-0.3777637891843915,-9.803035966157914
11.5,0.8000000119209291,120.0,25.79349708557129,-0.07951773703098297,-79.78275786597155,40.459033225800454,272.99135570335386,-0.01717475987970829,0.01167884562164545,0.996295928955078,0.08344489336013794,-0.0015961323209057532,-0.009932397593420595,0.012350299655763735,0.003110165707767009,0.0007575845229439437,0.0060492949560284615,0.1775480354949832,-0.3639225891977549,-9.800808176994323
11.7,0.8000000119209291,122.0,25.78973960876465,-0.08746951073408127,-79.78275786589988,40.459033251438605,272.99992828178404,-0.017185648903250694,0.011682765558362007,0.9962952136993408,0.0834512934088707,-0.00384346207527129,-0.009633960163996804,0.012732110228530023,-0.004266550298780203,-0.0017900179373100398,-0.006906488444656135,0.17985573051497342,-0.3572380157187581,-9.800372559428217
11.8,0.8000000119209291,122.0,25.79224395751953,-0.09542128443717957,-79.78275785924788,40.459033260548225,273.0012122850418,-0.017177186906337738,0.01167433336377144,0.9962961077690125,0.08344366401433945,-0.004547680439941152,-0.011694238555635143,0.01303045879181434,0.01072021760046482,0.0009305945131927726,0.008521459996700287,0.1810995977371931,-0.3882026405632496,-9.804129980206492
12.0,0.8999999761581421,128.0,25.79474830627441,-0.10337305814027786,-79.78275786029634,40.459033276901614,273.0108801584244,-0.017192669212818146,0.011704263277351856,0.9962974190711976,0.08341998606920242,-0.0067824978776810894,-0.008994040357826912,0.013327246224842151,0.008821076713502407,0.0019383399048820136,0.0071352217346429825,0.1801637691445649,-0.3839453193917871,-9.803225415945054
12.1,0.8999999761581421,123.0,25.79975700378418,-0.039758868515491486,-79.78275785056641,40.459033284098346,273.01225952911375,-0.017209198325872418,0.0117103923112154,0.9962975382804872,0.08341526985168457,-0.010240286489534805,-0.010885755925915534,0.01408326257299229,-0.006116911303251982,-0.0014914895873516796,-0.007360198069363832,0.1767777744680643,-0.3673275325074792,-9.803534148931504
12.2,0.8000000119209291,123.0,25.788488388061523,-0.08746951073408127,-79.78275785249609,40.45903332714524,273.0221423368454,-0.017206696793437004,0.011716453358530998,0.9962992668151855,0.08339308947324753,-0.010117615922934305,-0.015270547645596728,0.014586698028665074,-0.005991383921355009,-0.0016226836014539006,-0.00011962096323259175,0.1776665147021413,-0.3738915437087417,-9.802634847164157
12.4,0.8000000119209291,121.0,25.797252655029297,-0.07951773703098297,-79.78275783895317,40.45903333943973,273.0236239891052,-0.017226517200469967,0.011723711155354977,0.9962990283966064,0.0833912044763565,-0.011387896293340787,-0.01731834748678204,0.014966611411004228,0.0006768099265173078,0.0015221468638628721,-0.0033686000388115644,0.17827817000448706,-0.36191001411527396,-9.80050879955292
12.5,0.8000000119209291,117.0,25.79349708557129,-0.09542128443717957,-79.78275796341701,40.45903332390638,273.0326483707428,-0.01727256551384926,0.011727500706911087,0.9963010549545288,0.08335688710212708,0.00036525516615470527,-0.008616094313910382,0.014875177834983341,-0.004712696187198162,6.356340600177647e-05,-0.011459906585514544,0.17978549083694814,-0.3880239350348712,-9.803570401668551
12.7,0.8999999761581421,115.0,25.788488388061523,-0.09542128443717957,-79.78275798988443,40.45903334827299,273.04012589263914,-0.01729244366288185,0.011749813333153723,0.9963023662567142,0.08333458751440047,0.0026504157638254397,-0.01097516766533574,0.014668931209583194,0.008104538545012474,0.0044579841196537035,0.008743155747652054,0.18038439190015196,-0.38527252770960335,-9.803468660116195
12.8,0.8999999761581421,114.0,25.7872371673584,-0.09542128443717957,-79.7827579892014,40.45903335952896,273.04159765052793,-0.017284167930483818,0.01176054310053587,0.9963033199310304,0.08332251012325287,-0.0006277380756787183,-0.013215461182073179,0.01532589372543834,-0.003951739985495807,-0.004873882047832011,-0.009026858024299143,0.17699295200407505,-0.3673036685585976,-9.802391018271447
13.0,0.8999999761581421,108.0,25.788488388061523,-0.09542128443717957,-79.78275798560344,40.459033375241454,273.05005674171446,-0.017287973314523697,0.011761000379920006,0.9963070154190063,0.08327808231115341,-0.0059698207129892725,-0.013976764308364902,0.014983253380530713,-0.00019274238729849452,0.0033518781419843435,0.0030574430711567398,0.1778570425696671,-0.384340335354209,-9.803651093244556
13.1,1.0,114.0,25.79224395751953,-0.07951773703098297,-79.78275797678704,40.45903338717135,273.0515690307617,-0.01730205863714218,0.011748838238418102,0.9963048100471495,0.0833030641078949,-0.007682150265883663,-0.01607754080388049,0.015462093099933547,-0.0032714628614485264,-0.00047220732085406775,-0.008465440012514591,0.17898553691804409,-0.3565253132209182,-9.80071403682232
13.3,1.0,109.0,25.79099273681641,-0.08746951073408127,-79.78275801273847,40.45903341185182,273.0596949319839,-0.017310742288827896,0.011763010174036026,0.9963074922561646,0.08326665312051773,-0.005306041976343824,-0.017952060280096358,0.015446547931092897,-0.004928478971123695,-0.004070482216775417,-0.008676156401634216,0.17659369681030512,-0.3608845952153206,-9.801261920928958
13.4,1.0,109.0,25.78973960876465,-0.08746951073408127,-79.78275800480752,40.45903342741234,273.06122677135465,-0.017323018983006474,0.011759492568671705,0.9963079690933228,0.08325889706611632,-0.0051467515768035725,-0.02013457360353693,0.015630551487402958,0.006831909529864788,0.0016278595430776475,0.005314858630299568,0.17849347544834018,-0.3789102089032531,-9.802377569675446
13.6,1.0,104.0,25.788488388061523,-0.09542128443717957,-79.78275809954046,40.45903338591409,273.06833665180204,-0.017340971156954762,0.01173875480890274,0.996309459209442,0.08324120193719864,0.0008525576929492001,-0.011103466598710726,0.01511407028890804,-0.0016921469941735268,0.0020268179941922426,-0.0031811094377189875,0.17760429667308927,-0.3627137504518032,-9.801632634401322
13.7,1.100000023841858,104.0,25.78598403930664,-0.12722837924957275,-79.78275814263436,40.45903338068953,273.07512121009825,-0.017304036766290658,0.011764107272028923,0.9963114857673644,0.08322113007307053,-0.0003827235683785706,-0.011345303371517805,0.014844799586931204,-0.005088525358587503,-0.003137322841212153,-0.009331355802714823,0.17919501341879368,-0.3879856723174453,-9.80364056825638
13.9,1.2000000476837158,102.0,25.79099273681641,-0.11132483184337616,-79.78275814152828,40.45903339140101,273.07659642505644,-0.01730887033045292,0.011771810241043571,0.9963125586509703,0.0832056924700737,-0.00024077495520929672,-0.013595185457632705,0.01521385795397764,0.00906484480947256,0.0032432670705020428,0.0109129985794425,0.1795554759912193,-0.3860435561835766,-9.804772589206696
14.0,1.100000023841858,104.0,25.79349708557129,-0.10337305814027786,-79.78275816300777,40.45903339682351,273.08334331321714,-0.01731201820075512,0.011787637136876585,0.9963146448135376,0.0831783339381218,-0.0028238361673040236,-0.017220449985039226,0.015616954718825285,0.007982686161994934,0.007182049099355936,0.004258196335285902,0.17784348433837294,-0.3631929663196206,-9.802638355493547
14.2,1.100000023841858,108.0,25.79224395751953,-0.09542128443717957,-79.78275825195729,40.45903335557606,273.0872787694931,-0.01732879318296909,0.011764764785766602,0.996317446231842,0.08314397186040877,0.0035221192122019936,-0.010885326224831921,0.014482253045051319,-0.008835677057504654,-0.004174049943685532,-0.002445718040689826,0.17669613271951676,-0.3760069566965104,-9.80307338833809
14.3,1.100000023841858,110.0,25.79099273681641,-0.10337305814027786,-79.78275825406125,40.45903336710122,273.08870308208463,-0.01732352189719677,0.011763469316065313,0.9963160753250122,0.083161361515522,0.002839516293901164,-0.013199456951563887,0.014849291531636463,0.0013271576026454568,0.0010719209676608443,0.0014876305358484387,0.17785181662067773,-0.3667844723537565,-9.802002763152123
14.5,1.100000023841858,115.0,25.78598403930664,-0.11132483184337616,-79.78275826160571,40.45903330659297,273.0932829837799,-0.017310092225670815,0.011744321323931215,0.9963194131851196,0.08312732726335527,-0.005888315402219266,-0.008721482868273065,0.014017171796043629,-0.003261148929595948,0.0007813386619091034,-0.0039118449203670025,0.17676143880933526,-0.3592602387070656,-9.801554866433145
14.6,1.100000023841858,111.0,25.78473281860352,-0.11927660554647446,-79.78275831769581,40.45903326060553,273.09917561817167,-0.017299626022577286,0.01174556277692318,0.9963222742080688,0.0830950066447258,-0.004045880950336318,-0.008163246041500117,0.016966924052985638,-0.005958132911473514,-0.0019873746205121283,-0.01152279507368803,0.1783196121454239,-0.3887017735093832,-9.804338725805284
14.8,1.100000023841858,115.0,25.78973960876465,-0.09542128443717957,-79.78275831169172,40.45903326865679,273.10088710594175,-0.017297945916652683,0.01174332108348608,0.9963245987892152,0.08306770026683807,-0.004142231156188804,-0.010486835788453915,0.017316863433442974,0.007284981664270163,0.004747467581182718,0.010416430421173573,0.17980407401919365,-0.3879180638864637,-9.804217103719713
14.9,1.0,120.0,25.78598403930664,-0.09542128443717957,-79.78275838394028,40.4590332466896,273.10440532970426,-0.01731906644999981,0.011784855276346208,0.996326208114624,0.0830388143658638,0.0007675487457446165,-0.015717098244355767,0.016573522818825782,0.004539382178336382,0.004113561473786831,0.004982338286936283,0.17677757347002626,-0.360328963547945,-9.80133150279522
15.1,1.100000023841858,125.0,25.72964286804199,0.8269844651222229,-79.78275838154119,40.45903326114209,273.10606663036344,-0.017315218225121498,0.01179092563688755,0.9963228106498718,0.0830783098936081,-0.0029993726951635298,-0.017851153882911426,0.0173098447941796,-0.0070156692527234546,-0.00042213761480525136,-0.015625011175870895,0.1753023940511048,-0.3714940025657416,-9.803093268871306
15.2,0.8999999761581421,127.0,25.774715423583984,0.2306014448404312,-79.78275844606398,40.459033167611906,273.1078068475723,-0.017334967851638794,0.011800228618085384,0.996328592300415,0.08300401270389557,-0.001876550751343229,-0.010988202650605742,0.015653818721853167,-0.006900048349052668,-0.0054880431853234785,0.0003626324178185314,0.18145304365083573,-0.3726566483080387,-9.804808257222176
15.4,0.8999999761581421,131.0,25.76970863342285,0.21469789743423465,-79.78275844277383,40.459033177483285,273.1093689661026,-0.017335202544927597,0.011812943033874037,0.996330976486206,0.08297346532344818,-0.0016211756494025984,-0.013504298179484413,0.01605565834499428,0.006701791658997536,0.00676431180909276,0.003818853991106153,0.1761810843832791,-0.3675779395177961,-9.802736003994942
15.5,0.8999999761581421,134.0,25.76595115661621,0.20674611628055573,-79.78275852546346,40.45903305014168,273.1082803468704,-0.017334245145320892,0.011788262985646723,0.9963322281837464,0.08296200633049011,-0.00013490412777032455,-0.0041783374701502285,0.012530600513036307,0.0033112834207713604,0.0041609429754316815,0.0013007287634536624,0.1731788132339716,-0.3813094676658511,-9.801739053726195
15.7,1.0,136.0,25.76469993591309,0.2306014448404312,-79.78275864425069,40.45903295018178,273.1044395427704,-0.017359815537929542,0.011796340346336365,0.9963337182998656,0.0829377993941307,0.008753318709417849,-0.002159842008109743,0.008804642615820842,-0.0015453019877895713,-0.0008554616360925138,-5.2091995712544295e-06,0.17343773525208234,-0.3799566777795553,-9.802273489236832
15.81,1.100000023841858,137.0,25.762195587158203,0.2385532110929489,-79.78275865371498,40.45903295442545,273.10529510784147,-0.017345717176795006,0.011803112924098969,0.9963337182998656,0.08293910324573517,0.007410052827194728,-0.004252506364559006,0.009143296940562855,-0.0008896649815142155,-0.0014131928328424694,-0.0018455137033015487,0.17598198669031262,-0.3622531725838781,-9.799917061328893
16.0,1.100000023841858,135.0,25.75969123840332,0.3101191818714142,-79.7827587179848,40.45903284124753,273.1041560630798,-0.01737435907125473,0.011790957301855087,0.9963327050209044,0.08294779807329178,0.004625527612597969,-0.002736883585899809,0.010291517137985288,-0.0031500449404120445,-0.0016890866681933405,-0.006732475012540817,0.17728975301608446,-0.35257694430649283,-9.798952270746232
16.1,1.100000023841858,136.0,25.75969123840332,0.3816851377487183,-79.78275878515689,40.45903270939894,273.1020242433548,-0.017383715137839317,0.011749617755413055,0.9963327050209044,0.08295224606990814,0.0025030423365792784,0.0018249306069706421,0.010467656974539177,-0.0067204106599092475,0.0012918830616399644,-0.009181837551295756,0.17314234122633934,-0.3910117891430855,-9.798741770982742
16.3,1.100000023841858,139.0,25.58815956115723,2.417339324951172,-79.78275878900781,40.459032709619024,273.10320989894865,-0.017419086769223213,0.011817524209618568,0.9963272213935852,0.08300070464611052,0.0028290226800107127,-0.002635896504751716,0.01403089935752262,0.008750895969569683,0.012892084196209908,0.00927420798689127,0.15665626287460327,-0.34959968827664856,-9.816624895334243
16.4,1.2999999523162842,139.0,25.74216270446777,0.44529932737350464,-79.78275879211104,40.45903271105368,273.1044382314682,-0.01767277903854847,0.01192730013281107,0.9963276386260986,0.08292609453201294,0.0008658339090631211,-0.00045696244539735565,0.011607133264209686,-0.0009014592505991461,-0.015087321400642397,-0.013168716803193092,0.15868621515110135,-0.4097875275090337,-9.783526731133461
16.6,1.2999999523162842,136.0,24.239702224731445,18.44016456604004,-79.78275882264445,40.45903260507604,273.1006048183441,-0.017765341326594353,0.01186927780508995,0.9963250756263732,0.08294480293989183,-0.0064149449379863645,-0.007827901006919581,0.010672715307700713,-0.023533117026090625,0.012476623989641666,-0.007411539088934659,0.17308399697765708,-0.3506362168863416,-9.803997833132744
16.7,1.5,138.0,25.655771255493164,1.7016795873641968,-79.78275890869031,40.459032472250854,273.09610347557066,-0.01798514649271965,0.011858518235385418,0.996327817440033,0.08286674320697784,-0.006691660098893514,-0.005081140062286332,0.011789107192541004,-0.03531492501497269,-0.0073473756201565266,-0.06418357789516449,0.19825176531448965,-0.4374179968982935,-9.818793042898179
16.9,1.399999976158142,137.0,25.760942459106445,0.12722837924957275,-79.78275890641069,40.459032478990686,273.09717075634,-0.017994018271565437,0.011823148466646671,0.9963259696960448,0.08289214968681335,-0.009162017260966538,-0.007557139627826588,0.012192229679954342,-0.04866563528776169,-0.00926298275589943,-0.007181636523455381,0.17681581791490314,-0.28970826633274555,-9.792971153855325
17.0,1.399999976158142,141.0,25.73965835571289,0.7951774001121521,-79.78275896731725,40.45903232656186,273.0911874036789,-0.017796162515878674,0.011774450540542604,0.9963290095329284,0.08290506154298782,-0.0022203413234926288,-0.007127915377134093,0.010611358107863804,0.013148987665772438,-0.02404837124049664,0.006889400538057089,0.1836075598932803,-0.3859631569683552,-9.802822542786599
17.2,1.399999976158142,143.0,25.485492706298828,4.134922504425049,-79.78275906623703,40.45903218082362,273.083938167572,-0.017735958099365234,0.011690817773342129,0.9963296055793762,0.08292217552661896,0.004951623984007347,-0.004549953880205372,0.011132099697993586,0.0008822697564028203,0.009380432777106762,-0.001352314604446292,0.1655754046328366,-0.3671411525085568,-9.803682083487509
17.3,1.2999999523162842,143.0,25.40786552429199,5.009617805480957,-79.78275907139785,40.45903218636057,273.0850950937271,-0.017711235210299492,0.011728467419743538,0.9963276982307434,0.08294568955898285,0.00552975854838385,-0.006377047552400563,0.012397738483636156,-0.000593438046053052,-0.026567131280899048,0.0014401848893612625,0.18673103285953405,-0.389962615929544,-9.79995740711689
17.5,1.2999999523162842,144.0,25.228822708129893,7.403101444244385,-79.78275914318682,40.45903201665916,273.077958152771,-0.017902346327900887,0.011846425943076607,0.996325433254242,0.08291491866111755,-0.00042488416119152047,-0.002581628503130144,0.013930043310581031,-0.02618482895195484,-0.0492953397333622,-0.03159025311470032,0.1489786037709564,-0.3301464768871665,-9.771922931671146
17.6,1.2999999523162842,147.0,25.13742256164551,8.99345588684082,-79.78275922205505,40.45903184785496,273.06756548690794,-0.018472716212272644,0.012007234618067741,0.9963146448135376,0.08289691060781479,0.002686216292242925,-0.005632176194058832,0.006917657868700272,0.04074689373373985,-0.054303266108036034,-0.0653674378991127,0.24616893013939264,-0.3028571011684835,-9.84106274843216
17.8,1.2999999523162842,147.0,24.91330528259277,12.046937942504885,-79.78275922494466,40.45903185017977,273.06839947509764,-0.01864663884043693,0.011992042884230614,0.9963116645812988,0.08289480954408646,0.0014578028027865569,-0.007548575622833297,0.008146363270620965,0.018502343446016308,-0.010372305288910866,-0.008964128792285921,0.22022545555606485,-0.3862652387470007,-9.840935279130935
17.9,1.399999976158142,147.0,24.78935241699219,13.724761962890625,-79.78275932651793,40.45903168852421,273.0577830533981,-0.019745387136936188,0.012105200439691544,0.9963023066520692,0.08273669332265854,0.004142734271529753,-0.005799988534266915,0.011387959128160449,-0.015694450587034225,-0.012418159283697605,-0.001487739966250956,0.20832487335428598,-0.4240101852267981,-9.818169729709624
18.1,1.2999999523162842,149.0,24.531429290771484,17.676794052124023,-79.78275933132177,40.45903169756727,273.05921559143064,-0.019955379888415337,0.012332094833254814,0.99628484249115,0.08286305516958238,-0.00473183750111207,-0.018187385791262348,0.020136261217763653,-0.026306957006454468,0.08153493702411653,0.0045278943143785,0.18409399341791868,-0.279224921297282,-9.861375975608826
18.2,1.100000023841858,149.0,24.408727645874023,19.37052154541016,-79.78275943501164,40.459031531024415,273.0509450893402,-0.02007681503891945,0.014905393123626709,0.9961232542991638,0.08434087038040161,0.00956224665320092,-0.020571112219729917,0.01807494873604229,-0.0756615400314331,0.05169687047600746,0.03401455655694008,0.16036072980612515,-0.3801861809939146,-9.876063011884687
18.4,1.100000023841858,149.0,24.147050857543945,23.21122741699219,-79.78275944277112,40.459031556658346,273.0544909696579,-0.01862804032862186,0.01720781251788139,0.995988667011261,0.08581110090017319,0.005290213690505346,-0.026184374303927282,0.06657351354393068,-0.07645969092845918,0.05057767406105995,-0.0545794889330864,0.08475898143835366,-0.4605864560231567,-10.192161151170733
18.5,1.2000000476837158,150.0,23.988039016723643,25.453628540039066,-79.78275958250798,40.459031370756456,273.06850759792326,-0.004003964830189943,0.012384728528559208,0.9965863823890686,0.08152467757463455,0.012188026535427577,-0.029516332161928425,0.2941628722326727,-0.3045762777328491,-0.10150457173585893,-0.06791742891073227,0.3512893143296242,-0.6153095928579569,-10.732236886024475
18.7,1.2999999523162842,149.0,24.45129776000977,19.00473976135254,-79.78275993546005,40.459031323634356,273.0676938753128,0.00775330187752843,0.002895701676607132,0.996764063835144,0.07995674759149551,0.05310462734164275,-0.010156927955436046,0.2884126356371117,-0.07069403678178787,-0.15602467954158786,-0.03440077230334282,0.2901951932162047,-0.044136501364409934,-10.372124415636065
18.8,1.399999976158142,148.0,24.48134803771973,18.24932098388672,-79.78275998749682,40.45903135014347,273.097402141571,0.011459063738584518,-0.00312253599986434,0.9968007206916808,0.0790402963757515,0.06475130088424168,-0.02271682473407521,0.2934021301074028,0.06007511168718337,0.03934505209326744,-0.02469244971871376,-0.028401216922793536,0.14728513134643434,-9.908637850284578
19.0,1.399999976158142,141.0,24.45129776000977,18.48787498474121,-79.78276003851747,40.459031048806146,273.1173878173828,0.003953319974243641,0.0003267029533162713,0.9967719316482544,0.08018790185451508,0.040537152070945534,0.015865708085469096,0.18364607539851147,-0.020760728046298027,0.05029033124446869,-0.027417922392487533,0.04829030854627489,0.238153457287699,-9.420782428979876
19.1,1.399999976158142,142.0,24.3436222076416,20.56328773498535,-79.78276055349681,40.45903072915213,273.13792018699644,0.0029457435011863713,0.004080838989466429,0.9967174530029296,0.08080252259969711,0.09242283898135446,0.062325901669264175,0.06443511443515887,-0.016213808208703998,0.008525809273123741,0.018774831667542458,0.09824630610644818,0.05726710019633175,-9.209581584334376
19.2,1.5,142.0,24.28352355957031,20.277023315429688,-79.78276066696861,40.45903068714046,273.1438965063095,0.004726806189864874,0.005356479436159135,0.9966599941253662,0.0813508853316307,0.08776498499436751,0.06411685361569226,0.05543606959704974,-0.042087897658348083,0.05052438005805016,-0.006280219648033381,0.07823362581431867,-0.04084872163832188,-9.347744858264925
19.4,1.5,145.0,24.198383331298828,21.883281707763672,-79.78276077920502,40.45903064501231,273.14903859901426,0.004967600107192993,0.005206211470067501,0.9965771436691284,0.08235471695661545,0.07396931021504245,0.06149150138483756,0.04962626943875606,-0.09780088812112807,-0.04019656404852867,0.017509207129478455,0.033403640105389064,0.19601853093132374,-9.74380308687687
19.5,1.600000023841858,144.0,24.29980087280273,20.420154571533203,-79.78276100893288,40.45903037659085,273.1696647863388,0.001742487889714539,0.003478544997051359,0.9964950084686279,0.08356265723705293,0.07376064303374841,0.06329305710649137,0.08976559788200518,-0.1179019808769226,-0.05639921873807908,-0.024650139734148983,0.03059406897285953,0.3428601144254208,-9.867821946144105
19.7,1.600000023841858,144.0,24.177099227905273,22.0025577545166,-79.78276107948223,40.45903023403356,273.17135159778593,0.0032224978785961858,0.0029984223656356326,0.9965136647224426,0.0833139568567276,0.06265607139373472,0.03764336982358345,0.09662371875709228,-0.07611284404993057,-0.005012506153434515,-0.015789126977324486,-0.009922356085153298,0.2598782023228705,-9.787176563143733
19.81,1.7000000476837158,147.0,24.18836784362793,21.50954818725586,-79.78276126650968,40.459030197067115,273.193770573616,0.0046201590448617935,0.0035347442608326674,0.9966349005699158,0.08176243305206299,0.08339896458616912,0.03065479145639584,0.1317660530266216,-0.027766812592744827,0.025235587731003758,0.032046325504779816,0.002300730894785375,0.2467298060283065,-9.930926266908648
20.0,1.7000000476837158,146.0,24.096967697143555,22.439905166625977,-79.78276136673652,40.4590299647789,273.1999552707672,0.005604891572147608,0.0030163002666085963,0.9966371059417723,0.08169461786746979,0.07922664278075102,0.040229548293415886,0.13451572741940404,-0.06861329078674316,-0.006211691536009312,-0.004278681240975857,0.08191033674404026,-0.06450153121724725,-9.834586372375488
20.1,1.7000000476837158,145.0,24.117000579833984,22.72616958618164,-79.78276166314872,40.45902970409643,273.2103265981674,0.009604454971849918,0.000650655070785433,0.9965237379074096,0.0827515572309494,0.08072603962008712,0.04921867329984237,0.15173164675475484,-0.027772398665547367,-0.09228526055812836,0.04909174889326096,0.03458628972060978,0.016987478235969317,-9.914754037857056
20.31,1.7000000476837158,144.0,24.13202476501465,19.855579376220703,-79.78276176238474,40.45902967508892,273.2270387868881,0.009066048078238964,0.00011824115063063799,0.9964714646339417,0.08344211429357529,0.08328846852837522,0.04262633210527022,0.17829163962325387,0.07474865764379501,-0.050151675939559937,0.029024969786405563,0.0298786392970942,0.14422151925042273,-10.071257103681567
20.4,1.7999999523162842,136.0,24.61406517028809,16.380653381347653,-79.7827618538486,40.45902964458382,273.24568872261045,0.008830912411212921,0.0005963100702501832,0.9964410066604614,0.0838274285197258,0.06303992785760848,0.04758574930308769,0.1678658078625183,-0.0016416452126577494,0.01309797540307045,-0.014023348689079285,0.10299732414074243,0.35135546095669273,-9.629600533246997
20.6,1.7999999523162842,135.0,23.81275177001953,26.54302215576172,-79.78276197493092,40.459029470207035,273.23327772426603,0.007523186039179563,-0.0007713243248872459,0.9964678287506104,0.0836343914270401,0.060746079010412735,0.04728209896165672,0.009453076115110023,-0.04389933496713638,0.02587030827999115,-0.0314326211810112,-0.014549489663913846,0.20431202061474324,-9.539001435041428
20.7,1.8999999761581416,131.0,23.75766181945801,27.44952392578125,-79.78276197131892,40.45902929600362,273.2664378147125,0.008101864717900753,0.0008213206310756505,0.9964542984962464,0.08374057710170746,0.053583091730632484,0.04235714526107226,0.2296463476786925,0.1102832481265068,0.07129573822021484,0.010588858276605606,0.07807259897701442,-0.017731462195515642,-10.247479319572447
20.9,1.8999999761581416,130.0,23.3782901763916,33.166847229003906,-79.78276203015527,40.459029261439206,273.29787115859983,0.008788270875811577,0.0001742713211569935,0.9964830875396729,0.08333247154951096,0.06101718425167992,0.047646796408687575,0.40504967274463183,0.11879469454288485,0.009999954141676426,0.06030761078000069,0.08743739906698465,-0.05582583462819457,-11.405856009721756
21.0,2.0,128.0,23.57110595703125,29.723730087280273,-79.7827616375625,40.45902901643871,273.3153801422119,0.008416684344410895,-0.00026278849691152567,0.9965430498123168,0.08265072852373123,0.0551129926165419,0.039484923673719634,0.5915262267173116,0.11448150873184205,0.07352646440267563,0.02296596206724644,0.010997321001486851,-0.0038313515111804007,-11.889474538564684
21.2,2.0,130.0,23.43838882446289,31.75143241882324,-79.7827616914109,40.459028770132505,273.45903353500364,0.0037571326829493046,0.0013466369127854705,0.9966892004013062,0.08120857179164886,0.031253927659494696,0.05512255360853417,1.0012987215875355,-0.0016506707761436699,0.056150782853364944,-0.017729798331856728,0.0914279958419502,0.16634900953620674,-11.812796491384509
21.3,2.0,128.0,23.184223175048828,35.65575408935547,-79.78276172971646,40.4590287241199,273.56977741527555,0.004390468820929527,0.0023840658832341433,0.9967237710952759,0.0807265043258667,0.02599287216251425,0.05932521452423351,1.2170962861917591,-0.07580618560314177,0.03350736200809479,0.004575960803776979,0.09282962825149298,0.139106082636863,-11.936164555549624
21.4,2.0999999046325684,126.0,23.374534606933594,32.642032623291016,-79.78276177352996,40.45902867787756,273.70319824028013,0.0042415703646838665,0.004707514774054289,0.9967161417007446,0.08072749525308609,0.04215938602019062,0.06551583736706032,1.4602681290384367,-0.0010404875501990318,0.06389293819665909,0.017731012776494026,0.06068929279223085,-0.008691337890923023,-12.19745440363884
21.6,2.200000047683716,127.0,23.16794586181641,35.60009002685547,-79.78276186414351,40.4590280882496,274.1529007415771,0.006874897051602602,0.006053674966096878,0.9965770840644836,0.08215993642807007,0.04956033323220027,0.08687626816647265,2.1177476655091603,0.015901833772659302,0.05395335331559181,0.03841661289334297,0.101051434725523,0.05777946703601629,-12.267601110935216
21.8,2.299999952316284,128.0,23.22053337097168,34.987804412841804,-79.78276190286508,40.45902803961891,274.3770943145752,0.007274287287145853,0.005698360502719879,0.9965450167655944,0.08253896236419678,0.04669020171397553,0.08196524117844173,2.3625057579929067,-0.03816633298993112,-0.027022099122405045,0.03174903616309166,0.031513253557495784,0.1835330444388092,-12.268818501234055
21.9,2.5,130.0,23.434633255004893,31.011919021606445,-79.78276193402813,40.45902799929363,274.62491564559934,0.006656425539404154,0.006436073221266271,0.9964956641197203,0.08313033729791641,0.04812728613846052,0.0729220093327797,2.5909165042229803,-0.01357344165444374,0.08256103843450546,0.006294450256973505,0.016567608180921525,0.11342226097360256,-12.12448816895485
22.1,2.5999999046325684,132.0,23.41835594177246,31.53673553466797,-79.78276202251523,40.459027574625395,275.07047014045713,0.007078633178025484,0.007795039564371109,0.996404767036438,0.08406396955251694,0.04991090741598853,0.08704427117052455,2.8237639209760217,0.06102696806192396,0.059185538440942764,0.10242042690515518,0.039315152289345866,-0.13423853142187,-11.35716273665428
22.2,2.799999952316284,134.0,23.556081771850586,28.403736114501953,-79.78276231653396,40.45902682657074,275.43800525474546,0.01140979677438736,0.011010111309587955,0.9962946772575378,0.08453129231929779,0.05476977322544605,0.12102262002699808,2.881090861659604,0.008677762933075428,0.12203048169612885,0.0662778988480568,0.0963337458204478,-0.04609587135259062,-11.139137606620784
22.4,2.9000000953674316,132.0,23.61367607116699,28.17313575744629,-79.78276233102977,40.45902677835819,275.72900395202635,0.012698213569819929,0.013599350117146969,0.9962320327758788,0.08470917493104935,0.06220611642829474,0.11381432093554447,2.92418251363544,0.07488420605659485,0.13081465661525726,0.09290219843387604,0.12148865941911935,0.12733386509120465,-10.367524995803834
22.5,3.0,133.0,23.8077449798584,25.318449020385746,-79.78276281864079,40.45902578490635,275.76419787216184,0.01277766190469265,0.015055204741656782,0.9961936473846436,0.08490149676799774,0.09494238102942833,0.17544534789187488,2.778879148872833,0.16592566668987274,0.06021532788872719,0.05379532277584076,0.08660913183353841,-0.1685335841216147,-10.167620387077331
22.7,3.0999999046325684,134.0,23.69881629943848,26.94061088562012,-79.78276331443294,40.459024732417475,276.1168437461853,0.012094393372535706,0.017489489167928696,0.9961593151092528,0.08493859320878983,0.05533959757298956,0.1975288458303968,2.663063928592352,-0.0667409896850586,-0.06675698608160019,-0.07041715085506439,0.09759956751018764,0.3261895564198494,-9.775001490712166
22.8,3.2000000476837163,134.0,23.712589263916016,26.566877365112305,-79.78276333957714,40.45902465334664,276.38266091156004,0.011838681995868685,0.017435941845178604,0.9961618185043336,0.08495564013719559,0.0671578225415395,0.17469555783340732,2.6439466660448883,0.06522206962108612,0.09457819163799286,0.0063269794918596745,0.023562865240965042,0.059173434111289676,-9.671306968331338
22.9,3.299999952316284,134.0,23.72385597229004,26.240854263305664,-79.78276342066668,40.45902451031069,276.6292591552734,0.010887845419347286,0.016957765445113182,0.9961943626403807,0.08479838818311691,0.05959454439926895,0.14925552560984326,2.6216520994308263,0.06034305691719055,-0.046413581818342216,0.02596513368189335,0.11803755051456392,0.08297096684575081,-9.731064927577972
23.1,3.5,131.0,23.737628936767567,25.7876033782959,-79.78276384599026,40.45902367979442,277.0105519752502,0.008800703100860119,0.013361643999814987,0.9963252544403076,0.08414248377084732,0.06803542250734677,0.14231140625738029,2.5350803205286137,0.13629333674907684,-0.01966921053826809,0.045976042747497566,0.0924310856871307,-0.01139233582187444,-9.857608029842376
23.3,3.5,129.0,23.844053268432607,24.507368087768555,-79.78276395757176,40.45902319838653,277.37233404922483,0.009352022781968115,0.010250433348119259,0.9963608980178832,0.08409793674945831,0.05587752633481368,0.10834121895022847,2.41869954419726,0.07790379226207733,0.03147423267364502,0.026324369013309482,0.10387127274647356,-0.012114814133383334,-9.670622259378431
23.4,3.5,128.0,23.663759231567386,26.94856262207031,-79.78276397565989,40.459023159628615,277.61269049453733,0.009667417965829372,0.008740759454667568,0.9963746070861816,0.08407070487737656,0.041587544142356464,0.09344617085199293,2.383011985931045,-0.054577186703681946,-0.033964838832616806,-0.009425870142877102,0.14751075164414942,0.2506142027489841,-9.505723176598547
23.5,3.4000000953674316,125.0,23.692556381225586,26.08976936340332,-79.78276350758463,40.45902365768707,277.95209364700315,0.007753207813948394,0.006048612762242557,0.9964156150817872,0.08401978760957718,0.04245677022920948,0.031743129839841754,2.3795061534709694,0.06458376348018646,-0.09223435819149016,-0.051980920135974884,0.140145808942616,0.19658326232805848,-9.622469269037245
23.7,3.4000000953674316,122.0,23.6612548828125,26.7497673034668,-79.78276337254547,40.45902392999514,278.60776524353025,0.004611215088516475,0.0018717198399826886,0.99653160572052,0.08306661993265152,0.01649654478322608,-0.016464205590968985,2.4197726364552707,-0.09404069930315018,-0.08801359683275223,-0.037784770131111145,0.07631885911803693,0.2307610966265201,-9.631561104655267
23.8,3.0999999046325684,119.0,23.543561935424805,28.76156616210937,-79.78276337486658,40.45902395517388,278.84865670013426,0.003950668964534998,0.0017134433146566153,0.9965630173683168,0.08272634446620941,0.05255205652426136,-0.012114928916238393,2.400098474116397,0.21058228611946106,0.07501925528049469,0.09428706020116806,0.17727604860439894,-0.19204584125429394,-9.663553560376169
24.0,3.0,117.0,23.742637634277344,24.84134101867676,-79.78276338292756,40.4590239713333,279.0883760910034,0.003364977892488241,0.002034979872405529,0.9965858459472656,0.08246902376413345,0.008046394288890516,-0.0002485931576385854,2.3989597872394457,-0.23320068418979645,-0.04056581109762192,-0.12694931030273438,0.1498601628933102,0.0476171843893826,-9.710638849139212
24.1,2.799999952316284,118.0,23.602407455444336,26.86109161376953,-79.7827631614989,40.45902424587648,279.7534723739624,0.0042125899344682685,0.0017222051974385975,0.9965528845787048,0.08283618837594986,0.03876839479887817,0.006310096822002476,2.4436784550078583,0.08332893997430801,0.03176819905638695,0.06300685554742813,0.17555654693394898,-0.12365449550561608,-9.734196696281431
24.3,2.700000047683716,114.0,23.74639320373535,25.127605438232425,-79.78276323374254,40.45902403096185,280.3349934082031,0.0042311479337513455,-0.0007258170517161489,0.9964811205863952,0.08370864391326904,0.04128721521629322,0.038711724533472255,2.492238862337689,0.1238277330994606,0.08580129593610764,0.07272867858409883,0.12970911372452976,0.22029417861253026,-9.967395350933076
24.4,2.5999999046325684,112.0,23.75891494750977,24.491464614868164,-79.78276326435113,40.45902399435585,280.5847835998535,0.004137537442147732,-0.0008992900839075445,0.9964592456817628,0.08397112041711807,0.04865204793010231,0.04820337181675753,2.4969169379767218,0.02749660052359104,0.008135032840073109,0.0067381183616817,0.08245138691738248,-0.1283220810815692,-9.851726900339127
24.6,2.5,109.0,23.775190353393555,24.83338928222656,-79.78276305418085,40.459023758791716,281.1945324401855,0.0021977960132062435,0.0009025677572935821,0.9964529871940612,0.0841180756688118,0.024524381073544915,0.08614341336603266,2.511660196107809,0.12419414520263672,0.1527009904384613,-0.0009329605381935836,0.1000351155549288,-0.004574989434331656,-9.682945266366003
24.7,2.299999952316284,109.0,23.676279067993164,25.668325424194336,-79.7827628461609,40.45902359039293,281.8465681533813,-0.0009011221700347961,0.000595187593717128,0.996552586555481,0.08295702934265138,0.02170759641352741,0.11739241547599882,2.537061568400834,0.2469004690647125,0.0991758182644844,0.05303974077105522,0.11183888065628708,0.17814715582877394,-9.597305776476858
24.9,2.200000047683716,108.0,23.76642608642578,24.26086235046387,-79.78276287229316,40.459023482091276,282.09940819549564,-0.002801624359562993,0.0012500048615038395,0.9965698719024658,0.08269882947206497,-0.004975568787381578,0.12967296996254202,2.5203509839321145,-0.04437020421028137,-0.0453314445912838,-0.03610894829034805,0.1103408331423998,0.08876307249069214,-9.635072942376137
25.0,1.8999999761581416,112.0,23.65499496459961,25.962541580200195,-79.78276264223294,40.45902360531189,282.4627790908813,-0.0029681525193154808,0.0014242746401578188,0.9965651035308838,0.08274808526039124,-0.012470370989979293,0.12556763196641493,2.5439612957382454,-0.03251146897673607,0.05187442898750305,-0.018708761781454086,0.10006134579889477,0.21702443389222026,-9.63255220770836
25.2,1.8999999761581416,113.0,23.726360321044922,24.467607498168945,-79.78276291576722,40.45902316361789,283.1051760177612,-0.0004694934177678078,0.0007318991119973361,0.9965136647224426,0.08342516422271729,0.03158035644753328,0.16668431938953135,2.5833468734363545,-0.08831264078617096,-0.004820182919502257,-0.0374097004532814,0.14159255627542736,0.31246255986392496,-9.68808672308922
25.3,1.7999999523162842,117.0,23.74764633178711,24.722064971923828,-79.78276301414171,40.4590230209405,283.36271290588377,0.0005876507493667305,-2.1337626094464213e-05,0.996489644050598,0.08371444046497345,0.06534597706243869,0.17990137243311818,2.5672439642297684,0.023447223007678986,0.07313016057014465,0.06982136517763138,0.09150665916502476,-0.18158371064811946,-9.669479128718377
25.5,1.7999999523162842,119.0,23.65499496459961,26.14543342590332,-79.78276312184413,40.45902286956961,283.61859326171873,0.0012449010973796248,-0.0003148889227304608,0.9964780211448668,0.08384507149457933,0.054970608403905816,0.18573371440859587,2.5490991366343345,-0.11662865430116652,-0.10213825851678847,-0.055306363850831985,0.13489667208865286,0.20291433507576587,-9.632122437357904
25.6,1.7000000476837158,117.0,23.61367607116699,26.02615547180176,-79.78276346741407,40.45902249908657,284.3492851715088,0.0011604734463617206,2.303237852174789e-05,0.9964939951896667,0.08365686237812042,0.08652395869914298,0.21884896179706154,2.601276341206324,-0.11203406006097794,-0.02790270559489727,-0.0612686537206173,0.12988248366862534,0.3638322131708265,-9.571904302239421
25.8,1.7000000476837158,122.0,23.70883178710937,25.270736694335927,-79.78276334982147,40.45902254000981,285.0336628417968,-1.2404711014823985e-05,-0.0010722323786467314,0.996515154838562,0.08340594917535782,0.08665265137781769,0.2043642044936129,2.6570602129079823,-0.022014565765857697,-0.105964295566082,-0.040396589785814285,0.10785393923521044,0.1106492006778717,-9.814538608789443
25.9,1.7999999523162842,129.0,23.65249061584473,25.57290458679199,-79.78276348854641,40.45902237279458,285.2995920639038,-1.9559607608243826e-05,-0.001338720554485917,0.9965162873268129,0.08338850736618042,0.09393787385174183,0.2139942199435044,2.6591354813288044,0.0160056184977293,0.103956401348114,-0.024326395243406296,0.11427960896864535,0.13719375075772405,-9.808625319600106
26.1,1.7999999523162842,130.0,23.77644348144531,24.197248458862305,-79.78276337335431,40.45902243895882,285.9771805267334,2.1991094399709255e-05,-0.0006053056567907332,0.9964900612831116,0.0837097018957138,0.09395963354410708,0.19933884717402808,2.7040525025034046,0.04259293526411057,-0.013046011328697205,-0.04126248136162758,0.15306252758949995,0.14903252606280148,-9.746359489560128
26.2,1.7999999523162842,131.0,23.738882064819336,24.411945343017567,-79.78276316881217,40.45902269778328,286.6726923446655,0.0010358190629631279,-0.0022567843552678823,0.9964528679847716,0.08411595970392227,0.09017729212937868,0.17088215137982346,2.7462856639226305,-0.011840871535241604,-0.07001754641532898,-0.02645064331591129,0.12748075811192394,0.003741523660719396,-9.676817384362224
26.41,1.7999999523162842,132.0,23.692556381225586,23.473636627197266,-79.78276327314082,40.45902257204415,286.9482107620239,0.0012801595730707054,-0.0020779233891516924,0.9964426755905152,0.08423850685358047,0.09503844928463452,0.17497784030745125,2.755089751583484,0.04224788397550583,0.07103438675403595,0.01967027597129345,0.08202574616298079,0.0656995617505163,-9.830138980150226
26.5,2.0,135.0,23.718849182128906,24.157489776611328,-79.78276310218611,40.459023102168615,287.40895180511467,0.0017679450102150442,-0.0006206379039213061,0.9964579939842224,0.0840718224644661,0.0913391079447082,0.1256248298141891,2.8518453546983284,-0.06846694648265839,-0.03707973286509514,-0.026888730004429817,0.039989126119762665,0.10018428350798786,-9.809642735123637
26.7,2.0999999046325684,136.0,23.529788970947266,26.98036956787109,-79.78276323793781,40.459022909979694,288.0792789916992,0.002554604317992925,0.00341247976757586,0.9964912533760072,0.08358816057443619,0.0988778573907341,0.15775034189447615,2.855199846086665,-0.008073035627603531,0.041986066848039634,-0.02142396010458469,0.10004091708920897,0.10833601475693286,-9.639656574726104
26.8,2.200000047683716,138.0,23.569854736328125,25.86712074279785,-79.78276337133117,40.45902279082996,288.36484532165525,0.003657040186226368,0.004441719502210617,0.9965366125106812,0.08295663446187973,0.0957454025317358,0.17077877613873976,2.8584035383566686,-0.08980950713157654,-0.009018848650157452,-0.03348395600914955,0.03357001623138785,0.17502388386055828,-9.816760550737381
26.9,2.299999952316284,138.0,23.57486343383789,26.04205894470215,-79.78276350498736,40.459022671238976,288.6519222717285,0.00433091726154089,0.004256504587829113,0.9965965747833252,0.08221010863780975,0.1213025722619362,0.17361691698621945,2.878121361554624,0.1671842336654663,0.050007641315460205,0.0655389279127121,0.09888507787138223,-0.010250260401517152,-9.957562673091893
27.1,2.5,140.0,23.52102470397949,26.90085029602051,-79.78276355676834,40.45902255105543,289.3028126220703,0.0033104640897363424,0.0049105435609817505,0.996627151966095,0.08184954524040222,0.09906157059350004,0.1626079009908613,2.9158681942582594,-0.08549924939870834,-0.09376844763755796,-0.04813351109623909,0.09869547276757658,0.1846089686639607,-9.835842354297636
27.3,2.5999999046325684,140.0,23.56860160827637,26.09772109985352,-79.78276345022049,40.459022508658215,289.94274906921385,0.003510719630867243,0.0045602931641042215,0.996547281742096,0.08282797038555145,0.0856630399698123,0.1454963122206928,2.944434243403867,-0.007726978510618209,-0.05692623183131217,0.048191674053668976,0.0776209107041359,-0.25511370828375224,-9.898277753591538
27.4,2.700000047683716,141.0,23.57110595703125,26.16133689880371,-79.78276354570043,40.45902241897707,290.2378864746093,0.004229332320392132,0.0055718556977808475,0.99649840593338,0.08331917971372604,0.06702425795842344,0.13747400648845304,2.9558046727391565,-0.1137378066778183,0.03440772742033005,-0.03981585800647736,0.04234385468065738,0.2990404590591789,-9.905670973062515
27.6,2.5999999046325684,141.0,23.576114654541016,26.09772109985352,-79.78276356891634,40.45902196334749,290.87296681213377,0.006465842016041279,0.006072852294892073,0.9964914321899414,0.08322425186634064,0.06499362835369045,0.17216509304337874,2.983924823503334,-0.10401655733585358,-0.05914483219385148,-0.018712446093559258,0.03928249010816217,0.03170084411278367,-10.007304936647417
27.7,2.5999999046325684,146.0,23.50474739074707,26.5748291015625,-79.78276388996258,40.45902192999485,291.50677876281736,0.006806176155805589,0.00673964386805892,0.9965667724609376,0.08223789930343628,0.10555412807759973,0.1476377930088094,3.009097769352365,0.16176047921180725,0.1071714460849762,0.008587476797401905,0.09394862087443473,0.2664141834340989,-9.987668817043305
27.9,2.700000047683716,147.0,23.633708953857425,25.040136337280273,-79.78276397065859,40.459021845530025,291.8078823547363,0.006316942628473043,0.006085632834583521,0.996610164642334,0.08180054277181625,0.07820944968857864,0.14833880503252128,3.0089907960056554,-0.09584798663854599,-0.07577335834503174,-0.007993518374860287,0.04937562486156821,0.0595807520672679,-9.825677554607392
28.0,2.700000047683716,152.0,23.716344833374023,23.92688751220703,-79.78276402464333,40.459021747196154,292.14080052185057,0.005389802157878876,0.005203583277761936,0.9966354966163636,0.08161916583776474,0.08893430618034356,0.13956281937158405,3.0033635418936497,0.012822373770177364,-0.06982062757015227,-0.02582842856645584,0.030734801860526205,0.007038753720698878,-9.815035622119904
28.2,2.700000047683716,149.0,23.670019149780273,24.077970504760746,-79.78276413888955,40.459021445027645,292.76439289855955,0.004361409693956375,0.006993425078690052,0.9966153502464294,0.08179199695587157,0.06349269813241325,0.14953170047860553,2.9570281083914955,-0.06316109746694565,-0.008503671735525131,-0.03305397927761078,0.022749684280715884,0.0394156969897449,-9.589338945150377
28.3,2.700000047683716,150.0,23.66751480102539,24.61869239807129,-79.78276421169045,40.4590213542633,293.05926136779783,0.003697149222716689,0.007319591473788024,0.9965716600418092,0.08232711255550385,0.06210191002409745,0.14867425912079826,2.937913317041492,-0.026863912120461464,-0.004319489933550358,0.003920502495020628,0.044179460126906635,0.17404703339561822,-9.588898649811744
28.5,2.700000047683716,151.0,23.51100730895996,26.28061294555664,-79.78276428368252,40.459021270567106,293.3524952392578,0.0030771701131016016,0.007263117469847201,0.9965552091598512,0.08255678415298462,0.08333801459948129,0.13817712948869548,2.9265950445578817,0.1972147673368454,0.04397333413362503,0.11938104033470155,0.06464426723308861,-0.2673464306071401,-9.740453217029573
28.6,2.700000047683716,150.0,23.60866737365723,25.04808807373047,-79.7827643124893,40.45902119336153,293.9791279296875,0.003908080514520407,0.00799441896378994,0.9965424537658693,0.0826077088713646,0.07396346228935942,0.1186307606765422,2.9412640406161867,0.1772337257862091,0.07175472378730774,0.10160969197750093,0.008254201419185847,-0.2197511915490032,-9.863523073196413
28.8,2.799999952316284,153.0,23.646228790283203,24.722064971923828,-79.78276428150758,40.45902118316079,294.6108532409668,0.004750625696033239,0.007224449887871742,0.9965441823005676,0.08261344581842422,0.03978243784739927,0.10036193338649944,2.953743588015453,-0.07727991044521333,-0.04493507370352745,-0.0666731521487236,0.042511327159591016,0.3141221458464861,-9.76635579764843
28.9,2.799999952316284,156.0,23.569854736328125,25.61266326904297,-79.78276432414611,40.45902114503949,294.90578465270994,0.004575692117214203,0.0047791595570743075,0.9965668320655824,0.08252818137407303,0.06313820143903291,0.0874252400542375,2.9414859452073787,0.0935169979929924,-0.04878402501344682,0.08146258443593979,0.022294738925993443,-0.20572520127519967,-9.709825501441957
29.1,2.799999952316284,155.0,23.62118911743164,25.04808807373047,-79.78276428503877,40.45902110689672,295.528997467041,0.005028180778026582,0.004740989301353693,0.9965921640396118,0.08219709992408752,0.03914980496769623,0.0618845864883338,2.940002357867288,-0.02453908883035183,0.08517473936080933,0.015131892636418344,0.036805223550181836,0.06412505275569856,-9.73914577960968
29.2,2.700000047683716,155.0,23.47845458984375,27.03603172302246,-79.78276432843134,40.4590210750717,295.85930447387693,0.005428696516901255,0.0048902085982263106,0.9965901970863342,0.08218663185834885,0.04983737051902932,0.07675473071848793,2.9372292175281163,-0.015337049961090088,-0.0966675505042076,0.0052415756508708,0.07206129583530127,-0.024690416269004343,-9.679341042637823
29.4,2.799999952316284,151.0,23.50975608825684,26.51916694641113,-79.78276438869,40.45902100344853,296.4454765777588,0.005878830328583717,0.004533679224550724,0.9965586066246032,0.08255916833877562,0.04139717715605925,0.0693422955715671,2.9277223595855384,-0.02628447860479355,0.015964338555932045,0.04243179038167,0.07136902204714718,-0.0033351787179708484,-9.786130496263503
29.5,2.9000000953674316,149.0,23.494731903076172,25.652421951293945,-79.78276465062581,40.45902078675183,297.07644085693363,0.005863578990101814,0.005951217841356993,0.9965479969978333,0.08259808272123338,0.06863481188138393,0.08919333638454709,2.9613696028601235,0.21637652814388275,0.12506237626075745,0.09783560037612916,0.057890787972137335,0.15793912371620536,-9.870188899040222
29.7,2.9000000953674316,149.0,23.602407455444336,25.07194328308105,-79.78276462179933,40.459020851780274,297.3990555267334,0.005987396463751793,0.006995479576289654,0.9965843558311462,0.08206712454557419,0.03730643031020053,0.08019107745129815,2.9773507193418505,-0.18885578215122226,-0.07251137495040894,-0.08753206580877304,0.029287597713992,0.06147528648376465,-9.912506368160248
29.8,2.799999952316284,153.0,23.48471450805664,26.58278083801269,-79.78276464801026,40.45902082084522,297.69706921386717,0.005010112188756466,0.006991631351411343,0.9966145753860474,0.08176474273204802,0.04274263425912423,0.07735827314711932,2.9816804770788154,0.044831495732069016,-0.06383620947599411,-0.01753002963960171,0.11316717619076372,0.20150405975058674,-9.877641760110855
29.9,2.799999952316284,151.0,23.44965744018555,27.28253555297852,-79.78276466735207,40.45902079596922,297.99595455932615,0.003756011370569468,0.006127858534455299,0.9966430068016052,0.08155471831560135,0.04656039098988493,0.07039227153102216,2.994263129751192,0.12666578590869906,0.09816307574510574,0.016730116680264473,0.08574768165126444,-0.033586498070508244,-9.920014193058014
30.1,2.799999952316284,152.0,23.633708953857425,24.21315193176269,-79.78276459640921,40.45902077429021,298.9383106689453,0.002147536259144545,0.003744961926713586,0.9966163635253906,0.08208072185516357,0.01438380776516492,0.04851672837184224,3.0059254983383914,-0.01916023530066013,0.0647176057100296,0.01321602426469326,0.11005151473917067,0.0770150843448937,-9.880325632095335
30.3,2.700000047683716,153.0,23.53604888916016,25.25483322143555,-79.7827646121994,40.45902075723385,299.2380981903076,0.002827020827680826,0.004016484133899212,0.9966124296188354,0.08209571987390518,0.018538295798740858,0.04680254960936368,2.99007621099471,-0.1212642639875412,-0.05718521773815155,-0.0781213566660881,0.047273655901663006,-0.02174387639388442,-9.69500573337078
30.4,2.700000047683716,151.0,23.526033401489247,26.09772109985352,-79.78276463049484,40.45902074176418,299.5363960723877,0.0029697732534259558,0.0040462464094162,0.9965830445289612,0.08244526386260986,0.04000538247877722,0.04151858829755132,2.973782791825859,0.17944003641605374,0.03835919499397278,0.10546787828207016,0.09669897752813997,-0.038957037739455705,-9.676518591642381
30.6,2.5999999046325684,149.0,23.453413009643555,26.94856262207031,-79.78276473523249,40.45902089295042,300.14269451904295,0.00309753674082458,0.005110997706651689,0.9965444207191468,0.08284695446491241,0.027836382436540668,0.019615176540350325,2.9562475730469404,-0.028657158836722374,0.06769637018442154,-0.020977029576897614,0.022407839151564985,0.20375328261405232,-9.731824480891227
30.7,2.5999999046325684,148.0,23.517269134521484,25.04808807373047,-79.7827644707247,40.45902116918335,300.46147732543943,0.004354981239885092,0.005934508051723242,0.9965505599975586,0.08266177773475647,0.02581605830455028,-0.018560577908751017,2.969527570254059,0.0746457576751709,-0.03222580999135971,0.08340360224246979,0.10952375784516337,-0.3182424594461918,-9.93176709651947
30.9,2.5999999046325684,149.0,23.56484603881836,25.461580276489247,-79.78276444244777,40.459021261932655,301.0580444793701,0.0024808414746075873,0.005652780178934336,0.996601939201355,0.08213735371828079,0.02766416536243869,-0.016118528954031097,2.9887044915627032,0.10546913743019104,0.06018699333071709,0.0325050987303257,0.07949161771684886,-0.12146593750454485,-9.859121289253236
31.0,2.700000047683716,149.0,23.52853775024414,25.843265533447266,-79.78276439470041,40.45902131020641,301.6681118469238,0.0009543359628878533,0.0051239775493741035,0.9966111183166504,0.08209233731031418,-0.002708774876335761,-0.017176633036435122,2.97522506557318,-0.07043422758579254,0.020180679857730862,-0.06312401592731476,0.10524559683166444,-0.04130431110039354,-9.812956352233886
31.2,2.5999999046325684,148.0,23.63996887207031,23.815563201904297,-79.78276434136501,40.45902135676357,301.98060231018064,0.0010472337016835807,0.0034417060669511557,0.9966418743133544,0.08180525153875351,0.010572330156158908,-0.012101876894134687,2.9585058688690054,0.039020612835884094,-0.06414571404457092,0.03976301476359368,0.06579866291955114,-0.12778697862289848,-9.668441832661632
31.3,2.5,149.0,23.686294555664066,22.74207305908203,-79.78276433632786,40.45902139792835,302.2752838592529,0.0012043076567351818,0.0025668155867606397,0.996659815311432,0.08161604404449463,0.006864427085319439,-0.02513195175646436,2.938932231738593,-0.0502718947827816,-0.03789498656988144,0.011803342029452324,0.04248321941122413,0.017388614360243082,-9.64037929058075
31.4,2.5,151.0,23.61868476867676,23.688335418701172,-79.7827643334755,40.45902143899437,302.5684566955566,0.0013324285391718151,0.0025945252273231745,0.9966883659362792,0.0812637135386467,0.029427965792843937,-0.031734553305149266,2.9208368382691825,0.18741726875305176,0.019974403083324432,0.09220994263887404,0.0697231861576438,-0.2503178768232465,-9.666246203184127
31.6,2.4000000953674316,153.0,23.559837341308594,24.865196228027344,-79.78276426661684,40.4590215571103,303.48555378723137,0.00276539009064436,0.0033176091965287924,0.996824324131012,0.07951558381319046,0.00859351850809662,-0.006450605208936614,2.9496177897726343,-0.16380777955055234,-0.12215156108140945,-0.08601441979408264,0.02884634763468057,-0.1585415879264474,-9.832853257656096
31.8,2.299999952316284,157.0,23.60366058349609,24.507368087768555,-79.78276426815297,40.45902158215162,303.780592010498,0.0032263128086924553,0.002921905135735869,0.9968278408050536,0.07946981489658356,0.03487831017093525,-0.007717770758564533,2.9468134727089446,0.21018248796463013,0.0581107996404171,0.11376014351844788,0.09179277987219392,-0.0925112290866673,-9.813159835338594
31.9,2.4000000953674316,159.0,23.55483055114746,24.507368087768555,-79.78276426851981,40.45902160473671,304.074895904541,0.0032377513125538826,0.001921286224387586,0.9968103766441344,0.07971791923046112,0.018519885188032808,-0.005833656343379156,2.9395357297426274,-0.044232498854398734,-0.055209226906299584,0.02164067141711712,0.08180752624757588,0.02865120138041675,-9.767144587039947
32.1,2.299999952316284,160.0,23.48847198486328,25.52519416809082,-79.78276438250883,40.459021563262745,304.68056683349613,0.0020686094649136066,0.0018929896177724004,0.9966685175895692,0.08151065558195114,0.024560172963056823,0.011421618402395785,2.9446521777915686,0.03747440502047539,0.015656208619475358,0.06920110434293747,0.03339650924317539,-0.101446852684021,-9.695595717430114
32.2,2.4000000953674316,160.0,23.53104019165039,25.087846755981445,-79.7827643434282,40.45902165781238,304.9891033630371,0.0015780309913679955,0.0027815999928861856,0.996597945690155,0.08235473185777664,0.017316337038963247,0.002496892605853713,2.9470217343603853,0.00844889972358942,-0.02206885628402233,0.004920416045933962,0.04151733247563243,-0.05211696401238442,-9.810152027606962
32.4,2.299999952316284,163.0,23.54982185363769,24.467607498168945,-79.78276433990966,40.45902167789182,305.57872967529295,0.004105590749531984,0.00497202854603529,0.9965225458145142,0.08307413756847383,0.004298551274773974,0.016775922180205363,2.9354731868848174,-0.1592595875263214,-0.05512464419007301,-0.12245117127895355,0.039441945506259804,0.08871041100472213,-9.683922336101533
32.5,2.4000000953674316,163.0,23.45466613769531,26.25675773620605,-79.78276425416666,40.45902168846722,306.1800556640625,0.004512694198638201,0.004469249397516251,0.996558666229248,0.08264753967523575,0.004269544510776584,0.018607334381245417,2.9277468710988863,-0.0820065587759018,-0.1011420711874962,-0.06417959928512572,0.12417254967615007,-0.14722013588994742,-9.701997249126435
32.7,2.4000000953674316,164.0,23.39957618713379,26.821332931518555,-79.78276422198397,40.4590216817952,306.49039273071287,0.003884226782247424,0.0037137609906494617,0.996613621711731,0.08205186575651169,0.00895380087223993,0.015532629632731375,2.94027795394462,0.057362891733646386,0.06362073123455048,-0.008159057237207891,0.06820383741986008,0.20695847041904927,-9.775188601613047
32.8,2.4000000953674316,163.0,23.569854736328125,24.38809013366699,-79.78276419881513,40.459021693905775,306.78487210083006,0.0032625915482640266,0.003262972924858332,0.9966698884963988,0.0814126580953598,0.00812037932963291,0.007933270517171008,2.9522037410576902,-0.011181616224348543,-0.09801213443279266,0.026262035593390458,0.026790388952940704,-0.11286379706114533,-9.891008495092393
32.9,2.5,163.0,23.45591735839844,26.16133689880371,-79.78276417605035,40.459021708406034,307.08056072998045,0.0020709119271487,0.0039179096929728985,0.9966860413551332,0.08122463524341582,0.003968788161697774,-7.536443408288733e-05,2.9592183984935545,0.11296053230762484,0.018051190301775932,0.013064818456768993,0.09813902797177436,0.12705444127321244,-9.887124774456023
33.1,2.5,163.0,23.51977348327637,25.024232864379893,-79.78276431615332,40.45902157843074,307.67874722290037,0.002403465332463384,0.00465644896030426,0.9966945648193359,0.08107080310583115,0.020142966284746062,0.03152844179008528,2.9912022620343155,0.05938259139657021,-0.10036756098270416,0.044237714260816574,0.1008883613627404,-0.1691430649906397,-9.952814733982086
33.2,2.4000000953674316,161.0,23.527284622192386,23.974597930908203,-79.78276433243477,40.45902158671738,307.97728924560545,0.0015204742085188627,0.003477295627817512,0.9966906309127808,0.08119941502809525,0.0046957172233100105,0.03857387700449763,2.985889757924025,-0.10087091475725174,-0.04877498745918274,-0.05308122932910919,0.1145818095188588,0.29694123554974794,-9.860186651945117
33.4,2.5,158.0,23.354501724243164,27.34615135192871,-79.78276435469147,40.45902157555045,308.5739422302246,0.00016175126074813306,0.0007837357115931809,0.9966686367988586,0.08155449479818344,0.003779514945466581,0.0261000316871462,2.9660615956364107,-0.10612005740404128,-0.15696288645267487,-0.01676962524652481,0.09188129209913314,0.07631195666268469,-9.647035176157953
33.5,2.5999999046325684,159.0,23.38329887390137,26.360130310058594,-79.78276441780741,40.45902150550107,309.1645489196777,0.002433302812278271,0.00042878833482973283,0.9966406226158142,0.08186299353837967,0.0163905481490353,0.02668304419337589,2.9954656826637387,-0.15469010174274445,-0.07901221513748169,-0.01885254308581352,0.05771667798981073,0.07015339504927398,-9.865754370689393
33.7,2.5999999046325684,160.0,23.598651885986328,24.11773109436035,-79.78276427021619,40.45902173885692,309.4650402526855,0.0027775820344686517,0.0018484446918591853,0.9966317415237428,0.08194061368703842,0.011062593174311115,-0.009734005594772836,2.985677381735833,0.08376067131757736,0.011047700420022007,-0.016598735004663467,0.05287310035899282,0.1583247658610344,-9.858747067451477
33.8,2.5,162.0,23.430877685546875,25.98639678955078,-79.78276426233866,40.459021745347535,309.76294522094724,0.002521017333492637,0.002467432059347629,0.9966474771499634,0.08173932880163193,0.010224800734311243,0.0046170907276880425,2.9709784055972106,0.014975119382143019,0.10406699776649476,0.03388682007789612,0.061050760354846724,0.11351716859266164,-9.683169799447061
34.0,2.5,161.0,23.46343040466309,25.779651641845703,-79.78276423776646,40.459021816919176,310.36085705566404,0.002696462208405137,0.003822565544396639,0.9967032074928284,0.08099957555532455,0.01061946895006502,0.005802051077951088,2.9682867877276378,0.11637196689844133,0.0705215334892273,0.04335281625390053,0.12879479192197324,0.04032364167273045,-9.831989039182664
34.1,2.4000000953674316,163.0,23.57486343383789,24.49941635131836,-79.78276422130793,40.459021825691046,310.6578617553712,0.0029340353794395924,0.004210385959595442,0.9967435002326964,0.08047375082969667,0.00389975706903489,0.012279840992204192,2.9711031582356204,-0.012289240024983885,0.047388188540935516,-0.007878566160798073,0.09602772630751133,-0.05742492020130158,-9.823618165254594
34.3,2.4000000953674316,164.0,23.460926055908203,25.14350891113281,-79.78276428087653,40.45902169803568,311.255014465332,0.002949208952486515,0.005297442432492971,0.9967365860939026,0.08049483597278595,0.024040270933485274,0.04447376908357036,2.9554918222943507,0.19490571320056915,0.053993821144104004,0.09869687259197236,0.15290646174922587,-0.35257212035357954,-9.802335469722747
34.5,2.299999952316284,164.0,23.529788970947266,24.41989707946777,-79.78276441505203,40.45902166451232,311.8565655212402,0.0016940676141530275,0.004270478617399931,0.9967091083526612,0.08093202859163284,0.02281597679518516,0.05316978539465026,2.9621550099519167,0.04734784364700317,0.09465234726667404,0.01922953315079212,0.06782730870880188,-0.003759862447623164,-9.786219373941424
34.6,2.5,164.0,23.48847198486328,25.191219329833984,-79.78276443339665,40.459021646511246,312.1518459777832,0.00036041310522705317,0.004435191862285136,0.9967198371887208,0.08080738037824631,0.015617391238260237,0.04561500771205272,2.941066134443208,0.010169507935643196,-0.09666793793439864,-0.0003097415319643915,0.08468449339270592,-0.042378864884376526,-9.664642311930656
34.8,2.5,165.0,23.39581871032715,26.240854263305664,-79.78276440882097,40.45902169001957,312.75284390258787,0.0030141270253807306,0.005937413312494755,0.9967184662818908,0.08067259937524797,-0.007367239532136406,0.03692820104440266,2.941709130357897,-0.1204131692647934,-0.023197868838906288,-0.0692499428987503,0.04427721369545907,0.18189503833651546,-9.777232788205149
34.9,2.4000000953674316,168.0,23.42586898803711,25.95458984375,-79.78276440923415,40.45902168492992,313.04759411621086,0.005484402645379305,0.005600627511739731,0.9967220425605774,0.08052199333906174,0.014755432649450497,0.04085077478193189,2.952735826748236,-0.035703811794519424,0.004810664337128401,0.03239037096500397,0.050810312312096366,0.03113394741900265,-9.86214663863182
35.1,2.5,167.0,23.51977348327637,24.22905540466309,-79.78276451181374,40.45902166961914,313.64439205932615,0.006618257611989975,0.0051400293596088895,0.9967352747917176,0.0803041085600853,0.015836394824864052,0.027751346011374627,2.9730679426619826,-0.2000168114900589,-0.0462040901184082,-0.0820714607834816,-0.0010860335128381848,0.28260157870128755,-9.806180014014243
35.2,2.4000000953674316,163.0,23.49347877502441,25.191219329833984,-79.78276462304386,40.4590216533733,313.9437809448242,0.004971468821167946,0.0053460001945495605,0.99671471118927,0.08066315203905106,0.059625092834694624,0.03689632503209948,2.959387370741179,0.19158121943473816,0.0821124017238617,0.07731234282255173,0.0744811249198392,-0.13012587402015924,-9.722340297102928
35.4,2.4000000953674316,161.0,23.44464874267578,26.28856468200684,-79.7827646382663,40.45902165925951,314.5337734680176,0.0008485848084092139,0.004347891546785832,0.996631920337677,0.08188586682081223,0.010704314010824438,0.02040819171715964,2.953736855522493,-0.04455522820353508,0.05402365326881409,-0.013966496102511885,0.0281526874168776,0.18460288390517235,-9.82005019426346
35.5,2.5,158.0,23.4033317565918,26.240854263305664,-79.78276466506752,40.459021693945495,315.13162808227537,0.00032218871638178825,-0.00017433974426239732,0.99665367603302,0.0817393809556961,-0.003199457283097785,0.0014220687946666125,2.9676806645656475,-0.0840507298707962,0.01988550648093224,-0.01917293481528759,0.04997710692230612,-0.255211448147893,-9.778826154470444
35.7,2.5,158.0,23.644977569580078,22.88520622253418,-79.78276463825645,40.45902170472917,315.4293232421875,0.002510588150471449,-0.000961198762524873,0.9967352151870728,0.08069567382335663,0.002823215815695288,-0.006255559696884801,2.9770366680252938,-0.008168463595211506,0.0067228330299258215,0.024386867880821228,-0.006544385341694579,-0.17023015374317765,-9.899385216236118
35.8,2.5999999046325684,159.0,23.56109046936035,23.87917709350586,-79.78276463164802,40.45902170667549,315.72659115600584,0.004031612072139978,-0.00014990288764238358,0.9967817068099976,0.08006203174591063,-0.0007772014605465058,-0.0040176027019186026,2.9640496716710887,-0.09316667914390564,-0.05514077469706535,-0.041096366941928864,0.04793790416792036,0.19007045080885293,-9.700649465918538
36.0,2.5,160.0,23.48972320556641,24.467607498168945,-79.7827646805078,40.45902174873024,316.3187580566406,0.0030181915499269962,0.0025201470125466585,0.9968135952949524,0.07966932654380797,0.009442035787493015,0.010484124983355105,2.9323158355083616,-0.0012493542162701488,0.015858566388487816,-0.0511329397559166,0.06657821096945554,0.2596909452416003,-9.68372119188309
36.11,2.5,160.0,23.380794525146484,26.09772109985352,-79.78276467333718,40.45902174430083,316.6118298034668,0.002811474725604057,0.0027620517648756504,0.9968458414077759,0.07926536351442337,0.0075707461144254905,0.019901151927467508,2.929583353934055,-0.022646497935056686,0.052962325513362885,0.06841744482517242,-0.0014370583137497304,-0.07656439192593098,-9.754674230217937
36.3,2.5,160.0,23.522275924682607,24.451704025268555,-79.78276471805157,40.459021786364154,317.20932202148435,0.0011053954949602485,0.003931618295609951,0.9969396591186525,0.07806913554668428,0.006664829886711087,0.019433540583898925,2.9695875021464437,0.09110139310359956,0.021455753594636917,0.011882196180522442,0.007225774400867522,0.13275784282945094,-9.924996020793916
36.4,2.5999999046325684,159.0,23.48346328735352,24.769775390625,-79.78276468481549,40.459021820783896,317.8048000793457,-0.0003014219691976905,0.004333352204412222,0.9969425201416016,0.07801826298236847,-0.02728625567358525,0.012452516264425176,2.970753892625101,-0.19900232553482056,-0.10586002469062804,-0.07055004686117172,0.009226143420673908,-0.07550857207272202,-9.846729869842527
36.6,2.700000047683716,160.0,23.52853775024414,24.44375228881836,-79.78276466780322,40.459021834294376,318.10127835083006,0.0009093767730519176,0.004031179007142782,0.9968986511230468,0.07858896255493164,0.00551148945537489,0.004552229569159341,2.9560732051443366,0.20726716518402105,0.0493592694401741,0.10255258530378343,0.04511409186758101,-0.19506724376231432,-9.71638783156872
36.7,2.700000047683716,160.0,23.35074615478516,26.43964767456055,-79.78276485811801,40.45902172119401,318.39690213012693,0.002235441002994776,0.0021290474105626345,0.9968728423118592,0.07896322011947632,0.012053127777469358,0.03397581401128545,2.937083277837944,0.006771267857402563,-0.06257925927639008,0.02701418846845627,0.11769142275676132,0.04272654580883682,-9.649854118824006
36.9,2.700000047683716,162.0,23.33572196960449,26.7497673034668,-79.7827648811442,40.45902171103621,318.985181854248,0.0006679703365080059,0.0005953966756351293,0.996818780899048,0.0796969085931778,0.03284208190961891,0.018073202841808432,2.9372013538343,0.16951653361320496,-0.00705828657373786,0.07157044857740402,0.07892963633872567,-0.11225861937738957,-9.729282111525537
37.0,2.700000047683716,159.0,23.384552001953125,26.07386589050293,-79.78276502420636,40.45902168764168,319.5715313415527,-0.002782125258818269,0.00012382293061818928,0.996787130832672,0.0800490528345108,-0.0015583444861397625,0.015004077646203746,2.9459224276020146,-0.08013275265693665,0.01251243893057108,-0.02930637449026108,0.05246830858290195,-0.19638169784098866,-9.82178330898285
37.2,2.700000047683716,161.0,23.389558792114247,25.54904937744141,-79.78276499627444,40.459021709081284,319.86644940185545,-0.0020417836494743824,0.0005854667397215962,0.9967597723007202,0.0804084911942482,0.007557812578394675,0.010259281053901463,2.949089577597109,0.030008751899003983,-0.015576209872961044,0.06433220952749252,0.0012678476586006585,-0.3018170094117522,-9.817687919139864
37.3,2.700000047683716,162.0,23.354501724243164,26.511213302612305,-79.7827650194229,40.45902170444039,320.161695526123,-0.0008070840267464519,0.001200399361550808,0.9967361092567444,0.08071668446063995,0.00046127780532946073,0.01019736136363531,2.9554226482767008,-0.07435853034257889,-0.04142583906650543,-0.04791949689388275,0.030763128879480062,0.2217211367748678,-9.857052544355392
37.5,2.700000047683716,162.0,23.41209602355957,25.5649528503418,-79.7827651763442,40.45902165356547,320.75606350708006,0.003487475914880633,0.002005973132327199,0.9967041611671448,0.0810234397649765,0.04673242528151389,0.02587529289694706,2.9634432351406534,0.03947396203875542,-0.05122237280011177,0.07994156330823897,0.010763435801491144,-0.17070344930514694,-9.836651608943939
37.6,2.799999952316284,163.0,23.45842170715332,24.55507850646973,-79.78276521288943,40.45902164456064,321.05247692871086,0.004365656059235334,0.002608815906569361,0.9967045783996582,0.08095798641443253,0.0338512665858909,0.02573174219351229,2.9641783515860163,-0.10592705756425858,0.04896070435643196,-0.050244253128767014,-0.004990794989280403,0.3110218059271574,-9.767453904747963
37.7,2.799999952316284,161.0,23.459674835205078,25.24688148498535,-79.78276524745577,40.459021674980384,321.348333404541,0.0045880991965532286,0.0027713163290172807,0.9967319965362548,0.08060166984796524,0.057227654392213674,0.02248554437920749,2.9579720835305334,0.09071023762226103,0.05795363336801529,0.06971602886915207,0.027772410549223425,-0.1952448712103069,-9.785503090023996
37.9,2.799999952316284,163.0,23.48847198486328,24.197248458862305,-79.7827652825421,40.459021670375975,321.94034390258787,0.0031901884358376265,0.0002853709738701582,0.9968045949935912,0.07981466501951218,0.03779856091199133,0.01867915766398888,2.9677148654061383,0.107874296605587,0.07607290893793106,-0.004254070110619068,0.01643740028142929,0.06661809537559749,-9.871449558734897
38.1,2.799999952316284,165.0,23.43212890625,24.761823654174805,-79.78276535249907,40.45902164593154,322.5356770019531,0.002164919162169099,-0.0010502634104341269,0.9968467950820924,0.07931435108184813,0.019602473499930467,0.006529788342647947,2.9729914724051105,0.025137979537248608,-0.01573755219578743,-0.05376487970352173,0.044732314366847284,0.06241539085283876,-9.889858932495118
38.21,2.9000000953674316,165.0,23.340728759765625,25.88302421569824,-79.78276540005389,40.45902163709739,322.8310261230468,0.0017166942125186324,-0.0004626457230187953,0.9968519806861876,0.0792662650346756,0.01281089095073665,0.009623423548481688,2.9796093975234084,0.007837946526706219,0.0967993214726448,0.02084955386817456,0.004550127347465605,0.1766348831355572,-9.833910434246064
38.4,3.0,167.0,23.417104721069336,25.07194328308105,-79.78276540927926,40.45902160576407,323.42569546508787,0.0013494540471583605,0.001520807039923966,0.9968458414077759,0.07933657616376877,-0.003727928845897753,0.024947873592244842,2.9713058930139447,-0.06398298591375351,0.02637392096221447,-0.019695041701197624,0.07358684810344131,0.2621997844800353,-9.784036608338356
38.5,3.0,166.0,23.39581871032715,25.517242431640625,-79.78276540862853,40.45902160122945,323.7248173217773,0.001947030541487038,0.001877228613011539,0.996842920780182,0.07935293763875961,0.014266243751610569,0.02893530232558461,2.9811593514050383,0.10192720592021942,0.0940309762954712,0.069886215031147,0.042523409882560384,-0.10086082463152707,-9.852533816099168
38.7,3.0,167.0,23.26685905456543,27.46542739868164,-79.78276535082308,40.459021607688925,324.31805233764646,0.0021836780942976475,0.001397858839482069,0.996838629245758,0.07941164076328278,-0.007680741658696357,0.020731763712604948,2.9762224556291477,-0.055331356823444366,0.02216104976832867,-0.02754566073417664,0.025297434912063186,0.2432650201208889,-9.79475396990776
38.8,3.0,169.0,23.311931610107425,26.853139877319336,-79.7827653393743,40.45902159889236,324.6158581237793,0.001784606138244271,0.0006988089298829436,0.9968353509902954,0.07947158813476562,0.014158094188903375,0.017454841661928115,2.9797929691984466,0.11333990842103958,-0.012032869271934029,0.07104510068893433,0.04096253220923245,-0.15180434382520616,-9.853143095970154
39.0,3.0999999046325684,166.0,23.38204765319824,25.350255966186523,-79.78276540706216,40.45902150063473,325.21572689819334,0.0007053675944916902,0.001144144800491631,0.9968600869178772,0.07917244732379912,-0.009693791844901364,0.029581270532075887,2.9803351711341337,-0.13747234642505646,-0.047906488180160516,-0.07344286143779755,0.0041160789364948856,0.04473255190998316,-9.701252313852313
39.1,3.2000000476837163,164.0,23.29189872741699,26.79747772216797,-79.78276540580639,40.45902147646081,325.5126934509277,0.0009714149055071176,0.00287620653398335,0.9968808889389038,0.07886378467082977,0.011637083578867956,0.030545533098710838,2.956556531739188,0.19500114023685453,0.09916489571332933,0.10411794483661653,0.08446743378415704,-0.02005785003304481,-9.6190293520689
39.3,3.2000000476837163,163.0,23.338224411010746,26.01025199890137,-79.78276538065376,40.45902144336689,326.10630993652336,0.0020577125251293182,0.00337988487444818,0.9969112277030944,0.0784377008676529,-0.004421017925801226,0.04733383550528618,2.9483807686176418,-0.03376290574669838,-0.025904005393385887,-0.03023569472134113,0.09224893578328193,0.2195323595032096,-9.749101833701133
39.4,3.0999999046325684,160.0,23.31694030761719,26.40784072875977,-79.78276537751398,40.45902141961058,326.40105252075193,0.0024812745396047826,0.003022245597094297,0.9969155788421632,0.07838492095470427,0.02247427456679317,0.04336213212488365,2.9475027600309684,0.2055578529834748,0.1280677318572998,0.05642087757587432,0.1034090960305184,-0.13868824426084758,-9.825224980115893
39.6,3.0999999046325684,161.0,23.34698867797852,26.05796241760254,-79.78276536403993,40.45902137267983,326.9990330200195,0.001282577286474407,0.003654919099062681,0.9969100356101992,0.07845741510391235,0.007836720644642248,0.04173485019634975,2.963920618213264,0.02961683459579945,-0.05564571544528008,0.002056123921647668,0.07655280712991952,0.025590878343209625,-9.787984063625336
39.7,3.0,156.0,23.31819152832031,26.447599411010746,-79.78276534390265,40.4590213532209,327.29792218017576,0.001733948360197246,0.003856710158288479,0.9969057440757751,0.07849247753620148,-0.00861341218429003,0.041517448412392605,2.9648044420828765,-0.052595283836126334,0.07950536161661148,-0.014151278883218762,0.07763840666972101,0.10556033235043287,-9.749716376066207
39.9,3.0,156.0,23.268110275268555,27.266632080078125,-79.78276532977506,40.45902132295037,327.8882847290039,0.002581924432888627,0.0038969891611486673,0.9969029426574708,0.07850317656993866,0.002789475030616247,0.03835647733468663,2.934761156512617,-0.05582774057984352,-0.0665171816945076,-0.04181352257728577,0.055964742545038464,-0.04287437986582518,-9.675194782018664
40.0,2.9000000953674316,157.0,23.36201477050781,25.07194328308105,-79.78276536895692,40.459021275107105,328.1895428161621,0.0022619871888309717,0.00364504219032824,0.9969021677970886,0.07853537052869798,-0.0077010327655016786,0.04130687906387144,2.946569264382401,-0.08011852949857713,0.0350610576570034,-0.040106721222400665,0.05194215967319906,0.3732433067634702,-9.758940943479539
40.2,2.9000000953674316,158.0,23.38830757141113,25.366159439086914,-79.78276536336601,40.459021258406096,328.78075604248045,0.0006709464360028505,0.002304351190105081,0.9968942403793336,0.07871520519256593,-0.005078240660150482,0.025787403640351887,2.9446444164590218,-0.02684900350868702,-0.03175761550664902,0.009240171872079372,0.03945720308460295,0.03221572799608111,-9.7564313185215
40.31,2.9000000953674316,156.0,23.258094787597656,26.89289855957031,-79.78276535592488,40.459021246309476,329.0748463134765,0.00024739085347391665,0.0028666178695857525,0.9968671202659608,0.0790429413318634,-0.0139234259367737,0.025365880051764742,2.938584689344054,-0.08110253512859343,0.00791355036199093,-0.0799918919801712,-0.015818180143833162,0.2375815447792411,-9.733979179859162
40.4,2.9000000953674316,156.0,23.30066299438477,27.163259506225586,-79.78276535210345,40.45902123741951,329.36890225219724,-0.0002293447905685753,0.003934021573513746,0.9968466758728028,0.07925504446029663,0.008634443185163352,0.024019695160992505,2.9430436358667293,0.10677224397659303,0.030153049156069762,0.06942249834537506,0.04268781714141369,-0.11108085310086607,-9.84732160806656
40.6,2.9000000953674316,159.0,23.21051597595215,27.9345817565918,-79.78276525863609,40.459021253008345,330.26116757202146,0.001701653003692627,0.005316725000739098,0.9968925714492798,0.07857565581798552,-0.02572023838869394,0.027697628778611986,2.9879397491444792,-0.24081288278102875,-0.08648860454559326,-0.11450576037168506,0.07919116219505667,-0.20059392236173154,-9.937925384044648
40.8,2.9000000953674316,160.0,23.288143157958984,26.67820167541504,-79.78276525035449,40.45902126077968,330.56096463012693,0.0025538343470543623,0.004201567731797695,0.9968968629837036,0.07856495678424835,0.0018160029013921078,0.02159220926327094,3.0069886610434824,0.027582159265875816,-0.08197999000549316,-0.028950817883014682,0.09472264604642988,0.18199741942808034,-9.974262320995331
40.9,3.0,160.0,23.368274688720703,25.342304229736328,-79.78276524348256,40.459021272370656,330.8623028259277,0.002497634850442409,0.003040523268282413,0.9968960285186768,0.07863157242536545,0.01455680246454837,0.012402019254236708,3.0164805202354303,0.07170676440000534,0.06403309851884842,0.006860046181827785,0.030052121160551906,0.09432513588108124,-9.899106888771056
41.1,3.0,160.0,23.380794525146484,25.37411117553711,-79.78276525515692,40.45902130743453,331.45485882568363,0.0016210677567869425,0.0024705627001821995,0.9968997836112976,0.07862681895494461,0.0122793427727821,-0.007265365166860019,2.992823043799208,-0.0009275742340832948,0.0180242657661438,0.035135675221681595,0.023065899875946344,0.07454605185426771,-9.753248679041864
41.2,3.0,157.0,23.14666175842285,28.47530174255371,-79.78276528472338,40.45902130606793,332.04754452514646,0.0002480216498952359,0.004193443339318037,0.9968895316123962,0.07870052754878998,0.01659011129259902,-0.001008592109981228,2.9752529607221243,0.0997799187898636,0.09346691519021988,0.02729596383869648,0.02552852327004075,0.13619447987526656,-9.674535800814633
41.4,3.0,159.0,23.2030029296875,27.67217254638672,-79.78276529305136,40.45902132623754,332.3441715698242,0.0007047711405903102,0.003887026570737362,0.9969044923782348,0.07852280884981155,0.0211565667302872,0.002488164056354278,2.955737953356676,0.03770186379551888,0.04550425708293915,0.009062830358743671,0.050748998774215584,-0.1804269852116704,-9.68030115544796
41.5,3.0,161.0,23.30692481994629,26.88494682312012,-79.78276529951994,40.45902131436422,332.63912014770506,0.0007446485687978568,0.0034499259199947123,0.9968963265419006,0.07864750921726227,0.0036968658376582133,-0.0008079441474595304,2.959977830981155,-0.09124448150396347,-0.1181538850069046,-0.04422029852867127,0.008150806201156229,0.09136537581682204,-9.772519347667695
41.7,3.0,162.0,23.397071838378906,24.94471549987793,-79.78276532083991,40.459021345675005,333.2302036743164,0.00021867013128940016,0.002340521430596709,0.9968869090080258,0.07880952954292297,0.01991457973260734,-0.0070788497093528064,2.9820012242145086,0.050655845552682884,-0.0351228229701519,-0.00709076039493084,0.06747609204612673,-0.050636001331731684,-9.950556539297104
41.8,2.9000000953674316,164.0,23.22929763793945,27.07579040527344,-79.78276533292257,40.45902137092674,333.5282536010742,-0.00017646807827986774,0.0006318811210803688,0.9969024062156676,0.07864608615636826,0.015005700311380297,-0.011793213440417864,2.97706628368882,0.03350052237510681,0.06710696220397949,0.035881854593753815,0.07626356181688608,0.09504393227398396,-9.786194230914116
41.9,2.9000000953674316,164.0,23.22303581237793,26.7418155670166,-79.78276534612817,40.45902139469163,333.8254490356445,-0.0004292263474781066,-0.001039261929690838,0.9969183802604676,0.07843808084726334,0.029874772651141007,-0.019646906743593654,2.968508564855424,0.1098211705684662,-0.02763240784406662,0.03365442901849747,0.07452907665632666,-0.30050626466050745,-9.790203081965448
42.1,2.9000000953674316,164.0,23.310680389404297,25.652421951293945,-79.78276535437185,40.459021407224114,334.4203281860352,0.0011635822011157868,-0.00047851499402895564,0.9969425797462464,0.07812771201133728,0.0092597043246863,-0.01829287515843941,2.980619280093578,0.0360582172870636,-0.01199598517268896,0.04935102164745332,0.03154931214870885,0.008245725240558386,-9.900740600824355
42.3,2.9000000953674316,164.0,23.328208923339844,25.44567680358887,-79.78276536157055,40.459021395329316,335.01511959838865,0.0029107134323567148,0.0005467843147926035,0.9969831705093384,0.07756169885396957,0.02066891938008677,0.0019281522614160887,2.9845613638979662,-0.03607665747404098,-0.01394612155854702,0.04697553440928458,0.050535803809762005,-0.07648628591559828,-9.848781073093415
42.4,2.700000047683716,167.0,23.36201477050781,25.326400756835927,-79.78276536594362,40.45902139603141,335.31382946777336,0.003295749658718705,0.0014713356504216788,0.9969817399978638,0.07755357772111893,0.02247108592855701,0.004726257187624264,2.9856496992513373,0.012124616652727129,0.007391203194856644,-0.0317915678024292,0.05000393559224904,-0.04521296919789165,-9.818466768264773
42.6,2.700000047683716,167.0,23.28313446044922,26.65434646606445,-79.78276534086265,40.45902140032126,335.90509228515623,0.002674323972314596,0.002844672650098801,0.9969530701637268,0.07790574431419373,0.03020333051663017,0.016123160655808332,2.9530736837957865,0.2365142405033112,0.017599007114768028,0.1067318394780159,0.06371122520416975,-0.2412612706795335,-9.693184910416603
42.7,2.700000047683716,171.0,23.295656204223643,26.26470947265625,-79.78276532060802,40.45902141582422,336.4974155883789,-2.9531194741139192e-05,0.0010064735542982817,0.9969246387481692,0.07835978269577026,-0.0043650530019195815,0.011468654940939859,2.944653380801096,-0.057048175483942025,-0.0546528697013855,-0.07791230082511902,0.04678959324024618,0.05213368339464069,-9.653363032937053
42.9,2.700000047683716,173.0,23.348241806030273,25.18326759338379,-79.7827653121184,40.4590214154635,336.7929249267578,-0.0006124221836216747,-0.00034144692472182214,0.9969112277030944,0.07853443920612335,-0.008821664313901094,0.005322775846008102,2.9642895595708376,0.030410019680857662,-0.00026879512006416917,-0.011210846714675426,0.05354438812471927,0.0842146878875792,-9.929693673849107
43.0,2.700000047683716,172.0,23.275623321533203,26.320371627807607,-79.78276532712228,40.45902135622358,337.09330181884764,-0.000382682541385293,-0.0009158223401755096,0.9969384074211121,0.07818511873483658,0.004359122457788311,0.005890286096601294,2.9773127172260123,0.06411366909742355,0.04652171581983566,0.034189850091934204,0.0037769484228920187,-0.05610580205451697,-9.860502401590347
43.2,2.700000047683716,173.0,23.261850357055664,26.61458778381348,-79.78276525703392,40.45902135646405,337.68866162109373,0.0021703969687223434,0.0021718533243983984,0.9970223903656006,0.07705163955688478,-0.025198611561329142,0.005056680156384882,2.982782146055486,-0.2262446433305741,0.0291559174656868,-0.08433209359645844,0.0015226697735488415,0.3527934374660254,-9.810245583057405
43.4,2.700000047683716,175.0,23.24432182312012,26.86904335021973,-79.78276523284752,40.45902135419674,338.2837772827148,0.003198979888111353,0.0039320839568972605,0.9970458745956421,0.07664156705141068,0.013705061588729129,0.015792005990934475,2.96144793253179,0.1158541589975357,0.031961973756551736,0.05871334299445152,0.07151697030756624,-0.006398187819868327,-9.699173043966294
43.5,2.700000047683716,174.0,23.354501724243164,25.127605438232425,-79.78276521186766,40.459021347600924,338.5803928833008,0.001954530831426382,0.0035775895230472092,0.9970455169677734,0.07670547813177109,-0.0007923266752233282,0.022315607192788158,2.966995041043144,-0.04505456984043121,-0.004129032138735056,-0.025098945945501328,0.014451697266194968,-0.042500103246420624,-9.789124270677569
43.6,2.700000047683716,176.0,23.21427154541016,26.78952598571777,-79.78276519688836,40.45902134950431,338.8770390014648,0.0003282400721218437,0.002684591803699732,0.9970318078994752,0.07694390416145325,-0.013007126522760324,0.015421952000151324,2.965814759211304,-0.085033118724823,-0.12990529835224152,-0.049469012767076485,-0.006949685323052108,0.08737394764088095,-9.762783148884774
43.8,2.799999952316284,178.0,23.29690742492676,25.533145904541016,-79.78276517947836,40.45902128305665,339.47597698974613,-0.0014519373653456569,0.00044601966510526836,0.996997892856598,0.07741505652666092,-0.007436294093437622,0.01426171334546037,2.9820811154827043,0.045060068368911736,-0.02801777236163616,0.048336297273635864,0.003998733769403771,-0.20571590054780245,-9.849520161151887
43.9,2.799999952316284,177.0,23.32445335388184,25.35820770263672,-79.78276517332391,40.459021280584295,339.7743931274414,-0.001948753953911364,5.6313929235329845e-05,0.9969900250434875,0.07750547677278519,-0.004693736359880735,0.0009364367496326274,2.983684834105024,0.10876461118459704,0.02692240662872792,0.07929093390703201,0.051087068337947135,-0.10684909522533416,-9.841152795553207
44.1,2.799999952316284,177.0,23.27937889099121,25.85121726989746,-79.78276511232525,40.45902127822252,340.3683796386718,-0.002469905884936452,0.0023831964936107397,0.9969650506973268,0.07777443528175354,-0.015902879782406742,0.0049916192213214465,2.9698961024405626,0.02052819542586804,-0.0011181109584867952,-0.00395863177254796,0.03566189417615533,0.09149453532882036,-9.77629021704197
44.2,2.799999952316284,177.0,23.336973190307607,24.57893371582031,-79.7827650889723,40.45902126325955,340.9635792236328,-0.002161909127607941,0.0030224299989640713,0.9969949126243592,0.07737791538238525,-0.010984023142203122,0.01900485654807239,2.959932404008712,-0.08737807720899582,-0.0455194003880024,-0.01835424266755581,0.04437088791746646,-0.11328139789402485,-9.798074603676797
44.4,2.799999952316284,181.0,23.726360321044922,19.521604537963867,-79.78276510051316,40.45902126538408,341.2556248168945,-0.0029487085994333033,0.0023228495847433805,0.99699467420578,0.07737977802753447,-0.009004589082909815,0.016669858834319592,2.8679530225346723,-0.06514745205640793,-0.06866162270307541,-0.04644113406538963,-0.005837186307180674,0.11360525141470135,-9.008402282595632
44.5,2.799999952316284,182.0,23.53479766845703,22.209304809570312,-79.78276510004373,40.45902121274426,341.5441227416992,-0.003573123132809997,0.0015937971184030175,0.9969951510429382,0.07736541330814363,-0.011821023822678644,0.01479484458438525,2.7449260156701234,-0.10431934893131256,-0.04929039254784584,-0.02779841795563697,-0.013624946654308587,0.12298149012029172,-8.6259686511755
44.6,2.799999952316284,183.0,23.69380760192871,19.8635311126709,-79.78276512317463,40.45902121417314,341.8127155761718,-0.0043908976949751394,0.0015549634117633106,0.9969763159751892,0.07756710052490234,-0.003399063434728837,0.008148679130886826,2.630501620292274,-0.051714375615119934,0.0047567090950906285,0.0006295560742728412,0.042842622175812715,0.07582284620963038,-8.682518243193627
44.8,2.799999952316284,186.0,23.78771209716797,18.479923248291016,-79.78276514417415,40.459021251117846,342.33397869873045,-0.0032317668665200468,0.0007416525622829795,0.9969258904457092,0.07828041911125183,0.0020119024534016373,-0.0018938025638181785,2.4020178672502546,-0.010712296701967716,-0.02480061538517475,0.007341000717133283,0.015342807221459224,0.005635984987020493,-8.476842432618142
44.9,2.700000047683716,185.0,23.632457733154297,20.436058044433594,-79.78276517481578,40.459021260257934,342.5668049316406,-0.002594954334199429,8.166685438482091e-05,0.996923565864563,0.07833752036094667,0.01723103494278002,-0.004255776519868975,2.255837672069326,0.0021336933132261038,0.008830273523926735,0.009438937529921532,0.009284506512922236,-0.0569389571947977,-8.40767747282982
45.1,2.5999999046325684,184.0,23.533544540405273,21.85147476196289,-79.78276516557635,40.45902131874532,343.0140934448242,-0.0010216924129053948,0.00024164628121070567,0.9969452023506165,0.07809755951166153,0.009363428478371693,-0.012185215495911892,2.033108272462026,-0.08187396079301834,-0.019063392654061317,-0.03993010520935058,0.026639549061656,0.09440982000902297,-8.615700355768205
45.3,2.5999999046325684,183.0,23.632457733154297,20.475818634033203,-79.78276515589772,40.4590213780765,343.42447857666014,0.00029505733982659876,-1.8955497580464e-05,0.9970044493675232,0.07734400779008865,0.01836567959611273,-0.011781664145095794,1.8841263016746728,0.010670703835785387,0.023023737594485283,0.010193250142037868,0.01872710597701371,-0.01939726084470749,-8.898453578352928
45.4,2.5,183.0,23.692556381225586,19.982807159423828,-79.78276517532946,40.45902139102015,343.6087208251953,0.0008187003550119697,-0.0004726329061668366,0.9970189929008484,0.07715166360139848,0.01590497236705397,-0.01201475369397698,1.8000581708680876,-0.0019316326361149552,0.05792945623397828,-0.017891209572553638,0.03009521925123408,0.10306221909821034,-8.931972742080687
45.5,2.4000000953674316,183.0,23.51852035522461,22.392194747924805,-79.782765096554,40.459021493344345,343.82689862060545,0.002374354982748628,-0.0008525702287442982,0.9970258474349976,0.07702700793743134,0.011412905672942992,-0.021990127143553525,1.7559216784851197,0.03293811902403832,0.009598213247954844,0.02443038858473301,0.05112373220734299,-0.07967869207262994,-8.91960471153259
45.7,2.299999952316284,183.0,23.5147647857666,21.8355712890625,-79.782764912088,40.459021682922405,344.3948078613281,0.0023458651266992088,-0.0039032152853906155,0.9970701932907104,0.07635714113712311,-0.016074310630650675,-0.02707071365006988,1.6163142911538486,-0.04304245486855507,-0.03337203711271286,0.0038015309255570173,-0.005141898119472899,-0.15517995055764913,-9.080308417081831
45.9,2.299999952316284,183.0,23.506000518798828,22.376291275024414,-79.7827648775603,40.45902169406465,344.5544224243164,0.0006512528634630144,-0.004972130060195923,0.9970646500587464,0.07639962434768678,-0.017856752195515708,-0.023698423830516256,1.5814664054766847,0.03223726898431778,0.035298336297273636,0.02248832769691944,-0.022327056212816387,-0.07727339423261584,-9.41921595990658
46.0,2.200000047683716,183.0,23.443397521972656,23.42592620849609,-79.78276461811565,40.45902190607429,344.8114033203125,-0.0008591007208451629,-0.0057834959588944895,0.9970502853393556,0.07652830332517624,-0.043770680466268176,-0.04017165749643647,1.6344570141250143,-0.04810671135783196,-0.046791691333055496,-0.03409602865576744,-0.01391998550738208,-0.023395787905901667,-9.553590822815897
46.2,2.0999999046325684,182.0,23.63996887207031,20.8177433013916,-79.78276426812418,40.45902215979085,345.242921875,-0.0013984827091917396,-0.005059704650193453,0.9970324635505676,0.0768030658364296,-0.055494310142457655,-0.05324908497166516,1.665542512758067,0.04278034716844559,0.06556592136621475,0.030171237885952006,-0.0013442349073011428,-0.0728030516859144,-9.38403852581978
