time,wind_speed,wind_angle,battery_voltage,battery_current,position_x,position_y,position_z,orientation_x,orientation_y,orientation_z,orientation_w,velocity_x,velocity_y,velocity_z,angular_x,angular_y,angular_z,linear_acceleration_x,linear_acceleration_y,linear_acceleration_z
0.0,0.20000000298023224,176.0,24.358646392822266,-0.07951773703098297,-79.7827931407473,40.459009536017476,271.190056142658,0.02119595743715763,-0.004652274306863546,-0.9997125864028932,0.010195309296250343,-0.005739700872271603,-0.03523216042006798,0.019686257958073883,0.005380492657423018,0.002531491685658693,0.006145642604678868,0.05616271647624672,-0.4523835799098015,-9.803787333369256
0.19,0.20000000298023224,176.0,24.359899520874023,-0.07156596332788467,-79.78279331849447,40.459009705195655,271.2012801126391,0.02122429758310318,-0.004600460641086102,-0.9997118711471558,0.010230060666799544,-0.0018395638747191587,-0.03203139357069882,0.018083263555944654,-0.0008712979033589362,0.0008427739958278835,-0.001850675093010068,0.05905765467323362,-0.4495989165455103,-9.803028949499133
0.3,0.20000000298023224,173.0,24.358646392822266,-0.07951773703098297,-79.7827933164636,40.459009735921896,271.20307605274024,0.021204778924584392,-0.0046138959005475036,-0.9997121691703796,0.010236780159175396,-0.004032493456145065,-0.035788438424620594,0.01822107596200738,0.0047463467344641685,0.004328593611717224,0.007742786314338446,0.05867211759556085,-0.4564287202432752,-9.803032457828524
0.49,0.20000000298023224,175.0,24.358646392822266,-0.07156596332788467,-79.78279347065684,40.459009922193495,271.2145120918565,0.021228477358818054,-0.004573672544211149,-0.9997114539146424,0.010269427672028542,-0.003467637097167599,-0.03646758054197943,0.016977486675541914,0.0018075942061841488,-0.0006057937862351537,0.0050701331347227105,0.056935563068836924,-0.4352866502478719,-9.80081110060215
0.59,0.20000000298023224,174.0,24.35739517211914,-0.06361418962478638,-79.78279346728377,40.45900995537652,271.21620968964885,0.02122353762388229,-0.004550320096313953,-0.9997114539146424,0.010293945670127869,-0.0065096239752562395,-0.0398686141337516,0.017253460640569655,-0.0036320744547992953,-0.000687097548507154,0.005940048955380918,0.059221650799736375,-0.4550245114043355,-9.80353824198246
0.79,0.20000000298023224,176.0,24.359899520874023,-0.07951773703098297,-79.78279361681795,40.459010142404416,271.22776909571144,0.021232252940535545,-0.004556593019515276,-0.9997109174728394,0.0103275952860713,-0.004999884967333368,-0.039676095746680816,0.01641409905554317,0.005253488663583994,0.005681675393134356,0.008134800009429455,0.05619278395548463,-0.4320921336114407,-9.799891333580018
0.9,0.20000000298023224,174.0,24.35238647460937,-0.06361418962478638,-79.78279375175514,40.45901025574149,271.23767318509516,0.021265003830194473,-0.004488752689212561,-0.9997103214263916,0.010344927199184895,-0.002636254497057251,-0.02826664757736788,0.015412479607461862,-0.003013951936736703,-0.0015865274472162127,0.0019015982979908586,0.05858714567497372,-0.4517517882585526,-9.802829559445382
1.09,0.20000000298023224,172.0,24.35739517211914,-0.06361418962478638,-79.78279374451989,40.459010311776375,271.2408016633988,0.02126986533403397,-0.004479533061385155,-0.9997100830078124,0.010361539199948307,-0.006876339370358749,-0.03505693053005513,0.015958531996179786,0.007502486463636159,0.0044863088987767705,0.0071586030535399905,0.059045083159580826,-0.4309199861437081,-9.800421091318134
1.2,0.20000000298023224,173.0,24.351133346557607,-0.07951773703098297,-79.78279389144835,40.459010483012,271.2523540978134,0.02128973975777626,-0.004479736555367708,-0.9997093081474304,0.010396637953817844,-0.002225926785586912,-0.03627365875690555,0.01865581964805436,-0.004100806079804897,-0.005801660474389792,-0.0009605740779079496,0.056767894160002476,-0.4480313145741821,-9.802517902851106
1.39,0.20000000298023224,172.0,24.35739517211914,-0.07951773703098297,-79.78279401715456,40.459010651230436,271.2660637696088,0.02132551372051239,-0.004457780160009861,-0.9997082948684692,0.01043315976858139,-9.88147673945605e-05,-0.03062048556409137,0.020374058245555653,0.005926995072513819,0.003319513518363237,0.0035294429399073124,0.057787950066849586,-0.4343685277551413,-9.800960789322852
1.49,0.30000001192092896,169.0,24.35238647460937,-0.07156596332788467,-79.78279401651369,40.459010680528884,271.2681004789472,0.021329842507839203,-0.004467134363949299,-0.9997079372406006,0.010449412278831005,-0.004036857053685034,-0.0340287080698473,0.02076964250524045,-0.00459799123927951,-0.004346742760390043,-0.003393889870494604,0.05733223269693554,-0.4429981044307351,-9.800986517071726
1.69,0.30000001192092896,168.0,24.36115074157715,-0.07156596332788467,-79.78279409861159,40.45901091889922,271.2802436810732,0.02133089303970337,-0.004481695126742125,-0.9997076392173768,0.01047617383301258,-0.008294374680769802,-0.044534008301563996,0.01935350688532652,0.005374550353735685,0.0022798459976911545,0.0070902183651924125,0.057860021567903465,-0.4343168895319104,-9.80080876171589
1.79,0.30000001192092896,162.0,24.351133346557607,-0.07951773703098297,-79.78279408885216,40.45901096091103,271.2821940530837,0.02133939974009991,-0.0044958340004086494,-0.999707281589508,0.010485186241567137,-0.012017160283662294,-0.04805286780679509,0.0197220116327984,-0.006356689147651196,-0.0021481532603502274,-0.004168622195720673,0.0577456673886627,-0.4433589507266879,-9.802128478288653
1.99,0.30000001192092896,168.0,24.35739517211914,-0.07156596332788467,-79.78279410027706,40.45901114680903,271.2957024884224,0.02131664752960205,-0.004490060266107321,-0.999707281589508,0.0105304354801774,-0.02225168893654864,-0.04498264511894271,0.02057236800653299,0.001964906230568886,0.003984800539910793,0.006507306359708309,0.056178590753115716,-0.4336563003435731,-9.801333256959916
2.11,0.30000001192092896,162.0,24.359899520874023,-0.05566241592168808,-79.7827940756297,40.45901118764368,271.29783465087417,0.021326767280697826,-0.004467805847525597,-0.9997069835662842,0.01054550614207983,-0.02591458074122436,-0.04818733622848618,0.02090609067186769,-0.006831756792962551,-0.0021493639796972275,-0.0028491325210779905,0.056241050893440836,-0.4451756806299091,-9.801575331687927
2.29,0.30000001192092896,161.0,24.354890823364247,-0.07156596332788467,-79.78279419286385,40.45901130522714,271.3138769131899,0.02136756666004657,-0.004419635981321335,-0.9997059106826782,0.010592729784548284,-0.017113491017573326,-0.033237528410759616,0.02552476808678273,0.003919510170817375,0.0038417349569499493,0.0032537172082811594,0.059582410301081835,-0.4320566117763521,-9.80069064795971
2.39,0.30000001192092896,155.0,24.35739517211914,-0.07156596332788467,-79.782794284568,40.459011455468136,271.3245601218939,0.02139664813876152,-0.004388824105262756,-0.9997052550315856,0.010609357617795469,-0.013870635232144813,-0.029815443858320575,0.02485467415767775,-0.004334708675742149,-0.0037315106019377713,-0.0007595143979415298,0.05646125338040293,-0.44772557828575377,-9.803811306953431
2.59,0.30000001192092896,152.0,24.35739517211914,-0.07951773703098297,-79.78279425280344,40.45901151487393,271.3296434518695,0.021419944241642952,-0.004399221390485764,-0.9997043609619141,0.010638399980962276,-0.01726549314739001,-0.03634328972120603,0.02520212886608281,0.008301511406898499,0.0032154954969882965,0.006263874936848879,0.057177610388025636,-0.4321473167091608,-9.801165441870687
2.69,0.30000001192092896,151.0,24.356142044067386,-0.07951773703098297,-79.7827943662232,40.45901162767692,271.3401275289059,0.021441353484988213,-0.0043698525987565535,-0.9997037053108216,0.010672363452613355,-0.010334867865531566,-0.02507150147584929,0.024678001600571483,-0.0034137589391320944,-0.0015855968231335282,-0.0034292787313461304,0.05845521787181498,-0.4491579268500209,-9.80285060942173
2.89,0.30000001192092896,151.0,24.359899520874023,-0.07951773703098297,-79.78279443417244,40.459011797503,271.35254761695865,0.021457506343722343,-0.00435181800276041,-0.9997026920318604,0.010732166469097136,-0.0074282814399670265,-0.02541647865253336,0.02456964784728677,0.005294377449899912,0.0028958681505173445,0.006869660690426826,0.05870888196397572,-0.43000858794897795,-9.801232100129127
2.99,0.30000001192092896,150.0,24.35238647460937,-0.07156596332788467,-79.78279442506515,40.45901182219434,271.35504485785964,0.021458148956298828,-0.004361904226243496,-0.9997023940086364,0.010758677497506142,-0.010843249831108516,-0.02864457235885462,0.025031579939212862,-0.001980157569050789,0.0010560119990259411,0.0020099258981645107,0.059077000734396284,-0.4502934926748276,-9.803575079441071
3.2,0.30000001192092896,146.0,24.36365509033203,-0.015903547406196594,-79.78279454579746,40.45901200608375,271.3652243328095,0.021531576290726655,-0.0043846284970641145,-0.9997003078460692,0.010791596956551077,0.00019875130165007826,-0.030280931146881844,0.02168472686134786,0.005318329203873873,0.0036604218184947968,0.003972136415541172,0.058130057863891124,-0.4312124200165272,-9.800691232681276
3.29,0.30000001192092896,144.0,24.354890823364247,-0.09542128443717957,-79.78279454577638,40.459012035008065,271.3673892480135,0.02150459215044976,-0.004379994701594114,-0.9997007250785828,0.010807816870510578,-0.0029054108568017946,-0.033552812204756886,0.02204837725376141,-0.0006735456408932805,-1.4417215425055474e-05,0.0014056413201615214,0.05833453682251275,-0.4542694896832109,-9.803040059208868
3.49,0.30000001192092896,143.0,24.359899520874023,-0.07951773703098297,-79.7827946001476,40.45901220179494,271.3795010608435,0.02152254432439804,-0.004356582649052143,-0.9997002482414246,0.010830271057784556,-0.005302265703224288,-0.029964601058141707,0.02259826868210629,0.007202497683465482,0.0029530508909374475,0.007002388592809439,0.05660031204577536,-0.4306223994120956,-9.800719299316409
3.6,0.30000001192092896,141.0,24.359899520874023,-0.07951773703098297,-79.78279459457356,40.45901222933225,271.38178281605246,0.02151576429605484,-0.0043443054892122746,-0.999700129032135,0.010854850523173807,-0.007998270534792372,-0.033069365078143564,0.0228942348182056,-0.0010462932987138633,0.0013325047912076116,0.0047363764606416225,0.057343237339518974,-0.4565934655442834,-9.802642448544503
3.79,0.30000001192092896,141.0,24.362401962280273,-0.09542128443717957,-79.78279461313112,40.45901240991839,271.3911122244597,0.021525660529732704,-0.004377229604870081,-0.9996992349624634,0.01090665813535452,-0.013226623077589079,-0.03310561605888741,0.01912408866369262,0.006215415894985199,-0.00180956267286092,0.007972017861902714,0.05594859417993577,-0.4318742882832885,-9.800352678894997
3.89,0.30000001192092896,139.0,24.35739517211914,-0.07156596332788467,-79.78279471446263,40.45901253680403,271.40051847815516,0.021566053852438927,-0.0043463376350700855,-0.9996982216835022,0.010930709540843964,-0.0031211976198851307,-0.02552015744570444,0.020598812453260985,-0.00012612158025149256,-0.00037219416117295623,0.004763238597661257,0.058700042618438614,-0.4567589052021504,-9.804115946888924
4.09,0.30000001192092896,139.0,24.356142044067386,-0.03180709481239319,-79.7827947070278,40.459012587778794,271.4046823245287,0.0216121543198824,-0.0043455008417367935,-0.9996970891952516,0.010947004891932007,-0.006604146016958602,-0.03189338799892005,0.021113147791807098,0.00534730451181531,0.002816638443619013,0.004639183636754751,0.0558213487174362,-0.43229320473968985,-9.800622820258141
4.19,0.30000001192092896,142.0,24.34863090515137,-0.015903547406196594,-79.78279475756354,40.45901274074174,271.4124395263196,0.02161184698343277,-0.004336262587457895,-0.9996967911720276,0.010979428887367249,-0.007079760651206089,-0.02999571358392767,0.01854823269868128,-0.0019789431244134907,-0.002213597996160388,0.002253751736134291,0.057766562048345814,-0.4552472537755967,-9.803145309090617
4.39,0.30000001192092896,143.0,24.358646392822266,-0.02385532110929489,-79.78279482791892,40.459012919843175,271.4220806819201,0.021664170548319817,-0.004327119793742895,-0.9996953010559082,0.011011553928256037,-0.002992561638477177,-0.02999751360498315,0.016693078195708762,0.008961889892816544,0.0032274955883622174,0.00510283699259162,0.056404174505732964,-0.4305275648832321,-9.800188956856726
4.5,0.30000001192092896,143.0,24.34988212585449,-0.02385532110929489,-79.78279482398085,40.45901294852164,271.423761279583,0.02166636846959591,-0.004338803235441446,-0.9996950626373292,0.011027224361896515,-0.006122980667456461,-0.033242110509616944,0.01709013877573071,-0.0026360393967479467,-0.0022988931741565466,-0.0008153554517775773,0.05683349261060356,-0.4507697849348188,-9.802362951636317
4.69,0.30000001192092896,145.0,24.34737777709961,0.0,-79.78279489835442,40.459013106206,271.4330269110203,0.021717948839068413,-0.004304524045437574,-0.9996939301490784,0.011037372052669523,-0.0018001988520541692,-0.028730274001572336,0.01570232304384625,0.004159674979746343,0.0009867735207080839,0.006452439352869988,0.058533524880185726,-0.4294138164818287,-9.799993659853936
4.8,0.30000001192092896,148.0,24.34863090515137,-0.015903547406196594,-79.78279489585553,40.45901313364561,271.43460923552516,0.021723156794905663,-0.0043209274299442785,-0.9996935129165648,0.01105798687785864,-0.005250968049472919,-0.031798059479296904,0.016273495161089127,-0.00623871898278594,-0.004400515463203192,-0.007143025286495686,0.0578315986180678,-0.4395211672782898,-9.802726063728333
4.99,0.30000001192092896,150.0,24.339866638183594,0.06361418962478638,-79.78279497753462,40.45901331372611,271.44377809882167,0.021759575232863426,-0.0043070116080343715,-0.9996923208236694,0.01110183633863926,-0.0008728178336381015,-0.033569329257806,0.01582817011138043,0.004139743279665709,0.0009760669199749828,0.005886065308004618,0.0580803291220218,-0.4390970979630947,-9.800758475661278
5.09,0.30000001192092896,153.0,24.34988212585449,0.0,-79.78279497822751,40.459013344229604,271.4453542095423,0.021788598969578743,-0.00429778266698122,-0.999691605567932,0.01111105643212795,-0.00326741705806353,-0.03657840056680015,0.016286757595213888,-0.002866304712370038,0.0006067823269404473,-0.008732028305530548,0.056669067079201337,-0.4289010156691074,-9.800250937342645
5.29,0.30000001192092896,156.0,24.34988212585449,-0.015903547406196594,-79.78279505022728,40.45901347813618,271.45418371379384,0.021788014099001884,-0.004263398703187704,-0.9996910095214844,0.011178377084434029,-0.0018269645734616253,-0.028358870947006464,0.015365513148299063,-0.004819454159587622,-0.0005488108727149665,-0.0030129530932754287,0.05830618696287275,-0.4535383319109679,-9.803330665826797
5.4,0.30000001192092896,157.0,24.34863090515137,-0.03180709481239319,-79.7827950950808,40.459013621730364,271.4610693317652,0.021797241643071168,-0.004234964493662119,-0.9996908903121948,0.01118667796254158,-0.002153643266447428,-0.02651246272287136,0.01429032453805681,0.0006023201858624816,-0.000900768267456442,-0.0016734544187784195,0.058175204764120275,-0.4352677198871969,-9.800495350956915
5.59,0.30000001192092896,158.0,24.34988212585449,0.007951773703098297,-79.78279508959812,40.45901367433476,271.4639612299204,0.02179617621004581,-0.004247709643095732,-0.9996904134750366,0.011225244961678982,-0.006322890687461111,-0.03254836633735158,0.015022977403831891,-0.012604025192558764,-0.00046875592670403416,-0.007518699858337641,0.0600412705494091,-0.4583115236833692,-9.802750037312508
5.69,0.30000001192092896,159.0,24.342369079589844,-0.015903547406196594,-79.78279518732886,40.45901381856126,271.4727665197849,0.02181179821491241,-0.004250225611031056,-0.9996899962425232,0.01123310998082161,0.002868764452189591,-0.029905065148295683,0.01797987931178844,0.007607612758874894,-0.000956775387749076,0.0067701884545385855,0.058619300792925065,-0.4532940644770861,-9.802976909279824
5.9,0.30000001192092896,158.0,24.342369079589844,-0.007951773703098297,-79.78279524945394,40.459013970318615,271.48024046540263,0.02182365208864212,-0.0042216614820063105,-0.9996894001960754,0.011271175928413868,0.0018487133804553609,-0.026902829665176282,0.01657392615480324,-0.000169224469573237,-0.0018142308108508587,-0.0012114167911931872,0.0576703525101766,-0.4484452608972788,-9.802772256731988
5.99,0.30000001192092896,160.0,24.351133346557607,0.0,-79.78279525226202,40.45901399595577,271.48188001036647,0.02180184982717037,-0.004229836165905,-0.9996896386146544,0.011295203119516373,0.0008789394173150432,-0.02992470617241005,0.016742009064472638,0.006447120103985071,0.0011752702994272113,0.006177117582410574,0.05937614520080387,-0.4595902732014656,-9.803105548024178
6.19,0.30000001192092896,161.0,24.35238647460937,-0.03180709481239319,-79.78279530800636,40.459014167325584,271.48929497718814,0.021825892850756645,-0.0042522670701146134,-0.999688446521759,0.01133730262517929,0.0009492647923307813,-0.03103221440978467,0.015851970301561026,0.008301361463963984,0.0029871608130633827,0.001457779319025576,0.05644163323100656,-0.4346511675417423,-9.800424014925957
6.29,0.20000000298023224,164.0,24.351133346557607,0.015903547406196594,-79.7827953091265,40.45901419675338,271.49087444067004,0.02182977274060249,-0.004269367549568415,-0.9996878504753112,0.011375044472515585,-0.0011960977747401886,-0.034143233276626946,0.01622824884147757,-0.0006117185694165528,0.0011579794809222221,0.002152482746168971,0.05787404574919493,-0.4565952927991748,-9.803093853592873
6.49,0.20000000298023224,165.0,24.3536376953125,0.007951773703098297,-79.78279534574126,40.45901433794714,271.49980035543445,0.021831391379237168,-0.0042514996603131286,-0.9996876716613772,0.011401167139410973,-0.003132562727964853,-0.028715646742364983,0.018662743327508745,0.007205715402960776,-0.00034060527104884386,0.007702123839408159,0.056724008065648375,-0.4296869179978967,-9.800800575613977
6.59,0.20000000298023224,169.0,24.354890823364247,0.039758868515491486,-79.78279534231197,40.45901436436796,271.50168463706973,0.021823089569807053,-0.004241100046783686,-0.9996874928474426,0.0114296805113554,-0.005757905986628454,-0.03173448805297015,0.01910560561479564,-0.004115099087357521,-0.002023147651925683,0.0002890281321015209,0.057239293945021925,-0.4515773219615221,-9.80313244521618
6.79,0.20000000298023224,167.0,24.34988212585449,-0.007951773703098297,-79.78279537693943,40.45901450225093,271.50772693872455,0.021847276017069817,-0.004255617968738079,-0.9996864199638368,0.011471814475953579,-0.006117431873207375,-0.027839627377707,0.016602271564184257,0.0076920855790376655,0.002617608057335019,0.006262998096644878,0.05778614565264434,-0.4300867579132319,-9.800419921875
6.9,0.20000000298023224,170.0,24.34111785888672,0.0,-79.78279542313092,40.459014629722745,271.5126215231419,0.021847205236554142,-0.004217600915580988,-0.9996864795684814,0.011486530303955078,-0.004914065371505943,-0.02527525192038472,0.015855942482014454,-0.008404374122619629,-0.0014957168605178597,-0.001621329109184444,0.057176975416950875,-0.4464257422462106,-9.803194425702097
7.09,0.20000000298023224,172.0,24.354890823364247,0.015903547406196594,-79.78279541338836,40.4590146801296,271.51584735631945,0.02184697613120079,-0.004205787088721991,-0.999686360359192,0.011504066176712513,-0.006606247989951533,-0.03144476777981866,0.0164219932550716,0.00831330381333828,0.0007259591948240995,0.009152761660516262,0.057220340743660926,-0.4312256858870388,-9.800157381892204
7.19,0.20000000298023224,176.0,24.351133346557607,-0.07156596332788467,-79.78279548472615,40.459014814762966,271.5203067970276,0.021879460662603385,-0.004213531035929918,-0.9996854066848756,0.011519273743033407,-0.0009740503819636793,-0.02935515769540026,0.015449040711021506,-0.007852778770029545,-0.0006329604657366872,-0.008325225673615929,0.05742717229295523,-0.4402224677056074,-9.802110351920126
7.39,0.20000000298023224,178.0,24.3536376953125,-0.07951773703098297,-79.78279555585453,40.45901493208234,271.5279982995987,0.021912837401032448,-0.004176377784460783,-0.9996843338012696,0.011559241451323029,0.006245385510417654,-0.01947835419483274,0.01845125053580111,0.004218616057187319,0.002970012603327632,0.006577666383236647,0.0581495044240728,-0.4368290361016989,-9.801865938305856
7.5,0.20000000298023224,180.0,24.354890823364247,-0.07156596332788467,-79.78279556348471,40.4590149510453,271.52982220172885,0.02192106284201145,-0.0041983118280768394,-0.9996839761734008,0.011572809889912605,0.003662980165098853,-0.022562395779787046,0.0189160413294842,-0.008630385622382164,-0.0033684857189655304,-0.009319069795310496,0.05597608979791403,-0.4320244155451656,-9.800705850720409
7.69,0.20000000298023224,180.0,24.3536376953125,-0.07951773703098297,-79.78279558678987,40.45901510908393,271.53520438194283,0.0219075009226799,-0.004172793589532375,-0.9996837973594666,0.011621865443885326,0.0003685603430550863,-0.024961239191061683,0.0166349841216089,-0.003473673714324832,-0.0007122316746972501,0.0026478159707039595,0.058629515147767965,-0.447032171599567,-9.801701046824457
7.79,0.20000000298023224,183.0,24.33861351013184,-0.1908425688743592,-79.78279558815599,40.459015133008776,271.5368627023697,0.021906256675720208,-0.004175391513854265,-0.9996838569641112,0.011615886352956295,-0.0014643710299170208,-0.02789199803690488,0.017059733935829612,-0.0040182345546782025,-0.0033878437243402004,-0.004985386971384287,0.058834953415207565,-0.4286177911609411,-9.800980669856072
7.99,0.20000000298023224,181.0,24.35739517211914,-0.08746951073408127,-79.78279562387688,40.45901529476184,271.54185083627704,0.021888939663767808,-0.004178420174866915,-0.9996836185455322,0.011667324230074884,-0.0015619493669354854,-0.030162428137108187,0.016277373514368074,-0.00876449141651392,-0.00481941644102335,-0.001502453233115375,0.05957084834575654,-0.4550181891024113,-9.802902649641037
8.09,0.30000001192092896,182.0,24.356142044067386,-0.06361418962478638,-79.78279562508978,40.4590153222766,271.5434647214413,0.02189714647829533,-0.0041680815629661075,-0.9996833205223083,0.011682066135108473,-0.0021087967893334615,-0.033121474431219954,0.016519408596588347,-0.0020611868239939213,0.0007939868373796344,-0.003494995180517435,0.05782428503036498,-0.43386248778551817,-9.80110872387886
8.29,0.30000001192092896,183.0,24.34737777709961,-0.08746951073408127,-79.7827957007915,40.45901551431845,271.54576629519465,0.021912479773163795,-0.004219713155180216,-0.9996820092201232,0.011742075905203821,0.0032297350913959803,-0.04040339513602633,0.013292061213839107,-0.006386223714798689,-0.0035415156744420533,-0.0071303904987871656,0.0588573921052739,-0.4600014786422253,-9.804016544222831
8.4,0.30000001192092896,184.0,24.354890823364247,-0.07156596332788467,-79.78279570914408,40.4590155811236,271.5480696868897,0.02191868238151073,-0.004162895958870649,-0.9996818900108336,0.011763930320739746,0.002077848187031966,-0.02271748657857966,0.012394439070573237,0.005854940041899681,0.003433426842093468,0.002645452739670873,0.0567679626820609,-0.4457484519481659,-9.801913300752641
8.59,0.30000001192092896,186.0,24.354890823364247,-0.06361418962478638,-79.78279571279684,40.45901562657072,271.5505903077126,0.021907437592744827,-0.0041694422252476215,-0.9996816515922546,0.011802108958363531,-0.0018300808415965565,-0.028569432952230814,0.01323259812299573,-0.003939123824238777,-0.0015981709584593773,-0.008780826814472675,0.05786144225858152,-0.4550229765102268,-9.804067999720576
8.69,0.30000001192092896,188.0,24.35739517211914,-0.07156596332788467,-79.78279574830692,40.45901571949931,271.5520905566216,0.021912263706326485,-0.00414687255397439,-0.999681293964386,0.011833265423774721,0.003122585816139568,-0.02079124415122106,0.012271012334599206,0.006039224099367857,0.004032510332763195,0.007621806114912033,0.0587518498627469,-0.4557598718628288,-9.803192671537401
8.89,0.30000001192092896,187.0,24.35739517211914,-0.06361418962478638,-79.78279578301591,40.45901586996092,271.55372640609744,0.021944943815469745,-0.0041590118780732155,-0.9996801018714904,0.011865856125950813,0.0038904271653694093,-0.024579020647795543,0.010460293160293892,-0.0012719741789624095,-0.0025491148699074984,-0.005191344302147628,0.05682088911999018,-0.447504663169384,-9.80405981361866
8.99,0.30000001192092896,187.0,24.35238647460937,-0.07156596332788467,-79.78279578817953,40.459015893412335,271.55475250005725,0.02193678915500641,-0.004160221666097641,-0.9996801018714904,0.01188500504940748,0.0033740951207403016,-0.027573788089595555,0.010741935748117694,0.006006204057484865,0.001715282560326159,0.007376548368483781,0.059621522692032164,-0.4573297761753202,-9.804051042795182
9.19,0.30000001192092896,187.0,24.35739517211914,-0.07156596332788467,-79.78279579409225,40.459016029194395,271.55731040358546,0.02195215784013272,-0.00414449628442526,-0.9996792078018188,0.01193312369287014,-0.0005367822045941597,-0.02524315263664021,0.011334015975671808,0.0022908772807568307,0.001654427614994347,-0.0023486646823585033,0.05756282769609241,-0.4392206569388509,-9.802672269344333
9.3,0.30000001192092896,188.0,24.35739517211914,-0.07951773703098297,-79.7827957935624,40.4590160534091,271.55845388889315,0.02193409949541092,-0.004146660212427378,-0.9996792674064636,0.011964386329054829,-0.0018795390080698228,-0.028314137225866624,0.011775174953798092,0.00579332560300827,0.002310813870280981,0.006931383162736893,0.057668036464601766,-0.4591363099962473,-9.804350420236588
9.49,0.30000001192092896,187.0,24.354890823364247,-0.07156596332788467,-79.78279583628105,40.45901617878106,271.5608976197243,0.02196444198489189,-0.004130087792873383,-0.9996782541275024,0.011993716470897198,0.0032233010954299595,-0.02551698294470631,0.012299469742204895,0.005501343868672848,-8.32848745631054e-05,0.006384854670614004,0.05646703207399696,-0.4352220019698143,-9.80258631527424
9.59,0.30000001192092896,188.0,24.354890823364247,-0.06361418962478638,-79.78279584041867,40.45901620212405,271.5621183228493,0.02198098599910736,-0.004126884508877993,-0.9996777176856996,0.012012395076453686,0.0017448025784222124,-0.02829739989911276,0.012631676043405444,0.0008835549815557898,0.0016200914978981018,0.004572783596813679,0.0581283219717443,-0.4573478294536472,-9.80298217177391
9.8,0.30000001192092896,185.0,24.3536376953125,-0.07951773703098297,-79.78279585781532,40.45901631595872,271.56406816959384,0.021978875622153282,-0.004105689469724894,-0.9996773600578308,0.012051491998136044,0.0020815166213886296,-0.024251472031564608,0.012585027186990436,0.006212587468326092,0.0019410792738199234,0.003258534008637071,0.05763262426480651,-0.4349455383047462,-9.801435583233834
9.9,0.30000001192092896,183.0,24.35739517211914,-0.07951773703098297,-79.78279585529113,40.459016414453615,271.5646538150311,0.021981362253427502,-0.0040907603688538074,-0.9996771216392516,0.012074177153408527,0.003118687772795252,-0.020699756036443848,0.012210040008891572,0.0024799425154924393,0.004631777293980122,0.00697077764198184,0.05934794152155519,-0.4571273894235492,-9.803071634173394
10.09,0.30000001192092896,182.0,24.358646392822266,-0.06361418962478638,-79.78279586238725,40.459016455914686,271.5671261560917,0.02199455350637436,-0.004090521950274706,-0.999676525592804,0.012100747786462307,0.0007091209307464638,-0.02635462334690434,0.013008478951739469,0.006297518964856863,-0.0022330600768327713,-0.0007743527530692518,0.057384894182905564,-0.4353477536514402,-9.802062404751778
10.2,0.30000001192092896,176.0,24.351133346557607,-0.06361418962478638,-79.78279585731076,40.45901656969245,271.5672456932068,0.021984977647662163,-0.004090204369276762,-0.9996764659881592,0.012123067863285542,0.0019936977980619303,-0.025899225177170845,0.012685672295350996,0.0026478760410100213,0.0042233150452375395,0.003596019698306918,0.059137674733065075,-0.4579432221874595,-9.804387842416764
10.4,0.30000001192092896,174.0,24.34988212585449,-0.07156596332788467,-79.78279585251819,40.45901668564305,271.5681756448746,0.02197645977139473,-0.0040930951945483685,-0.9996762871742249,0.012151692993938923,0.0021728963133614,-0.023343787660108008,0.012552379757378251,0.0011557446559891105,0.0007034625159576535,-0.0009335792856290935,0.05641361227724701,-0.4378943622484803,-9.802094564437867
10.5,0.30000001192092896,170.0,24.356142044067386,-0.06361418962478638,-79.78279585536279,40.459016708011276,271.5694234085083,0.021962495520710945,-0.004083965439349413,-0.9996760487556458,0.012198432348668577,0.0011033796053426298,-0.02624868244128489,0.012846214288864935,0.0022841617465019226,0.005488153547048569,0.005460521671921015,0.058926576543599375,-0.4568988729268313,-9.804011281728744
10.69,0.30000001192092896,169.0,24.35739517211914,-0.07156596332788467,-79.78279584792658,40.45901683661781,271.56822642803195,0.0219650249928236,-0.0040750945918262005,-0.999675750732422,0.01222279854118824,0.0013116453197478304,-0.02713591870930066,0.009111582979715229,0.0017116651870310307,0.0015301504172384741,-0.0045607034116983405,0.05835506603121756,-0.4393949405103922,-9.802194551825524
10.79,0.30000001192092896,167.0,24.354890823364247,-0.07156596332788467,-79.7827958496637,40.45901686238592,271.56913432598117,0.02196244895458221,-0.004068523179739714,-0.9996753931045532,0.012256703339517115,0.00029356258547159013,-0.030068125190460038,0.009454830139561393,0.0016024146461859345,0.001936841872520745,0.005210516508668661,0.058997743553482015,-0.4572372074425221,-9.80382124722004
10.99,0.30000001192092896,165.0,24.34863090515137,-0.07156596332788467,-79.7827958004252,40.45901696221737,271.56804257750514,0.02197778970003128,-0.004032451659440993,-0.9996747374534608,0.012294565327465534,-0.005450297204156885,-0.026024150525106118,0.007602896922465136,0.005160321015864611,-0.0013090561842545867,-0.0008016005158424377,0.05806672977749259,-0.437880000025034,-9.802627830505374
11.09,0.30000001192092896,162.0,24.35238647460937,-0.06361418962478638,-79.78279579466005,40.459016985852365,271.5688320708275,0.021974906325340268,-0.004015836864709854,-0.9996745586395264,0.01232181303203106,-0.006455557888793144,-0.028511806370333907,0.007963201774996227,0.003639226546511054,-0.00025671935873106117,0.0036881980486214157,0.060079816491343085,-0.4579161788150669,-9.804715286493302
11.29,0.30000001192092896,162.0,24.33360481262207,-0.16698725521564484,-79.78279579835217,40.45901712829465,271.5693185043335,0.02197451144456864,-0.0040390705689787865,-0.9996739029884338,0.01236602570861578,-0.0016633678832864804,-0.033053277994728035,0.009572069182623306,0.0007005593506619334,0.0003592023567762226,0.00015264672401826831,0.05639612544793636,-0.43848672173917297,-9.802793891429902
11.4,0.30000001192092896,165.0,24.339866638183594,-0.17493902146816254,-79.78279577703994,40.459017198415935,271.568335146904,0.0219746083021164,-0.003986052237451077,-0.9996737241744996,0.012402827851474285,0.0014353348241344052,-0.02393118532845337,0.01009401027652725,0.0018537259893491864,0.003317864146083593,0.003547565080225468,0.05914715361781419,-0.4569790163263679,-9.803449949026108
11.59,0.30000001192092896,163.0,24.339866638183594,-0.15903547406196594,-79.78279577959643,40.45901724531342,271.5704015207291,0.02196162939071656,-0.003981935791671276,-0.9996735453605652,0.012436139397323132,-0.0014603326233574687,-0.02918270259348513,0.01092255639934457,0.005163282621651888,0.0026373020373284817,-0.002175910398364067,0.05612437610048801,-0.4392176236957312,-9.803194425702097
11.7,0.30000001192092896,165.0,24.336109161376953,-0.1908425688743592,-79.78279575379942,40.459017316501814,271.5688127589226,0.0219552218914032,-0.003957993350923061,-0.9996734261512756,0.012463791295886041,0.001139608435370387,-0.022826274306273674,0.010906093226165158,0.0026747481897473327,0.002343797357752919,0.007960149087011814,0.058530523614026615,-0.4583908996358514,-9.804526421427727
11.89,0.30000001192092896,165.0,24.33861351013184,-0.20674611628055573,-79.78279570892343,40.45901743278199,271.56647059440616,0.021963851526379585,-0.0039314585737884045,-0.9996731877326964,0.012474791146814823,-0.002119184830647479,-0.024679075948885743,0.008604320753069609,-0.0009265089756809176,0.0018170746043324468,-0.00028771423967555165,0.05558122915215792,-0.4405909153819084,-9.803723598718644
12.0,0.30000001192092896,167.0,24.328598022460927,-0.21469789743423465,-79.78279570681103,40.4590174562506,271.5673432660103,0.02194149419665337,-0.0039136060513556,-0.9996732473373412,0.012519188225269321,-0.0028723425091769397,-0.027270111224493663,0.00893716510964037,0.0058329440653324145,0.002494795946404338,0.00801124516874552,0.06032939210068435,-0.4563250783458352,-9.804325277209283
12.19,0.30000001192092896,169.0,24.33736228942871,-0.198794350028038,-79.78279567436344,40.45901755804017,271.56600692987445,0.021955564618110657,-0.0039024697616696358,-0.9996724724769592,0.01255552750080824,-0.002198242560775379,-0.02376874976984696,0.009870499128111998,-0.0020607823971658945,0.0003942240437027067,-0.00019437169248703867,0.0572176912240684,-0.4429111270979047,-9.803265761733057
12.3,0.30000001192092896,170.0,24.33861351013184,-0.15903547406196594,-79.78279567220184,40.45901758066282,271.5669934165478,0.021926965564489358,-0.0038831522688269615,-0.9996730089187622,0.01257434953004122,-0.00281706003112821,-0.02621332996882481,0.010050204034291592,0.007525865454226731,0.005855369847267865,0.0051239626482129106,0.05975588531233371,-0.4546822665631771,-9.803141800761225
12.49,0.20000000298023224,169.0,24.33736228942871,-0.17493902146816254,-79.78279559579178,40.45901764525862,271.56522685408595,0.02195451222360134,-0.0038267946802079678,-0.9996720552444458,0.012621167115867138,-0.009275955871800618,-0.017279360840504774,0.010339043618205595,-0.001391931320540607,0.0003903452306985855,-0.007530990056693555,0.0590056327264756,-0.4493097351863981,-9.803786163926123
12.59,0.30000001192092896,170.0,24.33861351013184,-0.17493902146816254,-79.78279558656641,40.45901766098915,271.5663032245636,0.021953534334898,-0.0038234014064073563,-0.9996715784072876,0.012655112892389296,-0.009470655455046564,-0.0193279816323898,0.010557400845652107,0.0029176163952797647,0.004561791196465492,0.007042360957711934,0.058793817339465024,-0.4523780616000295,-9.803090929985046
12.79,0.30000001192092896,173.0,24.33110237121582,-0.22264966368675232,-79.78279555212166,40.45901774861019,271.564154894352,0.02195674367249012,-0.003800701582804322,-0.9996711015701294,0.012695705518126488,-0.0073466645891560566,-0.018763410278918514,0.01089779541794952,-0.004792327526956797,0.0003706726420205088,-0.008914614096283913,0.058355020349845285,-0.4534443379193545,-9.803908955454826
12.89,0.30000001192092896,175.0,24.33110237121582,-0.15903547406196594,-79.7827954785647,40.459017798357905,271.5610421609879,0.02191616781055928,-0.003771498799324036,-0.9996719360351562,0.012710236012935637,-0.008722622171130349,-0.011621304817535974,0.010345626120359623,0.005736846476793289,0.0035518240183591843,0.0043362583965063095,0.05735679557081313,-0.44529098041355614,-9.801659531593325
13.09,0.30000001192092896,179.0,24.34111785888672,-0.13518016040325165,-79.78279545599173,40.45901782309971,271.5632492017746,0.021913262084126472,-0.00377148506231606,-0.9996715784072876,0.012742236256599426,-0.012938561321180559,-0.01602740833064729,0.010989478441579102,-0.007808511145412922,-0.004237175919115543,-0.007300588767975569,0.058282249923795465,-0.4567613171786071,-9.80269448876381
13.2,0.30000001192092896,178.0,24.33736228942871,-0.17493902146816254,-79.78279543466124,40.459017939917736,271.55910337090495,0.02194856107234955,-0.003788647474721074,-0.9996705651283264,0.012753808870911598,-0.00481503999794915,-0.02405479789688844,0.010871655795451206,0.0024451289791613817,0.0014179170830175278,0.002163155237212777,0.05634208895266056,-0.4402383282780648,-9.801040896177293
13.4,0.30000001192092896,178.0,24.33861351013184,-0.14313192665576935,-79.78279538029003,40.45901802974167,271.5540321183205,0.02194485068321228,-0.003785026725381613,-0.9996702671051024,0.01278843358159065,-0.0040383085894872,-0.021115868140391552,0.007668380939799761,-0.005820433609187603,-0.004587922710925341,-0.0071680108085274705,0.05963870802428574,-0.457981557995081,-9.803119581341745
13.49,0.4000000059604645,180.0,24.339866638183594,-0.14313192665576935,-79.78279537671175,40.45901804995315,271.55481401205066,0.02194682694971561,-0.0037834530230611563,-0.9996700286865234,0.012799604795873163,-0.0046244663550150935,-0.023453418235667232,0.008043446983440632,3.626110992627218e-05,-0.0013425054494291544,-0.0008274457650259137,0.05816729275044054,-0.4340061465650797,-9.802024982571602
13.69,0.30000001192092896,178.0,24.29103660583496,0.7633702754974365,-79.78279532004262,40.459018131257494,271.5511894834042,0.021956369280815125,-0.0037957055028527975,-0.9996700286865234,0.01278324332088232,-0.0035234971667835514,-0.020457668766287976,0.008665677214470095,-0.011258930899202824,-0.007880290038883686,0.006425708532333374,0.060484133181162185,-0.4565696746855975,-9.80414108991623
13.79,0.30000001192092896,172.0,24.31732940673828,0.13518016040325165,-79.78279531619592,40.459018151215616,271.55207482099536,0.021962890401482586,-0.003793981857597828,-0.9996684789657592,0.012894868850708008,-0.006007255061818053,-0.023265871880308577,0.009168783200671169,-0.007046336308121681,-0.007157154846936464,-0.0152381993830204,0.049114752248860895,-0.4286720606312156,-9.798135414719582
13.99,0.30000001192092896,173.0,24.324840545654297,0.15903547406196594,-79.78279525621274,40.45901825127466,271.54850190997126,0.021943898871541027,-0.003760734107345343,-0.9996681809425354,0.012957554310560226,-0.004825905588087394,-0.0250647951875054,0.009504867109531166,-0.0052410918287932855,-0.0002500227128621191,0.0003329399914946406,0.05647713222540916,-0.4533570316806436,-9.804180850982666
14.1,0.4000000059604645,171.0,24.323589324951172,0.15108370780944824,-79.78279525311513,40.45901827426231,271.54945609092715,0.021959098055958748,-0.0037638251669704905,-0.9996687173843384,0.012890009209513664,-0.005825287783316475,-0.02736222169924594,0.009771438834828195,-0.0039694691076874716,0.0024810533504933123,-0.007853793911635876,0.054529639394022535,-0.4318880657851696,-9.803412526845932
14.29,0.30000001192092896,170.0,24.336109161376953,0.21469789743423465,-79.78279522242292,40.45901840840185,271.54306969165805,0.021916588768363,-0.003770152106881141,-0.9996684789657592,0.012976654805243015,-0.0018218287633995007,-0.03399682275301365,0.007403890184664586,-0.0041536302305758,0.0021462501026690006,-0.003512945724651217,0.05469506077934057,-0.4467401031777263,-9.801827346682547
14.4,0.30000001192092896,166.0,24.33110237121582,0.2544567584991455,-79.78279514151683,40.45901847675074,271.5400905621052,0.021921979263424873,-0.0037604968529194593,-0.9996678233146667,0.013021270744502544,-0.003744573002826462,-0.028812469834818912,0.011425611289987994,-0.002388268010690809,-0.0011760371271520849,-0.003038787748664617,0.06226192428264767,-0.4279511354863644,-9.80245826125145
14.59,0.30000001192092896,163.0,24.32609367370605,0.326022744178772,-79.7827951339527,40.45901853205079,271.5424360942841,0.021902550011873245,-0.0037944940850138656,-0.999667763710022,0.013049625791609287,-0.006373634286309817,-0.03317877320177302,0.012134269588903995,-0.00314195710234344,-0.004379229620099068,0.004528759978711605,0.05710693216882647,-0.4576936922594905,-9.804119455218316
14.7,0.4000000059604645,161.0,24.324840545654297,0.37373337149620056,-79.78279505470222,40.45901855360634,271.5391257417202,0.021910274401307103,-0.0037796988617628813,-0.9996672868728638,0.013076324947178364,-0.007418128431998434,-0.020387744093094653,0.014962381215039722,0.00023763235367368907,0.0001763901673257351,-0.007154719904065131,0.06314787795301527,-0.433004591614008,-9.802238405942918
14.89,0.30000001192092896,159.0,24.229684829711914,1.5028852224349976,-79.7827949802373,40.45901864946784,271.5370358538628,0.022033389657735825,-0.0036335512995719905,-0.9996647238731384,0.013113026507198807,-0.004688154189480983,-0.022642353565347616,0.016380679650316986,-0.0009965066565200686,-0.0011420644586905835,-0.004863676615059376,0.05828730228357017,-0.47080249194055795,-9.806899806261065
14.99,0.30000001192092896,160.0,24.32108497619629,0.3339745104312897,-79.78279497330001,40.45901867198851,271.5386841607094,0.022034503519535058,-0.003661805298179389,-0.9996654391288756,0.013044699095189571,-0.006262342085320916,-0.023682109737369263,0.016104690504132355,0.011654241941869259,0.010966713540256023,0.0026178641710430392,0.057109385258518164,-0.4554700326919556,-9.798909586071966
15.19,0.4000000059604645,158.0,23.54606628417969,9.971524238586426,-79.78279491986623,40.459018721160795,271.5329697144032,0.02200138196349144,-0.003635443281382322,-0.9996657967567444,0.013081084936857224,-0.00478384483955881,-0.01728932659683339,0.01512393814637786,-0.016401443630456924,-0.0059446035884320745,-0.00961329694837332,0.044182941047474736,-0.4375518250465393,-9.804779021143911
15.3,0.4000000059604645,162.0,24.25723075866699,1.1371036767959597,-79.78279491798855,40.459018737812436,271.53448230147364,0.02208242006599903,-0.0035439422354102135,-0.9996630549430848,0.013179423287510872,-0.01085961548780444,-0.019749596645814875,0.013985414083265507,-0.003677716013044119,-0.07429976016283035,-0.046261437237262726,0.05799078449606896,-0.38352410059422254,-9.821281617879867
15.49,0.4000000059604645,162.0,24.328598022460927,0.17493902146816254,-79.78279483887862,40.45901881211946,271.5291600835324,0.02202478423714637,-0.003601087722927332,-0.9996638298034668,0.01320253498852253,-0.0029323889195492212,-0.02290616700294483,0.012215958834903192,0.02160324715077877,0.05127624049782753,0.01858588680624962,0.03062967988662422,-0.3595960881561041,-9.78478037416935
15.59,0.4000000059604645,160.0,24.29604339599609,0.7315632104873657,-79.78279483297152,40.45901883009477,271.53044599413874,0.02193662524223328,-0.0036765779368579375,-0.9996645450592041,0.013270561583340168,-0.00817519137388175,-0.02259457075304493,0.012648807735147169,-0.007986052893102169,0.004339140374213457,-0.01901194080710411,0.046302716606296604,-0.4205871155485511,-9.806437291502952
15.79,0.4000000059604645,159.0,24.090707778930664,3.92022442817688,-79.78279468419488,40.45901887508778,271.52583021044734,0.0218953937292099,-0.003752089338377118,-0.9996647238731384,0.013306456618010998,-0.01708629419508005,-0.016137429614147204,0.012245894068209091,-0.02526584267616272,-0.002558891428634525,-0.011912421323359013,0.05992552765645087,-0.43718341391533616,-9.795876050591467
15.9,0.5,160.0,24.044382095336914,4.826726913452148,-79.78279467142636,40.45901889040609,271.5271189820767,0.021928032860159874,-0.003704389557242394,-0.999663472175598,0.013355132192373276,-0.013124275904021687,-0.0199905904581088,0.011137946661638108,0.008737999945878983,0.036134593188762665,0.026769338175654408,0.09614830685779452,-0.4600830107554794,-9.825488104820252
16.09,0.5,159.0,23.901647567749023,7.2281622886657715,-79.78279460794361,40.45901895429873,271.5221632432938,0.02201351337134838,-0.003578951116651297,-0.999662697315216,0.01331037189811468,-0.006484949904683014,-0.01588558783151801,0.013185743618253651,-0.02707452513277531,-0.060969334095716476,0.0272668655961752,0.05265161879360676,-0.4662797071784735,-9.76815557062626
16.19,0.6000000238418579,160.0,23.83403778076172,8.532253265380861,-79.78279452646409,40.45901900081618,271.51640549421313,0.022175343707203858,-0.003556646639481187,-0.9996597766876221,0.013270827941596508,-0.003953544136228143,-0.01721661452377379,0.012775895023958045,0.05201712995767594,0.03439311683177948,-0.02878889068961144,0.03856051885988564,-0.3757917791604996,-9.802716123461725
16.39,0.6000000238418579,158.0,23.6612548828125,11.490313529968262,-79.78279443083309,40.459019086359895,271.5120888364316,0.02265995182096958,-0.0034906882792711267,-0.9996493458747864,0.013254561461508274,-0.004154472153272827,-0.02607876566774276,0.011243599867282765,0.0631474107503891,-0.0580085888504982,0.005910201463848352,0.05191772013902665,-0.3815861140564084,-9.782911604046824
16.49,0.6000000238418579,153.0,23.56860160827637,12.754645347595215,-79.78279442967644,40.459019109334676,271.5134572398663,0.0231715738773346,-0.003608196508139372,-0.9996378421783448,0.01320715807378292,-0.014202367262301048,-0.02687094543915923,0.013699693289181606,-0.02715417928993702,-0.033359378576278687,0.05357664823532105,0.016298138333950194,-0.4948822030797601,-9.818821109533312
16.69,0.699999988079071,151.0,23.354501724243164,16.293184280395508,-79.78279435145052,40.45901910416129,271.5151353490353,0.02500726282596588,-0.0051791518926620475,-0.9995872974395752,0.013155943714082241,0.0059359131127322785,-0.016360709247630032,0.023529428058259333,0.015398936346173288,0.06685586273670198,-0.015352887101471426,-0.04408402260392905,-0.4060159637778998,-9.81064085483551
16.8,0.8000000119209291,146.0,23.25183296203613,17.859683990478516,-79.78279435758951,40.45901911629335,271.51764780402186,0.026122907176613808,-0.006372209172695875,-0.9995552897453308,0.012899771332740784,0.010519490779828479,-0.016944923948757892,0.02895952657208717,0.05899208411574364,0.0064694322645664215,0.044856298714876175,-0.0401197839807719,-0.6199107668548822,-9.829465380907061
16.99,0.8000000119209291,143.0,23.02145576477051,21.65267944335937,-79.78279425359472,40.45901918793478,271.5131362092495,0.02623498998582363,-0.00899501796811819,-0.9995498061180116,0.011453705839812756,0.01353754087755265,-0.006702313391091164,0.03307138974950682,-0.034890227019786835,-0.0349554605782032,0.029459297657012936,0.04855396315455437,-0.4353890861570836,-9.823115304708482
17.09,0.8999999761581421,140.0,22.90501594543457,23.8076114654541,-79.7827942682395,40.45901919350428,271.5178260815144,0.02242608740925789,-0.008478142321109772,-0.9996346235275269,0.012485301122069359,0.011189904140595279,-0.007816237998135845,0.07244149611637525,-0.08100675046443939,-0.08083398640155792,-0.004149865359067917,-0.018843922382220626,-0.3309583993256092,-10.121703372001653
17.29,0.8999999761581421,139.0,23.015195846557607,19.951000213623047,-79.78279427075525,40.4590192555236,271.5377287578583,0.0056490106508135796,-0.004810997750610113,-0.9995847940444946,0.02784361876547337,0.05231051880528051,-0.01741161715828271,0.24246677022795235,-0.2027152627706528,-0.10093293339014052,-0.184907615184784,0.00909733793931082,-0.2333151421509683,-10.481391334533694
17.4,1.0,137.0,23.165441513061523,18.137996673583984,-79.78279456070227,40.45901950352357,271.54396811246875,-0.0021583642810583115,0.00042087529436685134,-0.9994959831237792,0.0316704660654068,0.0997925686748617,0.0008195535192238593,0.27438839889676603,0.09939450025558473,0.017084423452615738,-0.06862958520650864,0.17727447716519235,0.11988754559308293,-10.492264816761015
17.59,1.0,130.0,23.09407615661621,19.887386322021484,-79.78279476075953,40.45901946224714,271.5935024034977,-0.007307011168450117,0.00495608476921916,-0.9994375109672546,0.03235359862446785,0.07896922211273187,0.013299593942391632,0.19734309053717006,-0.09780615568161012,0.13344770669937134,0.04952555522322655,0.022874405847396702,0.2778226676210761,-9.806539033055307
17.7,1.0,132.0,23.07404327392578,19.108112335205078,-79.78279494340049,40.459019434530546,271.5740005683899,-0.0071319681592285624,-0.0016313252272084355,-0.99952632188797,0.029894076287746436,0.09725834394144788,0.04224670947225522,0.08276866108982042,-0.05439936369657517,0.1821138709783554,0.05091417580842972,-0.048504467387683686,0.3417437347769737,-9.244459056258203
17.89,1.0,133.0,22.92254447937012,22.14569091796875,-79.78279502036429,40.45901935925091,271.59059164047244,-0.007280929014086723,-0.007652559783309698,-0.9996368885040284,0.024791933596134186,0.08779831663679928,0.06301168776493986,0.007886728299722362,0.02468149177730084,0.031330402940511703,0.0354231595993042,0.14272905400022864,0.032179932072758675,-9.28841725409031
18.01,1.100000023841858,139.0,22.94132423400879,22.097980499267575,-79.78279510389577,40.45901929505124,271.5904104423523,-0.007095477543771267,-0.006858529523015022,-0.9996839761734008,0.02312418632209301,0.06970288566761271,0.0637044010248283,-0.01038150816006358,0.0046064602211117744,-0.012053010985255241,-0.00257548550143838,0.0962544520944357,0.09642725558951498,-9.593878138661383
18.2,1.100000023841858,139.0,22.83865737915039,22.82954216003418,-79.78279532703895,40.45901903958267,271.61386197924617,-0.007355901412665844,-0.0057462863624095925,-0.9997246265411376,0.02153356373310089,0.06971492713018268,0.07354259888585876,0.0361951703509479,0.026376191526651386,-0.01667315699160099,0.09082796424627304,0.12181645981036128,0.02017760375048965,-9.710095642805099
18.29,1.2000000476837158,139.0,22.833648681640625,22.630748748779297,-79.7827953891359,40.45901897790689,271.6189977836609,-0.009237927384674549,-0.007348158862441778,-0.9997027516365052,0.021335182711482048,0.0635845870882431,0.06508387013097612,0.060699564017905314,0.0686752051115036,0.0931108221411705,-0.04712168127298355,0.14001925326883793,-0.0922658470273018,-10.013607065677643
18.49,1.2000000476837158,137.0,22.912527084350586,22.32858085632324,-79.78279536626223,40.4590189290631,271.6389023971558,-0.012508407235145569,-0.008113839663565159,-0.9996405839920044,0.022283190861344337,0.02645782688437373,0.05258117402231568,0.10391748827414556,-0.032624684274196625,0.02271916531026364,0.0020641423761844635,0.12264924036338926,0.09963366765528918,-9.96119028568268
18.6,1.2000000476837158,140.0,22.79233169555664,22.972675323486328,-79.7827953917627,40.45901888674962,271.6489120435715,-0.012231944128870964,-0.009467733092606071,-0.9996100068092346,0.023251073434948918,0.0071646997096620705,0.04788834066186159,0.09909171948080253,-0.0584341399371624,-0.03985315188765527,0.0026320095639675856,0.11130857474170626,0.3056916303187609,-9.829377672672273
18.79,1.2999999523162842,139.0,22.791078567504893,23.48158836364746,-79.7827952744358,40.45901872765034,271.6702213895321,-0.010733474977314472,-0.009753131307661532,-0.9995959401130676,0.024445939809083942,0.016753605714803117,0.04286311048870568,0.1465300841654521,0.1090599000453949,0.05967700853943825,-0.02237245067954064,0.08782299553044141,0.3254257638752461,-10.042038567066195
18.9,1.2999999523162842,136.0,22.74350166320801,24.252910614013672,-79.78279520512466,40.45901866979312,271.6757422995568,-0.010166380554437636,-0.010798764415085316,-0.9995806813240052,0.02487323060631752,0.013334235579705957,0.04627882111421547,0.14092694166038433,0.04004877060651778,0.031536668539047234,-0.0042249630205333216,0.04373832425102592,0.22019130416214466,-9.907420459985731
19.09,1.2999999523162842,133.0,22.665874481201172,25.04808807373047,-79.78279519539895,40.45901861687204,271.70804554343226,-0.013779664412140845,-0.013532647863030434,-0.9994956851005554,0.025210458785295486,-0.012842467674189284,0.015220774162424143,0.20121805411632945,-0.09708109498023987,0.009077486582100391,-0.0340149961411953,0.022329429360106588,0.3061988580040634,-9.93453984618187
19.19,1.5,125.0,22.886234283447266,21.27099609375,-79.78279509234157,40.45901859061439,271.7156558942795,-0.01683480478823185,-0.01418580301105976,-0.9994509816169742,0.02476281300187111,-0.007031100993242298,0.002440001172724232,0.2381329348598957,0.037582822144031525,0.026379724964499474,0.04572909697890282,0.11130918687209487,-0.051697942488826816,-10.291367350816726
19.4,1.5,122.0,22.69467163085937,25.86712074279785,-79.78279472929573,40.45901872082157,271.735092253685,-0.012456206604838371,-0.007606353145092727,-0.9996317625045776,0.022876152768731117,-0.03256409363280932,-0.02752653099294061,0.050325779214854656,0.15943560004234314,-0.07110656052827835,0.05607973784208298,0.08532382247038188,0.2953390436433256,-9.710689719915392
19.5,1.7000000476837158,118.0,22.446765899658203,28.01409912109375,-79.78279468088363,40.45901874719194,271.73575416326526,-0.006761438678950071,-0.0002386432024650276,-0.9997513890266418,0.021247373893857,-0.04875025965891952,-0.02680247858880457,-0.012825153742030596,0.07946290075778961,-0.18888093531131744,0.025477902963757515,0.07383119319565594,0.3091939297690988,-9.172465213537217
19.7,1.7000000476837158,116.0,22.362876892089844,29.61240577697754,-79.78279458086342,40.45901868392839,271.76358166456225,9.268165013054386e-05,0.0015466618351638315,-0.9997994899749756,0.019968632608652115,-0.027633662130166502,-0.024550079943779786,0.19365255482764765,-0.02269677445292473,0.17030160129070282,0.09549326449632643,0.04747273075394333,0.0632223157491535,-10.808140761852265
19.8,1.7999999523162842,117.0,22.133752822875977,33.548534393310554,-79.78279454987748,40.459018700568215,271.79021760940554,-0.003120625391602516,-0.002602218883112073,-0.9997768998146056,0.02072820067405701,-0.02303322432091437,-0.009725491485836738,0.3386166524560771,-0.09529705345630646,0.05068216472864151,-0.0754336565732956,0.14398791384883225,0.07343229431658982,-11.136589390039443
19.99,1.8999999761581416,117.0,21.81447982788086,37.65960311889648,-79.78279452056825,40.45901856083447,271.8639340114594,-0.009600374847650528,-0.0008000343805179,-0.9996801614761353,0.023385753855109208,-0.012778865756022629,0.024999654444666324,0.7253459550415123,-0.07028471678495407,-0.14400158822536469,-0.00446006515994668,0.24390656931325794,0.17173025691881774,-11.54933147907257
20.09,2.0999999046325684,118.0,22.028579711914066,33.36564254760742,-79.78279449234823,40.45901854360741,271.9517015528679,-0.011866832152009009,0.003522234037518501,-0.9995959401130676,0.02558838203549385,-0.004496455271188083,0.03026830299660858,1.0244322364167684,0.0001096832929761149,-0.08480267971754074,-0.02140686847269535,0.09622700672596693,0.17721892861649394,-12.55609805345535
20.29,2.0999999046325684,116.0,22.04986572265625,36.156715393066406,-79.78279425697059,40.45901851141311,272.1945537042618,-0.009783648885786532,-0.0004753782704938203,-0.9994741082191468,0.030911544337868687,-0.010440103655831395,0.01515284889189279,1.4771948501121297,-0.0013644127175211904,0.08070885390043259,0.03682083263993263,0.034838350396603344,0.1954933961480856,-12.34293195962906
20.39,2.200000047683716,116.0,21.87332534790039,36.72924423217773,-79.78279404652143,40.4590184598726,272.3337918233872,-0.00747753819450736,-0.006184566766023636,-0.9994172453880308,0.032727334648370736,-0.006573569366117421,0.02207346225099412,1.6693954231459958,0.01814640499651432,0.18704307079315186,-0.03642769530415535,-0.024872890510596338,0.08094439499080182,-11.992801855802536
20.59,2.299999952316284,117.0,21.83325958251953,38.10490036010742,-79.78279399378756,40.45901844962138,272.51250299930575,-0.0062456191517412645,-0.010010452009737492,-0.9993716478347778,0.033423837274312966,-0.012387332682015906,0.029972736379516543,1.9070138804428247,0.03295950964093208,0.08568603545427322,-0.0123602245002985,0.06106641536112875,0.22975131902843715,-12.113809983730311
20.69,2.4000000953674316,119.0,21.908382415771484,34.88443374633789,-79.7827936756093,40.459018431129714,272.8865198802948,-0.009046971797943115,-0.005881399847567082,-0.999360203742981,0.0341014601290226,-0.03162077669150761,0.015836426413367556,2.325776122604024,-0.028247801586985588,-0.07770735025405884,-0.013216284103691578,0.018602711032144725,0.19315408961847425,-12.17721952915192
20.89,2.5,124.0,22.03734397888184,31.52878379821777,-79.78279323598755,40.45901843359992,273.2872352313996,-0.01246841810643673,-0.0017391140572726727,-0.9993641972541808,0.03335830569267273,-0.0424326221655514,-0.03159045702732845,2.7170257723099795,0.02543545514345169,0.01018949132412672,0.03506214171648025,-0.015353084388189019,0.17170796440914274,-12.175976411104205
20.99,2.5999999046325684,126.0,22.163801193237305,30.20878982543945,-79.78279310292666,40.45901848826228,273.5686626148224,-0.010897237807512285,-0.0017811725847423074,-0.999421238899231,0.03217700123786926,-0.03847870633551674,-0.04920092249952551,2.9002153707682323,0.12667667865753174,0.025126604363322255,0.11608703434467316,-0.04520370044745505,-0.008212466917466372,-11.720777689218526
21.09,2.5999999046325684,124.0,22.258956909179688,29.039878845214844,-79.78279295607265,40.45901855003576,273.8649408531189,-0.006978732068091631,-0.0021768712904304266,-0.9994916319847108,0.031033203005790717,-0.05248201209665607,-0.05586949146934737,3.0196019307621014,0.2201453149318695,0.0659647211432457,0.1919477581977844,-0.016502521361690014,-0.0044154603750212115,-11.12787469983101
21.3,2.700000047683716,126.0,22.14627265930176,29.604454040527344,-79.78279240682166,40.459018554778645,274.3468858909607,-0.0008708449895493686,-0.0024205308873206377,-0.9995773434638976,0.02896012924611568,-0.13156363631590867,-0.05632372996019415,3.0739614474030064,0.05926575139164925,0.043704908341169364,0.028978306800127036,0.07349506965838372,-0.07029004173818976,-10.726747519969939
21.49,2.799999952316284,128.0,22.52188873291016,25.60471153259277,-79.7827920128728,40.45901844539701,274.54702016830447,-0.002586754271760583,-0.0027599043678492308,-0.9995985627174376,0.028080208227038383,-0.1544282988051327,-0.05501559443047413,3.074399306762154,-0.028858993202447888,0.07421212643384932,0.024491071701049805,0.02008228043094277,-0.09069993526674808,-10.645465375185012
21.6,2.9000000953674316,136.0,22.41796875,26.312419891357425,-79.78279163493765,40.459018609762,275.165634841919,-0.007783543318510055,-0.0034629004076123238,-0.9995364546775818,0.029229231178760525,-0.13783606065256448,-0.06356852197204976,3.0830137319034265,-0.08478789031505585,-0.07590289413928986,-0.15371060371398926,-0.045654274094849824,0.2482431385293603,-9.708680616617203
21.79,2.9000000953674316,137.0,22.294015884399414,28.18903923034668,-79.78279089487091,40.45901857512753,275.7616984558106,-0.008511227555572988,-0.0028304664883762602,-0.9994117617607116,0.03310069814324379,-0.1559925687350967,-0.09593742439148596,2.99758180468656,-0.013216507621109486,0.03278229013085365,-0.1180303990840912,-0.048922282923012976,-0.05064193991012871,-9.585955161452294
21.9,3.0,142.0,22.499351501464844,25.747844696044922,-79.78279051776146,40.45901838473787,276.07517883300784,-0.007042673882097006,-0.005279276054352522,-0.9993867874145508,0.03389161452651024,-0.1720395017543394,-0.07684160317193525,2.9808982543372,-0.0977773293852806,0.035061512142419815,-0.13078409433364868,-0.11169273681007326,0.3403055024519563,-9.607961742281914
22.09,3.0,144.0,22.41796875,25.7876033782959,-79.78279027464474,40.459018488762545,276.3714463424683,-0.004709636326879263,-0.006828502751886846,-0.9993887543678284,0.03396231681108475,-0.15172804261888762,-0.0814983318736927,2.950183838627185,0.274881511926651,0.1062045469880104,0.10675307363271712,0.003755091028288007,-0.2679180142097175,-9.588706861138343
22.19,3.0,149.0,22.382909774780273,25.67627716064453,-79.78278962942261,40.459018322923605,276.92536994934085,0.0017942782724276183,-0.004253207240253687,-0.9994569420814514,0.032628774642944336,-0.2219138782837743,-0.06869168810495194,2.8683976602010888,-0.04434528574347496,-0.12638458609580994,-0.07431113719940187,-0.10721829207614064,0.04762902500107885,-9.621934248805047
22.39,3.0,150.0,22.39668273925781,26.185192108154297,-79.78278883718491,40.45901788345183,277.4735834312439,0.005652723368257284,0.0036842809058725843,-0.9994968175888062,0.030994864180684086,-0.23777762315154394,-0.05130188818962857,2.7756650043975735,-0.08878806978464128,-0.10659194737672806,-0.09793490171432497,-0.008291989621357061,-0.00482888650149107,-9.567776167988775
22.5,2.9000000953674316,149.0,22.34660148620605,26.19314384460449,-79.78278860693013,40.45901794630206,277.7499167633057,0.008293758146464825,0.0049781654961407185,-0.9994954466819764,0.030256859958171844,-0.2091704134234446,-0.07774123845177422,2.7500672999743867,0.14386548101902008,0.06666818261146545,0.08961223065853119,-0.06390498731285334,-0.15865608371794224,-9.60559946715832
22.59,2.9000000953674316,150.0,22.344097137451172,25.86712074279785,-79.78278838566602,40.45901800776529,278.0248734664917,0.00591570883989334,0.004852585960179567,-0.9995056390762328,0.030496947467327118,-0.2491102600098255,-0.08194883299283415,2.7415456258326727,-0.22976966202259064,-0.03846683353185654,-0.12174341827630995,-0.1007197879627347,0.1396861721109599,-9.685881738066676
22.79,3.0,155.0,22.369138717651367,26.65434646606445,-79.78278716300453,40.45901725757751,278.6890437316895,-0.002483702264726162,0.003116278210654855,-0.9994593858718872,0.0326373390853405,-0.21833210770047745,0.011532817929880831,2.7567846173840733,-0.10050826519727707,-0.014774175360798837,-0.0614713616669178,-0.02254087701207027,0.0011932157166302205,-9.694896975159645
22.89,2.9000000953674316,155.0,22.309040069580078,26.98832130432129,-79.78278711874412,40.459017344439545,279.12580797195443,-0.003638294758275151,0.0018978796433657406,-0.9994231462478638,0.0337122417986393,-0.16300027392491134,0.007851945324803955,2.8099257045004657,-0.07061434537172318,0.03046514466404915,-0.1401023268699646,-0.02195532632991672,0.28577700052410365,-9.684355030059814
23.09,3.0,152.0,22.376649856567386,26.59868431091309,-79.7827867174792,40.45901732261239,279.6849114608765,0.0013413269771263006,0.004840425681322813,-0.9994083046913148,0.034028202295303345,-0.14239296897642267,0.008964982038206306,2.7752820527317112,0.1266794204711914,0.004451704677194357,0.04295987263321877,-0.005547682894393802,-0.031100179748609662,-9.651437544822693
23.29,2.9000000953674316,152.0,22.296518325805664,28.18903923034668,-79.78278676948364,40.4590174194841,280.0694033813477,0.002788868732750416,0.0064400420524179935,-0.9994197487831116,0.03333044424653053,-0.14970299522020167,-0.017706530189891174,2.7837913877548384,-0.1711898297071457,-0.08760853856801988,-0.04714100435376167,-0.15185618304647505,0.2295043107122183,-9.472953625917436
23.4,2.9000000953674316,152.0,22.392927169799805,25.97049331665039,-79.7827864032998,40.4590174330536,280.73106357574466,-0.007084289565682411,0.007314151618629694,-0.9993548393249512,0.03444373235106468,-0.13094425185957564,-0.02359079530266233,2.7928115558276345,-0.3323721289634705,-0.04039207473397255,-0.17452554404735565,-0.0856226060539484,0.4392678366601467,-9.550997582674027
23.49,2.9000000953674316,149.0,22.355365753173828,26.10567283630371,-79.78278626431772,40.4590174274186,281.00870296478274,-0.009625491686165331,0.0074713737703859815,-0.9993227124214172,0.03472227230668068,-0.06433391399516893,-0.025059324161869297,2.7624109543024544,0.17164172232151031,0.05794177204370499,0.09038930386304857,-0.06249001137446612,-0.14312626266852022,-9.583775319457054
23.69,2.9000000953674316,147.0,22.31404685974121,26.04205894470215,-79.78278603297305,40.45901743801228,281.64816066741946,-0.0038181643467396493,0.006727519910782576,-0.9993937015533448,0.03394976258277893,-0.10149472762619176,-0.03381943638235757,2.7684725557885232,-0.07663030922412872,-0.03580676019191742,-0.06669434159994125,-0.17324949145317078,0.12738587790168826,-9.553797229528428
23.8,3.0,149.0,22.220144271850586,28.92855262756348,-79.78278587171074,40.45901744103642,281.9232918930054,-0.0016143980901688335,0.007700398564338684,-0.9993956685066224,0.03386073559522629,-0.1190237536312927,-0.030513842959069226,2.7354238028696365,0.08035533130168915,0.07493197917938232,0.024536585435271263,-0.09927246504463257,-0.1350775520503521,-9.502206661105156
24.0,3.0,155.0,22.223899841308594,29.09554100036621,-79.78278571466582,40.45901752322965,282.5643298339844,0.0033749425783753395,0.008535536006093025,-0.9994279146194458,0.032553620636463165,-0.1414608566935387,-0.059189230113823176,2.7603177088204296,0.006471117492765188,-0.02484554424881935,-0.08105505257844925,-0.1609338483028114,0.0348495514690876,-9.699409271478654
24.19,3.0,162.0,22.356616973876953,25.93073463439941,-79.7827855712875,40.45901776575029,283.1981198501587,0.008673367090523243,0.010877405293285848,-0.9994451403617859,0.03026573359966278,-0.16082852238870332,-0.06902575518595436,2.79532173646685,0.07151363044977188,-0.03544962778687477,0.06055000051856041,-0.0977807855140418,0.005013146884739399,-9.85355824828148
24.3,3.0999999046325684,167.0,22.35787010192871,26.72591209411621,-79.78278543418067,40.45901778365581,283.47700569152835,0.007753680460155009,0.013465325348079205,-0.999419093132019,0.030333176255226125,-0.17055379287134284,-0.06869784187276774,2.776060109398626,-0.09782087802886964,-0.0005685802898369732,-0.043335791677236564,-0.2297121061384678,-0.17368786817416548,-9.604773255586624
24.39,3.0999999046325684,168.0,22.34660148620605,24.39604187011719,-79.78278538362277,40.45901783807341,283.82791206359866,0.007203444372862578,0.014608019031584263,-0.9993740916252136,0.031403083354234695,-0.1332935497156482,-0.08610657316537902,2.798707446768728,-0.021079285070300102,-0.03157995641231537,-0.08679188042879105,-0.12218181942589584,-0.18672385174781084,-9.598775766491892
24.59,3.2000000476837163,177.0,22.238924026489254,28.57072448730469,-79.78278517989165,40.459017837283284,284.3806416702272,0.0072054965421557435,0.01564248651266098,-0.9992479085922241,0.03474397584795952,-0.1410372828464868,-0.05842987383926035,2.728624334888751,-0.1362638622522354,-0.012343316338956356,-0.10449127852916718,-0.12615705812349914,-0.05864457629621029,-9.48270619690418
24.79,3.2000000476837163,180.0,22.297771453857425,26.33627510070801,-79.7827849794173,40.459017792595155,285.0059230041504,0.005754259880632162,0.009405722841620444,-0.9992002844810486,0.03843576461076737,-0.10504698997536707,-0.022719489062887205,2.7646031226994885,0.004936725832521915,0.0009260685183107852,-0.017197048291563988,-0.2062969858758152,0.03490199368447065,-9.64769591152668
24.9,3.2000000476837163,187.0,22.16254997253418,27.9345817565918,-79.78278517204748,40.459017964194715,285.3734290313721,0.005395080894231796,0.00817459262907505,-0.9991576671600342,0.03985174000263213,-0.06796965862220912,-0.020884483427071655,2.8162885313216366,0.15340754389762878,0.01631440781056881,0.1381889134645462,-0.036472928111907096,-0.21987087674438954,-9.697766788601877
24.99,3.2000000476837163,192.0,22.079914093017575,30.009994506835927,-79.78278511872158,40.45901793401651,285.6553580474854,0.0068028648383915424,0.007176429498940706,-0.9991317391395568,0.04047195240855217,-0.06339905605568061,-0.0015616232690282596,2.8216016157517028,0.13777269423007965,0.09456434100866318,0.040375418961048126,0.045940961251035334,-0.20776425328105688,-9.846055101156235
25.2,3.299999952316284,200.0,22.186338424682614,27.505186080932607,-79.78278506345896,40.45901782975994,286.27365467071536,0.009295360185205936,0.004900304600596428,-0.9991553425788879,0.039727535098791115,-0.07207398792421026,0.038149623426523706,2.9155881279972617,-0.01946960762143135,-0.06768330186605452,-0.02235192805528641,-0.01474549015983939,-0.06389226048253477,-9.995852580070496
25.29,3.299999952316284,204.0,22.31404685974121,25.42977333068848,-79.78278503655268,40.45901776790596,286.5660721969605,0.00849927868694067,0.004711391869932413,-0.9991986751556396,0.038829192519187934,-0.07612309484921491,0.04691014320115012,2.930910882552288,-0.0031955342274159197,0.02113374508917332,0.03292142599821092,0.08614348333328962,0.012204564325511456,-10.0092871427536
25.49,3.299999952316284,206.0,22.1062068939209,30.11336708068848,-79.78278489621857,40.4590176494948,287.1672236633301,0.008995690383017063,0.0032761746551841497,-0.999342918395996,0.034961257129907615,-0.05787894201613415,0.06577055820305834,2.9268873471961534,0.018214451149106026,0.0662623792886734,0.0491647869348526,0.025935763567686083,0.056209996696561584,-9.717646737098695
25.69,3.299999952316284,209.0,22.22640419006348,25.596759796142567,-79.78278488043573,40.45901756976856,287.46027824401864,0.011190379038453102,0.002335736760869623,-0.9993810653686525,0.03327170386910438,-0.039598580980314615,0.07418055602764748,2.9390670681160542,0.20789942145347595,0.06711910665035248,0.14559422433376312,0.05282062616664916,-0.4739763240516186,-9.96626683831215
25.8,3.299999952316284,210.0,22.22139549255371,26.79747772216797,-79.78278509104756,40.459017446107815,288.07526847839364,0.011759462766349316,-0.002358216792345047,-0.9994072318077089,0.032271504402160645,-0.04742812714216202,0.08375075180726406,2.9886373527068235,-0.11377058923244475,-0.04893769323825836,-0.04866338521242142,0.060665351185016335,-0.1336020619980991,-9.9113462805748
25.89,3.299999952316284,211.0,22.129995346069336,28.849035263061523,-79.7827849792838,40.45901726796398,288.3686511230469,0.008896603249013424,-0.0043968381360173225,-0.9994044303894044,0.03304952010512352,-0.039119494250942494,0.09607344290959964,2.9781623091563487,-0.1042957752943039,0.0010493523441255093,-0.07623478770256042,0.025349856570828708,-0.194039906244725,-9.84091890692711
26.1,3.2000000476837163,211.0,22.240177154541016,26.73386383056641,-79.78278504193132,40.45901712823775,288.9661109161377,0.00207525840960443,-0.004670417401939631,-0.9993604421615601,0.035393811762332916,0.006815279983616505,0.10680586019522027,2.9960204164822675,0.03508836403489113,-0.02547547034919262,-0.024208467453718185,0.04033053499180824,-0.09938662279397248,-9.895342451333999
26.19,3.0999999046325684,211.0,22.10996437072754,28.73771095275879,-79.78278494189533,40.45901690839988,289.26255294799813,0.002356089651584625,-0.0012903668684884904,-0.99937242269516,0.0353224091231823,0.019311830210213026,0.11193832604951948,3.004302129013668,0.06909190863370895,-0.09735482931137084,0.047214001417160034,-0.03840567271225154,-0.18478396486490967,-9.950115659236907
26.39,3.2000000476837163,210.0,22.26897430419922,25.723989486694336,-79.78278492215614,40.45901660738328,289.86214897155764,0.002527985721826553,0.0009675936889834703,-0.999472439289093,0.0323672853410244,0.0069414394932884715,0.0917751077271428,3.046094900929641,0.05648073926568031,0.0698094442486763,0.002699071075767279,-0.01736625675461255,-0.21383267641067505,-10.01229495048523
26.59,3.299999952316284,212.0,22.10245132446289,27.71193122863769,-79.78278495016991,40.45901643856633,290.47134468078616,0.00743311271071434,-0.004790191072970629,-0.999499261379242,0.030382154509425163,0.005846748959299138,0.10876109946763207,3.039754929132485,0.19738855957984924,0.06587401777505875,0.096731998026371,-0.03299854683224112,0.2600284940376878,-9.839579894542695
26.7,3.0999999046325684,207.0,22.11622428894043,28.62638664245605,-79.7827847209724,40.45901622657601,290.7591502380372,0.007251015398651362,-0.006770459469407797,-0.9994804263114928,0.03066870756447315,-0.04583394283957845,0.11883382871978855,3.0224697262320284,-0.12372974306344985,-0.06300386786460876,-0.08236300200223923,0.09100941742770374,-0.12171045161783695,-9.827529952526094
26.79,3.0999999046325684,208.0,22.08617401123047,28.13337707519531,-79.7827847266462,40.459016155061256,291.0616595458985,0.0061249868012964725,-0.008772005327045921,-0.9994468092918396,0.03148993849754333,-0.04132276331938264,0.11901924900000928,3.0276588324435023,-0.10004220902919768,-0.05890521034598351,-0.0735369399189949,0.02323307999409736,0.1053421032987535,-9.833768931627274
27.0,3.0,206.0,22.09243392944336,28.67409706115723,-79.78278473773344,40.4590158364934,291.66211196899417,0.004554979037493467,-0.007326599676162003,-0.9993619918823242,0.034658987075090415,-0.016172691880044318,0.12617915153586198,3.0278133788837174,-0.0609721876680851,-0.03173937648534775,-0.012636764906346798,0.012107034595683215,0.03344748965464533,-9.767519978284836
27.19,3.0,208.0,22.217639923095703,26.9724178314209,-79.78278491691944,40.45901571123737,292.273113937378,0.002692552050575614,-0.0037842639721930014,-0.999312460422516,0.036786116659641266,0.02110104087222376,0.05518007211561035,3.045098809988469,-0.028895774856209755,-0.020373176783323288,-0.06967969238758087,0.020477616162970662,-0.4007748851180077,-9.858826589584352
27.29,3.0,207.0,22.098695755004886,27.393861770629893,-79.78278496335794,40.45901569585036,292.57716629028323,0.002710157772526145,-0.003913042135536671,-0.999294638633728,0.03725211694836617,0.002413835271567393,0.034189559907485345,3.0389287172045747,-0.18997973203659052,-0.03761839494109154,-0.04603554680943489,-0.04892344779800624,0.16686464259400965,-9.730442199110986
27.39,3.0,207.0,22.15503692626953,26.82928466796875,-79.78278501937177,40.45901561405221,292.8987796020508,0.0031999945640563965,-0.005112247075885534,-0.9992809295654296,0.03743404522538185,0.0325781683660737,0.032841566381282015,3.0514848513889894,0.08773009479045868,-0.020045936107635498,-0.02996506355702877,0.06383588053286075,-0.08957612782716752,-9.776859151124953
27.59,3.0,205.0,22.05111694335937,29.34999847412109,-79.78278510967505,40.459015613362986,293.5089862060547,0.004005375318229199,-0.0061514521948993215,-0.9992985129356384,0.03672540560364723,0.017958140197548555,0.021407176488053244,3.0599411980123623,0.06371258944272995,0.09254728257656096,0.13778245449066162,0.03766793225426227,-0.2387415592744947,-9.911223489046098
27.69,3.0,206.0,22.087427139282227,27.886871337890625,-79.78278508218517,40.45901555147249,293.8323313903809,0.003118033520877361,-0.005255609750747682,-0.9993305802345276,0.036071449518203735,0.02333967833951547,0.024224919749169332,3.1014421604890186,0.09582594782114028,-0.013291948474943638,0.08358481526374817,0.0995337899029255,-0.388413432687521,-10.034998519420622
27.9,3.0,206.0,22.10245132446289,26.773622512817386,-79.78278510700575,40.45901545452779,294.45971176147464,0.0037580796051770453,-0.003846640000119805,-0.999367654323578,0.035147525370121,0.009857591179074376,0.01149102089186964,3.0986987449460845,-0.00999484583735466,-0.08827946335077286,-0.05191415548324585,0.060683221737854176,-0.217135128993541,-9.709484608769415
28.09,3.0,205.0,22.171314239501953,26.65434646606445,-79.78278514199688,40.459015472684534,294.7687289428711,0.003666166216135025,-0.0039851348847150785,-0.9993817806243896,0.03473934903740883,-0.004360407659963627,-0.0012038131966921467,3.0820720495792098,-0.037406813353300095,-0.008889692835509777,-0.06410102546215057,0.028545976623427127,0.18770231019705536,-9.604544629454614
28.19,2.799999952316284,203.0,22.054872512817386,28.89674568176269,-79.78278508910665,40.459015447003374,295.3853213500977,0.004385788459330797,-0.004345341585576534,-0.999380588531494,0.034646786749362946,-0.012963335444670264,-0.0066625163170624295,3.041576076545172,-0.032793305814266205,-0.07460514456033708,0.016373150050640106,-0.04741216639056802,-0.057418232448399074,-9.577048682570457
28.3,2.799999952316284,202.0,22.103702545166016,27.298439025878906,-79.7827851133243,40.459015482819794,295.6892249298096,0.0067401500418782226,-0.004693370778113604,-0.9993711113929749,0.034495662897825234,-0.009230939158730479,-0.01993124006291648,3.0441010177230297,0.029007663950324062,-0.055194269865751266,-0.0101125231012702,-0.1083289341442287,-0.0531447583436966,-9.778543149232863
28.5,2.9000000953674316,199.0,22.09368705749512,27.751691818237305,-79.78278517264727,40.45901544745318,296.31196662902835,0.008860643953084946,-0.004033857025206089,-0.9993324875831604,0.035212501883506775,-0.008138398800236191,-0.023507452322208185,3.0886235262313777,0.07657048106193542,-0.01067498791962862,0.01656555011868477,0.03740157787688077,-0.4016768181324005,-9.968012816905977
28.59,2.9000000953674316,198.0,22.032337188720703,28.42759132385254,-79.78278522015637,40.459015500549256,296.6211955261232,0.006829380057752132,-0.002076673088595271,-0.9993283748626708,0.035944070667028434,-0.02500540947098072,-0.0379519173953125,3.094722114830181,-0.1790068745613098,-0.02139002829790116,-0.046837128698825836,0.0014580329158343376,0.04963901451788843,-9.839979844093325
28.79,2.9000000953674316,198.0,22.1888427734375,28.30036354064941,-79.78278519449252,40.45901545841722,297.2372462463379,-0.003437923267483711,0.0012101751053705812,-0.9992801547050476,0.037762101739645004,0.007834486879914919,-0.055222784918399034,3.081159828223936,-0.13892824947834015,-0.021093674004077908,-0.08540651202201842,-0.04634567080065608,0.12295298494398595,-9.630503343343737
28.99,2.9000000953674316,196.0,22.091182708740234,27.640365600585927,-79.78278518095698,40.459015495122536,297.8463942718506,-0.0039048031903803353,0.002820442663505673,-0.9992546439170836,0.03830165043473244,0.03833421457677436,-0.06677654390431582,3.067110406505165,0.008862331509590149,0.015666162595152855,-0.00913724396377802,0.02768982091220096,-0.13350047576241195,-9.688822887539864
29.09,2.9000000953674316,195.0,22.022319793701172,29.453371047973643,-79.78278519644783,40.459015541620644,298.15352508544925,0.00081397348549217,0.0020524398423731327,-0.9992746710777284,0.0380176454782486,0.029107238162758443,-0.0660280180370227,3.0742506851917955,0.13064317405223844,-0.027589211240410805,0.004232388921082021,-0.002017405887600034,-0.22176087956875565,-9.863298540115355
29.19,2.9000000953674316,196.0,22.141263961791992,27.028079986572266,-79.78278505478522,40.459015466365685,298.45517227172854,0.005617436487227678,0.0007694457308389246,-0.9992755651474,0.03763340786099434,-0.026802869161549697,-0.048120223923153516,3.0920805278113166,-0.0223804134875536,-0.030257437378168106,-0.08634177595376967,-0.004468812220729888,0.05616591417230666,-9.992407400608064
29.4,2.799999952316284,193.0,21.988513946533203,28.65024185180664,-79.78278496321144,40.4590155229937,299.06475708007815,0.009349397383630276,-0.0011750049889087675,-0.99925696849823,0.03737284615635872,-0.035298303047428245,-0.039615389296003715,3.082879298720669,0.10714355111122133,0.04165508225560188,0.15155765414237976,0.0010317366337403656,-0.4885247813165188,-9.768623932600024
29.59,2.9000000953674316,193.0,22.054872512817386,28.149280548095703,-79.78278497711624,40.459015564403245,299.3726184082032,0.007886495441198349,-0.00025372428353875875,-0.9992815852165222,0.03707063943147658,-0.04761957455814154,-0.04134963438020706,3.0730581588495154,-0.042798668146133416,-0.015237870626151562,0.0303324107080698,0.02846607305109501,-0.055935844508931035,-9.717715149521828
29.69,3.0,192.0,22.05988121032715,28.554821014404297,-79.78278502515623,40.459015523739815,299.9768645477295,0.003976291045546532,0.00038355909055098886,-0.9993162751197816,0.03675645589828491,0.009693696271703226,-0.04742624405673133,3.0442871412359462,-0.026662342250347137,0.0011242525652050972,-0.0012293257750570776,0.00488821175764315,0.0326477824151516,-9.60106962919235
29.9,3.0999999046325684,192.0,22.034839630126953,28.47530174255371,-79.78278499738282,40.4590154748155,300.58372375488284,-0.0006511979736387732,9.938864241121335e-05,-0.9992967247962952,0.0374937430024147,0.02811088866175112,-0.03241664388248788,3.0359589584782625,-0.13787145912647247,-0.0911327600479126,-0.05330510437488556,-0.014579548006877304,-0.16767773447558285,-9.6516410279274
29.99,3.0999999046325684,190.0,22.140012741088867,26.32832336425781,-79.78278504866344,40.45901550290997,300.8867804718018,-0.001994214253500104,-0.00015688801067881286,-0.999282717704773,0.0378161258995533,0.03357743205524427,-0.03703255295513911,3.025857770394607,-0.033197939395904534,-0.041651226580142975,-0.04533205926418304,0.04549687435850501,0.18461848866194489,-9.731622167229652
30.09,3.0999999046325684,189.0,22.017311096191406,28.73771095275879,-79.78278509036312,40.45901553126638,301.18840286254886,-0.002163801109418273,-0.00022759937564842403,-0.9992662668228148,0.038240544497966766,0.04278872171333513,-0.03140815153793111,3.0042870050600814,0.02591261826455593,0.0798448771238327,0.02024078369140625,0.04009217415936291,-0.06629361145198345,-9.606694650650024
30.29,3.0,188.0,22.193851470947266,25.994348526000977,-79.78278510179891,40.45901558944996,301.78479072570804,0.0002692462876439094,0.0011634909315034747,-0.9992575645446776,0.03850976750254631,0.03420205670798207,-0.04036088780245842,2.9998694094347527,0.10629639029502867,-0.0038577842060476533,0.03421840444207192,0.05526761282701045,-0.14037427062168714,-9.758922232389448
30.49,3.0,187.0,21.90713119506836,29.69987487792969,-79.78278507931769,40.45901552990943,302.0780684661865,0.001172028831206262,0.0013167659053578973,-0.9992612600326538,0.038391344249248505,0.0013359776547939347,-0.03534922696107362,2.9918134200412565,-0.16465766727924347,-0.056382391601800926,-0.09061693400144576,-0.0817128287628293,0.07560543028637767,-9.596747952103618
30.6,3.0999999046325684,187.0,21.987262725830078,28.73771095275879,-79.78278512368563,40.45901558201463,302.6756045532227,0.001269840169698,-0.0009467857889831066,-0.9992855191230774,0.037763018161058426,0.024288894231559083,-0.03634903698802154,2.9962077110972727,0.1670997440814972,0.14746396243572235,0.10166843235492706,-0.02752909785602242,-0.2089825937524438,-9.880511573553086
30.79,3.0999999046325684,187.0,21.928415298461914,28.713855743408203,-79.78278507760761,40.4590155355176,303.2683207702637,0.0016112602315843105,-0.0035546196158975367,-0.9993025064468384,0.037139926105737686,-0.014187727746010018,-0.017549669346787727,3.007433196049592,-0.12312459945678712,0.004614868201315403,-0.06172454729676247,0.001772862081415951,-0.2943249537236989,-9.913298081159592
30.9,3.0999999046325684,186.0,22.034839630126953,27.831209182739247,-79.78278505298027,40.459015510975455,303.5546214294434,0.0010317510459572077,-0.004523321054875851,-0.9993053674697876,0.03697618842124939,0.0006552912348832656,-0.016235462136316575,3.0024311535091304,-0.05275246128439903,-0.018930867314338684,-0.04967520758509636,0.004573420850210824,0.05963609048165381,-9.746914975047114
31.09,3.0999999046325684,186.0,21.932172775268555,28.037954330444336,-79.78278507063624,40.45901554846337,303.85414382934573,0.0008026481373235582,-0.004520110320299864,-0.9993020296096802,0.0370732955634594,0.004373867354771821,-0.020194853537188445,2.9869465830338457,0.0020686849020421505,0.04317739233374596,0.007876714691519737,-0.0032512985821813345,0.034813719000667334,-9.654390388727187
31.2,3.0,188.0,22.034839630126953,27.457475662231445,-79.78278501456619,40.45901550362387,304.44337722778323,0.00010579562513157724,-0.0020511297043412924,-0.9992848634719848,0.03775715827941895,0.01864756243044948,-0.028206989846634282,3.001459449407967,0.15694482624530792,0.0554070957005024,0.08647065609693527,0.0017043491592630745,-0.2466383519209921,-9.885640751123427
31.4,3.0,186.0,21.885847091674805,30.407583236694336,-79.78278499749314,40.45901548932649,305.02480575561526,0.0007741828449070454,0.0006601263303309679,-0.9992582201957704,0.03849796578288078,-0.013246084847255313,-0.038593721170770624,2.9897800194610165,-0.0650813952088356,-0.044355276972055435,-0.07153475284576416,0.007368702278472482,-0.2405535565875471,-9.8137199985981
31.49,3.0999999046325684,185.0,21.87708282470703,30.48710060119629,-79.78278499939752,40.459015527341535,305.32433197021487,0.0013370621018111706,0.0008797228219918908,-0.9992474317550659,0.038757845759391785,-0.014918839930286497,-0.04470528691698825,3.0036455129181574,-0.06423963606357573,-0.027345849201083183,-0.054072748869657516,-0.0474853936303407,0.0882390157878399,-9.90262106537819
31.59,3.0999999046325684,186.0,21.99978256225586,28.1572322845459,-79.78278499922641,40.45901556533831,305.6257960510254,0.0021581414621323347,0.0004209961625747383,-0.9992333054542542,0.03908904269337653,-0.01339609677537516,-0.047418625439746856,3.0274336547578184,0.02096135914325714,0.038757190108299255,-0.10692405700683594,0.0266276033828035,0.008543385062366725,-10.001439009904864
31.8,3.2000000476837163,185.0,21.849536895751953,31.099388122558594,-79.78278487058458,40.45901561864157,306.2075297546387,0.0022793002426624307,0.0007101566297933459,-0.9992180466651917,0.03946817293763162,-0.02068192954549816,-0.04777013216065752,3.0111172850607235,0.08839061111211778,0.0497853234410286,0.07018682360649109,0.0661470930185169,-0.006797168925404549,-9.778622086644171
31.89,3.0999999046325684,186.0,21.998531341552734,28.38783264160156,-79.78278475670278,40.45901552062548,306.485796661377,0.002442080993205309,0.0009991948027163744,-0.9992103576660156,0.03964528813958168,-0.0143367433652389,-0.03332022575041885,3.0069039030640683,0.08733649551868439,0.044823307543992996,0.0982251912355423,-0.02623182910960168,-0.22359054643660786,-9.880109285116196
32.09,3.0999999046325684,184.0,21.87332534790039,31.10733985900879,-79.78278474085106,40.45901557728677,307.0866038513184,0.002341552870348096,-0.0008586900075897574,-0.999220371246338,0.03940250352025032,-0.038404749038884085,-0.028445261101574807,2.9905713356676222,-0.20351111888885492,-0.0817316472530365,-0.0987146869301796,-0.06495099937543274,0.12497227518819272,-9.645257037878038
32.29,3.0999999046325684,183.0,22.0035400390625,27.17121124267578,-79.78278472406367,40.45901550427981,307.3661753845215,0.0010294741950929165,-0.0009434315725229679,-0.9992225170135498,0.039401810616254807,-0.02212603461804864,-0.021489017361390327,2.987144417639203,-0.04698697105050087,-0.01013460662215948,-0.008098570629954338,0.060896074092015626,0.16274580907076594,-9.809331663250925
32.39,3.0999999046325684,181.0,22.04986572265625,28.212894439697266,-79.78278461111931,40.45901549800283,307.9446322631836,2.8352005756460134e-06,0.00029649867792613804,-0.9992243051528932,0.03938016295433045,-0.0060032558682514,-0.026267773972871968,2.9496960674878783,0.05266039445996285,-0.0002262928319396451,0.026645198464393616,0.014931760523468257,0.028191354414448144,-9.570672293901444
32.49,3.0999999046325684,180.0,21.97974967956543,28.530963897705078,-79.78278460331241,40.45901552525028,308.23817321777346,0.0007798938313499093,0.0012526536593213675,-0.999221682548523,0.039420980960130685,-0.0048961276200174325,-0.03147671264285673,2.9257856739154464,0.0568198598921299,0.02126760594546795,0.07252998650074005,-0.020552864803466943,-0.06966962474863976,-9.598629001379011
32.69,3.0999999046325684,177.0,21.90963554382324,30.88468933105469,-79.78278458914897,40.45901537073607,308.8154933166504,0.001952327555045485,-0.0005132217775098982,-0.9992242455482484,0.039331849664449685,-0.0022331594393746185,-0.019827524057619467,2.9417531799921632,-0.08565236628055573,-0.0483291819691658,-0.07727592438459396,-0.053579544508829714,-0.07804174577817323,-9.85398509502411
32.79,3.0999999046325684,177.0,21.83451271057129,30.11336708068848,-79.78278460948864,40.45901538631846,309.11023208618167,0.002417934127151966,-0.00048128282651305193,-0.9992302656173706,0.039150837808847434,-0.006704686091104522,-0.017314409277993374,2.9593885491916216,-0.1101720854640007,-0.04302901774644852,-0.0627930536866188,-0.02564636293798685,0.061465885257348425,-9.98303314447403
33.0,3.0,174.0,21.888351440429688,29.00012016296387,-79.7827846666827,40.45901527886813,309.69427368164065,-0.0002205258060712368,0.0013028354151174426,-0.9992082715034484,0.039763182401657104,0.01002140171693146,-0.01578153055616834,3.0359694872334444,-0.06400079280138016,0.005111397709697485,0.037356924265623086,-0.05428593384101986,-0.04201047659385949,-10.23014583349228
33.19,3.0,172.0,21.992271423339844,28.04590606689453,-79.78278468463556,40.45901519513652,310.28093215942386,-0.003189561190083623,0.001670524594374001,-0.999189794063568,0.0400862842798233,0.04333236173361076,-0.01767154884926385,3.068119745058963,0.06695175915956497,-0.0016645857831463218,-0.028170067816972733,-0.04372511319816113,-0.013184699281118812,-10.188089150190354
33.3,3.0,169.0,21.93467712402344,28.05385780334473,-79.78278470436176,40.4590152003217,310.58740493774417,-0.003008773783221841,0.0026060887612402443,-0.9992038011550904,0.039698563516139984,0.02735455641166559,-0.017685727772374333,3.060700852946084,-0.10173064470291138,-0.052458204329013824,-0.019344380125403404,-0.07406727452762425,-0.03680003643035889,-9.80154024839401
33.39,3.0999999046325684,168.0,21.895862579345703,28.451446533203125,-79.7827846797899,40.45901510580857,310.8671328735352,-0.0023757782764732838,0.003235586686059833,-0.9992232322692872,0.03920389339327812,0.019491052759895613,-0.019398621035801224,3.0252716537062376,-0.0908021554350853,-0.026666691526770592,-0.06064872071146965,-0.043638976402580736,0.2450056814029813,-9.735163241028786
33.6,3.0999999046325684,165.0,21.90963554382324,28.196990966796875,-79.78278470806158,40.45901510714082,311.46946594238284,-0.001014332170598209,0.0018642246723175047,-0.9992295503616332,0.03919098898768425,0.02494749451213685,-0.022618015842791654,2.9873051580472154,0.08637053519487381,0.09024523198604584,0.08247755467891693,-0.10353979043662548,-0.05501724692992866,-9.588993959426881
33.79,3.0999999046325684,167.0,21.915895462036133,29.29433441162109,-79.78278465277613,40.459015071631434,311.7522265625,3.095400461461395e-05,0.0009117700392380356,-0.9992214441299438,0.03944312781095505,0.017530859049335303,-0.020822829845880773,2.9732199560554364,0.07329940795898438,-0.006914740428328514,0.09889762848615646,-0.07335052009206265,-0.16339791979640722,-9.677140735387805
33.9,3.299999952316284,166.0,21.85329246520996,29.739633560180664,-79.78278464705244,40.45901502075758,312.3385874938965,0.0011925329454243185,0.0014831885928288102,-0.9991798996925354,0.040448121726512916,-0.004600907144129393,-0.013229644084720792,2.9699758314180333,-0.16521994769573212,-0.15173329412937164,-0.10868727415800096,-0.096402724692598,0.033644933681935066,-9.709718497395516
33.99,3.299999952316284,167.0,21.908382415771484,27.46542739868164,-79.78278466445366,40.459015031645386,312.6353594970704,0.0002529530320316553,0.002818062203004956,-0.9991620182991028,0.04083261638879776,-0.0063500070106863255,-0.02154121590017481,2.9685366746998443,-0.11655782908201218,0.01451756898313761,-0.04843350872397423,-0.023017262918874626,0.2787571988627315,-9.752468660473825
34.19,3.299999952316284,167.0,21.818235397338867,29.13529968261719,-79.78278463449018,40.45901495383005,313.2167155456543,-0.0007191612385213375,0.003079890040680766,-0.9991199970245358,0.04182587191462517,0.013147367935068877,-0.02458151290930155,2.932164275426301,0.07496534287929535,0.09192027151584624,0.10417165607213974,-0.0499443442421034,-0.16042079167440534,-9.60708641409874
34.29,3.4000000953674316,169.0,21.87457847595215,28.729759216308594,-79.78278463471752,40.459014960302405,313.50977203369143,-0.0010477328905835748,0.0019793834071606398,-0.9991028904914856,0.04228965938091278,0.004780815793379337,-0.024255542505694085,2.9279401180101834,0.0195438489317894,0.0016975047765299678,0.04250140488147736,-0.05915068935602904,-0.13542644809931514,-9.711998911499977
34.5,3.299999952316284,169.0,21.843276977539066,27.990243911743164,-79.78278451214159,40.45901487581933,314.09831497192386,-0.0004934393218718469,0.00010750044020824134,-0.9991089105606079,0.04220341145992279,0.008115076559675912,-0.0069875645633685176,2.951300393077962,0.13862904906272888,0.004925767425447702,0.06631922721862793,-0.011052427582908423,-0.2461773903295397,-9.821101523637774
34.7,3.2000000476837163,168.0,21.894611358642575,28.936504364013672,-79.78278456155823,40.459014767457546,314.6801287841797,0.0020363701041787863,0.0018873580265790226,-0.9991524815559388,0.04106913506984712,-0.003701290839903567,-0.0026914647301040017,2.9431688544064163,-0.008021915331482887,-0.10255052149295807,0.029713725671172142,-0.024754753913730384,-0.10023577555082737,-9.787188257575037
34.79,3.2000000476837163,169.0,21.733097076416016,30.20878982543945,-79.78278456939186,40.459014764834905,314.9736087036133,0.0009274737676605582,0.003368096658959985,-0.9991633296012878,0.040748514235019684,-0.010747407910932396,-0.006425760922889963,2.9315680984877512,-0.08355838060379027,-0.02784876152873039,-0.05826602876186372,-0.06712604025844485,0.037371782201807945,-9.680505223274233
34.89,3.2000000476837163,171.0,21.95721244812012,27.099645614624023,-79.78278447281257,40.4590146687383,315.2631175231934,-0.0003065847558900714,0.003347167745232582,-0.9991652369499208,0.040714465081691735,-0.012043605294959406,-0.01340143640080724,2.959768416879704,-0.05139119550585747,-0.06217771768569946,-0.0759466215968132,-0.027470790152437988,0.022757171457633386,-9.89204462170601
35.1,3.0999999046325684,172.0,21.85454559326172,29.21481704711914,-79.78278447477035,40.4590146527748,315.85220977783206,0.0019139219075441358,0.00022260559489950538,-0.9991510510444641,0.0411536768078804,0.014016969087722044,-0.006438800384040946,2.9258968691775764,0.19705337285995486,0.050713516771793365,0.11692862957715988,-0.05755161748733373,-0.1120891871675849,-9.688480825424195
35.19,3.2000000476837163,173.0,21.823244094848643,29.453371047973643,-79.78278443069159,40.45901455089611,316.13450500488284,0.003417699597775936,-0.0012807298917323349,-0.9991429448127748,0.04123270139098168,-0.0016384796687936474,0.009557713186402384,2.9327107475106904,0.10434553027153017,0.12933610379695892,0.06333954632282257,-0.011350583047606052,-0.16713326733559372,-9.781485468149183
35.4,3.0999999046325684,173.0,21.905879974365234,28.96036148071289,-79.78278430309365,40.45901447679522,316.7150866699219,0.0007161770481616259,-0.0012870199279859662,-0.9991428256034852,0.04137156903743744,-0.018069439344736413,0.0128548683421349,2.9537226488125,-0.0394316129386425,-0.003629933809861541,0.02541365660727024,-0.022768607789184898,-0.07304217539727688,-9.810128638744352
35.59,3.0999999046325684,176.0,21.83451271057129,30.137222290039066,-79.78278429580922,40.45901447727938,317.303553314209,-0.0010242817224934695,0.0018245779210701587,-0.9991146922111512,0.0420181080698967,-0.004052532934837804,-0.003097251899979702,2.931891732137452,-0.05959790945053101,-0.05392160639166832,-0.060538295656442635,0.0011658251658082008,-0.15238497233949602,-9.758184898495674
35.7,3.0999999046325684,175.0,21.815731048583984,30.192886352539066,-79.78278419000208,40.459014341874145,317.58972427368167,-0.0005419538356363773,0.0005576531402766705,-0.9991092085838318,0.04219397157430649,-0.010066603304473393,-0.010889691269628831,2.9470430760871027,-0.07936916500329971,-0.00741676101461053,-0.0775442123413086,-0.09414686889387668,0.061092851171270016,-9.847877093553542
35.79,3.0999999046325684,174.0,21.82449531555176,29.071685791015625,-79.78278418620137,40.45901434300458,317.8850772094727,0.0005681929178535937,-0.0016787470085546374,-0.9991136789321899,0.04205593466758728,-0.014080084002485747,-0.003481388085264307,2.963889144211844,-0.11452994495630266,-0.021814221516251564,-0.014355495572090147,-0.0640142754279077,0.12349829262122512,-9.906443974971774
35.99,3.299999952316284,171.0,21.739356994628906,31.67191505432129,-79.78278408333586,40.459014278186544,318.4634310913086,0.00261931587010622,-0.0025977252516895533,-0.9991390705108644,0.04132319986820221,-0.011310796755959468,-0.00421063924486145,2.9900209745208355,-0.012861737050116062,-0.04679380357265472,-0.02189591713249684,-0.02018787063891068,-0.07154679567553103,-9.995218741893767
36.09,3.299999952316284,172.0,21.739356994628906,30.20878982543945,-79.7827840831802,40.459014298475324,318.7637316894532,0.0017118740361183882,-0.0013825367204844956,-0.9991524815559388,0.041104525327682495,-0.021226310364902315,-0.007899764226227717,3.0220481239292365,-0.0806431770324707,-0.08838360011577606,-0.07811643928289412,-0.03970775170717389,-0.11702177038416267,-10.10704908013344
36.29,3.299999952316284,173.0,21.78192710876465,28.50710868835449,-79.78278406483767,40.45901419684893,319.3513629150392,-0.0001601227995706722,0.002352392300963402,-0.9991041421890259,0.04225623235106468,-0.0005874891991068593,-0.022943596826749152,3.0581399602651107,-0.06617767363786697,0.010801097378134727,-0.06922364979982376,-0.08998981833457947,0.07070029243826867,-10.019608647823334
36.49,3.299999952316284,175.0,21.700542449951172,31.13914680480957,-79.78278401448078,40.45901421663422,319.93644973754886,0.00014938312233425677,0.0007878938340581955,-0.999086320400238,0.04273079335689545,-0.007064490990794373,-0.03214284738692095,3.0574355814174394,-0.07970937341451645,0.019127205014228817,-0.0074378689751029015,-0.08775732398964466,0.01728750321082771,-9.928587380647661
36.59,3.299999952316284,174.0,21.82699966430664,28.95240974426269,-79.78278401922594,40.459014232217676,320.24334594726565,2.2995469407760528e-05,-6.713121547363697e-05,-0.999086320400238,0.042737744748592384,-0.0013951903973429586,-0.023075862504997727,3.0808994407002035,-0.012368797324597836,-0.04430742189288138,0.0102883568033576,0.02305508709512651,-0.053559536067768934,-10.045460357666016
36.69,3.2000000476837163,176.0,21.626672744750977,32.11721420288086,-79.78278384871365,40.45901405213935,320.5209147644043,-8.793709275778383e-05,-0.0001921634102473036,-0.9990973472595216,0.04247821122407913,-0.010536740288770965,0.016126624911654116,3.059924623464384,-0.009146305732429028,-0.032446857541799545,-0.014085327275097368,-0.03966864388436079,-0.16011204041540625,-9.97181935429573
36.89,3.0999999046325684,175.0,21.924659729003906,27.664220809936523,-79.78278390299597,40.459014004024475,321.11323043823245,0.0016287893522530794,-0.001403042464517057,-0.9990654587745668,0.043168798089027405,-0.0005177017827321231,-0.005015784352469292,3.059446200733668,-0.007490790914744139,-0.03044009953737259,-0.0564715713262558,0.004090839978307486,-0.13811714488081633,-9.841718806028368
37.09,3.0,176.0,21.859554290771484,27.807353973388672,-79.78278390557745,40.45901402048287,321.7198893737793,0.0024341396056115627,-0.0021867151372134686,-0.9990013241767884,0.044560570269823074,-0.01944131291460168,0.00042895564834206137,3.0130222107471547,-0.019782977178692814,-0.06741027534008026,-0.028998773545026783,-0.004014127820846625,0.08217571810819209,-9.61876271903515
37.2,2.9000000953674316,175.0,21.8570499420166,28.196990966796875,-79.78278385113559,40.45901394653978,322.0139567565918,0.0021787225268781185,-0.002032147254794836,-0.9989752769470216,0.04516208916902542,-0.019927176708296145,0.006698118587332499,3.0029939737988656,-0.05813883990049362,-0.036358583718538284,-0.10601722449064256,0.017642779805464668,0.07021696524694562,-9.65963651061058
37.29,2.9000000953674316,175.0,22.0035400390625,26.04205894470215,-79.78278385243071,40.45901395391928,322.3132960510254,0.002613322576507926,-0.000879723927937448,-0.9989564418792723,0.04559081420302391,-0.017332344013992064,0.0038963062286159725,2.9823767143415028,-0.031430698931217194,-0.08930409699678421,-0.08636165410280228,-0.0064639084681402895,0.01356503781862557,-9.574416266083718
37.49,2.799999952316284,178.0,21.8570499420166,28.212894439697266,-79.78278383082755,40.45901391169168,322.903032989502,0.0024095098488032822,-0.0031685219146311283,-0.9989332556724548,0.0460067130625248,-0.002804012399424157,-0.005416305662721354,2.9349472831831718,0.0984552875161171,0.060433849692344666,0.1074620485305786,-0.02774103201460093,-0.21320421036332848,-9.599338268637656
37.59,2.9000000953674316,179.0,21.78818702697754,28.69795227050781,-79.78278383439984,40.45901392398369,323.1959559631348,0.00206744740717113,-0.005108484998345375,-0.998937487602234,0.04575486108660698,-0.00031654707736991736,-0.0007412304711665598,2.9217782264918704,0.0970957726240158,0.07591099292039871,0.0461457334458828,0.06701219771057368,-0.28257411506026986,-9.690457184314733
37.8,2.9000000953674316,180.0,21.76815414428711,30.009994506835927,-79.78278363246893,40.45901380580764,323.7935321044922,0.0002022227126872167,-0.004693110939115286,-0.9989666938781738,0.04520618543028832,-0.00805036135801851,0.01062834079475611,2.9220326953894777,-0.03022225946187973,-0.1274384707212448,0.013642259873449802,0.03769789923448117,-0.0973703932017088,-9.54521819472313
37.99,3.0,182.0,21.775665283203125,29.381805419921875,-79.78278361226981,40.45901378854409,324.38987609863284,0.0016135988989844918,-0.0007580489618703723,-0.9989868998527528,0.044968321919441216,-0.01048390610372056,-0.009791680040455976,2.957137897851069,-0.05069880932569504,-0.09486572444438934,-0.095850832760334,0.02966524105053395,0.07765707207843661,-9.689981805682184
38.09,2.9000000953674316,183.0,21.93342399597168,26.58278083801269,-79.78278361196695,40.459013816592396,324.6859423828125,0.001975605497136712,-0.00016150523151736706,-0.9990085959434508,0.04447416588664055,-0.02139058228606482,-0.028905821042344283,2.9633636517019344,-0.06458153575658797,-0.001245831255801022,-0.0614834800362587,0.02014300924725831,0.004161139042116702,-9.86925802230835
38.19,2.9000000953674316,185.0,21.819488525390625,29.13529968261719,-79.78278355771627,40.45901382630791,324.980482788086,0.0016949090640991926,-0.001348906196653843,-0.9990390539169312,0.0437762662768364,-0.035751861525912136,-0.032339286788133005,2.9583160968055298,-0.13093923032283786,-0.013658980838954449,-0.11332415044307707,-0.017862211419269445,0.22470467856153847,-9.59279874265194
38.4,2.9000000953674316,185.0,21.746868133544922,30.002042770385746,-79.78278352669061,40.459013838263886,325.56706497192386,0.003071917686611414,-0.002739730058237911,-0.9990727305412292,0.04285882040858269,-0.010366736834841257,-0.020441509199068945,2.9571583724420285,0.057418759912252426,0.0906609669327736,0.0548885390162468,0.06181729834992439,-0.13846057743765414,-9.832198369503024
38.59,3.0,187.0,21.924659729003906,26.781574249267567,-79.78278352820831,40.45901390346732,326.16125747680667,0.00315262284129858,-0.0014459750382229686,-0.999132752418518,0.04149412363767624,-0.01923254664464308,-0.023873463049247663,2.9788189909696547,0.005333394277840853,0.01911465637385845,0.050515227019786835,0.061974254976958035,-0.1708876183256507,-9.928002659082411
38.7,3.0,186.0,21.8282527923584,28.65819358825684,-79.78278348411867,40.459013866882245,326.4533030700684,0.002861564746126533,-0.0013078561751171947,-0.9991477727890016,0.04115594550967217,-0.002201407636075456,-0.030477829290393107,2.966226982219814,0.07487533241510391,0.012166006490588188,-0.0009279177756980065,0.0932431543059647,-0.27453050248324873,-9.711360395550727
38.79,3.0999999046325684,187.0,21.69428253173828,30.28035545349121,-79.78278349451602,40.459013902698665,326.74875900268563,0.002632849616929889,-0.001042927266098559,-0.999157190322876,0.04094983637332916,-0.028955715813563706,-0.02972353443402896,2.948768719296726,-0.1869373917579651,-0.04699523374438287,-0.13874098658561707,-0.023296969961374998,0.2947185261547566,-9.588924377560616
38.99,3.2000000476837163,188.0,21.662981033325195,30.3042106628418,-79.78278342693339,40.45901389917961,327.33343383789065,0.0015295017510652542,0.0013277055695652964,-0.9991155862808228,0.042000461369752884,-0.00948362533049832,-0.03469799902593984,2.9638390123731013,0.018125900998711586,0.035540077835321426,0.03893305361270905,0.011885996139608324,-0.2063572121970356,-9.871451897621156
39.09,3.2000000476837163,184.0,21.805715560913086,29.278430938720703,-79.78278343093366,40.45901393382373,327.63069793701175,0.0006131026893854141,0.002258495893329382,-0.9990817308425904,0.042782597243785865,-0.005735557074893544,-0.04534880666211697,2.9792230881439234,0.0014648004435002804,0.009953254833817482,-0.00537788262590766,0.013289624825119972,-0.14323493865318598,-9.921506402492524
39.31,3.2000000476837163,185.0,21.590362548828125,32.061553955078125,-79.78278345848554,40.45901391472443,328.21805450439456,0.0003517569857649505,0.0012608936522156,-0.9990174770355223,0.04429945349693298,0.012058468716633474,-0.04258929898073991,2.971156402670472,0.03902629762887955,0.0221638921648264,-0.04208053275942802,0.06532161691691726,-0.12769370639696714,-9.721972507238393
39.49,3.2000000476837163,185.0,21.80821990966797,28.682048797607425,-79.7827834631657,40.45901387560366,328.50785705566415,0.00048384093679487705,3.890488005708903e-05,-0.9989888072013856,0.04495880380272865,-0.005369185927835718,-0.03132589845752927,2.9874202289881544,-0.1468481421470642,-0.08195602893829346,-0.13345979154109955,-0.009023129692068324,0.005488927513360977,-9.885963517427443
39.61,3.2000000476837163,184.0,21.987262725830078,26.59868431091309,-79.78278349122672,40.4590139233868,329.10714599609383,0.0006092494586482644,-0.0015504948096349835,-0.9989436268806458,0.045923661440610886,-0.0017889150459194827,-0.02255882332420172,3.0024264134039624,-0.024545378983020786,-0.06344427168369292,-0.007180728483945131,0.013364624502137304,0.061652763183228675,-9.836694878339767
39.69,3.2000000476837163,183.0,21.76439666748047,30.20878982543945,-79.78278341042763,40.45901386633259,329.39160797119143,0.0008325729286298156,-0.0014319093897938724,-0.9989409446716307,0.04598210006952287,0.0008805371585425939,-0.01567165640866333,2.9714160039267417,0.05174277722835542,0.07173360884189606,-0.006759396754205228,0.05078637527301908,0.031856306958943606,-9.655836405158043
39.9,3.0999999046325684,180.0,21.70805549621582,29.795297622680664,-79.78278334816815,40.459013867087286,329.97401687622073,0.0017819292843341827,0.0007004362414591012,-0.9989632964134216,0.04548346996307373,-0.007956007660660071,-0.023277390174722874,2.9775344623635887,0.06668922305107118,0.06117650493979454,0.08506055921316147,0.002349712746217847,-0.014649257780984044,-9.922500429153443
39.99,3.2000000476837163,179.0,21.821990966796875,28.30831527709961,-79.78278334356284,40.459013887803344,330.2730853271485,0.0021224934607744217,0.0008915949147194623,-0.9989773631095886,0.045154862105846405,-0.009034627837352992,-0.02669008602991844,3.002225276824216,0.0924762412905693,0.016309307888150215,0.11626645177602768,0.029428013116121293,-0.09823805605061353,-10.011987386941913
40.2,3.299999952316284,179.0,21.76064109802246,29.21481704711914,-79.78278340431515,40.45901379088545,330.85583755493167,0.0011607441119849682,-0.00011980448471149428,-0.9989542365074158,0.045707784593105316,0.007402477704162982,-0.010859536363624757,2.98868521415235,0.06063086912035943,0.042607568204402924,0.010505834594368936,0.06662649161182345,-0.2561037149839103,-9.825668199062347
40.39,3.299999952316284,182.0,21.634183883666992,31.0914363861084,-79.78278335849241,40.459013729647694,331.442282409668,0.0010891974670812488,-0.0015426932368427515,-0.9989263415336608,0.046289194375276566,-0.0048007942868282935,0.0011546677193272144,2.984658920124411,-0.029857099056243893,-0.04453223198652268,-0.018181733787059784,-0.048376628067344433,0.08966748143546284,-9.743091480731962
40.5,3.2000000476837163,182.0,21.699291229248047,30.20878982543945,-79.78278336133475,40.459013732496864,331.7416064453125,0.0014960215194150805,-0.00153949367813766,-0.9989234805107116,0.04633913934230805,-0.01080349528006222,0.005097955221988622,3.0015832799773614,-0.04319716244935989,-0.000376806827262044,-0.03078678250312805,0.005341319579165429,0.03361961249727756,-9.931508649587633
40.59,3.2000000476837163,181.0,21.725584030151367,30.717702865600586,-79.78278336225128,40.459013737268734,332.04247543334964,0.0018669713754206891,-0.0014094103826209905,-0.9989059567451476,0.04670734331011772,-0.005882510465808123,0.0028104962856928552,3.0145704678109486,0.009430865757167341,-0.032773055136203766,-0.08179125934839249,0.06847787540405989,-0.0455611389130354,-9.96292573928833
40.8,3.0999999046325684,180.0,21.869569778442386,27.990243911743164,-79.78278330546235,40.459013703356774,332.6294314575196,0.00197221664711833,-0.0007849831599742174,-0.9988958835601808,0.04693235084414482,-0.02496730524402434,0.0013631750213301554,3.0160934817596377,-0.10437951982021333,-0.036717265844345086,-0.09657435864210127,0.04088094071019442,0.11467266063205896,-9.825046055316923
40.99,3.0999999046325684,181.0,21.70805549621582,29.95433235168457,-79.78278326677736,40.45901362048829,333.2144229125977,0.00010630030010361224,-0.0018687237752601504,-0.9989426732063292,0.04593683406710625,0.013273213262490506,0.010105271201919027,2.9817970113416323,0.16194701194763186,0.05957746133208275,0.13761667907238007,0.012779351334320382,0.19783666782081127,-9.65527448773384
41.1,2.9000000953674316,182.0,21.778169631958008,28.37988090515137,-79.78278326396277,40.45901361804491,333.5131594848633,-0.00014837153139524162,-0.002205336932092905,-0.9989694356918336,0.045333944261074066,0.0005149659432525941,0.014762226757120503,2.9901381028147656,0.02797412499785424,0.07918711006641388,0.032358165830373764,0.053291359003633264,-0.17590114893391728,-9.846381375789642
41.29,3.0,183.0,21.72933959960937,28.642290115356445,-79.78278322853173,40.45901354422743,333.80498001098636,-0.00016473072173539552,-0.00251641939394176,-0.9989852905273438,0.04496806114912033,0.0006615859687038858,0.0174955856898822,2.99235075295998,-0.028502296656370163,-0.05836064368486405,-0.002078663790598512,0.03211940882261844,-0.18028919192031026,-9.746651265621184
41.4,2.9000000953674316,186.0,21.849536895751953,27.55289649963379,-79.78278319388073,40.459013474626786,334.39460250854495,0.0018107652431353927,-0.004650542978197336,-0.998972475528717,0.04504716768860817,-0.009205249346086436,0.029691245358856682,2.9844617030050293,0.013757974840700626,-0.06203990057110785,-0.036568313837051385,0.03968458211515099,0.003949972330592573,-9.754195927977564
41.49,2.9000000953674316,186.0,21.859554290771484,28.363977432250977,-79.78278318664249,40.459013470537684,334.6923014831543,0.002850200980901718,-0.0056812474504113215,-0.9989554286003112,0.04525186121463776,-0.017633159854746724,0.029686794611160625,2.9675896608858783,0.008052013814449309,0.06212857365608215,-0.0012698902282863855,0.006293874406255782,0.015046685719862582,-9.630759451389313
41.69,2.9000000953674316,187.0,21.869569778442386,27.48133087158203,-79.78278313064624,40.45901345837451,335.28013488769534,0.0029506017453968525,-0.0066283796913921824,-0.9989335536956788,0.04559814184904098,-0.012048167634664498,0.019261075626668768,2.9595510938498535,0.05254238471388817,0.009129484184086323,0.08507563173770905,0.02053479553665966,-0.21392827838659287,-9.724679183363914
41.89,2.799999952316284,187.0,21.87958526611328,26.447599411010746,-79.7827831302116,40.45901347867189,335.57535430908206,0.0015448800986632705,-0.005572575610131025,-0.9989381432533264,0.04570912942290306,-0.017979239048476234,0.015311349625219175,2.945188958288377,-0.05911911651492119,-0.08937184512615204,-0.049353603273630135,0.08704788314178588,-0.1411184932664037,-9.721644478440288
42.0,2.5999999046325684,189.0,21.791942596435547,28.4912052154541,-79.78278306548556,40.45901341494135,336.164076538086,0.001917373389005661,-0.0044808806851506225,-0.9989348053932192,0.045887675136327744,-0.01676539044768016,0.0035162220837815783,2.9627928024289085,-0.07977058738470078,-0.04536796361207962,-0.07986868917942047,0.05258845059201121,0.25519684838131074,-9.739591337442398
42.09,2.700000047683716,189.0,21.76189422607422,29.40566062927246,-79.78278307088054,40.459013438617134,336.4598071289064,0.0022138876374810934,-0.0043483697809278965,-0.9989235401153564,0.04612988978624344,0.0022873977958916447,-0.002359536633304193,2.9505055661249937,0.1440337747335434,0.07548366487026215,0.06101042777299881,0.06600400982424617,-0.010882874317467213,-9.70595756828785
42.3,2.700000047683716,190.0,21.83451271057129,28.24470138549805,-79.78278302837082,40.45901342374543,337.0438983154297,0.0033978302963078018,-0.002389830071479082,-0.9989106059074402,0.046479541808366776,-0.008557623390273848,-0.006361799701085545,2.9526921781467133,0.041153505444526665,0.04273247718811035,0.01576320081949234,0.04295059009920806,-0.12900723771192135,-9.761952844262122
42.39,2.5999999046325684,188.0,21.680509567260746,30.892641067504893,-79.78278299524595,40.45901335691344,337.33238098144534,0.003928732592612505,-0.0024031903594732285,-0.9988998770713806,0.046669591218233115,-0.01239219304591745,-0.008725845961502532,2.9529932791272127,-0.04804391786456108,-0.03620894253253937,-0.02631446346640587,0.014697602377273144,-0.011867070347070694,-9.747300891280174
42.6,2.799999952316284,187.0,21.83325958251953,27.823257446289066,-79.7827830376503,40.45901340413297,337.924330444336,0.003627676982432604,-0.003920557908713818,-0.9988695979118348,0.047234326601028435,-0.01123135462471706,-0.005099083725150213,2.970378698102197,-0.08277031779289246,-0.06291469931602478,-0.1131964698433876,0.05786068394780159,0.0009451932739466428,-9.876121484041212
42.79,2.700000047683716,188.0,21.664234161376953,30.18493461608887,-79.78278300894205,40.45901342676206,338.5078341674805,0.0022191230673342943,-0.000851449614856392,-0.9988560080528259,0.047761671245098114,-0.0006200176621495206,-0.01442828602347401,2.9784323981770617,-0.01764997281134129,-0.051770053803920746,0.006175457499921322,0.018241759669035674,0.17180497337132694,-9.80690272986889
42.9,2.5999999046325684,187.0,21.664234161376953,30.510955810546875,-79.78278299518516,40.45901340703474,338.7949740600586,0.000434910150943324,-0.0001331368985120207,-0.9988411068916321,0.04812742024660111,0.012598932098316971,-0.024982862142090136,2.9985979623552104,0.055591996759176254,0.06842301040887833,0.13401812314987185,0.04872821018099785,-0.035184596925973886,-10.024513292312623
42.99,2.700000047683716,186.0,21.644201278686523,30.35192108154297,-79.78278302022255,40.459013430793185,339.0962512207032,-0.0007917727343738079,-0.00040872854879125953,-0.9988279342651368,0.0483938567340374,0.02688705257893869,-0.027232084346979917,3.02585222709921,0.11484627425670625,-0.002485481556504965,0.12358004599809648,0.0019859451265074315,-0.17207482237368826,-10.081317822933196
43.19,2.5,185.0,21.710559844970703,29.57264709472656,-79.78278310692207,40.459013373813065,339.6838366699219,0.00022951536811888218,-0.0024672693107277155,-0.9988400936126708,0.0480884313583374,0.034927185258243086,-0.012604485851410848,3.0842697643155623,0.09849946945905684,0.04802783951163292,0.01579623483121395,0.012875482072122395,0.023820524169132117,-10.22609254360199
43.3,2.5,185.0,21.77316093444824,28.348073959350586,-79.78278313463454,40.45901338869658,339.9942462158204,0.0011125593446195128,-0.004166538827121258,-0.9988586902618408,0.047569457441568375,0.0225166830083055,-0.002987289210443783,3.120969271486029,0.01833251491189003,0.01814623549580574,-0.0023751535918563604,0.06710736114531755,0.0029566263221204284,-10.171680693626405
43.5,2.700000047683716,185.0,21.699291229248047,29.326141357421875,-79.78278310804538,40.459013367580106,340.5901171875,0.0016113674500957136,-0.0037254348862916227,-0.9988790154457092,0.04716312512755394,0.018979992825542698,0.004041646036817458,3.0680874314488387,0.08124619722366333,-0.006621483247727157,0.0697278380393982,0.07365242371335626,-0.04552358882501722,-9.636012005209924
43.69,2.5999999046325684,187.0,21.765649795532227,28.98421669006348,-79.78278312189009,40.45901337558869,341.18494293212893,0.0025200522504746914,-0.002908496418967843,-0.9988786578178406,0.0471874475479126,0.007762352497275866,-0.00847938248065373,3.0157467251972614,-0.07305602729320526,-0.08778176456689835,-0.032773230224847794,0.015701226694509386,-0.17208911150693895,-9.6421971899271
43.79,2.700000047683716,186.0,21.783178329467773,28.77746963500977,-79.7827831518007,40.45901340015122,341.48531219482425,0.003245878266170621,-0.0022985734976828107,-0.9988640546798706,0.0474855937063694,-0.003170955885575345,-0.012889132297435893,2.996165604625232,-0.05718833580613136,-0.013424222357571123,-0.0627630352973938,0.08448035247623921,0.2221289069764316,-9.596397703886034
43.89,2.5999999046325684,186.0,21.796951293945312,28.14132881164551,-79.78278316787132,40.45901340864935,341.7805850219727,0.0028658115770667787,-0.0017055069329217074,-0.9988398551940918,0.04804086685180664,0.01229497458268107,-0.01480988301389611,2.9918004979893964,0.036871664226055145,0.04163793846964836,0.005955080967396498,0.02561793770408258,-0.04312984837219119,-9.620039750933648
44.09,2.5,190.0,21.79444694519043,27.409765243530273,-79.78278322882619,40.45901345372396,342.3741442871094,0.0012243525125086308,-0.0003442031447775662,-0.998784601688385,0.04927221685647965,0.001983492999300551,-0.020239905336335545,2.9475536427965485,-0.1027262732386589,0.010698755271732807,-0.02908297441899776,0.01988141486886889,0.04885661138221622,-9.594797320961954
44.29,2.5,192.0,21.789438247680664,28.594579696655273,-79.7827831097414,40.459013394635384,342.6755587768555,-3.826851025223732e-05,-0.00175876182038337,-0.9987536668777466,0.04988070577383042,0.008175377041492245,-0.015898341563534514,2.958744610573525,-0.06222083419561386,-0.06594762206077576,-0.028650345280766487,0.03983507482800633,-0.07219837649725377,-9.625112795233726
44.4,2.5999999046325684,195.0,21.604135513305664,31.56854248046875,-79.78278323116696,40.45901336047221,343.25030395507815,-0.00025024870410561556,-0.00411683926358819,-0.9987245202064514,0.05032376945018768,0.03029661807043365,0.01845282102077584,2.9280455893158868,-0.03486890718340874,0.06597346812486649,-0.012404585257172585,0.02737387712113559,0.17368969542905688,-9.634034476876261
44.49,2.5999999046325684,192.0,21.71556663513184,28.85698699951172,-79.78278326466427,40.45901335789465,343.5435778808594,0.0011069622123613954,-0.004384310450404882,-0.9987195134162904,0.05038738250732422,0.039766825415267486,0.022555994874515515,2.9434301685020112,0.14026647806167605,0.003731608623638749,0.10162073373794556,0.07059739514719696,-0.15585976246744396,-9.893466664552687
44.69,2.700000047683716,193.0,21.844528198242188,27.870967864990234,-79.78278331514923,40.45901334274919,344.1245715332032,0.003475578967481852,-0.0020250254310667515,-0.9987834692001344,0.04914834350347519,0.03445937264514594,0.014841530180648781,2.9834702675386806,0.14830636978149414,-0.01773240603506565,0.11371269077062607,0.09115348733961584,-0.2987054684199393,-9.977576522827151
44.89,2.799999952316284,193.0,21.71431541442871,28.17313575744629,-79.78278335474161,40.45901334533212,344.42313262939456,0.0032526100985705853,-0.001099129905924201,-0.9988334774971008,0.048166614025831216,0.013084343165569348,0.006591787855470896,2.9836975970896806,-0.02152050100266933,0.03711651638150215,0.04453546926379204,0.03860052203759552,-0.2274905661866069,-9.87665358066559
45.0,2.700000047683716,194.0,21.779422760009766,28.37988090515137,-79.78278334325628,40.459013260278994,345.00719329833987,0.0015755825443193314,-0.0002401831006864085,-0.9989103674888612,0.0466424860060215,0.014289283810940337,0.012796344582363684,2.974868792317838,-0.0053595588542521,0.038692716509103775,0.004738449584692718,0.0046132430154830215,0.158042619433254,-9.796184198856354
45.19,2.700000047683716,194.0,21.83952140808105,27.12350082397461,-79.78278323629755,40.4590132515726,345.58865997314456,0.0006825376185588539,-0.0015731691382825375,-0.9989052414894104,0.046748921275138855,0.006351394572198734,0.014353342658609628,2.9806198386814016,0.0021959899459034204,0.06478451192378998,0.0016389010706916456,0.049316248213872316,-0.3067776044458151,-9.880992214679717
45.3,2.700000047683716,193.0,21.845781326293945,27.131452560424805,-79.78278325015738,40.45901324015875,345.886130065918,0.0008151474758051336,-0.0027974357362836604,-0.9988793134689332,0.04724081233143808,0.004820632983102355,0.02156695014104884,2.9704267605454344,-0.049834050238132484,-0.040488146245479584,-0.0427396222949028,0.01788169680861756,0.01050027455203235,-9.727380596995355
45.39,2.700000047683716,195.0,21.76690101623535,28.92060089111328,-79.7827832170919,40.459013207510345,346.1719958496094,0.0011287967208772898,-0.004235545173287393,-0.9988547563552856,0.04764577001333237,0.011886987900667705,0.025183536642132298,2.9573865009287004,0.037356320768594735,0.06450559943914412,-0.001435006852261722,0.09267210060730577,-0.02345400424674153,-9.698298300504684
45.6,2.9000000953674316,195.0,21.72683525085449,29.49312973022461,-79.78278324256058,40.45901318877712,346.7617556762696,0.0006678628269582987,-0.005598795600235461,-0.9987550377845764,0.04956554248929024,0.01484721944241952,0.03670256774896579,2.930602574163338,0.04593493416905403,-0.04693039506673813,-0.01145629584789276,0.10912903424352408,-0.2611296891979873,-9.659123709797859
45.69,3.0,193.0,21.875829696655273,26.84518814086914,-79.78278319855245,40.4590131181008,347.04913208007815,0.0001906736142700538,-0.005460960790514946,-0.9987185001373292,0.050315361469984055,0.0010990772570642878,0.036460833139716806,2.9362156948705325,-0.105788454413414,-0.011992168612778187,-0.11761177331209186,0.02763681453187019,0.2039862393401564,-9.652062027454377
