time,wind_speed,wind_angle,battery_voltage,battery_current,position_x,position_y,position_z,orientation_x,orientation_y,orientation_z,orientation_w,velocity_x,velocity_y,velocity_z,angular_x,angular_y,angular_z,linear_acceleration_x,linear_acceleration_y,linear_acceleration_z
0.0,0.10000000149011612,112.0,25.108625411987305,-0.12722837924957275,0.0,0.0,0.0,0.0,0.0,-0.0,1.0,0.0,0.0,0.0,-0.007993977516889572,-0.002969277324154973,-0.0042575420811772355,0.11693591681309046,0.054089248124510055,-9.80970120728016
0.1,0.10000000149011612,114.0,25.10361671447754,-0.14313192665576935,0.0,0.0,0.0,0.0,0.0,-0.0,1.0,0.0,0.0,0.0,0.0012669746065512302,-0.0021847847383469343,-0.0030192434787750244,0.1141160331107676,0.06253937923349441,-9.80830372273922
0.2,0.10000000149011612,114.0,25.11112976074219,-0.16698725521564484,0.0,0.0,0.0,0.0,0.0,-0.0,1.0,0.0,0.0,0.0,0.000968639797065407,0.003772527212277055,0.0099615640938282,0.1189562120474875,0.04732867911458016,-9.811467651128767
0.4,0.10000000149011612,116.0,25.11363220214844,-0.12722837924957275,0.0,0.0,0.0,0.0,0.0,-0.0,1.0,0.0,0.0,0.0,0.009865798056125641,0.0036558776628226037,0.0042137294076383105,0.10967377547174692,0.07491627196781338,-9.806787539720538
0.5,0.10000000149011612,117.0,25.11613655090332,-0.13518016040325165,0.0,0.0,0.0,0.0,0.0,-0.0,1.0,0.0,0.0,0.0,0.0004525533586274833,-0.0007387005025520921,0.0010185724822804332,0.11687000772915784,0.05310316088609398,-9.810021049976351
0.7,0.10000000149011612,118.0,25.11989402770996,-0.11132483184337616,0.0,0.0,0.0,0.0,0.0,-0.0,1.0,0.0,0.0,0.0,0.006938728969544172,0.0044504893012344855,0.011637041345238686,0.11063376037403942,0.07745317784138024,-9.806519737243653
0.89,0.10000000149011612,120.0,25.11613655090332,-0.11927660554647446,0.0,0.0,0.0,0.0,0.0,-0.0,1.0,0.0,0.0,0.0,-0.008867007680237293,-0.0010804138146340847,-0.00527148274704814,0.11323276550509034,0.06430557640269399,-9.808106086850168
1.0,0.10000000149011612,121.0,25.11238098144531,-0.11927660554647446,0.0,0.0,0.0,0.0,0.0,-0.0,1.0,0.0,0.0,0.0,0.002418127376586199,0.003853111760690808,0.006661048159003258,0.11044770928099752,0.07301752116065473,-9.806467697024344
1.2,0.10000000149011612,121.0,25.09986114501953,-0.11927660554647446,0.0,0.0,0.0,0.0,0.0,-0.0,1.0,0.0,0.0,0.0,-0.011064989492297173,-0.005648314021527767,-0.009060880169272423,0.11142407552339137,0.07412230687681585,-9.807365244627
1.3,0.10000000149011612,122.0,25.114885330200195,-0.11132483184337616,0.0,0.0,0.0,0.0,0.0,-0.0,1.0,0.0,0.0,0.0,-0.003049213672056794,0.001883543562144041,0.0006572951097041367,0.1151783351507038,0.06241805407684298,-9.808685545921326
1.5,0.10000000149011612,122.0,25.117389678955078,-0.11132483184337616,0.0,0.0,0.0,0.0,0.0,-0.0,1.0,0.0,0.0,0.0,-0.006213915534317493,-0.004789420403540134,-0.004948312882333994,0.1095201764255762,0.07815052226185801,-9.805947294831276
1.6,0.10000000149011612,121.0,25.114885330200195,-0.11927660554647446,0.0,0.0,0.0,0.0,0.0,-0.0,1.0,0.0,0.0,0.0,-0.010494359768927096,0.0010501686483621595,-0.004634514451026917,0.11700759088620545,0.05078112191520632,-9.811053668260577
1.7,0.10000000149011612,121.0,25.11363220214844,-0.12722837924957275,0.0,0.0,0.0,0.0,0.0,-0.0,1.0,0.0,0.0,0.0,0.0029296933207660913,0.002760877134278417,-9.616581337468233e-06,0.11161982933990658,0.07213107869960368,-9.807274612784386
1.9,0.10000000149011612,121.0,25.11613655090332,-0.12722837924957275,0.0,0.0,0.0,0.0,0.0,-0.0,1.0,0.0,0.0,0.0,-0.010751399211585522,-0.003916771151125431,-0.009469030424952507,0.11824812336824835,0.04709530211985112,-9.810716868638993
2.1,0.10000000149011612,121.0,25.11613655090332,-0.11927660554647446,0.0,0.0,0.0,0.0,0.0,-0.0,1.0,0.0,0.0,0.0,0.006530696526169777,0.003163669491186738,0.003685163334012032,0.11611894201487305,0.06127898449078203,-9.809707054495812
2.2,0.10000000149011612,121.0,25.11613655090332,-0.11927660554647446,0.0,0.0,0.0,0.0,0.0,-0.0,1.0,0.0,0.0,0.0,-0.009171947836875916,-0.002560239983722568,-0.0070723104290664205,0.11700611994601788,0.05272966085001827,-9.81090281009674
2.3,0.10000000149011612,121.0,25.11363220214844,-0.11132483184337616,0.0,0.0,0.0,0.0,0.0,-0.0,1.0,0.0,0.0,0.0,0.00729222362861037,0.0044079022482037536,0.01008467748761177,0.11761524450033906,0.051837517353706064,-9.81050052165985
2.5,0.10000000149011612,121.0,25.11363220214844,-0.11927660554647446,0.0,0.0,0.0,0.0,0.0,-0.0,1.0,0.0,0.0,0.0,-0.00033503025770187383,-0.0012259089853614569,-0.0032493076287209988,0.11473104142583908,0.06316450140438974,-9.8085311794281
2.6,0.10000000149011612,120.0,25.114885330200195,-0.11132483184337616,0.0,0.0,0.0,0.0,0.0,-0.0,1.0,0.0,0.0,0.0,0.004520338494330646,0.004459476098418236,0.00839322991669178,0.11752741749398413,0.047796154869720345,-9.812397358417511
2.81,0.10000000149011612,120.0,25.104867935180664,-0.13518016040325165,0.0,0.0,0.0,0.0,0.0,-0.0,1.0,0.0,0.0,0.0,0.005651840940117836,0.0011068873573094606,0.0040342556312680244,0.11018420998938384,0.07498663955368103,-9.806705093979836
2.89,0.10000000149011612,120.0,25.117389678955078,-0.11132483184337616,0.0,0.0,0.0,0.0,0.0,-0.0,1.0,0.0,0.0,0.0,-0.0038592654746025796,-0.0005992638762108983,0.003949096426367761,0.11747673857957125,0.05233401448465884,-9.810774171352387
3.11,0.10000000149011612,123.0,25.09986114501953,-0.11927660554647446,0.0,0.0,0.0,0.0,0.0,-0.0,1.0,0.0,0.0,0.0,0.00607729097828269,0.0057837278582155704,0.009379363618791105,0.10860127734951676,0.07875745411030949,-9.806675857901574
3.3,0.10000000149011612,122.0,25.114885330200195,-0.11132483184337616,0.0,0.0,0.0,0.0,0.0,-0.0,1.0,0.0,0.0,0.0,-0.010322955437004566,-0.003009007778018713,-0.004125389736145735,0.1140873269364238,0.060630811499431725,-9.80890013873577
3.4,0.10000000149011612,124.0,25.11613655090332,-0.11927660554647446,0.0,0.0,0.0,0.0,0.0,-0.0,1.0,0.0,0.0,0.0,0.005278696306049825,0.00597539683803916,0.010407865047454834,0.1116068741027266,0.07426529870834203,-9.80695184648037
3.5,0.10000000149011612,124.0,25.117389678955078,-0.11927660554647446,0.0,0.0,0.0,0.0,0.0,-0.0,1.0,0.0,0.0,0.0,-0.012382219545543194,-0.001078771660104394,-0.0069114984944462785,0.1108194094710052,0.07208274780772626,-9.807597379088405
3.7,0.10000000149011612,124.0,25.11613655090332,-0.11927660554647446,0.0,0.0,0.0,0.0,0.0,-0.0,1.0,0.0,0.0,0.0,-0.0037120555061846967,0.0038067488931119438,0.003696414642035961,0.11345667731948195,0.06419056897982955,-9.807873952388764
3.79,0.10000000149011612,124.0,25.11613655090332,-0.04771064221858978,0.0,0.0,0.0,0.0,0.0,-0.0,1.0,0.0,0.0,0.0,-0.0071037663146853456,-0.00464309798553586,-0.006996280048042536,0.11018722495995464,0.07757157482206822,-9.806448985934258
4.0,0.10000000149011612,125.0,25.10987663269043,-0.12722837924957275,0.0,0.0,0.0,0.0,0.0,-0.0,1.0,0.0,0.0,0.0,0.011130958795547484,0.005581829231232405,0.010250168852508068,0.11620350737124682,0.05703321613837034,-9.810430355072024
4.2,0.10000000149011612,124.0,25.114885330200195,-0.12722837924957275,0.0,0.0,0.0,0.0,0.0,-0.0,1.0,0.0,0.0,0.0,-0.003418078646063805,-0.003405863419175148,-0.003977620042860508,0.1101694549061358,0.07699695797637106,-9.806496933102608
4.3,0.10000000149011612,124.0,25.11613655090332,-0.12722837924957275,0.0,0.0,0.0,0.0,0.0,-0.0,1.0,0.0,0.0,0.0,-0.00830392073839903,-0.0010292207589372993,-0.0047351657412946216,0.1174153793603182,0.050537324999459086,-9.811750656366348
4.5,0.10000000149011612,123.0,25.10987663269043,-0.12722837924957275,0.0,0.0,0.0,0.0,0.0,-0.0,1.0,0.0,0.0,0.0,-0.0005225227214396,0.0010617721127346158,-0.0040373257361352435,0.11063893150538208,0.07402631204109639,-9.806825546622274
4.6,0.10000000149011612,123.0,25.11238098144531,-0.11927660554647446,0.0,0.0,0.0,0.0,0.0,-0.0,1.0,0.0,0.0,0.0,-0.008655635640025139,-0.0021268827840685844,-0.007236381527036429,0.1181541019678116,0.047135469750501216,-9.810785865783695
4.7,0.10000000149011612,123.0,25.11613655090332,-0.12722837924957275,0.0,0.0,0.0,0.0,0.0,-0.0,1.0,0.0,0.0,0.0,0.007500818930566311,0.004099755547940731,0.005467153154313564,0.11463696520775556,0.06408812850248069,-9.808423590660095
4.9,0.10000000149011612,123.0,25.11363220214844,-0.11927660554647446,0.0,0.0,0.0,0.0,0.0,-0.0,1.0,0.0,0.0,0.0,-0.0072078993543982514,-0.0038863848894834523,-0.009927395731210709,0.11715188920497895,0.0501365531841293,-9.810293530225756
5.0,0.10000000149011612,122.0,25.114885330200195,-0.11927660554647446,0.0,0.0,0.0,0.0,0.0,-0.0,1.0,0.0,0.0,0.0,0.005127592943608761,0.0044712042436003685,0.005476977210491896,0.11692454215139153,0.05780071801040323,-9.809342188239098
5.2,0.10000000149011612,121.0,25.11238098144531,-0.11927660554647446,0.0,0.0,0.0,0.0,0.0,-0.0,1.0,0.0,0.0,0.0,-0.004314316902309656,0.0005520889535546303,-0.014705942943692209,0.11660539381206035,0.05420232779346407,-9.810635007619858
5.3,0.10000000149011612,121.0,25.11112976074219,-0.15108370780944824,0.0,0.0,0.0,0.0,0.0,-0.0,1.0,0.0,0.0,0.0,0.007228675764054059,0.005782552994787693,0.008664395660161972,0.11638027600944045,0.05193819453008473,-9.809930418133737
5.5,0.10000000149011612,121.0,25.10361671447754,-0.14313192665576935,0.0,0.0,0.0,0.0,0.0,-0.0,1.0,0.0,0.0,0.0,-0.0029468743596225977,-0.002485669916495681,-0.005606623832136393,0.11269247364252805,0.05925085033290089,-9.808576787710187
5.7,0.10000000149011612,121.0,25.108625411987305,-0.17493902146816254,0.0,0.0,0.0,0.0,0.0,-0.0,1.0,0.0,0.0,0.0,0.00868544727563858,0.004181470256298781,0.006294941063970327,0.11839540011249484,0.04827048283070326,-9.811685167551039
5.79,0.10000000149011612,121.0,25.09860801696777,-0.15108370780944824,0.0,0.0,0.0,0.0,0.0,-0.0,1.0,0.0,0.0,0.0,0.002583688823506236,-0.00012310889724176377,-0.003987730015069246,0.11230134973302484,0.06570539069361983,-9.80848206281662
5.9,0.10000000149011612,121.0,25.10236549377441,-0.14313192665576935,0.0,0.0,0.0,0.0,0.0,-0.0,1.0,0.0,0.0,0.0,0.002825647359713912,0.003641701536253095,0.00576342362910509,0.1187428343575448,0.048481512498110536,-9.811103954315186
6.1,0.10000000149011612,121.0,25.11363220214844,-0.15108370780944824,0.0,0.0,0.0,0.0,0.0,-0.0,1.0,0.0,0.0,0.0,0.004699744284152986,0.005582529120147228,0.001267515355721116,0.11211179031059146,0.06789795495104045,-9.808090299367905
6.2,0.10000000149011612,121.0,25.11112976074219,-0.12722837924957275,0.0,0.0,0.0,0.0,0.0,-0.0,1.0,0.0,0.0,0.0,0.001179691986180842,0.0027661325875669718,0.009584766812622549,0.1191323046013713,0.04862101427279413,-9.811175290346148
6.4,0.10000000149011612,121.0,25.11112976074219,-0.14313192665576935,0.0,0.0,0.0,0.0,0.0,-0.0,1.0,0.0,0.0,0.0,0.0062019401229918,0.0015754266642034054,0.0014505438739433885,0.11199828123673797,0.07202836413402111,-9.806619139909747
6.6,0.10000000149011612,121.0,25.108625411987305,-0.13518016040325165,0.0,0.0,0.0,0.0,0.0,-0.0,1.0,0.0,0.0,0.0,-0.0008061803528107702,0.00560581823810935,0.007543888408690691,0.11746555577963592,0.04958259345497936,-9.810209330320356
6.7,0.10000000149011612,122.0,25.10987663269043,-0.09542128443717957,0.0,0.0,0.0,0.0,0.0,-0.0,1.0,0.0,0.0,0.0,0.006512768100947143,0.0017281040782108905,0.007891789078712462,0.11078312932513656,0.07672807741910219,-9.806053714156151
6.8,0.10000000149011612,123.0,25.11112976074219,-0.11132483184337616,0.0,0.0,0.0,0.0,0.0,-0.0,1.0,0.0,0.0,0.0,-0.003792280564084649,-0.0013223746791481972,0.0014727211091667414,0.11477439304813745,0.05321921898052097,-9.809178466200828
7.0,0.10000000149011612,124.0,25.10987663269043,-0.11132483184337616,0.0,0.0,0.0,0.0,0.0,-0.0,1.0,0.0,0.0,0.0,0.006130434572696686,0.0058717187494039536,0.009013785980641842,0.10955387100577356,0.07794254411011935,-9.805212884545329
7.2,0.10000000149011612,125.0,25.0798282623291,0.2465049922466278,0.0,0.0,0.0,0.0,0.0,-0.0,1.0,0.0,0.0,0.0,-0.007680697832256555,-0.002424524864181876,-0.00937372539192438,0.11497871669009327,0.06179683766327799,-9.808749865293503
7.3,0.10000000149011612,127.0,25.082332611083984,0.15903547406196594,0.0,0.0,0.0,0.0,0.0,-0.0,1.0,0.0,0.0,0.0,0.0033434033393859863,-1.707275259832386e-05,0.018443239852786064,0.11205267861485482,0.06518170857802033,-9.807899095416067
7.4,0.10000000149011612,129.0,25.08107948303223,0.15903547406196594,0.0,0.0,0.0,0.0,0.0,-0.0,1.0,0.0,0.0,0.0,-0.011304901912808418,-0.005310548469424248,-0.01507973112165928,0.107398194456473,0.05841522383037955,-9.805342108011246
7.6,0.10000000149011612,132.0,25.08107948303223,0.16698725521564484,0.0,0.0,0.0,0.0,0.0,-0.0,1.0,0.0,0.0,0.0,-0.0028145455289632078,0.00045360470539890246,-0.0009633777663111688,0.1115744220558554,0.0676752080116421,-9.809209456443787
7.8,0.10000000149011612,133.0,25.082332611083984,0.17493902146816254,0.0,0.0,0.0,0.0,0.0,-0.0,1.0,0.0,0.0,0.0,-0.011128613725304605,-0.004134487360715865,-0.002487502992153168,0.1089449109043926,0.08368055387400093,-9.808301968574524
7.9,0.10000000149011612,135.0,25.07607078552246,0.1908425688743592,0.0,0.0,0.0,0.0,0.0,-0.0,1.0,0.0,0.0,0.0,-0.0051661035977303964,-0.003397026564925909,0.010912719182670116,0.1142660507373512,0.05307348626665771,-9.809230506420137
8.1,0.10000000149011612,135.0,25.074819564819336,0.1908425688743592,0.0,0.0,0.0,0.0,0.0,-0.0,1.0,0.0,0.0,0.0,-0.004881868604570627,-0.003961557522416115,-0.010247803293168543,0.11254526998847723,0.07486551996320487,-9.809991813898089
8.2,0.10000000149011612,135.0,25.07732391357422,0.198794350028038,0.0,0.0,0.0,0.0,0.0,-0.0,1.0,0.0,0.0,0.0,-0.011114642955362795,-0.002589090261608362,-0.008360111154615879,0.1176731867529452,0.05011574075091632,-9.809839201569558
8.3,0.10000000149011612,136.0,24.87824821472168,0.4373475611209869,0.0,0.0,0.0,0.0,0.0,-0.0,1.0,0.0,0.0,0.0,-0.004135467112064362,0.003444308182224632,-0.002178821014240384,0.0978289245441556,0.07890100325457752,-9.79416866362095
8.49,0.10000000149011612,135.0,25.084835052490234,0.10337305814027786,0.0,0.0,0.0,0.0,0.0,-0.0,1.0,0.0,0.0,0.0,-0.011970472522079945,-0.007038731593638658,-0.0037037348374724392,0.1100836378801614,0.03625215689186007,-9.814355006217957
8.6,0.10000000149011612,136.0,25.08107948303223,0.09542128443717957,0.0,0.0,0.0,0.0,0.0,-0.0,1.0,0.0,0.0,0.0,0.005557574797421694,0.012195157818496227,0.001431126263923943,0.10933611704036594,0.0565169389732182,-9.801167780756947
8.8,0.10000000149011612,135.0,25.06480407714844,0.15108370780944824,0.0,0.0,0.0,0.0,0.0,-0.0,1.0,0.0,0.0,0.0,-0.010054755955934523,-0.004287678748369217,-0.0069893035106360895,0.12834906963631512,0.06494533031713218,-9.817155822515488
8.9,0.10000000149011612,133.0,25.08107948303223,0.11927660554647446,0.0,0.0,0.0,0.0,0.0,-0.0,1.0,0.0,0.0,0.0,0.0058978460729122145,0.00030003898427821696,0.007721112109720706,0.09800572972744703,0.0645614149281755,-9.802786290049553
9.1,0.10000000149011612,130.0,25.06480407714844,0.15903547406196594,0.0,0.0,0.0,0.0,0.0,-0.0,1.0,0.0,0.0,0.0,-0.0030172730330377817,0.01112473290413618,-0.006043766625225544,0.11120236555114388,0.05499283023644239,-9.817079808712004
9.29,0.10000000149011612,127.0,25.06480407714844,0.3101191818714142,0.0,0.0,0.0,0.0,0.0,-0.0,1.0,0.0,0.0,0.0,0.006439814809709786,0.002956833224743605,0.005116734653711319,0.11928253236226738,0.05701957111246885,-9.80106077671051
9.39,0.10000000149011612,126.0,25.058542251586914,0.3339745104312897,0.0,0.0,0.0,0.0,0.0,-0.0,1.0,0.0,0.0,0.0,-0.005125200375914575,-0.0040232217870652676,-0.007584402337670326,0.11192842528223992,0.05111703531816602,-9.802201568484307
9.6,0.10000000149011612,125.0,25.048526763916016,0.3578298389911652,0.0,0.0,0.0,0.0,0.0,-0.0,1.0,0.0,0.0,0.0,0.007903330028057098,0.0002765399985946715,0.0076319370418787,0.1115055071376264,0.0536688881367445,-9.806708017587662
9.7,0.10000000149011612,126.0,25.047273635864247,0.37373337149620056,0.0,0.0,0.0,0.0,0.0,-0.0,1.0,0.0,0.0,0.0,-0.0005892488406971098,0.002952273236587644,-0.005291171371936797,0.11256520533934236,0.06059746409766376,-9.811179968118667
9.89,0.10000000149011612,125.0,25.05603790283203,0.3896369338035584,0.0,0.0,0.0,0.0,0.0,-0.0,1.0,0.0,0.0,0.0,0.0100015290081501,0.004761253483593464,0.008967348374426365,0.12468573421239855,0.04839964234270155,-9.804728735089304
10.0,0.10000000149011612,125.0,25.048526763916016,0.3816851377487183,0.0,0.0,0.0,0.0,0.0,-0.0,1.0,0.0,0.0,0.0,-0.0015962402103468776,-0.002379160840064287,-0.0035008694976568213,0.11247880359180272,0.05800014917738736,-9.80263309299946
10.1,0.10000000149011612,125.0,25.04602241516113,0.3816851377487183,0.0,0.0,0.0,0.0,0.0,-0.0,1.0,0.0,0.0,0.0,0.006781394593417645,0.0035689501091837883,0.008993347175419329,0.12092382752336565,0.05156241042539478,-9.81561917424202
10.29,0.10000000149011612,125.0,25.052282333374023,0.3816851377487183,0.0,0.0,0.0,0.0,0.0,-0.0,1.0,0.0,0.0,0.0,-0.0009274983895011246,0.0017565194284543395,-0.004194481298327446,0.11603902702219784,0.0607797053642571,-9.812959860563279
10.5,0.10000000149011612,125.0,25.0510311126709,0.3975887000560761,0.0,0.0,0.0,0.0,0.0,-0.0,1.0,0.0,0.0,0.0,0.0047632050700485715,0.0041405088268220425,0.012057987041771412,0.11385303631424905,0.0470099784526974,-9.808700748682023
10.6,0.10000000149011612,126.0,25.03976249694824,0.3896369338035584,0.0,0.0,0.0,0.0,0.0,-0.0,1.0,0.0,0.0,0.0,0.004079841542989016,-0.003102597082033753,4.551614892989164e-06,0.10973173599690199,0.06656220878474414,-9.807286891937256
10.7,0.10000000149011612,126.0,25.04977798461914,0.3975887000560761,0.0,0.0,0.0,0.0,0.0,-0.0,1.0,0.0,0.0,0.0,-0.0024202328640967607,0.004207800608128309,0.006979296449571848,0.12827261729165912,0.04933631147257984,-9.809847972393037
10.9,0.10000000149011612,125.0,25.04977798461914,0.3975887000560761,0.0,0.0,0.0,0.0,0.0,-0.0,1.0,0.0,0.0,0.0,0.005934507586061954,0.012103482149541378,0.0065511344000697145,0.1087761273700744,0.07436845638323576,-9.796359030604364
11.1,0.10000000149011612,125.0,25.0510311126709,0.40554046630859375,0.0,0.0,0.0,0.0,0.0,-0.0,1.0,0.0,0.0,0.0,-0.0040345233865082255,0.003054050263017416,0.0030731656588613987,0.1106497305817902,0.05361505263950676,-9.809203609228137
11.2,0.10000000149011612,124.0,25.04977798461914,0.3975887000560761,0.0,0.0,0.0,0.0,0.0,-0.0,1.0,0.0,0.0,0.0,0.008927988819777966,-0.003678015666082501,0.009056467562913895,0.10842833681032064,0.08026354154571891,-9.812548216581343
11.4,0.10000000149011612,123.0,25.04602241516113,0.4214440286159515,0.0,0.0,0.0,0.0,0.0,-0.0,1.0,0.0,0.0,0.0,-0.01128108985722065,-0.008239628747105598,-0.0067756357602775106,0.10562413095496596,0.0541228330694139,-9.797889246940613
11.5,0.10000000149011612,123.0,25.047273635864247,0.40554046630859375,0.0,0.0,0.0,0.0,0.0,-0.0,1.0,0.0,0.0,0.0,0.003266617190092802,0.0014336395543068647,0.01386941596865654,0.11012318881228568,0.060924798538908365,-9.795034051537517
11.6,0.10000000149011612,121.0,25.047273635864247,0.3975887000560761,0.0,0.0,0.0,0.0,0.0,-0.0,1.0,0.0,0.0,0.0,-0.010405615903437138,-0.0005957208923064173,-0.008155027404427528,0.11936588259413836,0.06232564066071064,-9.797653019428251
11.8,0.10000000149011612,121.0,25.047273635864247,0.3975887000560761,0.0,0.0,0.0,0.0,0.0,-0.0,1.0,0.0,0.0,0.0,-0.002324862405657768,0.010130457580089569,0.003896777518093586,0.122937791319564,0.06437126621603965,-9.810475963354113
12.0,0.10000000149011612,121.0,25.048526763916016,0.40554046630859375,0.0,0.0,0.0,0.0,0.0,-0.0,1.0,0.0,0.0,0.0,-0.00648924196138978,0.0008702600607648492,-0.008733037859201431,0.09256590055301786,0.07621446347795427,-9.80089471578598
12.1,0.10000000149011612,120.0,25.04101371765137,0.3816851377487183,0.0,0.0,0.0,0.0,0.0,-0.0,1.0,0.0,0.0,0.0,-0.004811326507478952,-0.0024573931004852057,-0.004228697624057531,0.10965697386302056,0.056143740434199584,-9.807561711072925
12.2,0.10000000149011612,120.0,25.04602241516113,0.4293957948684693,0.0,0.0,0.0,0.0,0.0,-0.0,1.0,0.0,0.0,0.0,0.0005853750626556575,-0.007822585292160511,-0.005302057601511478,0.10388070138171317,0.07702911766245961,-9.806352506875992
12.4,0.10000000149011612,120.0,25.047273635864247,0.3975887000560761,0.0,0.0,0.0,0.0,0.0,-0.0,1.0,0.0,0.0,0.0,0.007513226009905337,-0.0021108502987772226,0.00823906995356083,0.11645517518743875,0.04856660775840282,-9.805750243663786
12.6,0.10000000149011612,119.0,25.04351806640625,0.4214440286159515,0.0,0.0,0.0,0.0,0.0,-0.0,1.0,0.0,0.0,0.0,0.0017964356811717153,-0.005741108674556017,-0.0003087870718445629,0.11883734911680224,0.06409716884605587,-9.797688687443731
12.7,0.10000000149011612,120.0,25.04351806640625,0.3816851377487183,0.0,0.0,0.0,0.0,0.0,-0.0,1.0,0.0,0.0,0.0,-0.012224321253597736,-0.00013953617599327117,-0.005832519382238388,0.13620771833695472,0.05528287497349084,-9.818529918193818
12.9,0.10000000149011612,119.0,25.04101371765137,0.3498780429363251,0.0,0.0,0.0,0.0,0.0,-0.0,1.0,0.0,0.0,0.0,0.006804088596254586,0.008335249498486519,0.011294236406683922,0.12351007841527464,0.055241953600198034,-9.80295527458191
13.0,0.10000000149011612,119.0,25.03976249694824,0.3975887000560761,0.0,0.0,0.0,0.0,0.0,-0.0,1.0,0.0,0.0,0.0,-0.006628721486777067,0.002240729983896017,-0.010042872279882431,0.11972348551265895,0.052246753927320234,-9.81263124704361
13.1,0.10000000149011612,120.0,25.03725814819336,0.3816851377487183,0.0,0.0,0.0,0.0,0.0,-0.0,1.0,0.0,0.0,0.0,0.008014868944883347,0.006927289068698883,0.0005532157374545932,0.11896047868765892,0.06276927530765533,-9.815848385095595
13.3,0.10000000149011612,121.0,25.047273635864247,0.37373337149620056,0.0,0.0,0.0,0.0,0.0,-0.0,1.0,0.0,0.0,0.0,-0.0028886997606605287,-0.004337500315159559,-0.00843869149684906,0.10715559896081686,0.06179515658877791,-9.823224062919616
13.4,0.10000000149011612,120.0,25.038509368896484,0.41349223256111145,0.0,0.0,0.0,0.0,0.0,-0.0,1.0,0.0,0.0,0.0,0.007148279808461665,-7.3281403274449985e-06,0.006428736727684736,0.1151915827486664,0.0611767267389223,-9.812983249425887
13.6,0.10000000149011612,120.0,25.04351806640625,0.3816851377487183,0.0,0.0,0.0,0.0,0.0,-0.0,1.0,0.0,0.0,0.0,-0.0023604235611855984,-0.0111297108232975,-0.00519745796918869,0.11311809612438085,0.055363571117632085,-9.805539159178734
13.8,0.10000000149011612,119.0,25.04477119445801,0.41349223256111145,0.0,0.0,0.0,0.0,0.0,-0.0,1.0,0.0,0.0,0.0,0.0072827739641070375,-0.0026929962914437056,0.010946741327643394,0.12505186127498746,0.04913253143895418,-9.808880258202553
13.9,0.10000000149011612,120.0,25.04477119445801,0.3816851377487183,0.0,0.0,0.0,0.0,0.0,-0.0,1.0,0.0,0.0,0.0,0.003628505626693368,0.003500330029055476,-0.002203816780820489,0.12879995391704144,0.06322022811044008,-9.806361862421037
13.99,0.10000000149011612,120.0,25.032249450683594,0.41349223256111145,0.0,0.0,0.0,0.0,0.0,-0.0,1.0,0.0,0.0,0.0,0.0037250150926411148,0.007782515604048967,0.010455978102982044,0.11598081981763245,0.03763427193509415,-9.796675949692727
14.2,0.10000000149011612,120.0,25.042266845703125,0.3896369338035584,0.0,0.0,0.0,0.0,0.0,-0.0,1.0,0.0,0.0,0.0,0.00802638754248619,0.012279171496629715,0.0055522071197628975,0.11565473704598846,0.07128057834226638,-9.801164857149123
14.4,0.10000000149011612,120.0,25.04101371765137,0.3896369338035584,0.0,0.0,0.0,0.0,0.0,-0.0,1.0,0.0,0.0,0.0,-0.0015297221252694724,0.010697010904550552,0.00723187020048499,0.10560058677569033,0.045362484329380094,-9.802832483053207
14.51,0.10000000149011612,122.0,25.04351806640625,0.3975887000560761,0.0,0.0,0.0,0.0,0.0,-0.0,1.0,0.0,0.0,0.0,0.010582549497485159,0.005327933933585882,0.0065054120495915396,0.1028045487497002,0.08003976677544415,-9.809965501427653
14.6,0.10000000149011612,123.0,25.04351806640625,0.4214440286159515,0.0,0.0,0.0,0.0,0.0,-0.0,1.0,0.0,0.0,0.0,-0.008464557118713856,-0.006173731759190559,-0.003384839743375778,0.11103559199720622,0.06203513910993934,-9.81158225655556
14.8,0.10000000149011612,124.0,25.03350257873535,0.3975887000560761,0.0,0.0,0.0,0.0,0.0,-0.0,1.0,0.0,0.0,0.0,0.0049667060375213614,-0.003202450927346945,0.0039505832828581324,0.10478423324413598,0.07918138638138772,-9.807832437157634
14.9,0.10000000149011612,124.0,25.04101371765137,0.41349223256111145,0.0,0.0,0.0,0.0,0.0,-0.0,1.0,0.0,0.0,0.0,-0.00967678613960743,-0.013173320330679415,-0.007059359923005105,0.1197243900038302,0.06334773852489889,-9.797391648888588
15.1,0.10000000149011612,126.0,25.042266845703125,0.3975887000560761,0.0,0.0,0.0,0.0,0.0,-0.0,1.0,0.0,0.0,0.0,0.0014167960034683347,-0.0022622817195951947,0.005052948370575905,0.11493372967466713,0.06177608004771173,-9.800390101075173
15.2,0.10000000149011612,127.0,25.04351806640625,0.41349223256111145,0.0,0.0,0.0,0.0,0.0,-0.0,1.0,0.0,0.0,0.0,-0.010968334972858429,-0.0016398417064920068,-0.012755285017192364,0.12588709948584434,0.0805753351841122,-9.812598502635957
15.4,0.10000000149011612,129.0,25.04477119445801,0.41349223256111145,0.0,0.0,0.0,0.0,0.0,-0.0,1.0,0.0,0.0,0.0,-0.004237216897308826,0.006099102087318897,0.00256291450932622,0.12167212494648992,0.0537065204512328,-9.809417032599447
15.6,0.10000000149011612,131.0,25.04477119445801,0.4214440286159515,0.0,0.0,0.0,0.0,0.0,-0.0,1.0,0.0,0.0,0.0,-0.0036889326293021436,0.006374236661940813,-0.008092837408185005,0.11340868446975945,0.07831878502853215,-9.811072379350662
15.7,0.10000000149011612,134.0,25.04351806640625,0.41349223256111145,0.0,0.0,0.0,0.0,0.0,-0.0,1.0,0.0,0.0,0.0,-0.00719876866787672,0.0006046407506801188,-0.006127177271991968,0.10248937468975784,0.04618587279226631,-9.796377156972886
15.9,0.10000000149011612,136.0,25.042266845703125,0.4214440286159515,0.0,0.0,0.0,0.0,0.0,-0.0,1.0,0.0,0.0,0.0,0.00023626290203537792,0.0009359296527691183,-0.004333140328526497,0.09588722867891193,0.07490702605806293,-9.805766031146053
16.0,0.10000000149011612,140.0,25.04477119445801,0.41349223256111145,0.0,0.0,0.0,0.0,0.0,-0.0,1.0,0.0,0.0,0.0,-0.008453154005110264,-0.006638562772423029,-0.006559903267771007,0.10490386362187563,0.042318309657275684,-9.794842847585679
16.1,0.10000000149011612,142.0,25.047273635864247,0.41349223256111145,0.0,0.0,0.0,0.0,0.0,-0.0,1.0,0.0,0.0,0.0,0.0017320980550721288,-0.006670793052762747,-0.0006321112741716206,0.1069226970523596,0.06593634200748058,-9.80815988123417
16.3,0.10000000149011612,150.0,25.04477119445801,0.41349223256111145,0.0,0.0,0.0,0.0,0.0,-0.0,1.0,0.0,0.0,0.0,-0.011948223225772379,-0.010885134339332579,-0.007225490640848875,0.12626285618171096,0.0452327629365027,-9.80986843764782
16.4,0.10000000149011612,157.0,25.042266845703125,0.4214440286159515,0.0,0.0,0.0,0.0,0.0,-0.0,1.0,0.0,0.0,0.0,0.00296326563693583,0.001382585964165628,0.0056410925462842,0.12137426412664355,0.05449564788490534,-9.799674986600877
16.6,0.10000000149011612,169.0,25.03976249694824,0.41349223256111145,0.0,0.0,0.0,0.0,0.0,-0.0,1.0,0.0,0.0,0.0,-0.00706081371754408,-0.0005856464849784969,-0.007226546294987202,0.13981734160333872,0.05880778670310975,-9.81910294532776
16.7,0.10000000149011612,175.0,25.04477119445801,0.4214440286159515,0.0,0.0,0.0,0.0,0.0,-0.0,1.0,0.0,0.0,0.0,0.009460190311074257,0.011456798762083057,0.011743864975869656,0.1184663981013,0.05400574257597328,-9.811762350797654
16.9,0.0,188.0,25.042266845703125,0.41349223256111145,0.0,0.0,0.0,0.0,0.0,-0.0,1.0,0.0,0.0,0.0,-0.005232070107012987,0.004307569470256567,-0.009456682950258257,0.11410178052261473,0.05408013925887645,-9.810619804859163
17.1,0.0,191.0,25.04101371765137,0.41349223256111145,0.0,0.0,0.0,0.0,0.0,-0.0,1.0,0.0,0.0,0.0,0.009638411924242972,0.00859171897172928,0.010377394035458565,0.1137838564440608,0.05644222252070904,-9.810739088058472
17.2,0.0,197.0,25.04351806640625,0.40554046630859375,0.0,0.0,0.0,0.0,0.0,-0.0,1.0,0.0,0.0,0.0,0.0006080739549361169,-0.005979146808385849,-0.007399064023047686,0.1063995174318552,0.06420998356305062,-9.817610735893249
17.4,0.0,200.0,25.03976249694824,0.41349223256111145,0.0,0.0,0.0,0.0,0.0,-0.0,1.0,0.0,0.0,0.0,0.0063800630159676075,0.0006004607421346009,0.007213267497718334,0.1121011008694768,0.04994115568231792,-9.813725845813753
17.5,0.0,205.0,25.03475379943848,0.40554046630859375,0.0,0.0,0.0,0.0,0.0,-0.0,1.0,0.0,0.0,0.0,0.0039284201338887215,-0.010222962126135826,-0.005751964170485735,0.11539820873178545,0.06692447120323777,-9.805272526144982
17.6,0.0,208.0,25.038509368896484,0.41349223256111145,0.0,0.0,0.0,0.0,0.0,-0.0,1.0,0.0,0.0,0.0,0.002093530260026455,-0.005027689039707186,0.008130457252264023,0.1230707515217364,0.04514866353012622,-9.809482521414758
17.8,0.0,214.0,25.04101371765137,0.41349223256111145,0.0,0.0,0.0,0.0,0.0,-0.0,1.0,0.0,0.0,0.0,0.006501538213342428,0.005709714256227016,0.00480763940140605,0.12241523296572268,0.07002614958677443,-9.807415530681613
17.9,0.0,215.0,25.03725814819336,0.41349223256111145,0.0,0.0,0.0,0.0,0.0,-0.0,1.0,0.0,0.0,0.0,-0.0005870172171853483,0.01025658193975687,0.006437202449887991,0.12911558479070664,0.05675280103459954,-9.824333864450457
18.09,0.0,212.0,25.042266845703125,0.41349223256111145,0.0,0.0,0.0,0.0,0.0,-0.0,1.0,0.0,0.0,0.0,0.0072211651131510735,0.01110825501382351,0.005347296595573425,0.1120275173150003,0.07631483915727585,-9.80494683623314
18.2,0.0,212.0,25.047273635864247,0.4930099844932556,0.0,0.0,0.0,0.0,0.0,-0.0,1.0,0.0,0.0,0.0,-0.006773719564080238,0.005313948262482882,-0.0016481755301356313,0.10755573123693468,0.057840182147920124,-9.810357849597931
18.4,0.0,210.0,25.036006927490234,0.41349223256111145,0.0,0.0,0.0,0.0,0.0,-0.0,1.0,0.0,0.0,0.0,0.005756496917456389,0.004043507855385542,0.009043807163834572,0.09746809652075172,0.07442498708143831,-9.801863599419594
18.6,0.0,207.0,25.03725814819336,0.40554046630859375,0.0,0.0,0.0,0.0,0.0,-0.0,1.0,0.0,0.0,0.0,-0.007068262901157141,-0.009364350698888302,-0.009019392542541029,0.09461375992745162,0.06320730028208346,-9.795280219316485
18.7,0.0,203.0,25.04101371765137,0.41349223256111145,0.0,0.0,0.0,0.0,0.0,-0.0,1.0,0.0,0.0,0.0,-0.00016991510346997532,-0.0044008721597492695,0.007597096730023622,0.10678742537274956,0.06964187331497669,-9.8037276917696
18.8,0.0,201.0,25.03976249694824,0.41349223256111145,0.0,0.0,0.0,0.0,0.0,-0.0,1.0,0.0,0.0,0.0,-0.01131642609834671,-0.011199971660971642,-0.010430966503918173,0.12279844486154615,0.07368633756414056,-9.802643033266069
19.0,0.0,194.0,25.03350257873535,0.4214440286159515,0.0,0.0,0.0,0.0,0.0,-0.0,1.0,0.0,0.0,0.0,-0.005375445820391178,-0.00023992173373699188,0.0012652056757360695,0.1230075102299452,0.060758902067318564,-9.807833021879196
19.1,0.0,191.0,25.03725814819336,0.40554046630859375,0.0,0.0,0.0,0.0,0.0,-0.0,1.0,0.0,0.0,0.0,-0.003608883358538151,0.0006130558904260397,-0.008062628097832203,0.12294807876460255,0.08288749784231186,-9.808435869812966
19.3,0.0,180.0,25.03976249694824,0.4532511234283447,0.0,0.0,0.0,0.0,0.0,-0.0,1.0,0.0,0.0,0.0,-0.006128087174147368,0.007102651987224817,-0.0026761170011013746,0.1162036170065403,0.05031881272327155,-9.804432281255725
19.5,0.0,176.0,25.03976249694824,0.40554046630859375,0.0,0.0,0.0,0.0,0.0,-0.0,1.0,0.0,0.0,0.0,-0.0035047102719545364,0.0052099223248660564,-0.0020303830970078707,0.10033938090316953,0.07189341679215433,-9.795704727172852
19.6,0.0,171.0,25.03099822998047,0.3975887000560761,0.0,0.0,0.0,0.0,0.0,-0.0,1.0,0.0,0.0,0.0,-0.012231901288032532,-0.004354356788098812,-0.009299376048147678,0.10464778298512102,0.04765920668374747,-9.805250306725505
19.8,0.0,170.0,25.03099822998047,0.3657816052436829,0.0,0.0,0.0,0.0,0.0,-0.0,1.0,0.0,0.0,0.0,0.003062181640416384,-0.0017120849806815386,-0.0021873116493225093,0.09812302121892573,0.06751928378362207,-9.799586693644523
19.9,0.0,164.0,25.02974510192871,0.3896369338035584,0.0,0.0,0.0,0.0,0.0,-0.0,1.0,0.0,0.0,0.0,-0.00933686550706625,-0.010404272004961971,-0.01054233405739069,0.1062821893952787,0.06024722958449275,-9.817864505052569
20.01,0.0,163.0,25.01972961425781,0.3657816052436829,0.0,0.0,0.0,0.0,0.0,-0.0,1.0,0.0,0.0,0.0,0.0006740815588273107,-0.007955442182719706,0.002559103770181537,0.1177903868816793,0.060975093729794025,-9.802883938550947
20.2,0.0,163.0,25.03725814819336,0.40554046630859375,0.0,0.0,0.0,0.0,0.0,-0.0,1.0,0.0,0.0,0.0,-0.008022848516702652,-0.011786794289946556,-0.00955866277217865,0.123141018608585,0.05338143810164184,-9.814187775850296
20.3,0.0,164.0,25.038509368896484,0.40554046630859375,0.0,0.0,0.0,0.0,0.0,-0.0,1.0,0.0,0.0,0.0,0.009562008082866669,0.0027271769940853123,0.006965074688196182,0.1385049523226917,0.06300531095825136,-9.817314866781237
20.5,0.0,169.0,25.038509368896484,0.3975887000560761,0.0,0.0,0.0,0.0,0.0,-0.0,1.0,0.0,0.0,0.0,-0.0021349445451051,0.0008257056470029057,-0.0031244445126503697,0.12321786381304264,0.05270322960801423,-9.811978697776793
20.6,0.0,172.0,25.032249450683594,0.3657816052436829,0.0,0.0,0.0,0.0,0.0,-0.0,1.0,0.0,0.0,0.0,0.010312273167073728,0.014156158082187176,0.010495269671082495,0.12344795174896718,0.060418973271735024,-9.811795095205307
20.8,0.0,179.0,25.036006927490234,0.40554046630859375,0.0,0.0,0.0,0.0,0.0,-0.0,1.0,0.0,0.0,0.0,-0.008752326481044292,0.006563247181475162,-0.002390597481280565,0.10185059378854933,0.05407601879909635,-9.793235448002816
20.9,0.0,181.0,25.03976249694824,0.3975887000560761,0.0,0.0,0.0,0.0,0.0,-0.0,1.0,0.0,0.0,0.0,0.0028633270412683487,0.006496141199022532,0.0063651427626609785,0.10694045796990397,0.057156208665110175,-9.81281718850136
21.1,0.0,184.0,25.03976249694824,0.41349223256111145,0.0,0.0,0.0,0.0,0.0,-0.0,1.0,0.0,0.0,0.0,-0.0086772246286273,-0.0035312713589519275,-0.0055938041768968105,0.09974946993403136,0.055181270465254784,-9.799125933051107
21.2,0.0,182.0,25.03976249694824,0.4214440286159515,0.0,0.0,0.0,0.0,0.0,-0.0,1.0,0.0,0.0,0.0,0.006851525045931339,0.0015545773785561323,0.0069386595860123634,0.1074492479581386,0.0487712877150625,-9.809271436929702
21.4,0.10000000149011612,182.0,25.03725814819336,0.40554046630859375,0.0,0.0,0.0,0.0,0.0,-0.0,1.0,0.0,0.0,0.0,-0.009539860300719738,-0.006728973239660263,-0.007498806342482567,0.11152229961007834,0.05783485569991172,-9.79580588400364
21.5,0.10000000149011612,182.0,25.038509368896484,0.4293957948684693,0.0,0.0,0.0,0.0,0.0,-0.0,1.0,0.0,0.0,0.0,0.002080893144011497,-0.00505370507016778,0.0051103802397847176,0.11959919563494625,0.04161359226331115,-9.803451703190804
21.7,0.10000000149011612,180.0,25.038509368896484,0.40554046630859375,0.0,0.0,0.0,0.0,0.0,-0.0,1.0,0.0,0.0,0.0,-0.011462697759270668,-0.008341891691088676,-0.01333911530673504,0.12356407379731535,0.06792862999252976,-9.80039068579674
21.91,0.10000000149011612,177.0,25.01847648620605,0.3975887000560761,0.0,0.0,0.0,0.0,0.0,-0.0,1.0,0.0,0.0,0.0,0.00011274377175141126,0.007209653500467539,0.007449804805219173,0.1168967678770423,0.04601519348099828,-9.805656103491783
22.01,0.10000000149011612,169.0,25.028493881225586,0.37373337149620056,0.0,0.0,0.0,0.0,0.0,-0.0,1.0,0.0,0.0,0.0,-0.007660452276468277,-0.0004700580902863294,-0.008606849238276482,0.11850345483049753,0.07219155170023442,-9.803738216757775
22.1,0.10000000149011612,163.0,25.036006927490234,0.4214440286159515,0.0,0.0,0.0,0.0,0.0,-0.0,1.0,0.0,0.0,0.0,-0.0002661800244823098,0.010152473114430904,0.00518469698727131,0.10224969366565348,0.04199063260573894,-9.79095795750618
22.3,0.10000000149011612,152.0,25.03976249694824,0.40554046630859375,0.0,0.0,0.0,0.0,0.0,-0.0,1.0,0.0,0.0,0.0,-0.01021737977862358,-0.0009493269608356061,-0.0048897317610681066,0.10535490321926773,0.07426266289316118,-9.804912922382355
22.4,0.10000000149011612,146.0,25.03976249694824,0.4214440286159515,0.0,0.0,0.0,0.0,0.0,-0.0,1.0,0.0,0.0,0.0,-0.006225180812180042,0.0013035893207415938,-0.0005481780390255153,0.10558691890910267,0.05368732057046145,-9.807341271042823
22.6,0.10000000149011612,135.0,25.03475379943848,0.40554046630859375,0.0,0.0,0.0,0.0,0.0,-0.0,1.0,0.0,0.0,0.0,-0.00164816586766392,-0.00484657334163785,-0.01051956508308649,0.10645408839918674,0.0773701747879386,-9.807572820782662
22.8,0.10000000149011612,129.0,25.03475379943848,0.41349223256111145,0.0,0.0,0.0,0.0,0.0,-0.0,1.0,0.0,0.0,0.0,-0.01159603800624609,-0.005460941232740879,-0.008508788421750069,0.11036054008640347,0.06671176046133041,-9.811050159931185
22.9,0.10000000149011612,121.0,25.03099822998047,0.40554046630859375,0.0,0.0,0.0,0.0,0.0,-0.0,1.0,0.0,0.0,0.0,0.0019649819005280733,-0.007121858187019825,-0.0030183088965713978,0.1176268475688994,0.07314706439618021,-9.808994278907775
23.0,0.10000000149011612,118.0,25.032249450683594,0.40554046630859375,0.0,0.0,0.0,0.0,0.0,-0.0,1.0,0.0,0.0,0.0,-0.013790453784167768,-0.0077661359682679185,-0.006667319685220718,0.11961194987408814,0.0706809281045571,-9.809582508802414
23.19,0.10000000149011612,113.0,25.036006927490234,0.4214440286159515,0.0,0.0,0.0,0.0,0.0,-0.0,1.0,0.0,0.0,0.0,0.0006551311234943569,0.0021555451676249504,0.009203728288412094,0.11600133075378835,0.06355191598646343,-9.79968551158905
23.3,0.10000000149011612,113.0,25.03725814819336,0.40554046630859375,0.0,0.0,0.0,0.0,0.0,-0.0,1.0,0.0,0.0,0.0,-0.008352769538760185,-0.001961373491212725,-0.007489593233913183,0.11399813862517474,0.0771562215127051,-9.814252095222473
23.5,0.10000000149011612,114.0,25.03475379943848,0.4293957948684693,0.0,0.0,0.0,0.0,0.0,-0.0,1.0,0.0,0.0,0.0,0.009802968241274357,0.006082598119974136,0.009932593442499638,0.11151365669444203,0.04787743116728962,-9.802880430221556
23.7,0.10000000149011612,116.0,25.025989532470703,0.3975887000560761,0.0,0.0,0.0,0.0,0.0,-0.0,1.0,0.0,0.0,0.0,-0.007776031270623206,0.0004919382045045495,-0.006263584829866886,0.10765197275206448,0.07358142572455109,-9.803654601573943
23.8,0.10000000149011612,119.0,25.025989532470703,0.3975887000560761,0.0,0.0,0.0,0.0,0.0,-0.0,1.0,0.0,0.0,0.0,0.00865230057388544,0.01071591768413782,0.009784596040844916,0.11970900451764464,0.06451710399705916,-9.821348276138307
23.89,0.10000000149011612,120.0,25.02348518371582,0.4214440286159515,0.0,0.0,0.0,0.0,0.0,-0.0,1.0,0.0,0.0,0.0,-0.00016838400915730745,0.0018613856518641114,-0.004901106003671885,0.09460662449710072,0.07726321642287076,-9.803579172492027
24.1,0.10000000149011612,122.0,25.032249450683594,0.41349223256111145,0.0,0.0,0.0,0.0,0.0,-0.0,1.0,0.0,0.0,0.0,-0.00800773873925209,-0.002257080981507897,-0.00540053378790617,0.10260826502926647,0.04519415304064752,-9.805738549232483
24.2,0.10000000149011612,123.0,25.02974510192871,0.4214440286159515,0.0,0.0,0.0,0.0,0.0,-0.0,1.0,0.0,0.0,0.0,0.005736488848924637,-0.0029332416597753768,-0.004150140099227429,0.0969393620453775,0.061729329731315376,-9.790724653601648
24.4,0.10000000149011612,124.0,25.036006927490234,0.4214440286159515,0.0,0.0,0.0,0.0,0.0,-0.0,1.0,0.0,0.0,0.0,0.00382161745801568,-0.00014798311167396605,0.006099775433540343,0.10466183457523584,0.0404463966563344,-9.798998463749887
24.49,0.10000000149011612,125.0,25.03475379943848,0.41349223256111145,0.0,0.0,0.0,0.0,0.0,-0.0,1.0,0.0,0.0,0.0,0.007287525571882725,-0.005147955846041441,0.0005424520350061356,0.1107683376967907,0.05928219232242555,-9.802023228406906
24.7,0.10000000149011612,126.0,25.03475379943848,0.41349223256111145,0.0,0.0,0.0,0.0,0.0,-0.0,1.0,0.0,0.0,0.0,-0.004769959021359682,-0.004617447033524513,0.0034089300315827127,0.12591571429744364,0.05834217931609601,-9.812969216108325
24.8,0.10000000149011612,127.0,25.02974510192871,0.41349223256111145,0.0,0.0,0.0,0.0,0.0,-0.0,1.0,0.0,0.0,0.0,0.005533520132303238,-0.006623081397265196,0.004951052833348514,0.12994763444177804,0.06180687842890621,-9.816807328462602
25.0,0.10000000149011612,125.0,25.03350257873535,0.4214440286159515,0.0,0.0,0.0,0.0,0.0,-0.0,1.0,0.0,0.0,0.0,-0.00039582257159054285,-0.004526737611740828,-0.0049168956466019145,0.12361827931366864,0.05541800504084677,-9.806867646574977
25.1,0.10000000149011612,124.0,25.032249450683594,0.4214440286159515,0.0,0.0,0.0,0.0,0.0,-0.0,1.0,0.0,0.0,0.0,0.007647006306797266,0.009967856109142305,0.00899095181375742,0.1395948185026646,0.05526272492017597,-9.816024971008304
25.29,0.10000000149011612,119.0,25.036006927490234,0.40554046630859375,0.0,0.0,0.0,0.0,0.0,-0.0,1.0,0.0,0.0,0.0,-0.011370177380740644,0.00156559597235173,-0.006571193691343069,0.1153288369998336,0.06001867654267699,-9.801939028501511
25.5,0.10000000149011612,117.0,25.028493881225586,0.4214440286159515,0.0,0.0,0.0,0.0,0.0,-0.0,1.0,0.0,0.0,0.0,0.002578612416982651,0.008570204488933086,0.011238847859203815,0.12664840696379542,0.056935800611972814,-9.823585420846939
25.6,0.10000000149011612,115.0,25.02974510192871,0.41349223256111145,0.0,0.0,0.0,0.0,0.0,-0.0,1.0,0.0,0.0,0.0,-0.010191045701503755,0.0056023779325187215,-0.007906252518296242,0.10230749887414277,0.06644664404913783,-9.797573497295383
25.7,0.10000000149011612,114.0,25.03475379943848,0.4214440286159515,0.0,0.0,0.0,0.0,0.0,-0.0,1.0,0.0,0.0,0.0,-7.386352808680384e-05,0.003990978933870792,0.006669862195849419,0.10412996635772287,0.053274548258632426,-9.812055881023408
25.9,0.10000000149011612,114.0,25.03350257873535,0.40554046630859375,0.0,0.0,0.0,0.0,0.0,-0.0,1.0,0.0,0.0,0.0,0.005180932581424713,0.0008590336656197908,0.007451352663338184,0.10048517757095396,0.06857829219661653,-9.801009905934334
26.0,0.10000000149011612,112.0,25.03350257873535,0.40554046630859375,0.0,0.0,0.0,0.0,0.0,-0.0,1.0,0.0,0.0,0.0,-0.002636141376569867,-0.006503578275442122,-0.0024872850626707077,0.10994446501135828,0.05533215603791178,-9.81528822183609
26.2,0.10000000149011612,109.0,25.015974044799805,0.41349223256111145,0.0,0.0,0.0,0.0,0.0,-0.0,1.0,0.0,0.0,0.0,-0.009449467062950134,-0.012563773430883884,-0.010332837700843813,0.11209960252046586,0.08042762903496624,-9.809076724648477
26.3,0.10000000149011612,106.0,25.03099822998047,0.41349223256111145,0.0,0.0,0.0,0.0,0.0,-0.0,1.0,0.0,0.0,0.0,-0.004668474197387695,-0.007974918000400066,-0.001799352583475411,0.11686125517822805,0.05034907663241029,-9.796502287387847
26.5,0.10000000149011612,101.0,25.03350257873535,0.3975887000560761,0.0,0.0,0.0,0.0,0.0,-0.0,1.0,0.0,0.0,0.0,0.008307951502501966,0.005585412960499525,0.007625949103385209,0.12063957061618567,0.0759428237657994,-9.803907786011695
26.6,0.10000000149011612,97.0,25.03475379943848,0.4293957948684693,0.0,0.0,0.0,0.0,0.0,-0.0,1.0,0.0,0.0,0.0,-0.009256454184651377,-0.0003763582499232143,-0.00507317902520299,0.11576881256885828,0.0543631125194952,-9.791134543418883
26.8,0.10000000149011612,91.0,25.02974510192871,0.40554046630859375,0.0,0.0,0.0,0.0,0.0,-0.0,1.0,0.0,0.0,0.0,0.0040644751861691475,0.0046965391375124454,-0.001390107092447579,0.11476485477760436,0.07352203994058074,-9.812658144235613
26.9,0.10000000149011612,87.0,25.013469696044922,0.3816851377487183,0.0,0.0,0.0,0.0,0.0,-0.0,1.0,0.0,0.0,0.0,-0.008209820836782455,0.003432247322052717,-0.007929886691272259,0.1070746789779514,0.07130233637988567,-9.808196718692779
27.1,0.10000000149011612,82.0,25.032249450683594,0.3896369338035584,0.0,0.0,0.0,0.0,0.0,-0.0,1.0,0.0,0.0,0.0,0.008145499974489212,0.009647435508668423,0.004274801816791296,0.11124380769208074,0.06758350722491742,-9.815785235166553
27.2,0.10000000149011612,78.0,25.028493881225586,0.37373337149620056,0.0,0.0,0.0,0.0,0.0,-0.0,1.0,0.0,0.0,0.0,-0.003885604906827211,-0.002497439505532384,-0.009120194241404532,0.10429586282931268,0.08306196413934233,-9.806142007112504
27.39,0.10000000149011612,74.0,25.03099822998047,0.40554046630859375,0.0,0.0,0.0,0.0,0.0,-0.0,1.0,0.0,0.0,0.0,-0.010439096018671993,-0.006704363506287336,-0.009557547979056835,0.11056203148327767,0.05659234521444888,-9.815936093330384
27.5,0.10000000149011612,74.0,25.02974510192871,0.3975887000560761,0.0,0.0,0.0,0.0,0.0,-0.0,1.0,0.0,0.0,0.0,0.0031880964525043964,-0.003282846650108695,-0.007184046786278486,0.11491768637672067,0.06984012590255588,-9.807145389318467
27.6,0.10000000149011612,72.0,25.027240753173828,0.3975887000560761,0.0,0.0,0.0,0.0,0.0,-0.0,1.0,0.0,0.0,0.0,0.0014582821168005464,-0.004369677510112524,0.009992674924433231,0.11886668569408355,0.049677505642175684,-9.810646702051164
27.9,0.10000000149011612,67.0,25.027240753173828,0.3657816052436829,0.0,0.0,0.0,0.0,0.0,-0.0,1.0,0.0,0.0,0.0,0.010104186832904816,-0.00022427500516641885,0.003624373814091087,0.12221882133744658,0.05464340428356081,-9.811440753936768
27.99,0.10000000149011612,53.0,25.03350257873535,0.40554046630859375,0.0,0.0,0.0,0.0,0.0,-0.0,1.0,0.0,0.0,0.0,-0.0016015496803447606,0.0002639837039168924,-0.0028553924057632685,0.1217207847442478,0.05103528393432498,-9.79982701420784
28.1,0.10000000149011612,50.0,25.028493881225586,0.3896369338035584,0.0,0.0,0.0,0.0,0.0,-0.0,1.0,0.0,0.0,0.0,0.008496876806020737,0.010753287002444269,0.008274281397461891,0.12238581416197122,0.04477898245677352,-9.807033707499505
28.2,0.10000000149011612,35.0,25.027240753173828,0.3975887000560761,0.0,0.0,0.0,0.0,0.0,-0.0,1.0,0.0,0.0,0.0,-0.013920332305133344,-0.0008868941804394127,-0.007208309136331081,0.11825149465352296,0.06929505120031536,-9.805959573984149
28.4,0.10000000149011612,26.0,25.032249450683594,0.41349223256111145,0.0,0.0,0.0,0.0,0.0,-0.0,1.0,0.0,0.0,0.0,-0.003930507693439722,0.006494843401014805,0.0044742776080966,0.10648557200096548,0.03999326485209167,-9.793098623156546
28.59,0.10000000149011612,1.0,25.03350257873535,0.4214440286159515,0.0,0.0,0.0,0.0,0.0,-0.0,1.0,0.0,0.0,0.0,-0.005309430882334709,0.0014192560920491815,-0.006949876435101032,0.10824869938194752,0.08221296669915319,-9.809270852208137
28.7,0.10000000149011612,348.0,25.025989532470703,0.3975887000560761,0.0,0.0,0.0,0.0,0.0,-0.0,1.0,0.0,0.0,0.0,-0.008502847515046597,-0.0008197610732167959,-0.00845569372177124,0.1070252243243158,0.07001236294861883,-9.81035551071167
28.9,0.10000000149011612,329.0,25.027240753173828,0.40554046630859375,0.0,0.0,0.0,0.0,0.0,-0.0,1.0,0.0,0.0,0.0,0.0016063256189227106,-0.006386202294379473,-0.00406344560906291,0.11349079216830435,0.08441804308444263,-9.818752112388614
29.0,0.10000000149011612,322.0,25.028493881225586,0.4214440286159515,0.0,0.0,0.0,0.0,0.0,-0.0,1.0,0.0,0.0,0.0,-0.010435139760375023,-0.0130761181935668,-0.011215483769774435,0.10838239962235094,0.07749644723720849,-9.812666330337523
29.1,0.10000000149011612,314.0,25.02348518371582,0.41349223256111145,0.0,0.0,0.0,0.0,0.0,-0.0,1.0,0.0,0.0,0.0,0.005524206440895796,0.00047102803364396095,0.004210708662867546,0.11444527703337372,0.05716112398076801,-9.804318845272064
29.4,0.10000000149011612,310.0,25.02974510192871,0.4373475611209869,0.0,0.0,0.0,0.0,0.0,-0.0,1.0,0.0,0.0,0.0,-0.004860240966081618,-0.0026674235705286264,-0.00817090179771185,0.11288837363943455,0.07716908538714051,-9.806058391928671
29.5,0.10000000149011612,308.0,25.032249450683594,0.4293957948684693,0.0,0.0,0.0,0.0,0.0,-0.0,1.0,0.0,0.0,0.0,0.0054368507117033005,0.005739252083003521,0.00995316170156002,0.12033822887577116,0.049305252707563335,-9.803735293149947
29.6,0.10000000149011612,307.0,25.024738311767567,0.3816851377487183,0.0,0.0,0.0,0.0,0.0,-0.0,1.0,0.0,0.0,0.0,0.0012166273081675172,0.004786449018865825,0.0017476354259997606,0.11057567194104197,0.07321533977519723,-9.812710769176485
29.8,0.10000000149011612,307.0,25.025989532470703,0.41349223256111145,0.0,0.0,0.0,0.0,0.0,-0.0,1.0,0.0,0.0,0.0,0.0037590877618640657,0.00934735219925642,0.008947061374783516,0.1143518403545022,0.04431662758346648,-9.795839213132856
29.9,0.10000000149011612,306.0,25.028493881225586,0.40554046630859375,0.0,0.0,0.0,0.0,0.0,-0.0,1.0,0.0,0.0,0.0,0.007984722033143044,0.005547663662582636,0.004271324258297682,0.10364213498309256,0.061110826791264124,-9.803341190814972
30.1,0.10000000149011612,305.0,25.032249450683594,0.40554046630859375,0.0,0.0,0.0,0.0,0.0,-0.0,1.0,0.0,0.0,0.0,0.0016844766214489935,0.00459418585523963,0.00636865571141243,0.11494661182165145,0.05223253331612796,-9.808576787710187
30.2,0.0,303.0,25.020980834960927,0.3896369338035584,0.0,0.0,0.0,0.0,0.0,-0.0,1.0,0.0,0.0,0.0,0.006403172854334116,0.002222958253696561,0.004649499896913767,0.10874825259670616,0.05382791869807989,-9.802387509942058
30.4,0.0,299.0,25.027240753173828,0.40554046630859375,0.0,0.0,0.0,0.0,0.0,-0.0,1.0,0.0,0.0,0.0,-0.005702636670321226,-0.004762759897857904,-0.0016926175449043512,0.1165687116701156,0.06777631002478303,-9.810958943367005
30.5,0.0,298.0,25.027240753173828,0.4214440286159515,0.0,0.0,0.0,0.0,0.0,-0.0,1.0,0.0,0.0,0.0,0.006699584424495697,0.00033567770151421433,0.005338402930647135,0.1182652264740318,0.045549914999864986,-9.800365542769432
30.7,0.0,297.0,25.027240753173828,0.40554046630859375,0.0,0.0,0.0,0.0,0.0,-0.0,1.0,0.0,0.0,0.0,0.005509120877832174,-0.001306198537349701,0.004098490811884403,0.11326672503724695,0.07283652699552477,-9.804856204390527
30.8,0.0,296.0,25.02974510192871,0.41349223256111145,0.0,0.0,0.0,0.0,0.0,-0.0,1.0,0.0,0.0,0.0,-0.004618571139872074,-0.0010592364706099033,0.00758600002154708,0.12628472842276098,0.05570493430830538,-9.816622556447983
31.0,0.0,295.0,25.024738311767567,0.40554046630859375,0.0,0.0,0.0,0.0,0.0,-0.0,1.0,0.0,0.0,0.0,-0.004220417700707912,-0.002139868214726448,-0.010054806247353556,0.11933518471196294,0.08690278083086014,-9.814586555957794
31.2,0.0,294.0,25.02348518371582,0.3975887000560761,0.0,0.0,0.0,0.0,0.0,-0.0,1.0,0.0,0.0,0.0,-0.005529328715056181,0.0014958095271140337,-0.0013438325840979815,0.11683730900287627,0.059458769098855564,-9.797734880447386
31.3,0.0,289.0,25.02974510192871,0.40554046630859375,0.0,0.0,0.0,0.0,0.0,-0.0,1.0,0.0,0.0,0.0,-0.0024463178124278784,0.0033585273195058107,-0.0025363655295223,0.1073437422607094,0.06220615189522505,-9.795902947783473
31.41,0.0,283.0,25.028493881225586,0.41349223256111145,0.0,0.0,0.0,0.0,0.0,-0.0,1.0,0.0,0.0,0.0,-0.010794749483466148,0.0015012407675385475,-0.0063460087403655035,0.10966514169238507,0.07242289587389678,-9.8098082113266
31.6,0.0,270.0,25.025989532470703,0.3975887000560761,0.0,0.0,0.0,0.0,0.0,-0.0,1.0,0.0,0.0,0.0,0.0032354723662137985,0.0068577532656490785,0.0009602917707525194,0.11072018953040244,0.061047886996529986,-9.808099070191384
31.7,0.0,266.0,25.01972961425781,0.3975887000560761,0.0,0.0,0.0,0.0,0.0,-0.0,1.0,0.0,0.0,0.0,-0.003420651191845536,-0.0053777233697474,-0.011739719659090042,0.10649661775678396,0.07712984508834779,-9.806877586841585
31.9,0.0,256.0,25.01972961425781,0.3816851377487183,0.0,0.0,0.0,0.0,0.0,-0.0,1.0,0.0,0.0,0.0,0.004186596255749464,-0.0003170703712385148,0.0038371570408344273,0.12020285669714212,0.0630719098309055,-9.818648031949998
32.0,0.0,253.0,25.024738311767567,0.3896369338035584,0.0,0.0,0.0,0.0,0.0,-0.0,1.0,0.0,0.0,0.0,0.000374581606592983,-0.0034730052575469017,-0.004811953287571669,0.11419473297894002,0.07347306950949133,-9.809601219892505
32.2,0.0,245.0,25.024738311767567,0.3975887000560761,0.0,0.0,0.0,0.0,0.0,-0.0,1.0,0.0,0.0,0.0,-0.013650964945554732,-0.007202331442385913,-0.009875333867967129,0.12375267391093075,0.04651576995849609,-9.805535650849343
32.4,0.0,240.0,25.025989532470703,0.41349223256111145,0.0,0.0,0.0,0.0,0.0,-0.0,1.0,0.0,0.0,0.0,0.008208154700696468,-3.438262501731515e-05,0.0046136612072587005,0.1198699217196554,0.06185866283252835,-9.811854736804964
32.5,0.0,233.0,25.03099822998047,0.4373475611209869,0.0,0.0,0.0,0.0,0.0,-0.0,1.0,0.0,0.0,0.0,-0.003011384513229132,0.0038843972142785775,0.005188252776861191,0.12482897272333505,0.053458356396295134,-9.812693227529527
32.7,0.0,227.0,25.028493881225586,0.41349223256111145,0.0,0.0,0.0,0.0,0.0,-0.0,1.0,0.0,0.0,0.0,0.005255017895251513,0.01225106231868267,0.013686642982065678,0.12332312283106148,0.05498485883697868,-9.803133614659307
32.8,0.0,217.0,25.02348518371582,0.3975887000560761,0.0,0.0,0.0,0.0,0.0,-0.0,1.0,0.0,0.0,0.0,-0.00863100029528141,0.006295993458479643,-0.0018017824040725827,0.10997287882491946,0.056190006528049716,-9.801050836443899
32.9,0.0,217.0,25.01472091674805,0.40554046630859375,0.0,0.0,0.0,0.0,0.0,-0.0,1.0,0.0,0.0,0.0,0.0042952364310622215,0.008461518213152884,0.012058201245963572,0.11234732346609236,0.0492233231663704,-9.810015202760695
33.1,0.0,220.0,25.02348518371582,0.40554046630859375,0.0,0.0,0.0,0.0,0.0,-0.0,1.0,0.0,0.0,0.0,0.006260131485760212,0.004302646964788437,0.0028293037321418524,0.09790798072703184,0.06919600028079004,-9.799016590118411
33.2,0.0,220.0,25.02223396301269,0.3975887000560761,0.0,0.0,0.0,0.0,0.0,-0.0,1.0,0.0,0.0,0.0,-1.7859598301583898e-05,-0.0019344983156770468,0.003957556560635568,0.10812802746891977,0.0569745384156704,-9.809912876486779
33.4,0.0,217.0,25.02348518371582,0.40554046630859375,0.0,0.0,0.0,0.0,0.0,-0.0,1.0,0.0,0.0,0.0,-0.005663883872330189,-0.0070572453550994405,-0.013795477338135242,0.10229029526934028,0.06992566884029656,-9.803918310999867
33.5,0.0,216.0,25.02348518371582,0.40554046630859375,0.0,0.0,0.0,0.0,0.0,-0.0,1.0,0.0,0.0,0.0,-0.010747662745416164,-0.009637412615120413,-0.006085963454097509,0.10970579811371864,0.06178454023785888,-9.806243163943293
33.7,0.0,211.0,25.028493881225586,0.41349223256111145,0.0,0.0,0.0,0.0,0.0,-0.0,1.0,0.0,0.0,0.0,0.00484603736549616,-0.009901419281959534,0.000448672624770552,0.11980483490042387,0.0660734774870798,-9.807626615166663
33.8,0.0,207.0,25.025989532470703,0.3975887000560761,0.0,0.0,0.0,0.0,0.0,-0.0,1.0,0.0,0.0,0.0,-0.008117216639220716,-0.008246520534157753,-0.008191337808966637,0.11988564524799585,0.07192428826354444,-9.803135368824003
34.0,0.10000000149011612,203.0,25.024738311767567,0.40554046630859375,0.0,0.0,0.0,0.0,0.0,-0.0,1.0,0.0,0.0,0.0,0.0056453743018209926,0.006064921617507936,0.008333595469594002,0.13713461165316404,0.06298763683531433,-9.817269258499143
34.1,0.10000000149011612,200.0,25.02348518371582,0.3975887000560761,0.0,0.0,0.0,0.0,0.0,-0.0,1.0,0.0,0.0,0.0,0.0002751746214926244,0.004140401724725962,-0.004153355490416288,0.12691472936421633,0.07586364424321801,-9.813221815824507
34.2,0.10000000149011612,195.0,25.00971221923828,0.3578298389911652,0.0,0.0,0.0,0.0,0.0,-0.0,1.0,0.0,0.0,0.0,0.005115312524139881,0.013354294002056122,0.007413296028971672,0.1160237054899335,0.05114370867144317,-9.816640098094943
34.4,0.10000000149011612,193.0,25.02223396301269,0.3657816052436829,0.0,0.0,0.0,0.0,0.0,-0.0,1.0,0.0,0.0,0.0,0.005079152062535286,0.0057365717366337785,0.0005810108268633485,0.1075932265073061,0.0735293946415186,-9.814270806312562
34.6,0.10000000149011612,184.0,25.02348518371582,0.3896369338035584,0.0,0.0,0.0,0.0,0.0,-0.0,1.0,0.0,0.0,0.0,-0.005002992693334818,-0.0033138652797788373,-0.009226612746715546,0.10470226258970798,0.05100917246192694,-9.811465312242511
34.7,0.10000000149011612,180.0,25.01972961425781,0.3578298389911652,0.0,0.0,0.0,0.0,0.0,-0.0,1.0,0.0,0.0,0.0,0.009427113458514214,0.002457174705341459,0.005953653249889611,0.10766675524413588,0.055372456144541504,-9.812624230384827
34.81,0.10000000149011612,173.0,25.02223396301269,0.3657816052436829,0.0,0.0,0.0,0.0,0.0,-0.0,1.0,0.0,0.0,0.0,-0.00835789367556572,-0.008731827139854431,-0.002641642233356833,0.10399548039771617,0.05396462477277965,-9.801492301225665
35.0,0.10000000149011612,169.0,25.020980834960927,0.37373337149620056,0.0,0.0,0.0,0.0,0.0,-0.0,1.0,0.0,0.0,0.0,-0.00249438313767314,-0.009106469340622423,-0.004076107405126096,0.11822112567722798,0.0829665083438158,-9.815007555484772
35.2,0.10000000149011612,161.0,25.02223396301269,0.3896369338035584,0.0,0.0,0.0,0.0,0.0,-0.0,1.0,0.0,0.0,0.0,-0.010704507119953629,-0.011976155452430248,-0.0035334266722202297,0.11750056598335505,0.0678321235254407,-9.807099781036378
35.3,0.10000000149011612,158.0,25.01847648620605,0.3975887000560761,0.0,0.0,0.0,0.0,0.0,-0.0,1.0,0.0,0.0,0.0,-0.0021357452496886253,0.0010629837634041903,0.006867930758744478,0.12846148235723376,0.046072984985075886,-9.812377477884292
35.4,0.10000000149011612,154.0,25.01847648620605,0.41349223256111145,0.0,0.0,0.0,0.0,0.0,-0.0,1.0,0.0,0.0,0.0,-0.006771418265998364,0.000805145304184407,-0.009855644777417185,0.1185613696742803,0.07480248880572618,-9.801584687232973
35.59,0.10000000149011612,149.0,25.025989532470703,0.40554046630859375,0.0,0.0,0.0,0.0,0.0,-0.0,1.0,0.0,0.0,0.0,-0.004968787077814341,0.007858189754188059,0.0019490240374580024,0.1170045393705368,0.05754457798786461,-9.815676476955414
35.8,0.10000000149011612,145.0,25.012216567993164,0.3896369338035584,0.0,0.0,0.0,0.0,0.0,-0.0,1.0,0.0,0.0,0.0,-0.0016097126062959433,0.006579078268259764,-0.009769302792847157,0.10816387820988893,0.0685886755725369,-9.796506965160367
35.9,0.10000000149011612,143.0,25.024738311767567,0.41349223256111145,0.0,0.0,0.0,0.0,0.0,-0.0,1.0,0.0,0.0,0.0,-0.009944041259586813,0.004756665322929621,-0.003586223581805825,0.09889027641154828,0.054323100205510864,-9.796833824515344
36.1,0.10000000149011612,139.0,25.02223396301269,0.40554046630859375,0.0,0.0,0.0,0.0,0.0,-0.0,1.0,0.0,0.0,0.0,0.006757390685379504,7.458139589289203e-05,0.010212627239525318,0.10453131375834346,0.0793095500394702,-9.808676775097847
36.3,0.10000000149011612,138.0,25.025989532470703,0.4214440286159515,0.0,0.0,0.0,0.0,0.0,-0.0,1.0,0.0,0.0,0.0,-0.011399105191230774,-0.007487408351153134,-0.004255787469446659,0.1059455724991858,0.06754987203050405,-9.805059687495232
36.4,0.10000000149011612,137.0,25.024738311767567,0.4214440286159515,0.0,0.0,0.0,0.0,0.0,-0.0,1.0,0.0,0.0,0.0,0.0021324590779840946,-0.005092407111078501,-0.0005513707874342799,0.10970768018625678,0.07302060922142119,-9.813270932435989
36.6,0.10000000149011612,137.0,25.024738311767567,0.4214440286159515,0.0,0.0,0.0,0.0,0.0,-0.0,1.0,0.0,0.0,0.0,-0.009707697667181492,-0.015319591388106346,-0.015542734414339066,0.1151683309301734,0.07296787007711829,-9.80364173769951
36.7,0.0,140.0,25.02348518371582,0.40554046630859375,0.0,0.0,0.0,0.0,0.0,-0.0,1.0,0.0,0.0,0.0,0.008143339306116104,-0.003214424010366201,0.005899271927773953,0.12348845285363495,0.06213769379071892,-9.821137776374817
36.8,0.0,140.0,25.02223396301269,0.40554046630859375,0.0,0.0,0.0,0.0,0.0,-0.0,1.0,0.0,0.0,0.0,-0.002125004306435585,-0.007387689314782619,-0.0039508151821792134,0.12466007955372335,0.07305499359034003,-9.804822875261307
36.99,0.0,141.0,25.025989532470703,0.40554046630859375,0.0,0.0,0.0,0.0,0.0,-0.0,1.0,0.0,0.0,0.0,-0.007420886773616075,-0.0054632071405649185,-0.010573466308414936,0.13055499569512904,0.04973865472711623,-9.813560954332353
37.1,0.0,142.0,25.024738311767567,0.41349223256111145,0.0,0.0,0.0,0.0,0.0,-0.0,1.0,0.0,0.0,0.0,0.009429889731109142,0.012223385274410248,0.005759844090789557,0.12461469054222107,0.06446439226157964,-9.811289895772935
37.3,0.0,142.0,25.024738311767567,0.41349223256111145,0.0,0.0,0.0,0.0,0.0,-0.0,1.0,0.0,0.0,0.0,-0.0051162103191018105,0.0034111086279153824,0.003511417424306273,0.11387534709647296,0.04090218254830688,-9.792637862563133
37.4,0.0,141.0,25.01722526550293,0.4214440286159515,0.0,0.0,0.0,0.0,0.0,-0.0,1.0,0.0,0.0,0.0,0.005731577519327402,0.012019312009215357,0.013100615702569485,0.1172528815828264,0.05022583285812289,-9.812518980503082
37.6,0.0,141.0,25.024738311767567,0.4214440286159515,0.0,0.0,0.0,0.0,0.0,-0.0,1.0,0.0,0.0,0.0,-0.00783301331102848,0.003048476995900273,-0.0076509183272719375,0.10254474051296712,0.06432810188736766,-9.801690521836283
37.7,0.0,142.0,25.027240753173828,0.41349223256111145,0.0,0.0,0.0,0.0,0.0,-0.0,1.0,0.0,0.0,0.0,-0.0019884365610778327,0.005567064043134451,0.006627147551625967,0.10979488592594863,0.051512357345782224,-9.808201981186867
37.9,0.10000000149011612,142.0,25.02348518371582,0.3975887000560761,0.0,0.0,0.0,0.0,0.0,-0.0,1.0,0.0,0.0,0.0,0.007760090287774801,0.006248902063816786,0.006935274694114924,0.10715687803924084,0.08125688298605382,-9.811810297966003
38.0,0.10000000149011612,143.0,25.01722526550293,0.41349223256111145,0.0,0.0,0.0,0.0,0.0,-0.0,1.0,0.0,0.0,0.0,-0.0064786714501678935,-0.005265995394438504,-0.006648954004049301,0.10460908172652124,0.06069456899072975,-9.802702674865722
38.2,0.10000000149011612,141.0,25.01972961425781,0.40554046630859375,0.0,0.0,0.0,0.0,0.0,-0.0,1.0,0.0,0.0,0.0,-9.843636507866904e-05,-0.0021745641715824604,-0.007578976452350616,0.10277512080967427,0.07471541097387673,-9.80257637500763
38.3,0.10000000149011612,140.0,25.024738311767567,0.3975887000560761,0.0,0.0,0.0,0.0,0.0,-0.0,1.0,0.0,0.0,0.0,-0.011341962032020092,-0.01116082351654768,-0.011918694712221622,0.11469016573391855,0.07680721582844854,-9.808687884807588
38.5,0.10000000149011612,140.0,25.025989532470703,0.41349223256111145,0.0,0.0,0.0,0.0,0.0,-0.0,1.0,0.0,0.0,0.0,-0.006767268758267164,-0.007309563457965852,-0.00023389265697915107,0.11863634194247424,0.05793632316403091,-9.80834523797035
38.6,0.10000000149011612,140.0,25.00846099853516,0.40554046630859375,0.0,0.0,0.0,0.0,0.0,-0.0,1.0,0.0,0.0,0.0,-0.0035960732493549585,-0.008279943838715553,-0.007279316894710064,0.12217974549159408,0.07828650657087564,-9.814546794891358
38.8,0.10000000149011612,139.0,25.020980834960927,0.3975887000560761,0.0,0.0,0.0,0.0,0.0,-0.0,1.0,0.0,0.0,0.0,0.006689848378300667,0.008027869276702404,0.010527757927775385,0.12604166697710753,0.04863326601684094,-9.810737918615342
38.9,0.10000000149011612,139.0,25.02348518371582,0.41349223256111145,0.0,0.0,0.0,0.0,0.0,-0.0,1.0,0.0,0.0,0.0,0.004312089178711176,0.006503572221845388,0.004341132007539272,0.11574066370725633,0.06285595114342869,-9.800858463048936
39.1,0.10000000149011612,139.0,25.024738311767567,0.4214440286159515,0.0,0.0,0.0,0.0,0.0,-0.0,1.0,0.0,0.0,0.0,-0.002484322059899569,0.007654245011508466,0.008279586210846901,0.1189727121591568,0.043907692506909374,-9.795643331408499
39.2,0.10000000149011612,139.0,25.02348518371582,0.40554046630859375,0.0,0.0,0.0,0.0,0.0,-0.0,1.0,0.0,0.0,0.0,0.009494180791079998,0.012923074886202812,0.0074480632320046425,0.11020095678046346,0.050257362141273916,-9.804052212238313
39.4,0.10000000149011612,138.0,25.02223396301269,0.41349223256111145,0.0,0.0,0.0,0.0,0.0,-0.0,1.0,0.0,0.0,0.0,0.002770577557384968,0.006060592830181122,-0.004772057756781578,0.10343449487350882,0.06670685428194703,-9.805166691541672
39.5,0.10000000149011612,138.0,25.032249450683594,0.4930099844932556,0.0,0.0,0.0,0.0,0.0,-0.0,1.0,0.0,0.0,0.0,-0.0008463747217319906,0.005427463445812464,0.006577509921044111,0.10937480916269124,0.0519524927996099,-9.814904644489287
39.7,0.10000000149011612,137.0,25.020980834960927,0.3896369338035584,0.0,0.0,0.0,0.0,0.0,-0.0,1.0,0.0,0.0,0.0,-0.006032508797943592,-0.01148052606731653,-0.01085818000137806,0.10431266443803908,0.08119422641582788,-9.811406840085985
39.89,0.10000000149011612,138.0,25.02223396301269,0.40554046630859375,0.0,0.0,0.0,0.0,0.0,-0.0,1.0,0.0,0.0,0.0,-0.012211751192808151,-0.009591396898031236,-0.008425184525549412,0.10836566196754577,0.07189926400780679,-9.81094841837883
40.0,0.10000000149011612,139.0,25.01972961425781,0.3896369338035584,0.0,0.0,0.0,0.0,0.0,-0.0,1.0,0.0,0.0,0.0,0.0053914827294647685,-0.005587792024016379,-0.002554613631218672,0.11014115986414254,0.06596880775876343,-9.80220858514309
40.1,0.10000000149011612,140.0,25.013469696044922,0.3975887000560761,0.0,0.0,0.0,0.0,0.0,-0.0,1.0,0.0,0.0,0.0,-0.006842917762696743,-0.008413266390562056,-0.008984086103737354,0.12122014431282878,0.08104483005590737,-9.809971348643304
40.3,0.10000000149011612,140.0,25.01847648620605,0.40554046630859375,0.0,0.0,0.0,0.0,0.0,-0.0,1.0,0.0,0.0,0.0,-0.010776808485388756,-0.0003180245985276997,-0.006035801488906145,0.12820837100967766,0.045140710403211416,-9.805652595162393
40.5,0.10000000149011612,142.0,25.024738311767567,0.40554046630859375,0.0,0.0,0.0,0.0,0.0,-0.0,1.0,0.0,0.0,0.0,0.003645686432719231,0.006824837066233158,0.004526161123067141,0.12100605399347845,0.05799350253771991,-9.803404925465584
40.6,0.10000000149011612,144.0,25.020980834960927,0.40554046630859375,0.0,0.0,0.0,0.0,0.0,-0.0,1.0,0.0,0.0,0.0,-0.0009846861939877274,0.0064985966309905035,0.005300831981003285,0.12668732749298214,0.053105431250296535,-9.804535776972774
40.69,0.10000000149011612,145.0,25.02348518371582,0.40554046630859375,0.0,0.0,0.0,0.0,0.0,-0.0,1.0,0.0,0.0,0.0,0.007660511415451766,0.014443080872297287,0.013289623893797398,0.1101826659590006,0.04296412092167885,-9.799141135811807
40.9,0.10000000149011612,148.0,25.01972961425781,0.3896369338035584,0.0,0.0,0.0,0.0,0.0,-0.0,1.0,0.0,0.0,0.0,0.006814077962189914,0.006854779552668333,0.0013792867539450526,0.10780320550315084,0.06329236813355238,-9.801342612504962
41.0,0.10000000149011612,150.0,25.012216567993164,0.3816851377487183,0.0,0.0,0.0,0.0,0.0,-0.0,1.0,0.0,0.0,0.0,-0.00946510024368763,0.001905880752019584,0.0017441138625144954,0.10835116269998253,0.05378446200862527,-9.807866351008416
41.2,0.10000000149011612,151.0,25.02223396301269,0.40554046630859375,0.0,0.0,0.0,0.0,0.0,-0.0,1.0,0.0,0.0,0.0,-0.002712312620133161,-0.0025502287317067385,-0.008159561082720757,0.10434254919178784,0.08647597976960243,-9.811676981449127
41.3,0.10000000149011612,152.0,25.015974044799805,0.37373337149620056,0.0,0.0,0.0,0.0,0.0,-0.0,1.0,0.0,0.0,0.0,-0.010942284017801285,-0.011037936434149742,-0.007964403368532658,0.10858878806233406,0.07995090737007557,-9.8093959826231
41.5,0.10000000149011612,155.0,25.01972961425781,0.3975887000560761,0.0,0.0,0.0,0.0,0.0,-0.0,1.0,0.0,0.0,0.0,0.009386529214680195,-0.0012198180193081498,0.003942158073186874,0.11483494827523827,0.060601675920188426,-9.808597252964974
41.6,0.10000000149011612,158.0,25.01472091674805,0.3896369338035584,0.0,0.0,0.0,0.0,0.0,-0.0,1.0,0.0,0.0,0.0,0.0009534879354760053,-0.0070629017427563685,-0.006454535294324161,0.10940449291840196,0.0758084200322628,-9.80079648256302
41.8,0.10000000149011612,165.0,25.020980834960927,0.3896369338035584,0.0,0.0,0.0,0.0,0.0,-0.0,1.0,0.0,0.0,0.0,-0.010768880136311054,-0.007515862118452787,-0.007827682420611382,0.11764699305407705,0.03815982470288873,-9.794780867099762
41.9,0.10000000149011612,167.0,25.020980834960927,0.3975887000560761,0.0,0.0,0.0,0.0,0.0,-0.0,1.0,0.0,0.0,0.0,0.009867079555988312,0.005894268397241831,0.006768915336579084,0.13063521218486132,0.059321560529060666,-9.812198553085329
42.0,0.10000000149011612,170.0,25.01722526550293,0.3578298389911652,0.0,0.0,0.0,0.0,0.0,-0.0,1.0,0.0,0.0,0.0,-0.008974455296993256,-0.0013932539150118828,0.0017562181456014516,0.1226085656695068,0.05546532637439668,-9.804324692487716
42.3,0.10000000149011612,171.0,25.01847648620605,0.3896369338035584,0.0,0.0,0.0,0.0,0.0,-0.0,1.0,0.0,0.0,0.0,0.00341398804448545,0.009695942513644695,0.01159897446632385,0.12191512243822218,0.041634007268585266,-9.800057394504547
42.4,0.10000000149011612,176.0,25.024738311767567,0.3896369338035584,0.0,0.0,0.0,0.0,0.0,-0.0,1.0,0.0,0.0,0.0,-0.01034165546298027,-0.0010484938975423574,-0.006589124910533428,0.11806026329286395,0.07162428955547513,-9.804984843134882
42.5,0.10000000149011612,180.0,25.012216567993164,0.41349223256111145,0.0,0.0,0.0,0.0,0.0,-0.0,1.0,0.0,0.0,0.0,-0.009187380783259869,0.006961314007639885,0.001515401527285576,0.11271901451982558,0.05326688292436302,-9.804496015906334
42.7,0.10000000149011612,190.0,25.01972961425781,0.40554046630859375,0.0,0.0,0.0,0.0,0.0,-0.0,1.0,0.0,0.0,0.0,0.004456636495888233,0.006448723375797272,0.006107188295572996,0.10608542145229877,0.08145418083295226,-9.813473246097566
42.9,0.10000000149011612,195.0,25.02348518371582,0.41349223256111145,0.0,0.0,0.0,0.0,0.0,-0.0,1.0,0.0,0.0,0.0,-0.009262973442673685,-0.002406913554295897,-0.01294606737792492,0.10478029550984502,0.07871234832331539,-9.808918265104293
43.0,0.10000000149011612,200.0,25.013469696044922,0.3975887000560761,0.0,0.0,0.0,0.0,0.0,-0.0,1.0,0.0,0.0,0.0,0.009856387041509151,0.0001492053415859118,0.0020354387816041712,0.10665276582352816,0.05716401104349642,-9.792207507491113
43.1,0.10000000149011612,200.0,25.01972961425781,0.41349223256111145,0.0,0.0,0.0,0.0,0.0,-0.0,1.0,0.0,0.0,0.0,-0.005420041270554066,-0.009400051087141035,-0.00839977990835905,0.11158897614106536,0.076101118857041,-9.804076770544054
43.3,0.10000000149011612,196.0,25.0072078704834,0.41349223256111145,0.0,0.0,0.0,0.0,0.0,-0.0,1.0,0.0,0.0,0.0,-0.009424411691725254,-0.010915352962911127,-0.005734718870371579,0.12368505634367465,0.058701952099800114,-9.813444010019305
43.39,0.10000000149011612,195.0,25.02348518371582,0.4293957948684693,0.0,0.0,0.0,0.0,0.0,-0.0,1.0,0.0,0.0,0.0,0.004016791470348835,-0.00514063099399209,-0.00048584744217805564,0.12596935336478055,0.0765661597950384,-9.812010272741318
43.59,0.10000000149011612,194.0,25.01722526550293,0.40554046630859375,0.0,0.0,0.0,0.0,0.0,-0.0,1.0,0.0,0.0,0.0,0.0017176327528432012,-0.0011627271305769682,0.003056950168684125,0.12757775793783369,0.05068911963142455,-9.813717659711838
43.8,0.10000000149011612,193.0,25.01096534729004,0.40554046630859375,0.0,0.0,0.0,0.0,0.0,-0.0,1.0,0.0,0.0,0.0,0.006059919018298388,0.01001820992678404,0.007960428483784199,0.13114574720151725,0.05869227221701295,-9.813137615919112
43.9,0.10000000149011612,191.0,25.020980834960927,0.40554046630859375,0.0,0.0,0.0,0.0,0.0,-0.0,1.0,0.0,0.0,0.0,-0.00782522838562727,0.004293999634683132,-0.0006110313115641475,0.11872637079097333,0.05808495664503425,-9.802626076340676
44.0,0.10000000149011612,189.0,25.01847648620605,0.40554046630859375,0.0,0.0,0.0,0.0,0.0,-0.0,1.0,0.0,0.0,0.0,0.0029981867410242558,0.01339274924248457,0.007890693843364716,0.11733022928237916,0.04409618298523128,-9.807327822446824
44.2,0.10000000149011612,181.0,25.02223396301269,0.41349223256111145,0.0,0.0,0.0,0.0,0.0,-0.0,1.0,0.0,0.0,0.0,0.010369122959673405,0.010263454169034958,0.006529731675982475,0.10621289075352253,0.06310817627236248,-9.797136125564576
44.3,0.10000000149011612,176.0,25.01096534729004,0.3896369338035584,0.0,0.0,0.0,0.0,0.0,-0.0,1.0,0.0,0.0,0.0,-0.006575107108801603,0.004926666151732206,0.0011729307007044554,0.1043487161770463,0.05352178954984993,-9.812755208015442
44.4,0.10000000149011612,167.0,25.020980834960927,0.40554046630859375,0.0,0.0,0.0,0.0,0.0,-0.0,1.0,0.0,0.0,0.0,-0.00323456758633256,-0.0022787756752222768,-0.009160818532109259,0.0999088431056589,0.0803312870208174,-9.80190745353699
44.7,0.10000000149011612,165.0,25.02223396301269,0.41349223256111145,0.0,0.0,0.0,0.0,0.0,-0.0,1.0,0.0,0.0,0.0,-0.012149756774306296,-0.010830321349203588,-0.003817859338596463,0.09866508551873268,0.059760480858385576,-9.799763864278793
44.8,0.10000000149011612,163.0,25.012216567993164,0.3896369338035584,0.0,0.0,0.0,0.0,0.0,-0.0,1.0,0.0,0.0,0.0,0.0007399157038889825,-0.006357243284583093,-0.005389402620494366,0.1078955458290875,0.07267567374743522,-9.804669678211214
44.9,0.10000000149011612,162.0,25.01096534729004,0.3896369338035584,0.0,0.0,0.0,0.0,0.0,-0.0,1.0,0.0,0.0,0.0,-0.0098587553948164,-0.010541269555687904,-0.009190598502755163,0.1118955346941948,0.07155704657547178,-9.797437841892243
45.1,0.10000000149011612,158.0,25.015974044799805,0.40554046630859375,0.0,0.0,0.0,0.0,0.0,-0.0,1.0,0.0,0.0,0.0,-0.0014490846078842874,-0.004282209556549788,0.003659909358248115,0.12588920082896948,0.06873071266338229,-9.81372116804123
45.29,0.10000000149011612,157.0,25.01847648620605,0.41349223256111145,0.0,0.0,0.0,0.0,0.0,-0.0,1.0,0.0,0.0,0.0,-0.008358294144272804,-0.006391188129782678,-0.008002889342606071,0.12635474883019926,0.07879149586893619,-9.812034831047061
45.4,0.10000000149011612,154.0,25.01722526550293,0.41349223256111145,0.0,0.0,0.0,0.0,0.0,-0.0,1.0,0.0,0.0,0.0,0.009737491607666016,0.005546079482883215,0.012996186502277851,0.13102477379143238,0.058903073477558784,-9.810554316043854
45.49,0.10000000149011612,152.0,25.020980834960927,0.4214440286159515,0.0,0.0,0.0,0.0,0.0,-0.0,1.0,0.0,0.0,0.0,0.00405914569273591,0.005600479431450367,-0.0007565287523902953,0.12421394613571465,0.077293850351125,-9.809888318181036
45.7,0.10000000149011612,147.0,25.01722526550293,0.41349223256111145,0.0,0.0,0.0,0.0,0.0,-0.0,1.0,0.0,0.0,0.0,-0.011279112659394741,0.003107806667685509,-0.006725456099957228,0.11687519713304938,0.047115191789343966,-9.809374347925187
45.8,0.10000000149011612,145.0,25.01472091674805,0.3816851377487183,0.0,0.0,0.0,0.0,0.0,-0.0,1.0,0.0,0.0,0.0,0.00915990211069584,0.010262113064527513,0.0032814505975693464,0.11135442056693136,0.0589134659897536,-9.802619059681893
46.0,0.10000000149011612,142.0,25.01972961425781,0.40554046630859375,0.0,0.0,0.0,0.0,0.0,-0.0,1.0,0.0,0.0,0.0,0.00012869939382653683,0.007808075286448002,0.004263408947736025,0.11082706566900016,0.04570866233669221,-9.798647046089172
46.2,0.10000000149011612,141.0,25.01972961425781,0.40554046630859375,0.0,0.0,0.0,0.0,0.0,-0.0,1.0,0.0,0.0,0.0,0.006739447358995676,0.009497913531959057,0.011438991874456406,0.1077931281924248,0.05939950665459037,-9.815761846303939
46.3,0.10000000149011612,138.0,25.01847648620605,0.40554046630859375,0.0,0.0,0.0,0.0,0.0,-0.0,1.0,0.0,0.0,0.0,-0.006289568729698658,-4.201166302664205e-05,-0.004668610636144877,0.10650857714004816,0.05759024108760059,-9.801653099656106
46.4,0.10000000149011612,135.0,25.01472091674805,0.41349223256111145,0.0,0.0,0.0,0.0,0.0,-0.0,1.0,0.0,0.0,0.0,0.0036467292811721563,0.0014336169697344305,0.005733818281441927,0.1122420461755246,0.05210144148208201,-9.812564588785172
46.6,0.10000000149011612,132.0,25.01972961425781,0.4373475611209869,0.0,0.0,0.0,0.0,0.0,-0.0,1.0,0.0,0.0,0.0,-0.008864901028573513,-0.009936204180121422,-0.011660175397992134,0.10128132166340947,0.07081445475574583,-9.797673484683036
46.7,0.10000000149011612,131.0,25.020980834960927,0.40554046630859375,0.0,0.0,0.0,0.0,0.0,-0.0,1.0,0.0,0.0,0.0,0.002703516045585275,-0.0008809310384094715,0.0048162713646888716,0.1120642542745918,0.06161147179082036,-9.809658522605895
46.9,0.10000000149011612,130.0,25.02223396301269,0.40554046630859375,0.0,0.0,0.0,0.0,0.0,-0.0,1.0,0.0,0.0,0.0,-0.0013794630067422984,-0.010964272543787956,-0.006691170390695334,0.11155912793241443,0.08561367991380392,-9.817167516946792
47.0,0.10000000149011612,129.0,25.01472091674805,0.3975887000560761,0.0,0.0,0.0,0.0,0.0,-0.0,1.0,0.0,0.0,0.0,0.003193390788510441,-0.003619220340624453,0.010490927845239641,0.11524969859048725,0.043157334853895016,-9.803321310281753
47.2,0.10000000149011612,132.0,25.01722526550293,0.3975887000560761,0.0,0.0,0.0,0.0,0.0,-0.0,1.0,0.0,0.0,0.0,0.007356972899287939,0.004632124211639166,0.005799553822726011,0.12775143851526086,0.058423725133761775,-9.809069123268127
47.3,0.10000000149011612,134.0,25.01722526550293,0.3975887000560761,0.0,0.0,0.0,0.0,0.0,-0.0,1.0,0.0,0.0,0.0,-0.0007818606682121754,0.004946092609316111,-0.006034763995558024,0.11744188369251787,0.07179585051722825,-9.806379404067991
47.5,0.10000000149011612,141.0,25.020980834960927,0.3896369338035584,0.0,0.0,0.0,0.0,0.0,-0.0,1.0,0.0,0.0,0.0,0.006534926127642393,0.013061052188277245,0.009530401788651943,0.11765377216972413,0.04825653630774469,-9.807682163715365
47.6,0.10000000149011612,142.0,25.01847648620605,0.40554046630859375,0.0,0.0,0.0,0.0,0.0,-0.0,1.0,0.0,0.0,0.0,0.009523404762148857,0.011081529781222343,0.0072582243010401734,0.1085449704900384,0.05634623682126402,-9.804757386446001
47.8,0.10000000149011612,146.0,25.01847648620605,0.4214440286159515,0.0,0.0,0.0,0.0,0.0,-0.0,1.0,0.0,0.0,0.0,-0.006466456688940525,0.007669276557862758,-0.0030106292106211185,0.10761484293267133,0.05577226865105332,-9.808870317935943
47.9,0.10000000149011612,148.0,25.01472091674805,0.41349223256111145,0.0,0.0,0.0,0.0,0.0,-0.0,1.0,0.0,0.0,0.0,0.000368990411516279,0.0060211047530174255,0.005441088695079088,0.10584563079290092,0.041211532233282916,-9.8054707467556
48.09,0.10000000149011612,149.0,25.015974044799805,0.40554046630859375,0.0,0.0,0.0,0.0,0.0,-0.0,1.0,0.0,0.0,0.0,0.009223479777574541,0.0007469736156053841,0.007261956576257944,0.09868151254020632,0.07666735773906112,-9.80527018725872
48.2,0.10000000149011612,151.0,25.01722526550293,0.3896369338035584,0.0,0.0,0.0,0.0,0.0,-0.0,1.0,0.0,0.0,0.0,-0.011470281518995762,-0.009249777533113956,-0.004923419561237097,0.1073548519704491,0.05603978790342808,-9.79791906774044
48.4,0.10000000149011612,153.0,25.015974044799805,0.37373337149620056,0.0,0.0,0.0,0.0,0.0,-0.0,1.0,0.0,0.0,0.0,0.002785223303362727,-0.0053306431509554395,-0.005488683003932239,0.1073036522883922,0.07386090436019004,-9.807806124687195
48.5,0.10000000149011612,153.0,25.012216567993164,0.3578298389911652,0.0,0.0,0.0,0.0,0.0,-0.0,1.0,0.0,0.0,0.0,-0.009102558717131616,-0.013919584453105928,-0.00915486179292202,0.11678951715119185,0.07505079904105515,-9.803104963302614
48.7,0.10000000149011612,152.0,25.015974044799805,0.3896369338035584,0.0,0.0,0.0,0.0,0.0,-0.0,1.0,0.0,0.0,0.0,0.008015160448849201,-0.00418475829064846,0.008584904484450817,0.12645845468156042,0.05366103550884873,-9.816393345594406
48.8,0.10000000149011612,151.0,25.012216567993164,0.37373337149620056,0.0,0.0,0.0,0.0,0.0,-0.0,1.0,0.0,0.0,0.0,0.0010652589844539762,-0.001873843139037489,-0.002998040523380041,0.12241503196768465,0.06823435714468361,-9.806757134199145
49.0,0.10000000149011612,148.0,25.01472091674805,0.37373337149620056,0.0,0.0,0.0,0.0,0.0,-0.0,1.0,0.0,0.0,0.0,0.0038787582889199257,0.006880124099552631,0.006736996117979288,0.1290066529903561,0.04501394916325808,-9.804654475450516
49.1,0.10000000149011612,147.0,25.0072078704834,0.3578298389911652,0.0,0.0,0.0,0.0,0.0,-0.0,1.0,0.0,0.0,0.0,0.008387326262891294,0.012454436160624029,0.007519668433815241,0.12668866138905288,0.05717855142429471,-9.810684124231337
49.3,0.10000000149011612,144.0,25.00470542907715,0.3975887000560761,0.0,0.0,0.0,0.0,0.0,-0.0,1.0,0.0,0.0,0.0,-0.011380176059901714,0.006084704771637917,-0.005447257310152054,0.11304193614050745,0.05558526738546789,-9.802955859303477
49.5,0.10000000149011612,142.0,25.015974044799805,0.41349223256111145,0.0,0.0,0.0,0.0,0.0,-0.0,1.0,0.0,0.0,0.0,0.0009964184137061238,0.01245840173214674,0.006902399938553572,0.11084479004144668,0.043120154784992336,-9.805433324575425
49.6,0.10000000149011612,140.0,25.01847648620605,0.41349223256111145,0.0,0.0,0.0,0.0,0.0,-0.0,1.0,0.0,0.0,0.0,-0.006950362119823693,0.0011962871067225929,-0.009523142129182816,0.100295746056363,0.07833642717450857,-9.804378486871721
49.7,0.10000000149011612,139.0,25.015974044799805,0.4293957948684693,0.0,0.0,0.0,0.0,0.0,-0.0,1.0,0.0,0.0,0.0,-0.010783183388411999,-0.001479076105169952,-0.006491956766694784,0.09879892280325292,0.06122445920482277,-9.801335011124614
49.9,0.10000000149011612,139.0,25.00971221923828,0.40554046630859375,0.0,0.0,0.0,0.0,0.0,-0.0,1.0,0.0,0.0,0.0,-0.0009953244589269161,0.0013738027773797512,0.006441433914005756,0.10294460783712568,0.07226299736648799,-9.810515724420542
50.0,0.10000000149011612,141.0,25.013469696044922,0.3975887000560761,0.0,0.0,0.0,0.0,0.0,-0.0,1.0,0.0,0.0,0.0,-0.010166386142373085,-0.0088275708258152,-0.012766121886670593,0.1089316815789789,0.07894675771705807,-9.80510295689106
50.2,0.10000000149011612,144.0,25.01472091674805,0.41349223256111145,0.0,0.0,0.0,0.0,0.0,-0.0,1.0,0.0,0.0,0.0,0.007644310593605042,-0.0006947541842237115,0.003799579339101911,0.12172697000205518,0.05962668468710036,-9.816815514564516
50.39,0.10000000149011612,146.0,25.013469696044922,0.41349223256111145,0.0,0.0,0.0,0.0,0.0,-0.0,1.0,0.0,0.0,0.0,0.005827341228723526,-0.009073900058865549,-0.002987205749377609,0.11756155061535538,0.06773938120342791,-9.812476880550383
50.5,0.10000000149011612,152.0,25.015974044799805,0.40554046630859375,0.0,0.0,0.0,0.0,0.0,-0.0,1.0,0.0,0.0,0.0,0.003305477788671851,-0.004360392689704895,0.004507064819335938,0.11890786288306116,0.04745825889520349,-9.809360899329183
50.6,0.10000000149011612,157.0,25.01472091674805,0.40554046630859375,0.0,0.0,0.0,0.0,0.0,-0.0,1.0,0.0,0.0,0.0,0.007475349120795727,0.002663526218384505,0.005821456201374532,0.1228040636703372,0.04632608719635755,-9.803116073012353
50.8,0.10000000149011612,167.0,25.00971221923828,0.40554046630859375,0.0,0.0,0.0,0.0,0.0,-0.0,1.0,0.0,0.0,0.0,-0.008394626900553703,-0.002614505821838975,-0.001383546972647309,0.12437447961419824,0.06039508191403002,-9.805546175837515
50.9,0.10000000149011612,172.0,25.01472091674805,0.40554046630859375,0.0,0.0,0.0,0.0,0.0,-0.0,1.0,0.0,0.0,0.0,0.00018581822223495692,0.007910517975687979,0.011480923742055893,0.12525278622284533,0.04954195530619473,-9.812205569744108
51.1,0.10000000149011612,183.0,25.013469696044922,0.40554046630859375,0.0,0.0,0.0,0.0,0.0,-0.0,1.0,0.0,0.0,0.0,-0.007914074696600437,0.006462129298597574,-0.007027262356132269,0.10473219302482904,0.06939548626542091,-9.79560415506363
51.3,0.10000000149011612,189.0,25.01472091674805,0.4214440286159515,0.0,0.0,0.0,0.0,0.0,-0.0,1.0,0.0,0.0,0.0,-0.0046023675240576285,0.007283552549779416,0.000496239576023072,0.10817933678627016,0.055838543185964234,-9.803710150122646
51.4,0.10000000149011612,201.0,25.013469696044922,0.40554046630859375,0.0,0.0,0.0,0.0,0.0,-0.0,1.0,0.0,0.0,0.0,-0.005463605746626854,0.003256329335272312,-0.008270464837551117,0.09972021558322013,0.07514891806058586,-9.803485032320024
51.5,0.10000000149011612,206.0,25.01472091674805,0.40554046630859375,0.0,0.0,0.0,0.0,0.0,-0.0,1.0,0.0,0.0,0.0,-0.009111282415688038,-0.004076369572430849,-0.009759747423231602,0.10336322279646994,0.06618462026584894,-9.802942995429039
51.7,0.10000000149011612,215.0,25.01472091674805,0.41349223256111145,0.0,0.0,0.0,0.0,0.0,-0.0,1.0,0.0,0.0,0.0,-0.0014034702908247714,0.0004076648037880658,0.001298123737797141,0.11204663953743876,0.07023881007917225,-9.809739798903466
51.79,0.10000000149011612,220.0,25.01972961425781,0.40554046630859375,0.0,0.0,0.0,0.0,0.0,-0.0,1.0,0.0,0.0,0.0,-0.012317337095737456,-0.008568941615521908,-0.01086808741092682,0.10487313833087683,0.07956432418897748,-9.810664243698119
52.0,0.10000000149011612,226.0,25.01096534729004,0.3975887000560761,0.0,0.0,0.0,0.0,0.0,-0.0,1.0,0.0,0.0,0.0,0.00792008638381958,-0.0005056027439422905,0.002768738660961389,0.1112194777932018,0.053256563502363866,-9.803784994482994
52.22,0.10000000149011612,228.0,25.00971221923828,0.3578298389911652,0.0,0.0,0.0,0.0,0.0,-0.0,1.0,0.0,0.0,0.0,-0.0029515100177377467,-0.011446485295891762,-0.005889712832868099,0.1061210255138576,0.07407098385505377,-9.803477430939674
52.4,0.10000000149011612,227.0,25.01722526550293,0.40554046630859375,0.0,0.0,0.0,0.0,0.0,-0.0,1.0,0.0,0.0,0.0,-0.011725738644599916,-0.006818571127951145,-0.008931610733270645,0.12085698653943835,0.0698060704395175,-9.812619552612308
52.5,0.10000000149011612,224.0,25.01472091674805,0.41349223256111145,0.0,0.0,0.0,0.0,0.0,-0.0,1.0,0.0,0.0,0.0,0.008832432329654694,0.004050913266837597,0.0051630153320729715,0.12889576602727176,0.0660816864296794,-9.812970385551452
52.6,0.10000000149011612,221.0,25.01722526550293,0.41349223256111145,0.0,0.0,0.0,0.0,0.0,-0.0,1.0,0.0,0.0,0.0,-0.002629880327731371,-0.0008771279244683683,-0.004172090440988541,0.12239194460213185,0.0759845445631072,-9.806265968084336
52.8,0.10000000149011612,214.0,25.012216567993164,0.41349223256111145,0.0,0.0,0.0,0.0,0.0,-0.0,1.0,0.0,0.0,0.0,0.008815929293632506,0.013563772663474085,0.012285017408430576,0.11790433449670673,0.04289794688578695,-9.799052258133887
52.9,0.10000000149011612,211.0,25.01096534729004,0.3975887000560761,0.0,0.0,0.0,0.0,0.0,-0.0,1.0,0.0,0.0,0.0,0.003777456935495138,0.009247864596545695,-0.0006119250901974738,0.10970016103237867,0.06494528920389712,-9.796806927323342
53.1,0.10000000149011612,207.0,25.012216567993164,0.3975887000560761,0.0,0.0,0.0,0.0,0.0,-0.0,1.0,0.0,0.0,0.0,-0.0008491153712384403,0.008472601883113384,0.005468973889946938,0.10144545483402907,0.048599895774386816,-9.803390892148018
53.2,0.10000000149011612,206.0,25.01722526550293,0.3975887000560761,0.0,0.0,0.0,0.0,0.0,-0.0,1.0,0.0,0.0,0.0,0.007036531809717417,0.00447953911498189,0.009506136178970335,0.1127515670657158,0.05383485313039273,-9.809468488097194
53.4,0.10000000149011612,203.0,25.013469696044922,0.40554046630859375,0.0,0.0,0.0,0.0,0.0,-0.0,1.0,0.0,0.0,0.0,-0.011208819225430487,-0.008322062902152538,-0.006786481942981482,0.109122255127877,0.07171551982406528,-9.819680650234226
53.5,0.10000000149011612,201.0,25.013469696044922,0.40554046630859375,0.0,0.0,0.0,0.0,0.0,-0.0,1.0,0.0,0.0,0.0,-0.0008454152848571539,-0.00549120269715786,0.006449292879551649,0.11590929192490874,0.0539015205251053,-9.818443379402161
53.7,0.10000000149011612,197.0,25.01472091674805,0.4214440286159515,0.0,0.0,0.0,0.0,0.0,-0.0,1.0,0.0,0.0,0.0,0.01112805400043726,-0.0015641291392967105,0.008525567129254341,0.10800753828138114,0.07341402176767588,-9.802472879290582
53.8,0.10000000149011612,195.0,25.01847648620605,0.44529932737350464,0.0,0.0,0.0,0.0,0.0,-0.0,1.0,0.0,0.0,0.0,-0.009565242566168308,-0.003724483773112297,-0.000369103072443977,0.12315179027616978,0.05782407946418972,-9.807665791511537
53.91,0.10000000149011612,194.0,25.01847648620605,0.3896369338035584,0.0,0.0,0.0,0.0,0.0,-0.0,1.0,0.0,0.0,0.0,0.0044792406260967255,0.003027547616511584,-0.0009894556133076546,0.11293916218914092,0.0667565282061696,-9.797192843556404
54.1,0.10000000149011612,195.0,25.00971221923828,0.4214440286159515,0.0,0.0,0.0,0.0,0.0,-0.0,1.0,0.0,0.0,0.0,-0.011774362996220587,0.0044313366524875155,-0.010080235078930857,0.1140529197268188,0.07348981173243374,-9.801806881427764
54.3,0.10000000149011612,196.0,25.00846099853516,0.40554046630859375,0.0,0.0,0.0,0.0,0.0,-0.0,1.0,0.0,0.0,0.0,0.008553464896976948,0.01238969061523676,0.008808277547359467,0.1195902420859784,0.055925566200166935,-9.807294493317604
54.4,0.20000000298023224,194.0,25.01472091674805,0.3896369338035584,0.0,0.0,0.0,0.0,0.0,-0.0,1.0,0.0,0.0,0.0,0.003649687161669135,0.002544023795053363,-0.0031366171315312386,0.10263817719183864,0.07900862856768072,-9.809378440976143
54.5,0.20000000298023224,192.0,25.01096534729004,0.3896369338035584,0.0,0.0,0.0,0.0,0.0,-0.0,1.0,0.0,0.0,0.0,0.0028260862454772,0.009259244427084923,0.00656611705198884,0.11258366975001992,0.05907584042754024,-9.82273289680481
54.8,0.20000000298023224,189.0,25.015974044799805,0.41349223256111145,0.0,0.0,0.0,0.0,0.0,-0.0,1.0,0.0,0.0,0.0,0.007759546395391227,-0.001576523180119693,0.007807898800820112,0.10894775228574873,0.0627640082454309,-9.810873574018476
54.9,0.20000000298023224,184.0,25.01096534729004,0.40554046630859375,0.0,0.0,0.0,0.0,0.0,-0.0,1.0,0.0,0.0,0.0,-0.006881165783852339,-0.009886089712381365,-0.00746392086148262,0.10749574245885016,0.061998096085153526,-9.808732323646543
55.0,0.20000000298023224,182.0,25.013469696044922,0.41349223256111145,0.0,0.0,0.0,0.0,0.0,-0.0,1.0,0.0,0.0,0.0,0.002744741039350629,-0.002787875710055232,0.008268752135336399,0.12794437835924327,0.04067473956383765,-9.805003554224973
55.2,0.20000000298023224,179.0,25.01472091674805,0.3975887000560761,0.0,0.0,0.0,0.0,0.0,-0.0,1.0,0.0,0.0,0.0,-0.009633539244532585,-0.008751394227147102,-0.0054907617159187785,0.12271651988849044,0.06808516178280115,-9.803293828368187
55.29,0.20000000298023224,179.0,25.01472091674805,0.3896369338035584,0.0,0.0,0.0,0.0,0.0,-0.0,1.0,0.0,0.0,0.0,-0.003968227189034224,0.0012198183685541153,-0.0017689075320959093,0.12424409584142268,0.05195062899962069,-9.811023262739182
55.5,0.20000000298023224,178.0,25.00971221923828,0.4214440286159515,0.0,0.0,0.0,0.0,0.0,-0.0,1.0,0.0,0.0,0.0,-0.0019479579059407113,0.002710408763960004,-0.005065696779638529,0.11701423295773565,0.07618062271736563,-9.80795932173729
55.6,0.20000000298023224,176.0,24.994688034057607,0.3657816052436829,0.0,0.0,0.0,0.0,0.0,-0.0,1.0,0.0,0.0,0.0,-0.010770151391625404,0.005369007587432861,-0.009808078408241272,0.11126726964488626,0.07144665753934533,-9.80210391998291
55.8,0.20000000298023224,176.0,25.012216567993164,0.41349223256111145,0.0,0.0,0.0,0.0,0.0,-0.0,1.0,0.0,0.0,0.0,0.007589440792798995,0.014994049444794657,0.009337307885289192,0.11249028788879514,0.059449874935671686,-9.810057302713394
55.9,0.20000000298023224,176.0,25.01472091674805,0.3975887000560761,0.0,0.0,0.0,0.0,0.0,-0.0,1.0,0.0,0.0,0.0,0.00027974293334409595,0.00014024348638486114,-0.002312479540705681,0.09910829532891513,0.07713832355104387,-9.810908657312394
56.1,0.20000000298023224,178.0,25.01096534729004,0.3896369338035584,0.0,0.0,0.0,0.0,0.0,-0.0,1.0,0.0,0.0,0.0,-0.006259043235331775,-0.008203618228435516,-0.011379105038940908,0.10211914543993772,0.04935538801364602,-9.802972231507304
56.2,0.10000000149011612,177.0,25.00971221923828,0.3896369338035584,0.0,0.0,0.0,0.0,0.0,-0.0,1.0,0.0,0.0,0.0,0.010964498855173588,0.00014946774172130972,0.0063158473931252965,0.11854829566553235,0.056061057150363934,-9.815634377002718
56.3,0.10000000149011612,178.0,25.00094795227051,0.3578298389911652,0.0,0.0,0.0,0.0,0.0,-0.0,1.0,0.0,0.0,0.0,-0.011439229361712929,-0.009436648339033129,-0.010419446974992752,0.11265954650938513,0.06686070000752807,-9.80110404610634
56.5,0.10000000149011612,178.0,25.00846099853516,0.3975887000560761,0.0,0.0,0.0,0.0,0.0,-0.0,1.0,0.0,0.0,0.0,-0.0020784353837370872,-0.0027060636784881353,0.00183666602242738,0.1315564866922796,0.05174749764148146,-9.811485192775727
56.7,0.10000000149011612,177.0,25.01096534729004,0.4214440286159515,0.0,0.0,0.0,0.0,0.0,-0.0,1.0,0.0,0.0,0.0,0.008032303303480148,0.004668998066335917,0.009622466750442982,0.11959319310262803,0.07568894953932613,-9.806578794121744
56.8,0.10000000149011612,176.0,25.01472091674805,0.40554046630859375,0.0,0.0,0.0,0.0,0.0,-0.0,1.0,0.0,0.0,0.0,-0.01174050197005272,0.0020977372769266367,-0.003152996767312289,0.11644748244434595,0.07128514647949488,-9.802597424983981
57.0,0.10000000149011612,174.0,25.00971221923828,0.41349223256111145,0.0,0.0,0.0,0.0,0.0,-0.0,1.0,0.0,0.0,0.0,0.011111163534224032,0.010019945912063122,0.005445438902825117,0.11645748666487635,0.05410159123130144,-9.806647791266444
57.1,0.10000000149011612,172.0,25.012216567993164,0.40554046630859375,0.0,0.0,0.0,0.0,0.0,-0.0,1.0,0.0,0.0,0.0,0.005040453281253575,0.008975978940725327,-0.0007052274886518718,0.10165591805242002,0.06590483556501567,-9.795945047736168
57.3,0.10000000149011612,167.0,25.01472091674805,0.3896369338035584,0.0,0.0,0.0,0.0,0.0,-0.0,1.0,0.0,0.0,0.0,1.1431625352997798e-05,0.006710833869874477,0.008603474125266075,0.11142015606164933,0.052186390561982994,-9.810178924798967
57.39,0.10000000149011612,165.0,25.012216567993164,0.41349223256111145,0.0,0.0,0.0,0.0,0.0,-0.0,1.0,0.0,0.0,0.0,-0.0060710711404681214,-0.00015230145072564485,-0.010196742601692677,0.10375645718537273,0.07841374746523798,-9.800247429013252
57.6,0.10000000149011612,161.0,25.00846099853516,0.3816851377487183,0.0,0.0,0.0,0.0,0.0,-0.0,1.0,0.0,0.0,0.0,-0.007388442289084195,-0.005835044663399458,-0.01159449853003025,0.10882485112175344,0.07713862504810096,-9.809417032599447
57.7,0.10000000149011612,159.0,25.00846099853516,0.40554046630859375,0.0,0.0,0.0,0.0,0.0,-0.0,1.0,0.0,0.0,0.0,-0.005427566822618246,-0.00513196038082242,-0.005155093036592007,0.1159138691984117,0.0617624121811241,-9.814144506454467
57.9,0.10000000149011612,154.0,25.01472091674805,0.40554046630859375,0.0,0.0,0.0,0.0,0.0,-0.0,1.0,0.0,0.0,0.0,0.0031415342818945646,-0.005885389167815447,-0.004110601730644703,0.10508371118456124,0.06977401125244796,-9.80449777007103
58.0,0.10000000149011612,151.0,25.01096534729004,0.4293957948684693,0.0,0.0,0.0,0.0,0.0,-0.0,1.0,0.0,0.0,0.0,-0.007959355600178242,-0.006803494878113271,-0.007945805788040161,0.11701471718028188,0.0763582684379071,-9.80779326081276
58.19,0.10000000149011612,144.0,25.012216567993164,0.41349223256111145,0.0,0.0,0.0,0.0,0.0,-0.0,1.0,0.0,0.0,0.0,0.006794790737330914,0.0038690476212650533,0.010170732624828815,0.11961484607309104,0.04594514566473664,-9.79774949848652
58.3,0.10000000149011612,141.0,25.01096534729004,0.4214440286159515,0.0,0.0,0.0,0.0,0.0,-0.0,1.0,0.0,0.0,0.0,0.006915520876646042,0.004050880204886198,0.010393745265901087,0.1187414090987295,0.05264626036863775,-9.80149756371975
58.5,0.10000000149011612,136.0,25.012216567993164,0.40554046630859375,0.0,0.0,0.0,0.0,0.0,-0.0,1.0,0.0,0.0,0.0,-0.00042789080180227757,0.005096308421343565,-0.0008370255818590523,0.11902726485393945,0.055859044985845686,-9.809790669679645
58.69,0.10000000149011612,134.0,25.013469696044922,0.41349223256111145,0.0,0.0,0.0,0.0,0.0,-0.0,1.0,0.0,0.0,0.0,0.003235451178625226,0.0121377632021904,0.009489764459431171,0.12161961877718568,0.05343775866553188,-9.816919595003126
