time,wind_speed,wind_angle,battery_voltage,battery_current,position_x,position_y,position_z,orientation_x,orientation_y,orientation_z,orientation_w,velocity_x,velocity_y,velocity_z,angular_x,angular_y,angular_z,linear_acceleration_x,linear_acceleration_y,linear_acceleration_z
0.0,1.600000023841858,98.0,22.49058723449707,21.8355712890625,-79.94650568862508,40.44343704646615,253.5523729171753,-0.00766815710812807,0.002354407915845513,0.2534993588924408,0.9673023223876952,0.2730567167607123,-0.1211964884676443,0.2163506013320074,-0.11744683980941772,-0.085408054292202,-0.09837958216667177,0.006749966363422573,0.053309394009411336,-9.814876577854157
0.1,1.7000000476837158,105.0,22.465545654296875,21.445934295654297,-79.94650499334952,40.44343713400885,253.59437464141843,-0.0081190699711442,-0.0007221869309432805,0.25725921988487244,0.9663081169128418,0.2690407948963901,-0.08559387905011838,0.2051419137775921,-0.07902321219444275,-0.0058051515370607385,-0.06757233291864395,0.07211649720557034,-0.05358185598626733,-9.755402208566666
0.3,1.7000000476837158,108.0,22.47430992126465,22.14569091796875,-79.94650418645223,40.443436784627984,253.5983686294556,-0.007876590825617312,-0.0027626492083072662,0.2580504715442657,0.9660953879356384,0.29226244842928684,-0.11569214930977455,0.17328176803504752,0.038742512464523315,0.03389498218894005,0.01673719845712185,0.15357536494731905,-0.2301268929988146,-9.762080313563349
0.4,1.600000023841858,105.0,22.448017120361328,21.70834350585937,-79.94650321722646,40.443436622647255,253.63045881652832,-0.004237862303853035,-0.006150285247713327,0.2596316933631897,0.9656789302825928,0.27794660382358555,-0.09724863294456024,0.17223117060367685,-0.060299258679151535,0.08516383171081543,-0.03809147328138352,0.0688083070423454,-0.02637757552787661,-9.833974753618241
0.6,1.600000023841858,105.0,22.481822967529297,21.310754776000977,-79.9465028925358,40.44343667461931,253.6484365310669,-0.0019441402982920406,-0.005930640734732151,0.26085469126701355,0.9653578996658324,0.26181232004124544,-0.08585449401370418,0.17989028253890724,0.0483039952814579,0.04904467985033989,0.060828495770692825,0.05832193790003658,-0.26272480962798,-9.901952143907547
0.7,1.600000023841858,103.0,22.465545654296875,21.49364471435547,-79.94650238813381,40.44343662363934,253.6876382675171,0.0015327662695199251,-0.0017849551513791086,0.2637089788913727,0.9645994901657104,0.2132221620644629,-0.05791977508169066,0.1897603359878102,-0.08869767189025879,-0.08082439005374907,-0.0007055123569443822,0.011546615520492196,-0.025681683775037528,-9.852854243516925
0.9,1.5,100.0,22.494342803955078,21.45388603210449,-79.94650213613869,40.443436676738784,253.70659349822998,0.0019496191525831816,-0.0004829360696021467,0.2649655342102051,0.9642558693885804,0.20052933048127905,-0.052363398317599064,0.1861458015402609,-0.07101372629404068,0.03746262937784195,-0.04598643258213997,0.1270178779028356,-0.10572482183575632,-9.788745371103287
1.0,1.600000023841858,101.0,22.47055435180664,21.382320404052734,-79.94650150048398,40.44343677644432,253.74012182617187,0.0023425493855029345,-0.002513634040951729,0.26572591066360474,0.9640425443649292,0.21055426225283444,-0.03664724845442805,0.1601027788389709,-0.002431888366118073,-0.017539545893669132,0.06388472765684128,0.07380506801884623,-0.2747014969959855,-9.761459923982619
1.2,1.600000023841858,102.0,22.409204483032227,21.891233444213867,-79.94650127756371,40.44343684180338,253.7559289779663,0.0018755480414256454,-0.004194872453808785,0.2660570740699768,0.9639464020729064,0.19032647073458198,-0.02666650108927709,0.1561010755289812,-0.07711546868085861,-0.006781258620321751,-0.050519466400146484,0.11592931863851845,-0.005156294032931328,-9.728767556548119
1.3,1.5,101.0,22.54818153381348,20.491722106933594,-79.94650086165511,40.4434369124326,253.78668783569336,0.002525700256228447,-0.0063254572451114655,0.26588231325149536,0.9639814496040344,0.1660724538594048,-0.012487134587088064,0.15065313558015342,-0.03300665691494942,-0.01986049860715866,0.00177183432970196,0.0497299752663821,-0.08507167043164372,-9.745526846051217
1.5,1.5,100.0,22.386667251586914,22.757976531982425,-79.94650041853207,40.443437013433524,253.802727684021,0.0040706065483391285,-0.007938263937830925,0.2648857831954956,0.9642385244369508,0.1813446670590471,0.005974902487365486,0.1309590448288333,-0.15865686535835266,-0.05564622953534126,-0.07845428586006165,-0.004747920837253333,0.022470804071053858,-9.667258940935138
1.6,1.399999976158142,98.0,22.324064254760746,22.98857879638672,-79.9465001059901,40.443437164298075,253.83006857299804,0.008666110225021841,-0.013105882331728935,0.2658616602420807,0.9638832211494446,0.1331953340406779,0.0003638065589817649,0.14920719158623227,0.028627490624785423,0.0889962837100029,-0.007886631414294245,0.1193032534327358,-0.1535425839945674,-10.012071586847307
1.8,1.399999976158142,101.0,22.401691436767575,21.636775970458984,-79.94649995811122,40.44343729697865,253.84690855407715,0.010490845888853071,-0.013382302597165108,0.26644036173820496,0.9637014269828796,0.12794761461414478,0.02630321459250223,0.19868137129226854,0.13456907868385315,0.12194547057151794,0.030514197424054142,0.130469105578959,-0.2077561219967902,-10.337072696685787
1.9,1.5,92.0,22.230159759521484,24.6027889251709,-79.94649984229869,40.44343738598535,253.8945541229248,0.012454754672944546,-0.00827110279351473,0.26786988973617554,0.96333909034729,0.08765373065774519,0.037094179580917125,0.2630354423087534,0.2233751565217972,0.05894221365451813,-0.004874845501035453,0.1756698001921177,-0.04521226113662124,-10.163273566961287
2.1,1.600000023841858,89.0,22.28900718688965,23.07604789733887,-79.94649979798949,40.44343744013526,253.92245481872558,0.010893678292632105,-0.001672003767453134,0.2689992189407349,0.9630773663520812,0.06905900886160972,0.03387527726761245,0.2807054006697397,0.2248181849718094,0.02686060406267643,0.02825812250375748,0.2333088015764952,-0.18155016224831344,-10.006124968528747
2.2,1.600000023841858,79.0,22.27523422241211,23.60086441040039,-79.94649983517752,40.443437671784665,253.9670438613892,0.010656780563294888,0.0024936904665082693,0.2699559032917023,0.9628105759620668,0.07637628137895687,0.04595354445872435,0.27295585992745225,0.1356283724308014,0.09357283264398576,0.07347935438156128,0.16677037451416254,-0.2253485483676196,-9.949204663038254
2.4,1.600000023841858,69.0,22.170061111450195,24.06206703186035,-79.9464997976972,40.443437726004746,253.9954862442017,0.014581033028662203,-0.00033176274155266583,0.2705371677875519,0.9625990390777588,0.06955453852631857,0.026865630196786776,0.2886269093301625,0.05738222226500511,0.15037302672863007,0.06540536135435104,0.1603030433692038,-0.1616407766751945,-9.965872735977172
2.5,1.600000023841858,58.0,22.20011138916016,23.592912673950195,-79.94649980214795,40.44343809477036,254.0335397567749,0.025607181712985042,-0.007041496224701405,0.26706069707870483,0.9633137583732604,0.06606228441524276,0.039029251325988716,0.33353166478609625,-0.09118456393480301,0.011685656383633614,-0.056534402072429664,0.15955522103235126,0.3899844333529473,-10.083477784395221
2.7,1.600000023841858,48.0,22.280242919921875,22.7977352142334,-79.9464997512234,40.44343813070759,254.0687894668579,0.025989508256316185,-0.005439862143248321,0.2661817371845245,0.9635571241378784,0.050454444527460125,0.021097300899779285,0.3714680316035077,-0.10997485369443892,-0.06806763261556625,-0.051593340933322906,0.15078897482715548,0.2891576230712235,-10.112037924528122
2.8,1.7000000476837158,23.0,22.246437072753906,23.44978141784668,-79.94649977361199,40.44343834499679,254.1247587051392,0.02280122973024845,-0.0048179193399846545,0.2681635916233063,0.9630915522575378,0.039897883828978416,0.00024416119129551384,0.3825220616142173,0.08343352377414702,-0.03346673771739006,-0.05187731608748436,0.23124042212963106,-0.004310508564230986,-9.995580099821089
3.0,1.7000000476837158,12.0,22.45052146911621,21.41412734985352,-79.94650011347659,40.4434385192141,254.13128088378903,0.02395427227020264,-0.004847573582082987,0.27016252279281616,0.9625045657157898,0.019148606225706664,0.015139686475975288,0.3557645089445182,0.09124968200922012,0.09680929034948348,0.000867315218783915,0.2301671839691699,-0.11242867285385727,-9.923707294464114
3.1,1.7000000476837158,346.0,22.67964744567871,18.551488876342773,-79.94650011212066,40.4434385161521,254.19466780090332,0.033740587532520294,-0.0031441638711839914,0.2744652330875397,0.9609997868537904,-0.02633830628612205,-0.034918576216068704,0.2620464417707013,-0.010177950374782084,0.08167614787817001,-0.021723730489611626,0.236267474424094,0.009406329025514424,-9.222775826454162
3.3,1.7000000476837158,349.0,22.243932723999023,23.10785484313965,-79.94650053098704,40.44343890204493,254.19227026367187,0.03614140674471855,-0.0005029146559536457,0.275264173746109,0.9606890082359314,-0.039699237776273176,-0.011674391095315251,0.15551014942316932,0.04683418944478035,0.019564865157008168,0.01372589822858572,0.220578791834414,0.05213523656129837,-9.009985708594325
3.4,1.7000000476837158,343.0,22.10996437072754,24.82543754577637,-79.94650096361099,40.443439168254415,254.22546099090576,0.034593768417835236,0.008625123649835588,0.2747188806533813,0.9608634114265442,-0.045506022690025995,-0.039718495278797575,0.11358653843407622,0.1568075865507126,-0.04785797744989395,-0.011055071838200092,0.33426419578492644,-0.013746068528853357,-9.706173330545424
3.6,1.7000000476837158,329.0,22.422975540161133,21.84352302551269,-79.94650096685261,40.44343909214137,254.23709677124023,0.031190386041998863,0.012286638841032982,0.2736455500125885,0.9612462520599364,-0.0404607501973714,-0.08732276074762307,0.12165971529402493,0.14120784401893616,-0.07341847568750381,0.05106088519096375,0.198160366024822,0.035083604548126465,-9.784306164979936
3.7,1.5,304.0,22.34660148620605,22.090028762817386,-79.94650154416229,40.44343913888531,254.26575563812256,0.02688104659318924,0.018318869173526764,0.270162969827652,0.9622650146484376,-0.035959334000192675,-0.115172612820716,0.07998736726176317,-0.05070418864488602,-0.03315962105989456,-0.036275748163461685,0.18878064639866354,0.08533408250659705,-9.544398999810221
3.9,1.5,290.0,22.41671562194824,21.207380294799805,-79.94650147992141,40.44343902000861,254.2720708694458,0.02511238120496273,0.017168164253234863,0.26967692375183105,0.962470293045044,-0.02085837830623136,-0.15303120580741852,0.0664797004689271,-0.1285707801580429,-0.05434289574623108,-0.021534020081162453,0.20698452707380052,0.11186126452870668,-9.591622867584231
4.0,1.5,266.0,22.310291290283203,22.137739181518555,-79.94650217698427,40.44343889107952,254.30908583068847,0.01854201406240464,0.015184803865849972,0.2686292231082916,0.962945520877838,-0.007094031122052006,-0.16633227556104346,0.044153456667962235,0.05944248288869858,-0.0381709523499012,-0.049693912267684937,0.18123715348541736,0.013601016467437149,-9.645186286568643
4.2,1.5,243.0,22.360374450683594,21.71629524230957,-79.94650214268236,40.443438785600854,254.31164739990243,0.016971619799733162,0.016324333846569058,0.2694127559661865,0.9627368450164796,0.013727087175369464,-0.18852532689904966,0.0184168563407872,0.09489510208368301,0.025495648384094242,0.03485323488712312,0.1605126477777958,-0.08694888247177006,-9.563956182003023
4.3,1.5,209.0,22.4567813873291,20.4837703704834,-79.94650273364705,40.44343841216779,254.32655046844482,0.01589768566191196,0.022342067211866386,0.2709066271781921,0.962215006351471,0.01270737141939105,-0.19795639395704764,-0.006864092498014242,0.036566413938999176,-0.019410541281104088,-0.05762434378266335,0.16513816080987453,0.06256582417991012,-9.575202716588976
4.5,1.399999976158142,193.0,22.223899841308594,23.64062309265137,-79.94650355603163,40.44343793304819,254.3533696975708,0.014753223396837713,0.0252400953322649,0.2708296477794647,0.9621832370758056,-0.008933462526444929,-0.19566833261152386,0.0031047128123872164,0.07672347128391266,-0.005577902775257826,-0.042704250663518906,0.27199268298223617,-0.048784032817929986,-9.609891323447226
4.6,1.2000000476837158,186.0,22.290258407592773,21.771957397460934,-79.94650330304589,40.44343762880787,254.3512306060791,0.01099618338048458,0.026673385873436928,0.27415668964385986,0.9612522125244141,0.0585117825441515,-0.22127110667624084,0.008876668730747278,0.015775499865412712,-0.034032564610242844,-0.05930809676647186,0.2455725872330368,0.04341532040387392,-9.87947895526886
4.8,1.2000000476837158,180.0,22.36162567138672,21.11195945739746,-79.94650410167964,40.44343735487678,254.37883757019043,0.009267492219805716,0.028462054207921025,0.2753376066684723,0.9608815312385559,0.05391081920484218,-0.20306698411539087,0.04104135805776328,0.05491809919476509,0.04318970814347267,-0.03917035833001137,0.2929430191218853,-0.05903917655814439,-9.943824055194856
4.9,1.2999999523162842,191.0,22.29151153564453,22.288822174072266,-79.94650453555134,40.44343676491225,254.39265535736084,0.007334250956773758,0.03057651780545712,0.277422159910202,0.9602334499359132,0.0770841618754931,-0.1992642933569315,0.07325892125423357,-0.02536192163825035,-0.08204714208841324,0.0413711778819561,0.240187265072018,-0.13372254204936326,-9.913705047369005
5.1,1.2999999523162842,187.0,22.265216827392575,22.28087043762207,-79.94650429830722,40.443436663543295,254.3993520584106,0.006357107777148485,0.029957029968500137,0.2778839766979217,0.9601263999938964,0.11897133280907113,-0.1953550727629519,0.08821854510971844,-0.11828342080116272,-0.10676679760217668,-0.02480178140103817,0.2338484082184732,0.0925272449757904,-9.872261152267457
5.21,1.5,176.0,22.34159278869629,20.913166046142575,-79.94650441792552,40.44343577537367,254.409549697876,0.004661052487790585,0.026005178689956658,0.2746593654155731,0.9611786007881165,0.14646120668137128,-0.21307480906617976,0.12045095594029236,-0.0906333401799202,-0.03990843892097473,0.0230145025998354,0.19257077503949405,-0.011318322862498462,-9.933205511569977
5.4,1.600000023841858,173.0,22.103702545166016,23.855321884155273,-79.94650410949775,40.44343570058121,254.4182023849488,0.0033260874915868053,0.025022614747285843,0.27303004264831543,0.9616742730140686,0.1981949031347984,-0.202093487972532,0.07241265109419795,0.07762561738491057,-0.0022778145503252745,0.0052477861754596225,0.3622448037564753,-0.13844923932105305,-9.51092018187046
5.5,1.7000000476837158,175.0,22.238924026489254,22.495569229125977,-79.94650385970023,40.443434569837535,254.42227266693115,-0.0039648995734751225,0.022957859560847282,0.2704983353614807,0.9624385237693788,0.1973684656380516,-0.2088420480044075,0.058327900380472586,-0.093706913292408,-0.17323142290115354,0.007822617888450624,0.2182946684025228,-0.2225194461643696,-9.636105560660363
5.7,1.7999999523162842,177.0,22.256452560424805,22.272918701171875,-79.9465035108681,40.443434519188976,254.4269780960083,-0.007358643226325513,0.022098852321505547,0.2708640694618225,0.9623358249664308,0.23104237235484346,-0.1850457610329684,0.06123652724643545,-0.038387622684240334,-0.1415628343820572,0.07335915416479111,0.2689316655881703,-0.2018650887720287,-9.819778883457184
5.8,2.0,175.0,22.419219970703125,20.54738426208496,-79.94650322742207,40.44343367708133,254.43242739105224,-0.012403852306306362,0.01895380951464176,0.2747423052787781,0.961251139640808,0.2360720347976905,-0.15487232834944076,0.051154911783412735,-0.05928488448262215,-0.12119125574827196,0.02238680236041546,0.17841658456251025,-0.2617279324494303,-9.672009803652763
6.0,2.0,175.0,22.272729873657227,22.082077026367188,-79.9465025599188,40.44343284541815,254.41708277130127,-0.013036195188760756,0.0168972946703434,0.2775576114654541,0.9604719877243042,0.2355144576600217,-0.17590818240410028,0.01900150882670628,-0.12802457809448242,-0.05512779951095581,-0.2072850465774536,0.15178364102728667,-0.001855883407406509,-9.559174913764
6.1,2.200000047683716,178.0,22.22640419006348,22.447856903076172,-79.94650185324628,40.44343287528592,254.4160041656494,-0.00932076945900917,0.012817664071917534,0.2836299538612366,0.9588029384613036,0.27852956973932386,-0.1105398611506383,-0.001282553306830523,-0.0441061332821846,-0.010885441675782205,-0.05086836218833923,0.2466783870756626,-0.1611277565918863,-9.756887401342393
6.3,2.299999952316284,177.0,22.21012687683105,22.877254486083984,-79.94650130865772,40.443432008741816,254.4125804748535,-0.007042590528726578,0.009489019401371479,0.2840535044670105,0.9587357044219972,0.26160856091594503,-0.14058828524689668,-0.00031975987586305897,-0.03850862383842468,-0.008615524508059025,-0.05580245703458786,0.3057356671616435,-0.14453472901135686,-9.809938019514084
6.4,2.299999952316284,171.0,22.197607040405273,22.26496696472168,-79.94650001564338,40.4434315246944,254.37646578216552,-0.009055569767951964,0.004728942178189754,0.28167834877967834,0.9594545364379884,0.2833811368709215,-0.13011435906027502,-0.008269002532546588,-0.0313192680478096,-0.05713784694671632,0.057621501386165626,0.2268653891980648,-0.1958210229501129,-9.884831496477126
6.6,2.299999952316284,172.0,22.80986022949219,17.374626159667972,-79.94649966211108,40.4434315772254,254.3759412612915,-0.011337528005242348,0.00325589650310576,0.28050974011421204,0.9597787857055664,0.27858132119900325,-0.09541423891762364,0.0017154371983763332,-0.06222600117325783,-0.05145987868309021,0.07825208455324173,0.13122820207849145,-0.12584898294880986,-9.844064708948137
6.7,2.299999952316284,166.0,21.82073974609375,26.9167537689209,-79.9464984105479,40.4434314502723,254.33509539031985,-0.013834199868142605,0.0020472104661166672,0.27851828932762146,0.9603291153907776,0.3022705839547504,-0.056318108300459566,-0.11148467788960853,-0.035193800926208496,-0.0223764106631279,-0.007537964731454848,0.12067153844051065,-0.2281889795511961,-9.579888675212858
6.9,2.200000047683716,163.0,22.290258407592773,22.0661735534668,-79.9464980937217,40.44343156893283,254.3247642364502,-0.014138313010334969,-0.001409762422554195,0.27808043360710144,0.9604527950286864,0.29697033056081823,-0.011563731322549606,-0.0924251737347733,-0.03375466167926788,0.005140881985425949,-0.028429562225937843,0.20520730242133145,-0.13830865032970907,-9.886356450319287
7.0,2.200000047683716,157.0,22.322813034057614,21.08015251159668,-79.94649703904186,40.44343172188921,254.28676985168457,-0.012551301158964634,-0.006292031612247229,0.2767776250839233,0.9608315229415894,0.2982050010549152,0.04928241095199118,-0.10620512428264084,-0.13696059584617615,0.013563083484768871,-0.019679216668009758,0.12702671268023552,-0.08710944335907699,-9.714595075249672
7.2,2.200000047683716,154.0,22.06363677978516,23.89508056640625,-79.9464967906614,40.44343190977054,254.27577494049072,-0.010517769493162632,-0.011696992442011831,0.2768948674201965,0.9607715010643004,0.2748950040652063,0.08577394537518758,-0.104868829451524,-0.16941027343273166,0.017541883513331413,-0.002479068702086807,0.08024798247031867,-0.14191134830005467,-9.828081929683686
7.3,2.0999999046325684,147.0,22.190093994140625,22.654603958129893,-79.94649600618078,40.44343218061987,254.2351817932129,-0.007702619768679142,-0.017646033316850662,0.27755677700042725,0.9605163335800172,0.2393389143387599,0.13553454697376205,-0.09864783665933216,-0.03818964213132858,-0.0427209846675396,-0.005985505413264036,0.07012978691607714,-0.08085995754227042,-9.855020052194595
7.5,2.0999999046325684,143.0,22.137508392333984,22.789783477783203,-79.9464952751237,40.443432690938415,254.18782614135742,-0.009767215698957443,-0.016861962154507637,0.27852627635002136,0.9602308869361876,0.21750632341698886,0.1836910795618441,-0.09019099998717164,0.016296884045004845,-0.0158566702157259,0.06842285394668579,0.11404370122589172,-0.05258713040035218,-9.88483266592026
7.6,2.0999999046325684,139.0,22.10871124267578,23.473636627197266,-79.94649519948443,40.443432935498095,254.1795263137817,-0.007727653253823519,-0.018907224759459496,0.2790260314941406,0.9600663185119628,0.1886645054613997,0.2093609262207828,-0.07545836246604894,0.04060591012239456,0.0866628959774971,-0.02179443649947644,0.08354773985221982,-0.1406984987296164,-9.993506677150727
7.8,2.0,135.0,22.206371307373047,22.29677391052246,-79.94649480756412,40.44343322739391,254.14514540100097,-0.004346595145761968,-0.018186749890446663,0.2779962420463562,0.9604002237319946,0.18782991146780711,0.2275465473673313,-0.07317841895569079,0.0499524362385273,0.0745672807097435,0.02273645810782909,0.10628345933742822,-0.007710275603458286,-9.9659850025177
7.9,2.0,131.0,22.1988582611084,22.41604995727539,-79.94649443053464,40.44343378362106,254.11312673950195,0.004830567631870508,-0.01386483944952488,0.2770507335662842,0.9607431888580322,0.16004527529766874,0.2476560673565803,-0.09560930809888216,-0.021720800548791885,0.191770538687706,-0.07648123055696487,0.1706074087880552,0.020446105152368547,-9.753742768764496
8.1,2.0,127.0,22.098695755004886,23.43387794494629,-79.946494443433,40.443434042917225,254.10365675354004,0.010148664005100729,-0.014603202231228353,0.27817535400390625,0.9603657722473145,0.1180188373851817,0.25520843577216057,-0.09840130227950884,-0.17186486721038818,0.0524052269756794,-0.09146244823932648,0.03870431925170124,0.13377119271084667,-9.718487566709518
8.2,1.8999999761581416,127.0,22.008546829223643,24.769775390625,-79.94649429443352,40.4434346649054,254.0636138763428,0.019427338615059853,-0.015305904671549797,0.28072991967201233,0.9594681859016418,0.102044599782745,0.22714682772536546,-0.06122642531037091,0.07168639451265335,0.1930076479911804,-0.025137344375252724,0.1388081395905465,0.033440418178215615,-10.100551654100421
8.4,1.8999999761581416,128.0,22.127492904663086,22.535327911376953,-79.9464943570227,40.44343487249291,254.0598373260498,0.02410227060317993,-0.016835059970617294,0.28300005197525024,0.9586692452430724,0.06093822950445736,0.21311152423033214,-0.032768781619334865,-0.10734429955482484,0.02594628371298313,-0.028309846296906468,0.038847918645478784,0.048889264427125455,-10.013515849113467
8.5,1.7999999523162842,130.0,22.19510269165039,21.946895599365234,-79.9464941663915,40.44343569224515,254.02232931518554,0.031150104478001595,-0.018513547256588936,0.28454700112342834,0.9579770565032959,0.033226844607191185,0.17791521641605024,-0.019996006222102958,-0.14524482190608978,-0.013496657833456991,-0.09986413270235064,-0.00952593656256795,0.27032681124284863,-9.888546817302702
8.7,1.7999999523162842,131.0,22.127492904663086,22.89315795898437,-79.94649424561176,40.44343582415398,254.0211152877808,0.03220483660697937,-0.0201743021607399,0.28498008847236633,0.9577798843383788,0.007083267187953322,0.1421155206156455,-0.016443972180670202,-0.003294933820143342,-0.04107226803898811,0.03060969151556492,0.1880702827870846,0.04992070413194597,-9.853914928436279
8.8,1.7999999523162842,144.0,22.06363677978516,23.378215789794922,-79.9464942424987,40.44343645128303,253.98657701873782,0.032407917082309716,-0.020191503688693047,0.2846666872501373,0.957865834236145,-0.04713859224708047,0.10951473428541833,-0.0018079242007757925,-0.13335344195365906,-0.039419006556272514,-0.009129113517701626,0.06382117113098502,0.1762998559512198,-9.90890799164772
9.0,1.7999999523162842,147.0,22.1350040435791,22.757976531982425,-79.94649431735674,40.44343703436965,253.962699874878,0.031580019742250436,-0.01617913506925106,0.2866145372390747,0.9573886394500732,-0.06662206786651498,0.07322129349867999,0.01162797620242766,0.1467074602842331,0.08686255663633348,-0.031254347413778305,0.19793800737708808,0.06371942501049489,-9.992048381567002
9.1,1.7000000476837158,162.0,22.083669662475586,23.31460189819336,-79.9464944074351,40.443437109094006,253.964442237854,0.031771596521139145,-0.013633216731250286,0.2896559536457062,0.9565062522888184,-0.10206429363076913,0.04757752777383395,0.02773233875235213,-0.07500859349966049,0.03141835704445839,-0.14657586812973022,0.13320249617099764,0.2948525370284915,-9.880547826290133
9.3,1.600000023841858,172.0,22.18132972717285,22.105932235717773,-79.94649470836652,40.44343766281675,253.94220446014404,0.03354218602180481,-0.013014820404350758,0.2924574911594391,0.9556015133857728,-0.1034115007179888,0.06580346895268152,0.038930250671494256,-0.0897752046585083,-0.004138348624110222,-0.15257243812084198,0.11675842640921474,0.3162458180263639,-9.948975452184678
9.4,1.600000023841858,190.0,22.133752822875977,22.56713485717773,-79.94649524020706,40.44343805956435,253.92450045013427,0.0392749048769474,-0.0077179535292088985,0.3000948131084442,0.9530693292617798,-0.12443284563632095,0.032283673820662995,0.04930179603163657,-0.010858298279345036,0.017554296180605892,-0.10056208074092864,0.14399623699486255,0.2952547706477344,-9.850854495763775
9.6,1.600000023841858,202.0,22.24142837524414,21.52545166015625,-79.9464953671594,40.4434379993256,253.92875479125976,0.03974438086152077,-0.0036079266574233775,0.3036758601665497,0.9519392848014832,-0.13732090307651793,-0.008918735144317895,0.04251437524841569,0.030048690736293793,-0.05025087296962738,-0.10380300879478456,0.2868666291609407,0.26396557051688435,-9.731552585363387
9.7,1.600000023841858,221.0,22.19635581970215,22.24906349182129,-79.9464959819789,40.44343829919118,253.91491793060302,0.03619631007313728,0.0032427720725536338,0.3056609332561493,0.9514466524124146,-0.14203582072012078,-0.04668083304023885,-0.0007649208208925745,-0.056223858147859566,-0.028658688068389893,0.0056138522922992715,0.12293644828721882,0.3286186725273729,-9.587152671217918
9.9,1.5,230.0,22.07240104675293,22.90906143188477,-79.94649676478954,40.443438462631825,253.89676664733886,0.03666450083255768,0.009253190830349922,0.3035792708396912,0.9520555734634399,-0.11851438549796198,-0.08393457898652817,-0.005571391986201935,0.045558344572782516,0.03812205791473389,0.07058019191026688,0.3132846052944661,0.06981325155124067,-9.776179704666136
10.0,1.5,241.0,22.25770568847656,21.15966987609864,-79.94649679672943,40.443438325205406,253.89520262146,0.036926016211509705,0.011617063544690607,0.3018017113208771,0.9525845050811768,-0.09781786260811756,-0.13691623617006404,-0.00860819103038785,0.0415802001953125,0.07407549768686295,0.0707365944981575,0.2055035735294223,0.16599391909316186,-9.75668976545334
10.2,1.5,247.0,22.158794403076172,22.376291275024414,-79.94649687741945,40.443438236622576,253.89230726623526,0.03742284700274468,0.015278300270438194,0.2991361916065216,0.9533538818359376,-0.07050048069111138,-0.18674630622477648,-0.017980788044728194,0.17311948537826538,0.096433125436306,0.031058046966791163,0.30285927560180426,0.15303367523476485,-9.792358365654943
10.3,1.5,253.0,22.160045623779297,22.29677391052246,-79.94649773317715,40.443438320042475,253.86847589874267,0.03565515205264092,0.01753937639296055,0.2922280430793762,0.955522894859314,-0.054014915519775684,-0.2157070005589295,-0.02091439172457036,-0.03389590606093407,-0.1269853413105011,0.061232894659042365,0.26700690837576985,0.23961195386946202,-9.727626180052756
10.5,1.600000023841858,256.0,22.20011138916016,21.318706512451172,-79.94649920055981,40.4434387340206,253.8558339920044,0.03160019963979721,0.0181232150644064,0.2860170006752014,0.957531988620758,-0.06512158236440994,-0.17874140042921793,-0.04062670889776372,-0.02062330394983292,-0.12246400117874146,0.09040828049182892,0.21813538659363987,0.2639255170896649,-9.688866741657256
10.61,1.600000023841858,255.0,22.183834075927734,22.241111755371094,-79.94649896059957,40.443438387081706,253.84313581848144,0.028472749516367912,0.01885227859020233,0.2687828540802002,0.9625953435897828,0.02043651193407815,-0.2610598642156444,-0.06076869956193864,-0.003048682818189264,0.0015885235043242574,0.2431376129388809,0.2692894969135523,0.18535887407138946,-9.672762340307237
10.8,1.600000023841858,255.0,22.103702545166016,22.64665222167969,-79.94650005795171,40.443438120200454,253.8351812210083,0.02825108729302883,0.020051607862114903,0.25523269176483154,0.9662588834762572,0.012916711187663507,-0.26163752859017897,-0.05979282149581185,0.08585219085216522,0.012142703868448734,0.3709381520748137,0.3056547380425036,-0.01812808614224196,-9.762148141264916
10.9,1.7000000476837158,255.0,22.23516845703125,20.595094680786133,-79.9465010342396,40.443437473548116,253.81423471832275,0.02376430854201317,0.02100018598139286,0.2235546112060547,0.9741753339767456,0.043911568150608114,-0.29254781917248784,-0.03419548341018243,0.0788140594959259,-0.05416545644402504,0.31195953488349915,0.4160117789357901,0.13438503158278764,-9.886728333234787
11.1,1.7000000476837158,254.0,22.243932723999023,21.09605598449707,-79.94650081285653,40.44343725792118,253.8089885559082,0.0208259541541338,0.01995212584733963,0.20592373609542847,0.9781429767608644,0.07906855552362631,-0.3063191955880998,-0.03322785389089295,-0.04550563544034958,-0.15047751367092133,0.3690861165523529,0.2682559101842344,0.13936588173732162,-9.810928537845612
11.2,1.7000000476837158,253.0,22.167558670043945,22.05821990966797,-79.94650206793392,40.443436660263096,253.79323862457275,0.01127886399626732,0.017464008182287216,0.17844833433628082,0.9837297201156616,0.08105902993355035,-0.28900039799118765,-0.04217662565551489,-0.0848482996225357,-0.06737597286701202,0.20330853760242465,0.3292496967315674,0.1387929094210267,-9.783824354410172
11.4,1.7000000476837158,254.0,22.11246681213379,22.0661735534668,-79.9465018311085,40.44343645744783,253.7880153503418,0.006370133720338346,0.01859961822628975,0.1694851666688919,0.9853366613388062,0.1220762233623953,-0.277516270027469,-0.031326630215550065,-0.02166571095585823,-0.09672050178050996,0.10094093531370164,0.27821868857368826,0.1433765965886414,-9.878324714899064
11.5,1.7999999523162842,247.0,22.193851470947266,21.581113815307614,-79.94650250642147,40.44343532912506,253.77250955963126,-0.001956320833414793,0.02196962013840676,0.15569353103637695,0.9875591993331908,0.14422309127733873,-0.2558550350686135,-0.002580844367116348,0.011471606791019441,-0.0003870257642120123,0.12039259821176528,0.3111878668516874,-0.10794471725821496,-9.935710458755494
11.7,1.7999999523162842,243.0,22.081167221069336,22.90110969543457,-79.94650231298773,40.44343510900586,253.77145956420898,-0.003180994186550379,0.021368522197008133,0.15094299614429474,0.98830646276474,0.17950421970699013,-0.2304569603072605,-0.0054861903351994725,0.010231834836304188,0.04239142686128616,0.018543357029557228,0.3259516843780875,-0.11401845769956707,-9.816585134267807
11.8,1.7999999523162842,238.0,22.21012687683105,21.65267944335937,-79.94650244809051,40.44343396528015,253.75610826873782,-0.003938922192901373,0.015673618763685226,0.145489439368248,0.9892278909683228,0.2000026728952524,-0.19145002084271348,0.0010822501177115851,-0.011341435834765434,-0.030500594526529312,0.05649650469422341,0.3726165583357215,-0.19023399012163286,-9.884486510753632
11.9,1.600000023841858,233.0,22.369138717651367,19.76015853881836,-79.9465021463118,40.44343386927292,253.75475309753415,-0.005192594602704047,0.015238516032695769,0.14521510899066925,0.9892691373825072,0.22067060822725387,-0.15607011170325885,-0.016525526450471208,-0.06075334548950195,-0.07339662313461304,-0.1040537804365158,0.2084656816162169,0.15385493494570254,-9.630374119877816
12.1,1.600000023841858,230.0,22.15503692626953,21.98665428161621,-79.94650232613549,40.443433074769246,253.73679445648202,-0.00279193720780313,0.01282905600965023,0.1454968899488449,0.9892715811729432,0.1893411294893744,-0.1816776093467091,-0.023819749828739925,-0.3126954138278961,0.2702212929725647,-0.009507195092737676,0.04038233309984207,-0.4056298282742501,-9.79310213148594
12.2,1.5,220.0,22.0423526763916,22.765928268432607,-79.94650224488413,40.443431864589,253.74006937408447,0.030952222645282745,-0.041950616985559464,0.14747951924800873,0.987690269947052,0.06549191262956193,-0.21013976703159354,-0.018993947941112643,-0.5719540119171143,0.0917125940322876,-0.018536018207669255,0.3191221730411053,-0.038867566203698516,-9.799635810256005
12.4,1.399999976158142,224.0,22.165054321289066,21.98665428161621,-79.94650212722739,40.44343168951018,253.73795412445068,0.03533361852169037,-0.055148791521787636,0.14770808815956116,0.986859917640686,0.0061805517449004255,-0.21646517715543026,-0.01227538162600513,0.007535387761890887,-0.1254279613494873,0.02626660093665123,0.4675481144338847,0.2987506747059524,-9.820873482227324
12.5,1.399999976158142,214.0,22.206371307373047,20.706418991088867,-79.94650211037712,40.44343073643632,253.707512840271,0.020897820591926568,-0.013619517907500269,0.14755426347255707,0.9887394309043884,-0.11574494994214587,-0.2784614269420506,-0.017105778344096656,0.7177828550338745,-0.06191609427332876,0.07182195782661438,0.3719888962805271,-0.02275761913508177,-9.674947444796565
12.7,1.2999999523162842,207.0,22.131248474121094,22.28087043762207,-79.94650212020737,40.44343051499881,253.7026548233032,0.011982105672359468,0.0072620208375155934,0.14693892002105713,0.9890463948249816,-0.17212149158580878,-0.283465936813364,-0.04711084969762446,0.3025169372558594,-0.12810184061527252,0.030218891799449917,0.2941781520657242,-0.3505873560905457,-9.599325404763222
12.8,1.2000000476837158,200.0,22.217639923095703,21.263044357299805,-79.94650221640926,40.443429783172455,253.67087839508056,-0.0011130813509225843,0.011695555411279202,0.14780078828334808,0.9889473915100098,-0.16702804450138573,-0.261440310694182,-0.09717378227212298,-0.05426813289523125,-0.13718433678150174,0.01311127282679081,0.18217106346040965,-0.092119383411482,-9.61190101146698
13.0,1.2000000476837158,191.0,22.163801193237305,21.39027214050293,-79.94650258745222,40.443429176670605,253.6402635421753,-0.005026201717555523,0.009675070643424988,0.14974422752857208,0.98866468667984,-0.13256980184649975,-0.215491594337436,-0.10040953617284268,0.0466386154294014,0.08923052251338959,-0.03829216584563255,0.17698577089235187,-0.16205326119437816,-9.744894177317619
13.1,1.100000023841858,186.0,22.22264862060547,21.33460998535156,-79.94650267208992,40.44342894474784,253.6303577270508,-0.0017868002178147433,0.00810978189110756,0.15114878118038175,0.9884761571884156,-0.14138119225928142,-0.1928514603069624,-0.10771697363944456,-0.10018746554851532,0.0196573045104742,0.02370172739028931,0.052392504913732416,-0.1450877751130611,-9.733852295279505
13.3,1.100000023841858,187.0,22.022319793701172,23.37026405334473,-79.94650291715779,40.44342858826651,253.602475151062,0.003584103425964713,0.005781259387731552,0.15277966856956482,0.9882369041442872,-0.1387604983087802,-0.16566009939127244,-0.11508586120547573,-0.1706211119890213,0.06675641983747482,-0.1453925222158432,0.22478264752775431,0.13372008439153432,-9.685674161911011
13.4,1.100000023841858,185.0,22.117475509643555,21.978702545166016,-79.94650320300238,40.44342788467371,253.57554815673828,0.006591602694243193,0.00502721406519413,0.1561783403158188,0.9876941442489624,-0.13117416902773096,-0.1465744104755447,-0.09166201334384763,0.06531820446252823,-0.041792094707489014,-0.07353226840496062,0.3459836604818702,-0.02864022871479392,-9.867116771936415
13.6,1.100000023841858,185.0,22.24768829345703,20.78593635559082,-79.94650339884872,40.44342758881143,253.55643843078613,0.001643132301978767,0.008569791913032532,0.1603165864944458,0.9870271086692808,-0.12830466324788622,-0.11249692796934543,-0.10397044587316644,-0.024325570091605183,-0.13669483363628387,-0.008335819467902184,0.2145607278496027,-0.006964561461936683,-9.708979409337042
13.8,1.2000000476837158,184.0,22.11622428894043,22.137739181518555,-79.94650351634388,40.44342737245875,253.52945040130606,-0.002518956316635013,0.010438811965286732,0.1623421460390091,0.9866761565208436,-0.10458980853591288,-0.08439050347545618,-0.11736023514975005,0.03807762637734413,-0.09510228037834167,-0.045451581478118896,0.2718704579025507,-0.07565271050669252,-9.676665941476822
13.9,1.2000000476837158,193.0,22.16880989074707,21.660633087158203,-79.94650367556422,40.44342722420179,253.50451181793213,-0.006924820132553577,0.009505531750619413,0.16408196091651914,0.9863766431808472,-0.07198637362840585,-0.025998349140785176,-0.13038259961119755,-0.03429282829165459,-0.014769378118216991,-0.0046416488476097575,0.2844102686829865,-0.0763771896623075,-9.785622373223305
14.1,1.2000000476837158,196.0,22.17506980895996,21.430030822753906,-79.94650367220177,40.443426933034104,253.47475622558602,-0.007325862068682909,0.007587770000100136,0.16376225650310516,0.9864434599876404,-0.05736839571464032,0.0015849818125545333,-0.11911409357919232,-0.06912922114133835,-0.08434034883975983,0.07999411225318909,0.1910817815735936,-0.05329766303300858,-9.861441464424134
14.2,1.2000000476837158,195.0,22.044857025146484,22.670507431030273,-79.94650365052067,40.443426663234156,253.42570303344726,-0.008789648301899433,0.004619362764060497,0.16187983751296994,0.9867605566978456,-0.02856171775473372,0.062428193601492675,-0.0969988163282162,-0.11059147864580154,-0.0150342071428895,0.04429864510893822,0.2523140614293516,-0.04809302440378816,-9.935071942806244
14.4,1.2000000476837158,196.0,22.05988121032715,22.400146484375,-79.94650370536411,40.443426727270825,253.41703413391116,-0.008889333344995975,0.0026990550104528666,0.16077350080013275,0.9869476556777954,-0.013994365345044371,0.09956871935519017,-0.07489581808305892,-0.000893742311745882,0.033782970160245895,0.057091381400823586,0.2418012427724898,-0.10590221174061296,-10.017814722061155
14.5,1.2000000476837158,197.0,22.163801193237305,21.501596450805664,-79.94650292193522,40.443426457105865,253.391724571228,-0.007326898165047169,0.0009453870588913561,0.1582886129617691,0.9873653054237366,0.04181948469737196,0.1346568473565687,-0.03385807770365172,0.046716030687093735,0.046137649565935135,0.018168002367019653,0.30032308235764504,-0.1104252888634801,-9.987115670442584
14.7,1.2000000476837158,200.0,22.09243392944336,22.241111755371094,-79.94650292464709,40.44342657758713,253.3886813964844,-0.006748880259692669,0.0003465813642833382,0.15776456892490387,0.9874536395072936,0.03737902351242035,0.17115610566410952,-0.02188563090192376,-0.006267138291150332,-0.05380430445075035,0.06997723132371902,0.196327263917774,-0.0507129561714828,-9.955049539804461
14.8,1.2999999523162842,199.0,22.183834075927734,21.469789505004886,-79.94650263509158,40.443426676524574,253.34922979736328,-0.004576056730002165,0.0011220687301829457,0.15789078176021576,0.9874454140663148,0.05749926277263542,0.22179416911956715,-0.015374738804869116,-0.061628963798284524,0.029556240886449814,-0.08424647897481917,0.17734279822558166,0.13880685137584806,-9.885737814903258
15.0,1.2000000476837158,200.0,22.129995346069336,21.660633087158203,-79.94650242482305,40.443426826276976,253.31471727752685,0.0006108352681621909,-0.0005830349982716142,0.1592874825000763,0.987231969833374,0.08166650567679162,0.24787702276982115,-0.015853658570274452,0.046059269458055496,0.1405165046453476,-0.0030192537233233448,0.16794928282499313,-0.16246112275868654,-9.883402436971664
15.1,1.2000000476837158,197.0,22.218891143798828,20.897262573242188,-79.9465024437065,40.44342706870596,253.3129768218994,0.003952162805944681,-0.0019904454238712788,0.1607506424188614,0.9869851469993592,0.07165603260756312,0.26831950001365434,-0.02349296417172209,0.02274584211409092,0.08315202593803406,0.012450411915779114,0.23585773078724745,-0.11077975803986193,-9.785640499591828
15.3,1.2000000476837158,198.0,22.21138000488281,21.135814666748047,-79.94650189016733,40.44342709871784,253.2851552810669,0.006738120689988136,-0.0021650465205311775,0.16131654381752014,0.9868773818016052,0.1017220521384527,0.26129634875005325,-0.04305976206476185,-0.037012431770563126,0.03955822810530663,-0.05300718918442726,0.2882238410040736,0.050180695094168185,-9.66130589067936
15.4,1.100000023841858,202.0,22.123735427856445,21.692440032958984,-79.9465016748024,40.44342737594347,253.2490310516357,0.010000508278608322,-0.0027591881807893515,0.1629687249660492,0.9865766763687134,0.10319869313827916,0.2574686347430165,-0.06722336654666415,0.01339778583496809,0.01979188434779644,-0.028864767402410507,0.29362710680812604,0.0005655285366810858,-9.773408124446867
15.6,1.100000023841858,205.0,22.165054321289066,21.70039176940918,-79.94650167074863,40.443427868004854,253.23803518676758,0.01526535488665104,-0.0034207573626190424,0.16368721425533295,0.9863883256912231,0.0729300407149627,0.26036057777000804,-0.06326521936209124,-0.06030988320708275,0.025149988010525703,-0.034366920590400696,0.19864855371415616,0.061856488399207585,-9.84032482981682
15.7,1.2000000476837158,210.0,22.177574157714844,21.620872497558594,-79.94650127972619,40.44342805875575,253.20590971374511,0.017252042889595032,-0.004209904000163078,0.1633806824684143,0.9864032864570618,0.09796144964749458,0.2475032457403044,-0.08462103119045303,-0.02786063775420189,0.06103289499878884,0.040761400014162064,0.29216216001659634,-0.09497397582046688,-9.650880305171011
15.9,1.100000023841858,212.0,22.117475509643555,21.676536560058594,-79.94650127675295,40.443428298469726,253.19747827911374,0.0169711522758007,-0.005753082688897847,0.16357597708702087,0.9863680601119996,0.08563767827296627,0.2430244319200021,-0.10153503047114093,0.03430298715829848,0.057472005486488335,-0.01816660352051258,0.3337470461055637,-0.06383663884364069,-9.697626455426217
16.0,1.2000000476837158,222.0,22.06238555908203,22.980627059936523,-79.94650093796044,40.4434289040333,253.15931509399414,0.01793672703206539,-0.0062554851174354545,0.1639164686203003,0.9862913489341736,0.0746923347457232,0.2479079956121729,-0.09920005304421643,-0.0731336697936058,-0.0387769527733326,-0.10939155519008636,0.19271076103672385,0.21644678380340332,-9.78306070804596
16.2,1.2000000476837158,227.0,22.250192642211914,20.595094680786133,-79.94650094499028,40.44342913061252,253.15037630462646,0.01911432668566704,-0.004789481405168772,0.16480065882205966,0.9861301183700562,0.06315994807510923,0.2301625123222321,-0.0977913124669783,-0.006882030516862868,0.03571400791406632,-0.05029959976673126,0.18763652902096511,0.07643858542665839,-9.791972449421882
16.3,1.100000023841858,231.0,22.07740974426269,22.583038330078125,-79.94650080256258,40.44342942459718,253.1132583465576,0.02380942925810814,-0.0038239893037825827,0.16710485517978668,0.985644280910492,0.05522885074210986,0.19632006196959206,-0.13290598987760233,0.06479894369840622,0.05792618915438653,0.048199061304330826,0.2826125422306359,-0.2050815141946077,-9.655497851371765
16.5,1.100000023841858,237.0,22.141263961791992,21.581113815307614,-79.9465006815757,40.443429844901,253.08159349822998,0.025083357468247414,-0.004022492095828056,0.16891196370124814,0.98530375957489,0.04352905960804364,0.1754010975802848,-0.14654173712790414,0.03154614567756653,0.08050557971000671,-0.02091020718216896,0.29824531082063915,0.09648600183427336,-9.64388761997223
16.6,1.2000000476837158,248.0,22.170061111450195,21.318706512451172,-79.94650070483753,40.44343001634428,253.06743143463126,0.02727711200714112,-0.003063910873606801,0.1699083298444748,0.9850775599479676,0.0176418394050107,0.15715826826615806,-0.1557506942046441,-0.04022745043039322,-0.05098104104399681,-0.023158986121416092,0.16180294554680585,0.14646582679823042,-9.63288783788681
16.8,1.2000000476837158,253.0,22.133752822875977,22.018461227416992,-79.94650073748703,40.44343025102175,253.05633352661133,0.027925975620746613,-0.0012642912333831187,0.17067059874534607,0.9849315881729126,0.02026537843897264,0.15670840269036054,-0.15226907968149586,-0.03530317172408104,-0.03204077482223512,-0.0863470658659935,0.2628381359763444,0.14768753855489195,-9.633880695104601
16.9,1.2999999523162842,260.0,22.02607536315918,22.75002479553223,-79.94650096645356,40.443430576051576,253.02447031402588,0.02448795549571514,0.0020994206424802533,0.17155995965003967,0.9848670959472656,0.007253641333078513,0.13183531087480455,-0.13675908314234628,0.04946395754814148,-0.03502374887466432,0.06102811917662621,0.18107657432556154,-0.06826184819452465,-9.868469817638395
17.1,1.399999976158142,262.0,21.988513946533203,23.69628715515137,-79.94650104493542,40.4434307728916,253.00087641143799,0.026593917980790138,0.0029528818558901553,0.17264921963214874,0.9846199154853821,0.002275309749853643,0.0830568616200716,-0.10769719834949562,0.0067135682329535476,0.013841046951711178,-0.0401194654405117,0.2654140354692936,0.08727380493655801,-9.887156349420547
17.2,1.399999976158142,264.0,22.053621292114254,22.503520965576172,-79.94650108047384,40.4434309140589,252.98726557159424,0.026357881724834442,0.0037929085083305844,0.17343653738498688,0.9844850301742554,0.011256675845851785,0.08337008268017393,-0.07957461829727921,0.06908950954675674,0.004831400234252214,-0.1030469536781311,0.36412260051816703,0.08938834997825325,-9.970589100122453
17.4,1.399999976158142,263.0,22.073654174804688,22.320629119873047,-79.94650110031141,40.44343098048258,252.98046587371826,0.025994200259447098,0.0060230428352952,0.17398975789546967,0.9843859672546388,0.002951389025288764,0.0613197441907337,-0.0648961891664832,-0.017907585948705673,-0.08025548607110977,-0.015624645166099072,0.19711994536221028,0.15705661442130806,-9.881930108070376
17.5,1.5,270.0,22.114971160888672,21.827619552612305,-79.94650123681649,40.443431136305314,252.95856378936767,0.02352304570376873,0.011231137439608574,0.1736745834350586,0.9844580888748168,0.030193243943136293,0.03865846969654462,-0.054325763491790816,0.05033421516418457,0.0040766969323158255,-0.014276165515184402,0.3972537649422884,-0.04415105088148266,-9.851511722803117
17.7,1.5,265.0,22.05111694335937,22.686410903930664,-79.94650121534477,40.443431172667715,252.9532232131958,0.022597365081310272,0.011581924743950369,0.17307691276073456,0.9845809340476992,0.028770104448107518,0.01983824319931865,-0.05496652593543175,-0.062999427318573,-0.0735187754034996,0.019560376182198524,0.19246552515774967,0.05966513469815255,-9.767029396891594
17.8,1.5,261.0,22.084922790527344,22.36833953857422,-79.94650222842729,40.44343119327647,252.94714353942868,0.021926291286945343,0.012175322510302069,0.17220865190029144,0.9847412109375,0.003612439522073007,0.01652665423013467,-0.057634034602934814,0.07372304797172546,0.015750953927636147,-0.004023338202387095,0.3745166476070881,-0.09874494569376112,-9.79639762222767
18.0,1.5,257.0,22.052370071411133,22.479665756225586,-79.94650267541023,40.44343116242722,252.93266390228268,0.020360682159662247,0.015905849635601044,0.17250868678092954,0.9846691489219666,0.010418726124804913,0.00701069859680244,-0.05646165304673865,0.0605536699295044,0.015328370966017246,0.05867359414696693,0.265006009452045,-0.0112031829636544,-9.740826854109764
18.1,1.600000023841858,249.0,22.101198196411133,21.86737823486328,-79.94650265856981,40.443431171786884,252.92703531646728,0.02036183699965477,0.018185146152973168,0.1729743480682373,0.9845479130744934,0.03204488032605838,-0.005597068678308659,-0.05953767703122751,0.1227506473660469,0.04857504740357399,-0.046482160687446594,0.3951749335974455,-0.11491251524537804,-9.793240125775338
18.3,1.5,244.0,22.14752578735352,21.49364471435547,-79.94650327011959,40.44343107192565,252.9040403213501,0.02007258683443069,0.01868990063667297,0.17342710494995114,0.9844648241996764,0.0021436688419008967,0.013573814379874054,-0.06172603977331801,-0.005636661313474178,-0.02179792895913124,-0.06510728597640991,0.3294832199066878,-0.05238634249661118,-9.737196317911149
18.4,1.600000023841858,235.0,22.032337188720703,22.67845916748047,-79.94650354542995,40.44343079722016,252.8857107009888,0.016761161386966702,0.017674963921308514,0.17596542835235596,0.9840949773788452,0.023103126501414755,-0.010753482975351062,-0.0780903525921534,0.028154749423265457,0.005986155476421118,0.0032127953600138426,0.2856737606227398,-0.049689236618578436,-9.680243268013001
18.6,1.7000000476837158,233.0,22.05111694335937,23.13966178894043,-79.94650350941241,40.443430794646346,252.8773832168579,0.0171493086963892,0.018753912299871445,0.17788761854171753,0.9837226271629332,0.05166041238519867,-0.023592587225499947,-0.09163917609350422,0.11454927921295165,0.09283780306577682,-0.031718749552965164,0.3242164865881205,-0.12146482287906113,-9.637353356480599
18.7,1.7000000476837158,227.0,21.954710006713867,23.09990310668945,-79.94650358288636,40.443430472169396,252.84775160217285,0.016622386872768402,0.019740218296647072,0.18008077144622806,0.9833132028579712,0.06703792410022154,-0.035759280522610355,-0.09129716783460327,0.019118160009384155,-0.06371420621871947,-0.0863923728466034,0.43699498739093545,0.0296388235129416,-9.86667472243309
18.9,1.7999999523162842,225.0,21.894611358642575,23.69628715515137,-79.94650348224992,40.44343046680706,252.83955572509763,0.01453791931271553,0.02083523198962212,0.18031856417655945,0.9832801818847656,0.09054075808348716,-0.040002015499280785,-0.06378825561606903,0.00902782753109932,-0.06953088939189911,0.0009801688138395548,0.2877084637619555,-0.0010804832261055706,-9.970641725063324
19.0,1.8999999761581416,221.0,21.91714859008789,24.02230834960937,-79.94650342034292,40.44343012356785,252.81975744628903,0.014544655568897724,0.024815907701849937,0.17998455464839935,0.9832488298416138,0.1428785259537068,-0.05919812074310005,0.009253203201793462,0.05478604882955551,0.01977384276688099,-0.02921461127698421,0.30861607868224383,-0.10718676279298962,-10.083544442653656
19.2,1.8999999761581416,221.0,22.012304306030273,22.447856903076172,-79.94650324901883,40.443430120169566,252.8212833251953,0.013601571321487428,0.02659369446337223,0.18009053170681,0.9831964373588562,0.18219519923545768,-0.05455047434448942,0.0358432702142398,0.023793358355760567,-0.03101725317537785,-0.0515136793255806,0.4476610030978918,-0.059416979779489336,-10.069737997055055
19.3,2.0,225.0,21.952205657958984,23.736045837402344,-79.9465030297603,40.44342982488215,252.80196760559082,0.0069534312933683395,0.016953814774751663,0.17820988595485687,0.9838218688964844,0.2321075931853072,-0.056010986600213766,0.047266313460995066,-0.05311058834195137,-0.03676910325884819,0.10747387260198593,0.24127680234611035,-0.13931387806311252,-9.905566892623902
19.5,2.0,228.0,22.014806747436523,22.77388000488281,-79.9465027300106,40.4434294571308,252.78267763519287,0.007389126811176538,0.008203450590372086,0.1759672313928604,0.9843341708183287,0.23978010636195066,-0.056103261272243216,0.03590634267882011,-0.09329979121685028,-0.0066141407005488855,-0.04972940310835838,0.2322298989258707,0.060767280030995616,-9.871081184148787
19.6,2.0,227.0,21.925912857055664,23.680383682250977,-79.9465024335882,40.44342949052596,252.78552339935302,0.007703933399170637,0.006903348956257105,0.17645789682865146,0.9842538833618164,0.25292214282219905,-0.047675822879309,0.03346073275594254,-0.014900616370141506,-0.0006284491973929107,-0.08610418438911438,0.27152616653591394,0.05782287804409862,-9.80949830889702
19.8,2.0,225.0,21.93968391418457,23.767852783203125,-79.94650226610011,40.4434288698958,252.7611026611328,0.008622379973530771,0.005242433398962021,0.17629069089889526,0.9842864871025084,0.23488686753918786,-0.08595949634647357,0.010333127135818855,-0.007001228164881468,-0.031652744859457016,-0.05423292517662048,0.3410285472124815,-0.02173360036918893,-9.769540776014331
19.9,2.0,225.0,21.915895462036133,23.624719619750977,-79.9465017050435,40.44342842469604,252.73528192901608,0.005951999220997095,0.0008422828395850956,0.17755195498466492,0.9840931296348572,0.2196391511683516,-0.0911750928244184,-0.010776669813589112,-0.0774698555469513,-0.03461483120918274,-0.053224727511405945,0.2350884016603232,0.0322317598736845,-9.787289999127387
20.1,1.8999999761581416,219.0,21.987262725830078,22.789783477783203,-79.94650142427703,40.443428419237094,252.73444555664062,0.004986738320440054,-0.0010454920120537279,0.1787438541650772,0.983882486820221,0.21631873801838114,-0.08254594761409934,-0.0007980067199479099,-0.10216393321752547,0.0301557295024395,-0.025995245203375816,0.2181938222050667,-0.03398778380127624,-9.86710390806198
20.2,1.7999999523162842,221.0,22.057376861572266,22.28087043762207,-79.94650089550177,40.44342792362174,252.72661016845703,0.00182288431096822,-0.003784539876505733,0.1810096800327301,0.9834723472595216,0.19408991753475704,-0.08558377058671165,0.005144424695412329,0.005948961246758699,-0.13505880534648895,-0.025373728945851333,0.1422955925948918,0.10303819983266296,-9.791073147654537
20.4,1.7999999523162842,225.0,21.988513946533203,22.805686950683594,-79.94650064398297,40.44342791738232,252.7266120758057,0.0004115088086109608,-0.0013435670407488944,0.18186073005199432,0.9833233952522278,0.19451931835724987,-0.07721254021243035,-0.008931394644178439,0.030870061367750168,-0.02034449577331543,-0.015689942985773087,0.10645362244918943,0.03371216980973259,-9.699871786236764
20.5,1.600000023841858,226.0,22.05111694335937,22.042316436767575,-79.94650023636744,40.443427716136505,252.7136001434326,0.002261206740513444,0.0008710545371286571,0.18281443417072296,0.9831444621086121,0.21604687599910044,-0.07228251477333393,-0.021100330877282417,0.04821622371673584,0.05109997093677522,-0.041592568159103394,0.12287670618854465,-0.024624737876001748,-9.718182926774023
20.7,1.600000023841858,227.0,21.872074127197266,24.316524505615234,-79.94649971606789,40.443427755582654,252.70872114562988,0.006564089562743902,-0.00317853270098567,0.18632416427135468,0.9824612140655518,0.20686055246467072,-0.04572388579173189,-0.018041693548482056,-0.1747671365737915,-0.0798569992184639,-0.04718746617436409,0.14198838536627592,0.2206286576204002,-9.839292211532591
20.8,1.5,241.0,22.033588409423828,21.74810218811035,-79.94649921298884,40.443427240842745,252.70269773864743,0.003934120293706656,-0.007853335700929165,0.19059303402900696,0.9816299080848694,0.2147207706248139,-0.06240935702050001,0.02513103368623796,0.0925922468304634,-0.005392140243202448,0.006222207099199295,0.27423839751631024,0.025553460731171068,-10.001780487298968
21.0,1.600000023841858,247.0,22.04986572265625,22.32858085632324,-79.94649892746884,40.443427026438535,252.68901728057858,0.00047059424105100334,-0.00965290330350399,0.19145812094211576,0.9814532995224,0.2123725628687061,-0.044953043760842464,0.013680977530743882,-0.05234299972653389,-0.0913679450750351,-0.025996284559369087,0.19790431279689075,0.2098298553004861,-9.737649477124217
21.1,1.7000000476837158,282.0,22.07740974426269,21.80376434326172,-79.94649867894016,40.44342706587932,252.69002626800537,-0.0016889247344806788,-0.01147443987429142,0.1913976967334748,0.9814441204071044,0.21407889590211115,-0.030703196207661838,0.003319583408985497,-0.0006765828584320843,0.019706586375832558,-0.05532275140285492,0.2170621667057276,0.25697178896516565,-9.78008506000042
21.3,1.7000000476837158,299.0,22.22139549255371,20.412202835083008,-79.94649820737385,40.443426773589785,252.6776408996582,-0.0008376727346330881,-0.017217585816979408,0.1890588700771332,0.9818145036697388,0.19035420312213602,-0.00975093692245569,-0.0016523555335270373,-0.12258188426494596,-0.02576881088316441,0.02291492372751236,0.05595735129900277,0.26617545258253816,-9.773938466906547
21.4,1.7000000476837158,304.0,22.08867835998535,21.62882423400879,-79.94649799801583,40.44342683759425,252.67720697784424,0.0006505444180220368,-0.018855199217796333,0.1871977597475052,0.9821411371231079,0.18902459732835533,0.007721924768710989,-0.021260645383322674,0.03487266600131988,0.05827766284346581,-0.06004089862108231,0.14592044603079554,0.28973183792084456,-9.652889408469198
21.6,1.7999999523162842,301.0,22.10245132446289,21.14376640319824,-79.94649760481195,40.44342676397086,252.6606263961792,0.007127257529646158,-0.021092724055051804,0.18366718292236328,0.982736349105835,0.15683044632239349,0.0412272098761695,-0.057963632387859725,-0.07769440859556198,0.02798393182456493,0.04026047512888909,0.15513662634417416,0.1705638470314443,-9.571227779388428
21.7,1.8999999761581416,312.0,22.138761520385746,20.6507568359375,-79.94649716486589,40.443426669810655,252.6473989334106,0.011843342334032059,-0.02542776428163052,0.18160447478294373,0.9829715490341188,0.13518429498383794,0.039034264339994136,-0.09245951048027336,0.009463759139180185,0.04497399181127548,-0.03059482760727405,0.16335622183978554,0.2518702943064273,-9.51633411884308
21.9,1.8999999761581416,317.0,21.991018295288086,22.90906143188477,-79.9464970457724,40.443426743795825,252.63780306243896,0.011672544293105602,-0.025150695815682408,0.1814768463373184,0.9830043315887452,0.10602740512317818,0.03762155855781152,-0.1143478831314491,0.053203102201223366,0.024073245003819462,-0.085286445915699,0.21141627799719573,0.2487273610755801,-9.59777179956436
22.0,2.0,330.0,22.027328491210934,22.304725646972656,-79.94649691461943,40.44342659225276,252.62929628753662,0.011925903148949145,-0.02559792995452881,0.18179504573345184,0.9829308986663818,0.08209195328611607,0.030170981992579806,-0.09820831796938978,0.008708139881491661,0.003710866672918201,-0.03152171149849892,0.1538381059281528,0.2274660626985133,-9.729178615808488
22.2,2.0,326.0,21.991018295288086,22.91701316833496,-79.94649679068108,40.44342669045377,252.61197565460202,0.011768586002290249,-0.026640070602297783,0.18292483687400812,0.9826954007148744,0.02504988562478025,0.028047366611819682,-0.08555993623775389,0.04574025422334671,-0.0653308853507042,0.003349331440404057,0.17303720097988845,0.2049776347540319,-9.851714036464694
22.3,2.0,331.0,22.05111694335937,22.097980499267575,-79.94649670783913,40.44342668095722,252.59808729553225,0.008146040141582489,-0.025334153324365616,0.18481801450252533,0.9824123978614808,-0.010775045279211816,0.04224565624906583,-0.05757899898242521,0.03843850642442703,-0.012889486737549305,-0.061317339539527886,0.11334688670933248,0.19524189278483392,-9.84632758140564
22.5,2.0,333.0,22.08867835998535,21.787860870361328,-79.9464967411961,40.44342664055026,252.58483885192868,0.00762227876111865,-0.025253504514694214,0.18650902807712555,0.9820990562438964,-0.017658541150722063,0.057860361097585876,-0.04192777587810896,0.12562750279903412,0.027057720348238945,-0.028757480904459964,0.1401863009110093,0.1331851920671761,-9.897246304750444
22.6,2.0,331.0,22.034839630126953,22.511472702026367,-79.94649689115174,40.443426710240175,252.57645891571045,0.01140650734305382,-0.01948069594800473,0.190996527671814,0.9813311100006104,-0.06486055487004333,0.05528014442989021,-0.04012230274058486,0.10687781125307083,0.08114933222532272,-0.02531743980944157,0.01814319297205657,0.16162082305178047,-9.798990277647972
22.8,1.8999999761581416,331.0,21.98976707458496,22.73412132263184,-79.94649694995552,40.4434267720471,252.56210897827148,0.014214065857231615,-0.017919370904564857,0.1915834993124008,0.9812098145484924,-0.06000804137571601,0.07772139688623292,-0.028716994783686483,0.07077649980783463,0.047764044255018234,-0.04071500897407532,0.1525625541061163,0.2264807337708772,-9.841827564239502
22.9,1.8999999761581416,332.0,22.091182708740234,22.14569091796875,-79.9464970631812,40.44342680921843,252.55919454956054,0.014828463084995747,-0.01763828843832016,0.1917904615402221,0.98116534948349,-0.07833919505719106,0.07285502931885493,-0.02597008550005029,0.026031466200947758,-0.02136104926466942,0.00880107469856739,0.11338726904243232,0.26083539152517915,-9.789897272586822
23.1,1.8999999761581416,331.0,22.00979995727539,22.479665756225586,-79.94649747932235,40.44342701817549,252.53750704193115,0.014996585436165331,-0.01262962818145752,0.1907881200313568,0.9814354777336121,-0.09597773449673644,0.09410075119960636,-0.03839237248897738,0.010768900625407696,0.034878529608249664,0.08844921737909317,0.10908117843791842,0.13805440608412028,-9.704539618492127
23.2,1.7999999523162842,323.0,22.007295608520508,21.58906555175781,-79.94649762333572,40.44342706303981,252.5329561080933,0.01571747474372387,-0.009834586642682552,0.1907646358013153,0.9814607501029968,-0.10057858160174553,0.08386558225790039,-0.04747798301763302,0.0006016186671331525,0.06637115776538849,0.018058475106954568,0.09758406325243414,0.2119120487943292,-9.685923253297807
23.4,1.7999999523162842,317.0,21.99978256225586,22.72616958618164,-79.94649795620353,40.44342726411709,252.5102119293213,0.018940076231956482,-0.006577291525900364,0.19126342236995691,0.9813339710235596,-0.08561253245336649,0.09113858461824326,-0.04249327360341704,0.10678461194038393,0.08562010526657103,-0.10031073540449142,0.2646869524754584,0.2271058924868703,-9.826669242382053
23.5,1.7999999523162842,318.0,21.902122497558594,23.39411926269531,-79.94649843051614,40.44342746451589,252.4860133972168,0.0214519277215004,-0.0005601762095466256,0.19315378367900848,0.9809338450431824,-0.07790692946236348,0.09398679428927982,-0.015238902501309857,0.1215650960803032,0.014986717142164709,0.030055524781346318,0.259238041844219,0.04008123803883791,-10.000412238836287
23.7,1.7000000476837158,319.0,22.05988121032715,22.304725646972656,-79.94649855554134,40.44342751053104,252.4864549484253,0.021836306899785995,0.0010706352768465877,0.19364455342292786,0.9808281660079956,-0.07070480213587167,0.07764443618926818,0.015583809266077752,0.0750361755490303,0.005719926208257675,0.0765838474035263,0.2475373978726566,0.06719262085855007,-10.072320127487183
23.8,1.7000000476837158,320.0,22.02607536315918,22.29677391052246,-79.94649909841777,40.44342766709612,252.46065615081787,0.021357592195272446,0.0022837792057544,0.19264373183250427,0.9810336828231812,-0.07299126867535356,0.10357316315385147,0.0336673379489596,-0.0032317081931978464,0.00037371934740804136,0.047091513872146606,0.2112011370062828,0.17601511482149362,-10.059994196891784
24.0,1.8999999761581416,316.0,22.05111694335937,22.41604995727539,-79.94649930267728,40.44342775890527,252.47278688812256,0.019496260210871696,0.0017926712753251195,0.1901492923498153,0.981559991836548,-0.058572708586688074,0.06649841516752288,0.0844212071602688,-0.16102078557014465,-0.04122536256909369,-0.04928133636713028,0.1841826518252492,0.2962055096402764,-9.999831025600434
24.1,2.0,314.0,22.19510269165039,20.77003288269043,-79.94649960018509,40.4434278801745,252.4459342803955,0.01854429766535759,-0.00018615277076605707,0.1888807713985443,0.9818249344825744,-0.05011718199058165,0.07724050740535943,0.07950311943972176,-0.16129006445407867,-0.057747170329093926,0.0005585763719864192,0.10346795191057027,0.3368499807268381,-9.93186065196991
24.3,2.0,317.0,22.14627265930176,20.913166046142575,-79.94650008088753,40.44342790985681,252.4168100204468,0.01907918229699135,0.003073978703469038,0.18733349442481995,0.9821063280105592,-0.01893719599944849,0.05009844020264345,-0.0006815446870196897,0.05584694817662239,0.07759667187929152,-0.04037317633628845,0.15695659048855307,0.20057393219321967,-9.424100139141084
24.4,2.0,316.0,22.138761520385746,21.318706512451172,-79.94650073634607,40.44342780016571,252.39478395843503,0.018865890800952908,0.004597302060574293,0.1883830726146698,0.9819037318229676,-0.0222774578553243,0.04008174678009736,-0.05855403701686895,-0.017084017395973206,-0.003378135384991765,-0.07276710867881775,0.2617300703376532,0.0876680808607489,-9.500482317209244
24.6,2.0999999046325684,316.0,22.12123107910156,21.15966987609864,-79.94650076676983,40.44342782610136,252.38845728302002,0.016228435561060902,0.0015748263103887439,0.19058993458747864,0.9815343618392944,0.0020631580481652767,0.023364373974853647,-0.07258313606397107,-0.004424578510224819,-0.0048590851947665215,-0.12814882397651672,0.2369194024242461,0.2689586724154651,-9.636235368847847
24.7,2.200000047683716,321.0,22.091182708740234,21.398223876953125,-79.94650078018597,40.44342785349596,252.3806390609741,0.01439505070447922,-0.0003720882232300937,0.1928121000528336,0.981130063533783,0.02550151876989347,0.011064605468999079,-0.08768480809610234,0.043090391904115684,0.01190709974616766,-0.02332713641226292,0.21895642703399065,0.2287402623519301,-9.696858716011047
24.9,2.299999952316284,324.0,22.06614112854004,21.81966781616211,-79.94650116573544,40.44342776724453,252.35799406433102,0.011782641522586346,0.0012747792061418295,0.1965389400720597,0.980424463748932,0.05297929462011245,0.014209891186130337,-0.10432968820307946,0.05773874744772911,-0.023933622986078262,0.01657386496663094,0.16494489206001164,0.16311948269605636,-9.663813176751137
25.0,2.299999952316284,326.0,22.05612564086914,21.795812606811523,-79.94650131159301,40.44342766104028,252.31990812683102,0.013607694767415524,-0.0014699760358780622,0.1989397555589676,0.979916214942932,0.08160170395148579,0.01517316454177696,-0.12374752472834158,-0.09822797775268556,-0.022883843630552292,-0.07894455641508102,0.21600579410791398,0.3488717099279165,-9.636705484986306
25.2,2.4000000953674316,324.0,21.99352264404297,22.352436065673828,-79.9465012123392,40.443427702142905,252.30705736541748,0.014467726461589338,-0.002817371161654592,0.20072175562381744,0.9795374870300292,0.09707106983627972,0.003821810757484365,-0.12847862713763508,-0.12486716359853745,0.00022508075926452875,-0.09632793068885803,0.13614480595104395,0.4529637698829174,-9.72335595846176
25.3,2.5,327.0,21.85204124450684,24.18929672241211,-79.94650137463537,40.44342745899467,252.2818307723999,0.01521684043109417,-0.0033975027035921808,0.2021736949682236,0.9792256355285645,0.10753927366392456,-0.010522867937485178,-0.12076056702407872,-0.06373583525419235,0.022197868674993515,0.023077558726072308,0.1086313174199313,0.2848408612981439,-9.773111085891724
25.5,2.5,324.0,21.795698165893555,24.45965576171875,-79.94650142098763,40.44342714299385,252.23775289916992,0.01264831330627203,-0.004883090034127235,0.20186620950698853,0.9793192744255066,0.09953961357283124,-0.03752564496745296,-0.08194221062561019,-0.11862245202064516,-0.1688472330570221,0.02965157106518745,0.17543578365817666,0.3442796356603504,-10.031263318061828
25.6,2.4000000953674316,327.0,21.952205657958984,22.535327911376953,-79.94650127940302,40.443427147050755,252.23120878601074,0.00862929318100214,-0.0067627187818288794,0.2010322213172913,0.9795233607292176,0.11055140173857048,-0.04478750025525638,-0.04656208649989448,-0.1272534281015396,-0.07005912810564041,-0.08793628215789795,0.14129787487909198,0.4151894411444664,-10.129435729980472
25.8,2.299999952316284,326.0,21.908382415771484,23.72809410095215,-79.9465012752003,40.44342672852472,252.18691347503662,0.0036727909464389094,-0.005943588446825743,0.1979739218950272,0.9801824688911438,0.10374940587817903,-0.05738576014636481,-0.042264270347490265,0.019453834742307663,-0.019446529448032386,0.03819712251424789,0.06979566422291099,0.23197296861559155,-9.863849347829818
25.9,2.4000000953674316,327.0,21.821990966796875,24.6027889251709,-79.94650117926257,40.443426327210744,252.14604662322998,-0.001435425947420299,-0.006166474428027868,0.1968049854040146,0.9804222583770752,0.08814493164413598,-0.04509044962103066,-0.04553720636683794,-0.0711057260632515,-0.08125509321689606,-0.08660615235567093,0.1428549518622458,0.20943396225571634,-9.90020499587059
26.1,2.299999952316284,328.0,21.952205657958984,23.40207099914551,-79.94650105796234,40.443426325952565,252.1423911895752,-0.0018175799632444976,-0.007227510679513216,0.1972687691450119,0.9803212285041808,0.09717546655337167,-0.03256653571957323,-0.029940213497105912,-0.013227367773652077,0.02947017922997475,0.008491688407957554,0.08802425852045417,0.1887181908264756,-9.924451060295103
26.2,2.200000047683716,325.0,21.883342742919922,24.165441513061523,-79.94650093436613,40.44342633667078,252.1398448791504,0.000187549157999456,-0.005194483790546657,0.19729655981063848,0.9803301095962524,0.10124050410874184,-0.020157168844428086,-0.02314507988599892,0.006756247486919165,0.04656683653593064,0.05162878334522247,0.10493283474817873,0.14147310862317686,-9.888944427967072
26.4,2.200000047683716,320.0,21.815731048583984,24.539175033569336,-79.94650098593843,40.44342605568132,252.1019220199585,0.002212495543062687,-0.0018641755450516941,0.1988479644060135,0.980026125907898,0.0885485001806447,0.0016114260986258913,-0.028555809872779506,-0.09783824533224106,-0.017113365232944492,-0.07538485527038574,0.11530576790682973,0.2616452674381435,-9.784351773262024
26.5,2.0999999046325684,320.0,21.823244094848643,24.35628318786621,-79.94650101133185,40.44342575622698,252.0587034072876,0.004340813495218754,-0.0026811114512383947,0.20063477754592896,0.9796528816223145,0.1013673227955142,0.012630994946428432,-0.028573369396247224,0.07269604504108429,0.08849088847637178,0.04379933327436447,0.2251412463001907,-0.051346483714878564,-9.954890495538713
26.62,1.8999999761581416,320.0,21.8670654296875,24.23700714111328,-79.94650091432483,40.44342580812405,252.05691526794442,0.0056569757871329784,-0.002903694519773125,0.20085541903972626,0.9796002507209778,0.10723398744034893,0.021378254227018213,-0.010775405351972278,0.08148244023323059,0.06615810841321945,-0.052402906119823456,0.22324733315035705,0.09000913241878153,-9.984679720401765
26.8,1.7999999523162842,321.0,21.90462684631348,23.69628715515137,-79.9465010541699,40.44342547658589,252.02114771270752,0.006746960338205099,-0.0021465064492076635,0.2005799114704132,0.9796518087387084,0.09571484977684404,0.015872374887445532,-0.016458183123988446,0.04729010537266731,0.021005097776651386,0.004659188911318779,0.2398114901036024,0.11400941278785467,-9.93788094520569
27.0,1.7999999523162842,320.0,21.82073974609375,24.58688545227051,-79.94650093880773,40.443425231354986,251.9869556274414,0.006021678447723389,-0.0034394848626106977,0.20042139291763306,0.9796853065490724,0.09800650615126633,0.01927529518836598,-0.02918141526982995,0.037962641566991806,-0.03289810195565224,0.03298061341047287,0.21694503966718914,0.011463247016072271,-9.839586911201478
27.1,1.7999999523162842,323.0,21.890853881835934,23.378215789794922,-79.94650084286721,40.44342528572764,251.98477362060547,0.004786661360412836,-0.003455965779721737,0.20100124180316925,0.9795732498168944,0.10616773272305338,0.024250064511624758,-0.014743119019738425,0.07009167969226837,0.030551446601748463,0.07594157755374907,0.18822622071951628,-0.0660035347379744,-9.980035861730578
27.3,1.7999999523162842,319.0,21.99978256225586,22.82954216003418,-79.94650068849452,40.44342514501767,251.95404528045654,0.005209716036915779,-0.006292618811130525,0.20209339261054995,0.9793322086334229,0.10049101121010892,0.041587016596232484,0.0019245335795161282,-0.012567239813506605,-0.07378785312175751,0.014092832803726196,0.15352381808683274,0.03876987202093005,-9.887927012443543
27.4,1.7999999523162842,321.0,21.972238540649414,22.33653259277344,-79.94650060353645,40.44342521758039,251.954414352417,0.004838074557483196,-0.007641669362783431,0.2026397287845612,0.979211688041687,0.09521459942730852,0.05396242925307832,0.0037062390579827202,-0.026582775637507442,-0.016063153743743896,-0.10700073838233948,0.16537497304379942,0.22153503086417914,-9.803243542313576
27.6,1.7999999523162842,319.0,21.954710006713867,22.789783477783203,-79.94650045571449,40.44342507626385,251.9237050857544,0.006081285420805216,-0.004553881473839283,0.20448757708072665,0.9788396954536438,0.09911049680943786,0.05156278480016277,-0.019551274880479492,0.0848405584692955,0.0347827710211277,-0.08023685961961746,0.15128327468410135,0.14933929475024346,-9.707081403136254
27.7,1.7999999523162842,320.0,21.959716796875,22.46376037597656,-79.9465003413893,40.44342495781912,251.90026424789428,0.009825381450355051,-0.0019780960865318775,0.2065468728542328,0.9783854484558104,0.11482076862549614,0.04754865459503475,-0.046916484802606934,0.03270161524415016,0.006437484174966812,-0.056807398796081536,0.18283059284091,0.21508869487792254,-9.668030188679696
27.9,1.7999999523162842,321.0,22.078662872314453,21.445934295654297,-79.94650023919455,40.443425043223534,251.89436767959597,0.00996802281588316,-0.002806656528264284,0.20692309737205505,0.9783024787902832,0.11745962845132893,0.05157372831190088,-0.07496756153273627,-0.025669950991868973,-0.06872648745775223,0.040082838386297226,0.24188483968377114,0.10012962117791176,-9.622592645287517
28.0,1.7999999523162842,326.0,22.167558670043945,20.181602478027344,-79.94650024747634,40.443424849200476,251.8721489753723,0.009319432079792023,-0.005649829283356666,0.20710481703281405,0.9782581329345704,0.1202096859452584,0.045352840798684436,-0.09643620584694328,-0.031588923186063766,-0.05653819814324379,-0.008415521122515202,0.15526941295713187,0.21445372380316252,-9.617169352769851
28.2,1.7999999523162842,325.0,22.10245132446289,21.263044357299805,-79.94650004133467,40.443425012696345,251.84658907318115,0.009197860024869442,-0.010046616196632384,0.2071641981601715,0.9782114028930664,0.1126453130802354,0.040463871654566,-0.17437358263179895,-0.009732527658343315,0.082631416618824,0.013919190503656864,0.16002641525119546,0.17151575546711684,-9.408723716139797
28.3,1.7999999523162842,327.0,22.126239776611328,21.040393829345703,-79.94649998453178,40.44342490538635,251.80707405471802,0.01322218682616949,-0.010759586468338966,0.20747724175453186,0.9780913591384888,0.07976157733215952,0.04148323635007777,-0.23705617419306144,-0.06675753742456436,-0.04680338874459267,0.03037755005061626,0.08104743389412761,0.13867896180599928,-9.379419225454331
28.5,1.7999999523162842,327.0,21.99602699279785,22.46376037597656,-79.94650000207267,40.44342472458396,251.79212997818001,0.0146440789103508,-0.01101976353675127,0.2072480469942093,0.978116810321808,0.0724928702342786,0.03175029728058476,-0.2410020505518896,-0.06528055667877197,0.002276582643389702,-0.0825500413775444,0.1111134056467563,0.3099824633449316,-9.405634047389027
28.6,1.7999999523162842,325.0,21.998531341552734,21.95484733581543,-79.9464999314602,40.44342477756208,251.76745413208008,0.014739031903445719,-0.01053424086421728,0.2077009081840515,0.9780246019363404,0.061748822374944015,0.02380092467971969,-0.2486838753680158,-0.07528896629810332,-0.02029445208609104,-0.003586197039112449,0.17605845730751754,0.07503000944852829,-9.671540856957435
28.8,1.7000000476837158,324.0,22.08993148803711,21.34256172180176,-79.94649993578449,40.44342444781458,251.74502514266968,0.013667449355125429,-0.011578299105167387,0.2102128118276596,0.9774916172027588,0.04480641688445143,-0.010721110758755164,-0.17914383418464386,0.0014400244690477848,-0.03275775909423828,-0.09396433085203172,0.04012987956404687,0.33615014210343364,-9.77829288840294
28.9,1.8999999761581416,324.0,21.972238540649414,22.718217849731445,-79.94649987648398,40.4434244618919,251.7274112548828,0.009688355959951878,-0.010293114930391312,0.2114192694425583,0.9772932529449464,0.04158506014637963,-0.007529935606849859,-0.1767378243345937,-0.016749579459428787,-0.12523625791072845,-0.15622873604297638,0.04690101010724902,0.30936920005828145,-9.662075384259225
29.1,2.0,327.0,22.129995346069336,21.18352508544922,-79.94650002169946,40.443424263920384,251.68945644760132,0.002281176159158349,-0.011934760957956314,0.21408772468566886,0.9767389297485352,0.038134914099313855,0.006061967116015457,-0.1394927675277995,-0.036950040608644485,-0.014734552241861818,-0.16043801605701447,0.019071501268772408,0.3009411330521107,-9.789734719991683
29.2,2.0999999046325684,325.0,22.15629005432129,20.85750389099121,-79.94650004100025,40.4434241767865,251.64467523956296,0.0045503536239266396,-0.013720325194299221,0.21609002351760864,0.9762665033340454,0.03951351069497085,0.02828310489912653,-0.11861300728276307,-0.08537811785936356,0.04070708900690079,0.02063981257379055,0.14511610670015215,0.4474078917503357,-10.010319761037827
29.31,2.200000047683716,325.0,22.12248420715332,20.937021255493164,-79.94649999740062,40.44342421704748,251.63329933547973,0.010721028782427313,-0.011034595780074595,0.21578580141067505,0.9763195514678956,0.041994676382068497,0.02360906329149401,-0.11094053477603737,-0.04830139875411986,0.10282602906227112,0.058887820690870285,0.016012335112318397,0.4049555712193251,-9.877819515466687
29.5,2.5,329.0,22.15503692626953,20.80183982849121,-79.94650007281791,40.443424017252006,251.60365103149414,0.01663327030837536,-0.00920528918504715,0.21419629454612726,0.9766055941581726,0.047177261216065774,0.014534966144314238,-0.11424186435464427,-0.019043361768126488,0.11180981248617172,0.0767631009221077,0.1965990498103201,0.2094066813401878,-9.805166106820103
29.7,2.5999999046325684,328.0,22.218891143798828,20.165699005126953,-79.94649997230229,40.44342407337345,251.57917211914062,0.016763191670179367,-0.010977231897413729,0.2084556221961975,0.9778265357017516,0.047988469087751534,-0.007391412552341686,-0.13226044833156084,0.004570393357425928,0.011221030727028848,0.039967838674783714,0.14095156439580026,0.14176618203520774,-9.66083343565464
29.8,2.799999952316284,330.0,22.27523422241211,19.736303329467773,-79.94650012386609,40.44342392905961,251.543281539917,0.014202874153852463,-0.012777385301887987,0.20599281787872314,0.978367030620575,0.040223410398267455,-0.010113272217059674,-0.14291112881468396,0.004052887670695782,0.05316700041294098,-0.09061257541179656,0.16851790627464652,0.3707340107113123,-9.700416746735574
30.0,2.799999952316284,329.0,22.166305541992188,20.984731674194336,-79.94650024462817,40.443423744383885,251.4934701766968,0.011958938091993332,-0.01461695320904255,0.20340032875537872,0.9789135456085204,0.019329759427925843,-0.014021007115412204,-0.168419005557547,0.08005097508430481,-0.03313934803009033,-0.01523376349359751,0.14944869250059128,0.31066775701940064,-9.703902856707574
30.1,2.799999952316284,328.0,22.138761520385746,21.06424903869629,-79.94650021997244,40.44342373649014,251.46182201766968,0.010008584707975388,-0.014487123116850853,0.2045521289110184,0.9786972999572754,-0.0012777465179812089,-0.014278013030830494,-0.14478343774281366,0.13793231546878815,0.07323043048381805,-0.06474390625953674,0.22206851620227105,0.1052378584071994,-9.973253091573717
30.3,2.9000000953674316,330.0,21.968481063842773,23.410022735595703,-79.9465002933579,40.44342356014079,251.41719387435916,0.011438753455877304,-0.014043806120753288,0.20655348896980288,0.9782677292823792,-0.011260364823272627,-0.011722601557674229,-0.13617830187740534,0.07870259881019592,0.0180478747934103,0.13541707396507266,0.09059756331145764,0.05847796719521285,-9.933579733371737
30.41,2.9000000953674316,334.0,22.04861259460449,21.4379825592041,-79.94650030732625,40.44342354833184,251.40444658660888,0.013189872726798058,-0.012004442512989044,0.2086341381072998,0.9778311252593994,-0.02809038291481059,-0.006437563788608988,-0.11129467209563744,0.031079240143299106,0.0005006422288715839,-0.030827699229121205,0.15743675652891398,0.1436570619419217,-10.013024682998658
30.6,2.799999952316284,334.0,22.07615852355957,21.85147476196289,-79.94650054493009,40.44342352595605,251.34788177871704,0.0140199838206172,-0.009456741623580456,0.2125404775142669,0.9770059585571288,-0.03458303987656797,0.006243101354594745,-0.06701530646473003,0.030466658994555473,0.023205297067761414,-0.15704329311847687,0.21121935473755,0.27488140851259235,-9.97992242574692
30.7,2.5999999046325684,334.0,22.171314239501953,20.69051551818848,-79.94650087233829,40.443423540607725,251.28706978225708,0.01418088376522064,-0.006782122887670994,0.21418611705303192,0.9766664505004884,-0.03663214068283748,0.0114906997602119,-0.051090305907006583,0.07653697580099106,0.03509749099612236,-0.04092608764767647,0.2376139054633677,0.21829824982211,-10.009583011865617
30.81,2.5,333.0,22.15253257751465,21.461837768554688,-79.9465009204048,40.44342353359321,251.28250072860718,0.014785404317080975,-0.005507743451744318,0.2139519602060318,0.9767168164253236,-0.04719696846898182,0.00539110078608618,-0.040340037826256656,-0.0209262166172266,-0.04394713044166565,-0.00901707261800766,0.07328400344587863,0.2055123078078032,-9.8827978348732
31.0,2.0999999046325684,327.0,22.021068572998047,22.503520965576172,-79.94650110208607,40.443423555611524,251.2313804473877,0.016028854995965958,-0.005088941194117068,0.21310029923915866,0.9768856167793274,-0.042337268472590416,0.019862181345751538,-0.05564217449453822,-0.08479725569486618,-0.017482008785009384,-0.13703514635562894,0.1993883726745844,0.3675423445925117,-9.840910720825196
31.2,2.0,327.0,22.00604248046875,22.821590423583984,-79.94650118398238,40.44342354316597,251.22373388671875,0.0150326294824481,-0.003740966785699129,0.21174779534339905,0.9772016406059264,-0.03981536886351074,-0.0007145083511347817,-0.007700713548609294,-0.11144860088825226,-0.04138442501425743,-0.04817745089530945,0.11174570892937484,0.32752173487097025,-10.035377418994905
31.3,1.8999999761581416,324.0,22.09619140625,21.461837768554688,-79.94650152122927,40.443423563412935,251.1669087257385,0.014601592905819416,-0.002155760768800974,0.21073558926582334,0.9774316549301147,-0.038947749057065474,0.014437961323564431,-0.014034335302126602,-0.07846326380968094,-0.016497481614351273,-0.021860968321561813,0.06837110890075565,0.3169260684773326,-9.999281387329102
31.5,1.7999999523162842,322.0,22.124988555908203,21.477741241455078,-79.9465018596958,40.4434235584972,251.11086939239502,0.014255329035222532,-0.0017544259317219255,0.20914416015148168,0.9777793288230896,-0.03414400170597485,0.022880396704141347,-0.03394953003950541,-0.10606304556131364,0.0033987744245678178,0.02787451259791851,0.2030605337396265,0.12998018698766828,-9.810763646364213
31.6,1.7000000476837158,317.0,22.052370071411133,21.915088653564453,-79.9465019417818,40.44342356384665,251.10447786712646,0.013779941014945507,-0.005526956636458635,0.2107279598712921,0.9774320125579834,-0.034828872094518695,0.012938619540307918,-0.01781988704695415,-0.14260165393352509,0.0215025395154953,-0.07148085534572601,0.1755636184103787,0.19422095065936448,-9.89157450556755
31.8,1.7000000476837158,315.0,22.07490539550781,21.73219871520996,-79.94650219517361,40.44342359621603,251.06198070907595,0.01467304117977619,-0.0077610919252038,0.21313421428203586,0.9768819212913512,-0.03288615895060322,0.02390121726544053,-0.024074706571921768,-0.07137102633714676,0.05222305282950401,-0.05083058401942253,0.17345670215785505,0.1489166141487658,-9.876959974765779
31.9,1.600000023841858,312.0,22.02357292175293,22.55918312072754,-79.94650224433755,40.443423601790926,251.05979536437988,0.016364363953471184,-0.008152471855282784,0.2160209566354752,0.9762176275253296,-0.03615373607526429,0.02034573945810771,-0.01926727137117032,0.043565642088651664,0.03471846133470535,-0.1022941917181015,0.28524870458990337,0.2349882498197257,-9.871899794340132
32.1,1.5,311.0,21.977245330810547,22.972675323486328,-79.9465025189622,40.4434235898188,251.0268039550781,0.015805799514055252,-0.0015202963259071116,0.2217564433813095,0.9749727845191956,-0.03402915573286712,0.019276610938951774,-0.016496971254662658,0.01350237801671028,-0.001858329982496798,-0.08200625330209732,0.16661589838564395,0.2398700901679695,-9.798150617480276
32.2,1.600000023841858,307.0,22.038597106933594,21.85147476196289,-79.94650255214002,40.443423591009356,251.02555750274655,0.014711881987750532,0.002053549978882075,0.2247082144021988,0.9743129014968872,-0.008975858281592666,0.00533630427018348,-0.00748722103985051,0.1821010857820511,0.07260719686746597,-0.08435624092817308,0.2788478672504425,0.0572186048515141,-9.91352729201317
32.4,1.7000000476837158,304.0,22.153785705566406,21.14376640319824,-79.94650288766563,40.44342348149646,250.9979147758484,0.012844727374613285,0.005215653218328953,0.2289634346961975,0.973336398601532,0.0027945148004254717,0.006606613596903375,-0.016708201297631682,-0.11928094178438188,-0.034727081656455994,-0.13004276156425476,0.2285724472627044,0.34855603337287905,-9.665355087518693
32.5,1.7999999523162842,303.0,21.99978256225586,23.04424095153809,-79.94650324051922,40.44342331654165,250.96546696090698,0.011350907385349274,-0.0055652065202593795,0.2284227162599564,0.9734799861907959,0.0016625403949804894,0.0013558301579240232,-0.05172770344547567,-0.1720888465642929,-0.1125086471438408,-0.009623607620596886,0.1156771940086037,0.27840784600004553,-9.607819070219994
32.7,1.8999999761581416,302.0,22.03734397888184,21.8355712890625,-79.94650322320807,40.44342332155938,250.96005485916137,0.011416885070502758,-0.008595666848123074,0.2275756299495697,0.9736555814743042,0.012762634459665004,0.00017330881987348903,-0.056731147385599714,-0.07175185531377792,-0.05010969564318657,0.03078160621225834,0.18791887644678354,0.30895035669207577,-9.716253930330275
32.8,1.8999999761581416,298.0,22.183834075927734,20.475818634033203,-79.94650349607635,40.44342311743004,250.93752573394767,0.011059284210205078,-0.009215774945914744,0.226434662938118,0.9739200472831726,0.0062942387851790465,-0.006401910430913978,-0.05030458862955122,0.039889220148324966,-0.006514952052384615,0.13542905449867249,0.10645260832272473,0.12914255507290365,-9.815177124738693
33.0,1.8999999761581416,300.0,22.238924026489254,20.73822593688965,-79.94650349811097,40.443423111662966,250.92559955978402,0.014528163708746432,-0.012195014394819736,0.2234811633825302,0.9745237827301024,-0.0013849313644043663,-0.006747634642969328,-0.0779791972779807,0.0795561894774437,0.03089254721999168,0.1363285630941391,0.1942764078453184,0.03968773869797588,-9.643609292507172
33.1,1.8999999761581416,300.0,22.05612564086914,21.73219871520996,-79.94650377707327,40.44342288063286,250.89398287200927,0.01504284702241421,-0.01007129717618227,0.21914756298065186,0.975523829460144,-0.03075613766289109,-0.015196876565628225,-0.09491410520853333,0.10590120404958724,-0.0044816676527261725,0.10593974590301514,0.1706175135076046,0.2162335797026753,-9.56375211417675
33.3,1.8999999761581416,300.0,22.05111694335937,22.209304809570312,-79.94650399708074,40.443422688228715,250.8728117790222,0.0151812806725502,-0.009194976650178429,0.21720582246780398,0.9759644865989684,-0.05868601505560232,-0.02193895397882836,-0.0700766396997949,-0.028596406802535057,0.06844116747379303,-0.01404929906129837,0.21335537916049369,0.208043695371598,-9.867675765752793
33.4,1.7999999523162842,301.0,22.068645477294922,21.87532997131348,-79.94650404791253,40.44342264163707,250.86620806121826,0.01753632165491581,-0.008667522110044956,0.2161535620689392,0.9761634469032288,-0.0645896817662134,-0.03644122634571127,-0.05915458455201475,0.012439804151654243,0.0902048647403717,-0.021655863150954247,0.2018131216429174,0.1353184116538614,-9.91396115541458
33.6,1.7999999523162842,304.0,22.08241844177246,22.185449600219727,-79.94650436660474,40.44342233679248,250.8452663269043,0.020674115046858788,-0.009574864059686659,0.2157322466373444,0.9761868119239808,-0.091836068552534,-0.05226235992885871,-0.04646763054994223,0.03144824504852295,-0.014524632133543491,0.05500566586852074,0.21927957706153395,0.1062031058035791,-9.730967279076577
33.7,1.7000000476837158,302.0,22.07240104675293,21.811716079711914,-79.94650444545331,40.443422255930216,250.8398871269226,0.01928025111556053,-0.009409642778337002,0.21647752821445465,0.9760518670082092,-0.11092713591749727,-0.05670278088667064,-0.05009368238662835,-0.044850099831819534,-0.035424456000328064,-0.09691104292869568,0.27066748464480045,0.2759528194181621,-9.733092741966248
33.9,1.600000023841858,304.0,22.084922790527344,21.95484733581543,-79.94650491031788,40.443421906788146,250.82004068756103,0.016939930617809296,-0.005428337026387453,0.21919770538806915,0.9755183458328248,-0.1297207234251567,-0.07453011562995324,-0.05186888539008664,0.07299572974443436,-0.030326139181852337,0.00826919637620449,0.19266270423308016,0.10985312967561188,-9.69805037856102
34.0,1.399999976158142,302.0,22.06238555908203,22.026412963867188,-79.94650527117648,40.44342170454823,250.8026723709106,0.015731705352663994,-0.003446400398388505,0.2207836210727692,0.9751899242401124,-0.1512751712439972,-0.07183166002957718,-0.048610285667499135,-0.09257633984088898,-0.03402052819728851,-0.042951937764883034,0.17394059579819446,0.204673944991082,-9.678954541683195
34.2,1.399999976158142,299.0,22.117475509643555,21.533403396606445,-79.94650549792573,40.44342146984015,250.79248140716552,0.013339931145310402,-0.0048915920779109,0.2223139107227325,0.9748716950416564,-0.1457728051794096,-0.08071901911997928,-0.0352072064077459,-0.021313797682523727,-0.05094941705465317,-0.020384816452860832,0.19864727463573212,0.215993478409946,-9.88214996337891
34.3,1.2000000476837158,301.0,22.14627265930176,21.207380294799805,-79.94650603259271,40.44342114938308,250.776387676239,0.012860300950706005,-0.0039208526723086825,0.22273239493370056,0.9747869372367859,-0.14844885720085507,-0.08097804032270184,-0.01216442267585217,-0.04615867137908936,-0.0043349089100956925,0.02670351788401604,0.17420684510841966,0.15627655930817128,-9.87855509519577
34.5,1.100000023841858,302.0,22.13625717163086,21.55725860595703,-79.94650642214394,40.44342100367792,250.75385521316528,0.013004446402192116,-0.003215269418433309,0.22299492359161371,0.9747275710105896,-0.14213900514837338,-0.0680033573705755,-0.011478365108032795,0.06124390661716461,-0.02501663751900196,0.09142619371414183,0.18220771819353104,0.06767589323222638,-9.861798144578934
34.6,1.100000023841858,305.0,22.101198196411133,21.223283767700195,-79.94650653423778,40.44342089735988,250.7524642791748,0.012419138103723526,-0.001109156641177833,0.22308288514614105,0.974719762802124,-0.13435976194964205,-0.06249236711187265,-0.008474867347456509,0.017748748883605003,-0.06027605757117273,-0.04639379307627678,0.19035369358956813,0.25411396231502303,-9.793770468235016
34.8,1.100000023841858,304.0,22.14627265930176,21.119911193847656,-79.9465071241374,40.443420563348276,250.72486637496948,0.009989396668970585,0.001720121130347252,0.2219510525465012,0.9750051498413086,-0.11226260475248934,-0.0652373644175453,-0.030642454822431463,0.10875243693590164,0.04565469920635224,0.03864878043532372,0.2341587309166789,0.0703916142694652,-9.693365589380264
34.9,1.2000000476837158,308.0,22.190093994140625,20.68256378173828,-79.9465075629439,40.44342029287952,250.7001118507385,0.011769096367061138,-0.00043264057603664696,0.22058124840259552,0.975297510623932,-0.09786203625065484,-0.0594843918902292,-0.05634369299048099,-0.015248660929501057,-0.005476930178701879,0.08895973861217499,0.16971298579126598,0.1358426510822028,-9.636952822208405
35.1,1.2999999523162842,305.0,22.137508392333984,21.430030822753906,-79.94650763162923,40.44342020673115,250.6935458030701,0.013841638341546059,-0.002632131101563573,0.2200975716114044,0.9753761291503906,-0.08583400541786743,-0.06035664132841982,-0.06943660486701966,-0.06601870805025101,0.0379805788397789,-0.058662008494138725,0.2043803051300347,0.28479461347684265,-9.624450890421867
35.2,1.600000023841858,302.0,22.256452560424805,19.768110275268555,-79.94650768429331,40.4434201233815,250.6857099380493,0.015100927092134953,-0.003391017206013203,0.21987313032150269,0.975405752658844,-0.08156051731258201,-0.0617203992693202,-0.0821221760108435,-0.07708495855331421,-0.040571805089712136,-0.10194006562232973,0.26518106047064066,0.3790621268749237,-9.625122735500335
35.4,1.600000023841858,302.0,22.157541275024414,21.088104248046875,-79.94650801283827,40.44341977098982,250.6565646972656,0.014039424248039722,-0.006174985319375992,0.2202201932668686,0.9753296375274658,-0.0809317807166535,-0.07728712590166845,-0.1097688094901965,-0.1223040521144867,-0.016866259276866913,0.014424532651901243,0.23721000904217365,0.12468461045064033,-9.571227194666864
35.5,1.600000023841858,301.0,22.192598342895508,21.15171813964844,-79.94650831849653,40.443419401973294,250.6370563354492,0.013060323894023895,-0.009526121430099007,0.220987930893898,0.9751425981521606,-0.09379644371697383,-0.0875888611085377,-0.11883877350043562,-0.055710285902023315,-0.02917025238275528,-0.08674654364585876,0.2390860333666205,0.302550981156528,-9.52938685834408
35.7,1.7000000476837158,302.0,22.038597106933594,22.392194747924805,-79.94650843735043,40.44341919728141,250.6087727394104,0.010299353860318659,-0.011076224036514759,0.22494181990623474,0.974254846572876,-0.10132042812746957,-0.07871255373331275,-0.1455157366915056,0.0013482185313478112,-0.0238652378320694,-0.009250768460333349,0.19544226955622435,0.1809406265616417,-9.724505521059038
35.8,1.7999999523162842,302.0,22.083669662475586,21.74810218811035,-79.94650884222456,40.44341867121993,250.58437155151367,0.009494084864854813,-0.012106329202651978,0.22667813301086426,0.9738482832908628,-0.12651290284976222,-0.08419634113544848,-0.0928842072119193,0.03578421100974083,0.10133634507656096,-0.04527077823877335,0.2184733556583524,0.259912920165807,-9.974669287204742
35.91,1.7999999523162842,301.0,22.098695755004886,22.0661735534668,-79.94650909554754,40.443418402074855,250.56630323791504,0.012162312865257265,-0.01160867977887392,0.2252339273691177,0.9741596579551696,-0.14164721264725194,-0.08384101640131307,-0.06883615961586317,-0.00923414807766676,0.05075298622250557,0.1050521805882454,0.17258824445307255,0.17955452581867576,-9.943864985704424
36.1,1.8999999761581416,301.0,22.052370071411133,22.439905166625977,-79.9465091995268,40.443418280283865,250.55950687789917,0.015987463295459747,-0.012112144380807877,0.2215396761894226,0.974945068359375,-0.1473385065928973,-0.07973568270368739,-0.05735251239333645,-0.11601904779672625,0.0560946948826313,0.025462539866566655,0.2212983830831945,0.3436171826720238,-9.868750483989716
36.3,1.8999999761581416,297.0,22.20887565612793,20.420154571533203,-79.94650961249728,40.44341780631163,250.53643940353402,0.019649935886263847,-0.014733889140188694,0.20645424723625186,0.9781480431556702,-0.1643533971065671,-0.10173786735249754,-0.030128790037200426,-0.0010168543085455894,0.03412612527608872,0.2316223680973053,0.2611024813726545,0.11105028312653303,-9.913632541894911
36.4,1.8999999761581416,303.0,22.053621292114254,22.225208282470703,-79.94650974297579,40.443417662199614,250.53262518310547,0.01787883602082729,-0.013604571111500263,0.198008194565773,0.9799429178237916,-0.16081177497513754,-0.10493419596483196,-0.03258265483639362,0.17203012108802795,0.015010360628366469,0.1924668401479721,0.37716700773686174,0.2042370300740004,-9.831255798339845
36.6,1.8999999761581416,304.0,22.17381858825684,20.69051551818848,-79.9465101578769,40.443417212313314,250.5110125389099,0.011271505616605282,-0.009359481744468212,0.18772409856319427,0.9821125864982604,-0.17929306453980445,-0.1204379402675727,-0.0275728679602607,0.036830026656389236,-0.03680554404854775,0.06701886653900146,0.16547896211966873,0.15122304836288095,-9.794722394943236
36.7,1.7999999523162842,304.0,22.08617401123047,22.12978744506836,-79.94651080170381,40.44341684192052,250.4807619895935,0.011878408491611479,-0.010347228497266771,0.18427227437496185,0.9827489852905272,-0.1852534892757069,-0.0991497753035588,-0.05114889566082265,-0.054026536643505096,0.05431284382939339,0.10648134350776672,0.15785881586372852,0.20367818243801594,-9.74465327203274
36.9,1.7000000476837158,304.0,22.14877700805664,21.54930686950684,-79.94651096681022,40.44341670387399,250.47501467132568,0.013059554621577265,-0.011865200474858284,0.1833440363407135,0.9828904867172241,-0.1870667282127464,-0.09280198696979963,-0.05090550500930552,-0.04779883101582527,0.06335484981536865,0.005475673824548721,0.22808036752045155,0.228846060410142,-9.743391442894936
37.0,1.7999999523162842,303.0,22.06238555908203,22.042316436767575,-79.94651114057079,40.44341657232884,250.46932314300537,0.013665158301591871,-0.01486123539507389,0.18304374814033508,0.9828974604606628,-0.19262281410380705,-0.07737202093356332,-0.053705736745584785,-0.009853546507656574,0.010217839851975441,-0.0845000371336937,0.4171622917056084,0.3238675539940596,-9.801101707220075
37.2,1.8999999761581416,305.0,21.99352264404297,23.20327568054199,-79.94651156302307,40.443416247082695,250.45489071273803,0.011355909518897532,-0.013641971163451672,0.1850218623876572,0.9825741648674012,-0.19030507786431472,-0.059531893732330525,-0.038003381324526776,-0.04623931273818016,-0.08766653388738632,-0.014799141325056553,0.18144953532144428,0.3952681966871024,-9.726264948248863
37.3,2.0999999046325684,307.0,22.19635581970215,20.475818634033203,-79.9465119879132,40.44341591832822,250.43804024124145,0.010963262058794498,-0.012977318838238716,0.18926924467086792,0.98177832365036,-0.16985190815589818,-0.04731242034393187,-0.02547948696199761,-0.038283005356788635,-0.06406058371067047,-0.012284881435334679,0.2782184510305524,0.4997162789851428,-9.845797823667525
37.5,2.200000047683716,309.0,22.390422821044922,19.03654670715332,-79.9465122740838,40.44341564427921,250.42597959899902,0.012148584239184856,-0.013640901073813437,0.18926963210105896,0.9817553162574768,-0.16134397601632594,-0.05158083076609805,-0.027703656194427568,-0.08122703433036804,-0.03848642110824585,0.02877513505518436,0.2343137917667628,0.3747040508687496,-9.761460508704186
37.6,2.299999952316284,310.0,22.42047119140625,18.352693557739254,-79.94651242284439,40.44341554954788,250.42165277862546,0.01484165620058775,-0.015697384253144264,0.1868022382259369,0.9821600317955016,-0.1481747708106497,-0.05308538792621178,-0.055120824078500406,0.05698993429541588,0.04906551539897919,0.04385077580809593,0.2750907388329506,0.4169369546324015,-9.614580790400506
37.8,2.4000000953674316,310.0,22.07615852355957,21.92304039001465,-79.94651283760078,40.443415167678936,250.40666244888303,0.017613347619771957,-0.019750509411096573,0.17610546946525574,0.9840155839920044,-0.15980956236393618,-0.04834186114344193,-0.13968633038297867,-0.012071000412106514,-0.025218144059181213,0.08885548263788222,0.2876509417779744,0.312818472571671,-9.303698367476464
37.9,2.5999999046325684,310.0,22.19510269165039,20.4281063079834,-79.94651299450828,40.44341508414034,250.3909172859192,0.01592673920094967,-0.021571176126599312,0.16958945989608765,0.9851499795913696,-0.17996739618282773,-0.04085465347524622,-0.15390059474835754,-0.13649308681488034,-0.12812769412994385,0.2216804176568985,0.1845627391152084,0.37527356967329983,-9.579544858932497
38.1,2.700000047683716,310.0,22.243932723999023,20.467866897583008,-79.94651316922715,40.44341489457248,250.3854045715332,0.015335842967033388,-0.021222395822405808,0.15635305643081665,0.9873541593551636,-0.15679322012829575,-0.032229411544957134,-0.13400983677093942,-0.0598389059305191,0.06945089250802994,0.04572408273816109,0.2352786919847131,0.4962348833307624,-9.563863211274148
38.2,3.0,308.0,22.26146125793457,20.165699005126953,-79.9465133307238,40.443414824573374,250.36911962890625,0.017114270478487015,-0.020455902442336082,0.14986452460289001,0.9883468151092528,-0.1604161587915104,-0.03378555849641002,-0.17125064126965853,0.07895993441343307,0.03470510244369507,0.17241808772087094,0.29145526818931106,0.2198488217778504,-9.489793022274972
38.4,3.0999999046325684,310.0,22.124988555908203,21.92304039001465,-79.94651386056276,40.443414458373816,250.34665153884887,0.015705987811088562,-0.02144427411258221,0.14026443660259247,0.9897572994232178,-0.20508072610503225,-0.03183206688529798,-0.2026440584829962,-0.12737764418125153,-0.026105809956789017,-0.021151674911379814,0.3283270791918039,0.3384194464981556,-9.498131151795388
38.5,3.2000000476837163,309.0,21.93342399597168,24.07001876831055,-79.94651427133701,40.44341417956258,250.3377127494812,0.014744015410542488,-0.02348373830318451,0.13805590569972992,0.9900363087654114,-0.2263762873900752,-0.04907625573828103,-0.19504175214251465,-0.09927261620759964,-0.13280393183231354,0.02554813027381897,0.1358487449772656,0.3904687289893628,-9.544645752310752
38.7,3.299999952316284,309.0,22.0035400390625,22.60689353942871,-79.94651474015699,40.44341399698133,250.3008918609619,0.014348275959491731,-0.025114221498370167,0.13615240156650546,0.9902656674385072,-0.24242828139719785,-0.03684193152986205,-0.13064436039936406,-0.004371311981230974,-0.061790872365236275,0.008470099419355392,0.3973753504827619,0.4136512214317918,-10.197324242591858
38.81,3.2000000476837163,305.0,22.031084060668945,23.00448226928711,-79.94651507409057,40.44341399609458,250.29330728912362,0.013711043633520605,-0.024852294474840164,0.1362980753183365,0.9902612566947936,-0.2359417881041092,-0.018284658124110016,-0.07955073716928912,0.0830652117729187,-0.009603770449757576,-0.0639476627111435,0.34273330293595794,0.44746139377355576,-10.170208364725113
39.0,3.0999999046325684,300.0,21.978498458862305,23.250986099243164,-79.94651561476586,40.44341386211463,250.27964208984366,0.014655245468020441,-0.017681626603007317,0.1380549669265747,0.9901583194732666,-0.24571867127540065,-0.007836158763965317,-0.03907731602000168,0.20105408132076266,0.08728034794330597,0.01750587299466133,0.3807378657907248,0.2698479973711074,-10.058965086936947
39.1,3.0999999046325684,296.0,21.9309196472168,23.77580451965332,-79.94651636135659,40.443413718406255,250.24584196472168,0.01793193630874157,-0.011858148500323296,0.13844503462314606,0.9901368021965028,-0.24200236246267,-0.0006343559956459231,-0.010388203158618664,0.1098846048116684,0.06903070211410522,-0.01686692051589489,0.3414907330647111,0.21991840364411475,-10.072706043720244
39.3,3.0,297.0,21.922155380249023,24.141586303710927,-79.94651659918806,40.44341363872812,250.21871565246585,0.018289726227521896,-0.012113584205508232,0.13800173997879028,0.9901890754699708,-0.2311364039767197,0.012657329490467318,-0.01778193014131833,0.036165770143270486,-0.03981117904186249,-0.02756484411656856,0.40397100973874334,0.31841794900596143,-10.006295707225801
39.4,2.9000000953674316,297.0,22.028579711914066,22.662555694580078,-79.94651686424805,40.443413594719416,250.21692322158813,0.016818229109048843,-0.01263475138694048,0.13781774044036865,0.9902342557907104,-0.2302280781904508,0.013826390116702926,-0.00835212793722425,0.007238740101456642,-0.021529842168092728,-0.061497475951910026,0.37849893037229776,0.38134773038327696,-9.933831163644793
39.6,2.799999952316284,295.0,21.972238540649414,23.17146873474121,-79.94651783217407,40.443413379715096,250.17927978897086,0.007017310243099928,-0.009795477613806723,0.1392543464899063,0.9901833534240724,-0.22314003328101006,0.045508064623319716,0.005894486394850255,0.1240302249789238,-0.02284119836986065,-0.056893423199653625,0.3812698893249035,0.2487791454792023,-9.977300534248352
39.8,2.799999952316284,296.0,21.88960266113281,23.99845314025879,-79.94651824156287,40.44341341475332,250.15155838394162,0.0035167625173926353,-0.007528247311711311,0.14063407480716705,0.9900268316268921,-0.2020387267513525,0.08559006583281081,0.00930817132482583,0.15016183257102966,-0.03151421993970871,-0.08062859624624252,0.3606565538048744,0.19306660065427425,-10.19078237771988
39.9,2.5999999046325684,295.0,21.90713119506836,24.03821182250977,-79.94651850465287,40.443413444748025,250.15485237503052,0.002628532471135259,-0.006963861174881457,0.1427023559808731,0.9897376894950868,-0.19490039016318628,0.10125274128634136,0.056806831601961774,0.06936536729335785,0.01906284317374229,0.007025859784334898,0.25646171076223256,0.1504070146009326,-10.23408334851265
40.0,2.4000000953674316,293.0,21.940937042236328,23.37026405334473,-79.94651899727847,40.443413522510966,250.12707136535644,0.011359021067619324,-0.008655976504087448,0.14480997622013092,0.9893564581871032,-0.1661677800425078,0.1284711271199698,0.0666697761171871,-0.11525411903858185,0.08879069238901137,-0.06314957141876221,0.28489662911742925,0.3606290353462101,-10.066471742391586
40.2,2.299999952316284,295.0,21.940937042236328,23.131710052490234,-79.9465192222081,40.44341359050685,250.134523853302,0.015910528600215912,-0.011195729486644268,0.14386701583862305,0.9894058108329772,-0.16800743763572445,0.13444143292475558,0.08982391665644694,-0.1854172646999359,0.05247882381081581,0.03058815188705921,0.3087190627679229,0.271482202783227,-10.043169418573381
40.3,2.0999999046325684,302.0,22.084922790527344,22.121835708618164,-79.9465193390892,40.44341366137122,250.11202047729492,0.017324509099125862,-0.01349760964512825,0.14143255352973938,0.9897043108940125,-0.14360754930680444,0.130624938394939,0.07687545899783478,-0.04448525607585907,0.022585093975067142,0.10911541432142258,0.21682957543060186,0.26667866030707954,-9.977085356712342
40.5,2.0,306.0,22.021068572998047,22.503520965576172,-79.94651997810921,40.44341373549058,250.1034884300232,0.015819642692804337,-0.005919370800256729,0.1354740411043167,0.9906368851661682,-0.15366117231012946,0.1232378157205994,0.04597225604988972,0.010780985467135906,-0.005014698952436447,0.03772040084004402,0.15606313593685628,0.17314990606158973,-9.81810424089432
40.6,2.0,315.0,22.031084060668945,22.439905166625977,-79.94652019051351,40.44341379995237,250.10789965057373,0.0130228279158473,-0.0041878484189510345,0.13382266461849213,0.9909109473228456,-0.15425282027636975,0.12058999101966085,0.04171867840436131,-0.014410090632736685,-0.0866987407207489,0.02265540324151516,0.23947750445455315,0.1348908431455493,-9.772005377411842
40.8,2.0,318.0,22.047361373901367,21.891233444213867,-79.94652068896477,40.44341383020043,250.10212992095947,0.007857665419578552,-0.0015023064333945513,0.13397006690502167,0.9909531474113464,-0.13038338574643896,0.11461812597795992,0.019791532165334687,-0.0455215759575367,0.02142895758152008,-0.034809622913599014,0.1083919196203351,0.207853843588382,-9.803840543031693
40.9,2.0,326.0,22.06614112854004,22.225208282470703,-79.94652102079067,40.443413851673384,250.10048054122925,0.011234854348003864,-0.000751298270188272,0.13552631437778473,0.9907097816467284,-0.0955940485529075,0.105371671797776,0.01285719623244145,-0.10858912765979767,-0.032985925674438484,-0.04502074420452118,0.13352640450932085,0.2735445888340473,-9.658803867101671
41.1,1.8999999761581416,326.0,22.12874412536621,21.461837768554688,-79.94652127319891,40.44341399773925,250.09968183898928,0.006877402774989605,-0.00237789424136281,0.13922275602817535,0.9902344346046448,-0.08146634251622206,0.11154481141211428,-0.015271934940704359,-0.095351941883564,-0.06644333153963089,-0.12139768153429033,0.18323553079739213,0.2371379603818059,-9.633086643218997
41.3,1.8999999761581416,320.0,22.06614112854004,22.042316436767575,-79.9465215628486,40.443413994741924,250.1044435348511,0.005560110788792372,-0.003564667189493776,0.1405697613954544,0.9900487661361694,-0.06033408127334189,0.120779132214914,-0.014433698716798482,0.043908823281526566,0.005050363950431347,-0.002681436715647579,0.2200019822828472,0.04855727048590778,-9.726270795464515
41.4,1.7999999523162842,320.0,22.12123107910156,21.604969024658203,-79.94652167047836,40.443414089791005,250.1029510345459,0.005398032255470753,-0.003431875957176089,0.14126089215278625,0.98995178937912,-0.05501452968122608,0.13340090956127046,-0.01638484691597059,0.02503008954226971,-0.03571343421936035,0.0679812878370285,0.17904283963143827,0.07816551488824189,-9.780163997411726
41.5,1.7000000476837158,321.0,22.11246681213379,21.70834350585937,-79.94652194324124,40.443414080154916,250.11229656600952,0.008014996536076069,0.0014741462655365467,0.14226089417934418,0.9897956848144532,-0.020709139110602248,0.13082305523378188,-0.008911655075769909,0.07291173189878464,0.07931681722402573,-0.06741587817668915,0.278464874625206,0.2424837042018771,-9.728897364735603
41.7,1.7999999523162842,318.0,22.131248474121094,21.366416931152344,-79.94652201231719,40.44341418730066,250.1114172782898,0.008737347088754177,0.004746978636831045,0.14358626306056976,0.989587903022766,-0.004210664715658537,0.13838673193122916,-0.013445030688406351,0.07013866305351257,-0.021754344925284386,-0.048252250999212265,0.28095723202452066,0.16046831857413055,-9.767758544683458
41.8,2.0999999046325684,311.0,22.206371307373047,20.26907157897949,-79.94652225051959,40.4434141040691,250.11775825881958,0.0091271148994565,0.005760715343058109,0.1453820765018463,0.9893167614936828,0.002922296295247361,0.13325076826196655,0.0010195633731074696,0.010916445404291151,-0.027389597147703167,-0.06796647608280182,0.2329496363550425,0.14972249750979247,-9.738670400977137
42.0,2.0999999046325684,305.0,22.27523422241211,19.6885929107666,-79.94652257035699,40.44341402841029,250.12714908981323,0.00951532553881407,0.0033294870518147945,0.1501290798187256,0.9886150956153872,0.03867548876153337,0.10464019937130288,-0.010200104398452672,0.025292852893471718,0.0407760888338089,0.11192277818918228,0.125395988188684,0.1218939445540309,-9.692466872334483
42.1,2.299999952316284,300.0,22.432992935180664,18.16185188293457,-79.94652255269456,40.443414134368695,250.1250715103149,0.011015551164746284,0.003559541655704379,0.15080028772354126,0.988496482372284,0.07070598254285228,0.1080363964153768,-0.04131275147899521,0.09487947076559068,0.10912074148654938,-0.1174870952963829,0.361080732755363,0.2725540522299707,-9.550701128840448
42.3,2.299999952316284,293.0,22.27523422241211,19.76015853881836,-79.94652263237921,40.4434141100208,250.12008665466308,0.014536686241626741,-0.0024905316531658173,0.14712056517601013,0.9890086054801941,0.08525173152269076,0.09666145229889493,-0.1399248236165681,-0.12111348658800125,0.004015136510133743,0.020278628915548325,0.32542495988309383,0.2334799788147212,-9.20858697295189
42.4,2.5,285.0,22.21138000488281,20.507625579833984,-79.94652256528448,40.4434142219438,250.10339878463745,0.013384315185248852,-0.007388799451291561,0.14476467669010162,0.9893480539321899,0.099856667224964,0.09893849667517177,-0.19823723950559569,-0.015828218311071396,0.02756638638675213,-0.028780590742826462,0.4400125526636839,0.18347656399011614,-9.302476299405098
42.6,2.5,289.0,22.078662872314453,22.36833953857422,-79.94652260188238,40.44341420333291,250.07626913452148,0.01144649088382721,-0.011422059498727322,0.14155445992946625,0.9897984266281128,0.08371774555280441,0.094195786907429,-0.2353406537573617,-0.0142503147944808,0.0051103876903653145,0.0695047676563263,0.2267611625790596,0.24537436662241816,-9.513817477226258
42.7,2.5999999046325684,295.0,22.22890853881836,20.2531681060791,-79.94652258155584,40.44341410255755,250.0558981742859,0.013076162897050379,-0.010085883550345898,0.13991887867450714,0.9900253415107728,0.061442211973166586,0.08275531441276161,-0.22320713118331684,-0.14151906967163086,-0.032009892165660865,0.02653719671070576,0.2076486611366272,0.21167032124474647,-9.643269569277763
42.9,2.5999999046325684,296.0,22.15503692626953,21.119911193847656,-79.94652252845334,40.443414197664616,250.03263996505737,0.0133055429905653,-0.010697729885578156,0.13986217975616455,0.9900238513946532,0.059236246731087565,0.08801162737010489,-0.24709684136080504,-0.08852259814739227,-0.0033545535989105697,0.01495335716754198,0.2298725391179323,0.1423153452202678,-9.549275577664377
43.0,2.700000047683716,292.0,22.171314239501953,20.905214309692386,-79.94652250470112,40.44341393885128,250.04788111114502,0.012740462087094784,-0.010522302240133286,0.14031009376049042,0.9899697303771972,0.0668116635458988,0.06078456760902735,-0.21387510699559786,0.06566792726516724,0.07024545222520827,-0.05522846803069115,0.3601129820197821,0.18853023938834668,-9.688286113142967
43.2,2.700000047683716,294.0,22.22139549255371,20.6507568359375,-79.94652240937744,40.443414091942394,250.007579788208,0.012917101383209229,-0.007566368672996759,0.1422223299741745,0.9897215962409972,0.056032944435951686,0.07280278408857419,-0.19777494798242187,0.08339152485132217,-0.03096493519842625,-0.02513447403907776,0.2771645086817444,0.2690518806874752,-9.82339714050293
43.3,2.4000000953674316,294.0,22.06363677978516,22.392194747924805,-79.94652242362258,40.443413834760825,249.99498985672,0.014577170833945274,-0.0017344565130770204,0.14235946536064148,0.9897062182426452,0.0550393173048738,0.038652811152247904,-0.15670862659102516,0.09862533956766127,0.049923062324523926,0.06926194578409195,0.3179212280362845,-0.06227579314727336,-9.902787126302721
43.5,2.4000000953674316,296.0,22.15253257751465,21.724246978759766,-79.94652244367373,40.443413687174846,249.98319958114624,0.0158136636018753,-0.004464819096028805,0.14260989427566528,0.9896425604820251,0.053322665371334566,0.033942367446638005,-0.14877763461063168,-0.00109525874722749,0.03572510555386543,-0.07380134612321854,0.38893763557076455,0.07537988307885826,-9.833018149137498
43.6,2.299999952316284,291.0,22.161296844482425,20.68256378173828,-79.94652239927458,40.44341373490228,249.96882484817505,0.015551439486443996,-0.0073532741516828546,0.14382880926132202,0.9894531369209292,0.04982824531000545,0.03665096240426609,-0.1440259087710278,0.034778185188770294,-0.04617875441908837,-0.031900539994239814,0.3722472701221705,0.12249538550153374,-9.899864687919617
43.8,2.0999999046325684,288.0,22.08993148803711,21.891233444213867,-79.94652249456735,40.443413613291646,249.8888988342285,0.01231158897280693,-0.0026924489066004753,0.14844442903995514,0.9888404607772828,0.030809450713271413,0.03791592324728315,-0.15890268052819542,-0.07244440913200377,-0.019128575921058655,-0.1273973286151886,0.26321237605065106,0.18955425130203368,-9.780203758478166
43.91,1.8999999761581416,289.0,22.150028228759766,21.65267944335937,-79.94652250500462,40.44341355872791,249.8532237854004,0.013227870687842369,-0.0031095207668840885,0.14971120655536652,0.9886364936828612,0.04407083307686223,0.03793106775499746,-0.15494876151900253,-0.06840748339891434,0.014532378874719143,-0.01738145761191845,0.2286996059305966,0.08534703774377704,-9.97091654419899
44.01,1.7999999523162842,291.0,22.137508392333984,20.97677993774414,-79.94652246663628,40.44341360964592,249.83921812438962,0.01480225380510092,-0.0050253081135451785,0.1510004699230194,0.9884101152420044,0.05292837409917441,0.04402133815100913,-0.13170873312941253,-0.00973439123481512,0.05318407341837883,-0.09361843764781952,0.3988383603841065,0.1762360664829612,-10.01293580532074
44.2,1.7000000476837158,290.0,21.955961227416992,23.51339530944824,-79.94652236248278,40.44341363008612,249.78735397720337,0.013196955434978008,-0.008586889132857323,0.15296362340450287,0.9881064295768738,0.05946163218129295,0.05285856001282992,-0.0988495341801498,-0.05495452880859375,-0.042671147733926766,-0.1457410305738449,0.2432295348308981,0.3393232798576355,-10.136460574865342
44.4,1.600000023841858,293.0,22.00979995727539,22.94086837768555,-79.94652230780656,40.44341369124785,249.7801480140686,0.011984264478087423,-0.007268238812685013,0.15366686880588531,0.9880233407020568,0.054703988106900345,0.048997905176762696,-0.0462912755878464,-0.03222713619470596,-0.08431592583656311,0.04055701196193695,0.14497780177742245,0.2369249024614692,-10.273142749071123
44.5,1.600000023841858,301.0,22.09493827819824,22.026412963867188,-79.94652221557416,40.44341363943022,249.7378387298584,0.01191649120301008,-0.0076872752979397765,0.15390534698963165,0.9879838824272156,0.06367333428818979,0.039941332488244274,-0.03365068333260639,-0.13521356880664825,0.0062394123524427405,0.01942179910838604,0.1925052862241864,0.07697334984317422,-10.280202677249909
44.7,1.5,303.0,22.17506980895996,21.4379825592041,-79.94652212225138,40.443413739731064,249.7385735359192,0.016214238479733467,-0.019382977858185768,0.15217752754688266,0.9880301356315612,0.04290128083202248,0.04182510214675863,0.021290371905862988,-0.029557807371020317,-0.028119059279561043,0.09044373780488968,0.26631008472293616,0.20048582196235654,-10.037849621772766
44.8,1.5,312.0,22.087427139282227,22.257015228271484,-79.94652191073789,40.44341371017006,249.69898413085937,0.01732022501528263,-0.01987701654434204,0.14977994561195376,0.9883678555488586,0.03943500875268493,0.049321853836291216,-0.011295893327903352,-0.08901847898960114,-0.0239341352134943,0.03276969119906425,0.26159516410902145,0.34889027483761315,-9.818083190917966
45.0,1.5,316.0,22.084922790527344,22.46376037597656,-79.94652187239483,40.44341379380528,249.65736769104004,0.01916022971272469,-0.01872900687158108,0.14525412023067474,0.9890315532684326,0.018900138670111283,0.043445934578466135,-0.0576150893842338,0.05954109132289887,0.04071857407689095,-0.0748152807354927,0.3772080113366246,0.2499763994291425,-9.786488345861436
45.1,1.5,321.0,22.104955673217773,21.859426498413086,-79.94652191920234,40.44341386413289,249.64696882629397,0.01894933171570301,-0.020855458453297608,0.14549148082733154,0.9889582395553588,-0.027806156923359072,0.03303448351178643,-0.045548241089638966,0.09309302270412444,0.0068992916494607925,0.1144152283668518,0.2355025672540069,0.013687162399291993,-9.915556275844574
45.3,1.5,324.0,22.0423526763916,22.026412963867188,-79.94652195448224,40.44341384741143,249.62360332870483,0.017903819680213928,-0.01930622756481171,0.1468353271484375,0.9888104796409608,-0.034975155028777107,0.04471508014247939,-0.0420778277563374,0.06842850148677826,0.011951186694204807,-0.015859074890613556,0.3025314295291901,0.29553658816963435,-9.971659140586851
45.4,1.5,327.0,22.262714385986328,20.475818634033203,-79.94652201697376,40.44341387341901,249.62062691116333,0.016022397205233574,-0.014829092659056187,0.14845171570777893,0.9886787533760072,-0.05212239633165093,0.039262935048689,-0.017103974190314095,0.09357830137014388,-0.00850288849323988,0.035625696182250984,0.2547989636287093,0.13256478421390058,-10.013430479764937
45.6,1.600000023841858,325.0,22.111215591430664,21.74810218811035,-79.9465222190111,40.443413940609744,249.60020016098025,0.01285233162343502,-0.008744559250772,0.14978386461734772,0.9885966181755066,-0.0569731894951258,0.0599003263534085,-0.03298948553182352,0.04937334731221199,-0.03907480463385582,0.02105584181845188,0.2581582255661488,0.09170868046581744,-9.803525378108024
45.7,1.7000000476837158,325.0,22.17882537841797,21.15171813964844,-79.94652232500529,40.44341407981568,249.57606647872925,0.014891425147652624,-0.01384612452238798,0.1476420909166336,0.9888318777084352,-0.05017302538066948,0.08637545055222266,-0.04825682856865165,-0.1047111749649048,0.07490156590938568,-0.015429507941007612,0.28188217017799616,0.1963781895115972,-9.756196845173836
45.9,1.7000000476837158,326.0,22.23141288757324,20.706418991088867,-79.94652241441901,40.44341414184268,249.5703034248352,0.01714550517499447,-0.015339236706495285,0.14564229547977448,0.9890698194503784,-0.04507786608204406,0.08849789857610225,-0.07457113883125811,0.12855684757232666,0.07781762629747391,0.05268057808279991,0.3823406606912613,0.2879142674803734,-9.614893616437913
46.0,1.7000000476837158,322.0,22.081167221069336,22.47171401977539,-79.94652257002257,40.44341423484346,249.56668661499023,0.017084220424294472,-0.009336819872260094,0.14309704303741455,0.9895171523094176,-0.052198078126652885,0.11301030231419792,-0.09370991925401856,0.17529624700546265,-0.041585326194763184,0.07953596860170364,0.3211527648568154,0.2571489961445332,-9.493299597501755
46.2,1.7000000476837158,319.0,22.084922790527344,22.018461227416992,-79.94652278342734,40.44341440863028,249.5454068031311,0.016832737252116203,-0.0048428457230329505,0.14044073224067688,0.9899341464042664,-0.0713789076203094,0.11007274412531658,-0.10740618095981692,0.07846898585557938,-0.013064183294773102,0.017219025641679764,0.34124657526612284,0.05140379099640995,-9.8442705309391
46.3,1.7000000476837158,315.0,22.043603897094727,22.38424301147461,-79.94652298861776,40.44341440484712,249.54854629898068,0.017490791156888008,-0.004552741535007954,0.14153993129730225,0.989767611026764,-0.06338200179407846,0.11262750672922155,-0.07264867313044658,0.08637088537216188,-0.0092726843431592,-0.0425507053732872,0.29395022029057144,0.16100202318280935,-9.944704645872116
46.5,1.7000000476837158,312.0,22.20011138916016,21.41412734985352,-79.94652326514357,40.44341451375776,249.5455503311157,0.01793694868683815,-0.0015256863553076982,0.14788100123405454,0.9888413548469543,-0.04754381862906047,0.1115806591517124,-0.035027669427229284,0.06573447585105896,0.002609279938042164,-0.021652262657880783,0.2880908716656268,0.05370716912671924,-9.873874983787537
46.6,1.7000000476837158,302.0,22.15629005432129,21.45388603210449,-79.94652343633557,40.443414682756575,249.5378746833801,0.017466789111495018,-0.001631961204111576,0.1557161659002304,0.9876461029052734,-0.046518765018676106,0.10691449386901876,-0.0498879164773712,-0.12019256502389908,-0.08149083703756332,-0.08949994295835495,0.2244696022197604,0.2434538851864636,-9.685094118118288
