time,wind_speed,wind_angle,battery_voltage,battery_current,position_x,position_y,position_z,orientation_x,orientation_y,orientation_z,orientation_w,velocity_x,velocity_y,velocity_z,angular_x,angular_y,angular_z,linear_acceleration_x,linear_acceleration_y,linear_acceleration_z
0.0,1.100000023841858,163.0,24.01558494567871,-0.07156596332788467,-79.78276636196773,40.45906049503552,264.1096526713372,-0.0055740829557180405,0.015685299411416054,-0.8398776054382324,0.5425205826759338,-0.018183688600517046,-0.006537120661121661,0.021765907347722664,-0.0063757109455764285,-0.00237523321993649,-0.007972968742251396,-0.33711562704294923,-0.11004292664118112,-9.800256784558297
0.1,1.100000023841858,162.0,24.014331817626953,-0.05566241592168808,-79.78276636095977,40.459060435805796,264.1119798750877,-0.005566779524087906,0.015717430040240288,-0.8398723602294922,0.5425277948379517,-0.01951623220001668,-0.00033640600937042883,0.018484729019553583,-0.003341912291944027,-0.00037233851617202163,0.0005159610300324856,-0.3299906120449305,-0.12493673508055507,-9.803149402141573
0.3,1.100000023841858,164.0,24.008071899414066,-0.11132483184337616,-79.78276635119522,40.459060453569606,264.1138422222137,-0.0055813323706388465,0.015694988891482353,-0.8398845195770264,0.5425094962120056,-0.024176690947669888,-0.00181455090382714,0.018506866510441776,-0.0029217395931482315,0.0017925520660355687,-0.008229539729654789,-0.33345632985234264,-0.11076956195756793,-9.801739053726195
0.4,1.100000023841858,165.0,24.014331817626953,-0.06361418962478638,-79.782766341242,40.459060360345795,264.11895361852646,-0.005551551003009081,0.015752702951431274,-0.8398875594139099,0.5425033569335938,-0.020707251614469367,0.004695607548440824,0.02216692028369385,-0.010296578519046308,-0.002678468357771635,-0.002675930503755808,-0.3280011700093746,-0.12661503215320408,-9.805305270552637
0.6,1.100000023841858,167.0,24.01683616638184,-0.07156596332788467,-79.7827663254905,40.45906037696898,264.12115356636053,-0.005553783383220434,0.015732346102595333,-0.8398822546005249,0.5425122380256653,-0.024773333782967703,0.0031367976107843838,0.021833410668006755,0.0008481568656861782,0.0006367543828673661,-0.0029031354933977127,-0.33350299794226884,-0.11100292067974807,-9.799770296216012
0.7,1.100000023841858,167.0,24.018089294433594,-0.06361418962478638,-79.78276635021422,40.45906030010104,264.1267754764557,-0.005535191390663385,0.01575441099703312,-0.8398702144622803,0.5425305366516113,-0.02121012410676909,0.0018634770896372734,0.024165128580811344,-0.008714846335351467,-0.0032846394460648303,-0.00512182479724288,-0.32812396153807644,-0.12884129555895926,-9.803497311472894
0.9,1.100000023841858,168.0,24.0218448638916,-0.04771064221858978,-79.78276633734792,40.45906031804306,264.12919071626663,-0.005547014530748129,0.015736104920506474,-0.8398697376251221,0.5425316095352173,-0.024891430312644416,0.000132359238212202,0.02390533048285794,0.0012063682079315186,0.0015997857553884387,0.0033168785739690065,-0.3321490751579404,-0.11608137365430594,-9.801289402842523
1.0,1.100000023841858,168.0,24.01558494567871,-0.04771064221858978,-79.78276631467742,40.459060245796145,264.13279256534577,-0.00553831597790122,0.015735339373350143,-0.839865505695343,0.5425383448600769,-0.025944218405813874,0.004727140942322865,0.02272401925271604,-0.0062757572159171104,-0.002531634410843253,-0.005585807375609875,-0.3292553246766329,-0.12821637438610198,-9.802585145831108
1.21,1.2000000476837158,167.0,24.02059364318848,-0.05566241592168808,-79.78276633336506,40.45906015203074,264.1341383786201,-0.005501728039234878,0.015761330723762512,-0.8398706912994385,0.5425297617912292,-0.01836469677580471,0.005548078381204207,0.0217359512806724,0.006724635139107704,0.0012338097440078855,0.002879668259993195,-0.3315317188203335,-0.12187452997080984,-9.803684422373772
1.31,1.2000000476837158,169.0,24.01558494567871,-0.06361418962478638,-79.78276630028215,40.459060185733364,264.1385063261986,-0.005507543217390776,0.015770990401506424,-0.8398758172988892,0.5425214171409607,-0.02764743037102008,0.0030003946620569127,0.021751188080176776,-0.005985019728541374,0.0004283062589820474,-0.008314039558172226,-0.33047739274799826,-0.12733984935097398,-9.802981587052344
1.5,1.2000000476837158,168.0,24.01558494567871,-0.039758868515491486,-79.7827663502085,40.45906009457825,264.1405042142868,-0.005469517782330513,0.015812618657946587,-0.8398765921592712,0.5425195693969727,-0.02037713422017017,-4.01411415206724e-05,0.020932423534067667,0.006354543380439282,0.0060538724064826965,0.002991138724610209,-0.32766937706619503,-0.12796368330717087,-9.805415198206903
1.61,1.2000000476837158,169.0,24.013080596923828,-0.05566241592168808,-79.78276633732939,40.459060011857375,264.14472720336914,-0.005432569421827793,0.01585686020553112,-0.8398673534393309,0.5425328612327576,-0.01825037597309814,0.004347759764375996,0.02098646041829106,0.003370801219716668,0.0003739603562280536,0.004615378566086292,-0.3354919648915529,-0.1224235104303807,-9.803462812900543
1.8,1.2000000476837158,169.0,24.01934051513672,-0.06361418962478638,-79.7827663227394,40.459060026693656,264.1468322606087,-0.005446313880383968,0.015855800360441208,-0.8398587107658386,0.5425461530685425,-0.02202770511437245,0.0030636689847737915,0.020939356698741283,0.0011033543851226568,0.0045694252476096145,0.002807077253237367,-0.3294266115501523,-0.12841578271239998,-9.803761605620387
1.9,1.2000000476837158,168.0,24.018089294433594,-0.04771064221858978,-79.78276631540577,40.45905992718804,264.15353766393656,-0.005404326133430004,0.015888642519712448,-0.8398645520210266,0.5425364971160889,-0.016741311606745392,0.005079051975301285,0.0239303583103714,0.0028355640824884176,0.00247368379496038,0.003359007183462381,-0.3350799189135432,-0.11338125737383965,-9.802772841453553
2.1,1.100000023841858,167.0,24.01683616638184,-0.039758868515491486,-79.78276630033321,40.45905994077419,264.15593228054047,-0.005432103760540485,0.015890004113316536,-0.8398579359054565,0.5425465106964111,-0.02127412087941812,0.004214069252574458,0.023961730046966043,-5.571921792579815e-05,-0.002836679108440876,0.004417142365127803,-0.3295992871373892,-0.12739628411829473,-9.803101454973225
2.2,1.100000023841858,168.0,24.01683616638184,-0.07156596332788467,-79.78276635564146,40.459059910297,264.16057280015946,-0.005397757049649954,0.015880830585956573,-0.8398618698120117,0.5425411462783813,-0.02495669671769785,-0.006856049271050057,0.02212837741130669,0.006019496358931065,0.0021955582778900857,0.0057738041505217535,-0.3354073629900813,-0.10910760967992247,-9.80059358417988
2.4,1.100000023841858,164.0,24.01683616638184,-0.04771064221858978,-79.78276634947224,40.45905993512415,264.1628296704293,-0.005410530604422093,0.015857692807912827,-0.8398569822311401,0.542549192905426,-0.030004022816484763,-0.007703993652063694,0.02217836660971759,-0.006432369817048311,-0.004395541734993458,-0.003056574380025268,-0.33508741065859804,-0.11949633032083512,-9.802071175575257
2.51,1.2000000476837158,162.0,24.010576248168945,-0.15903547406196594,-79.78276633714026,40.45905980831419,264.16814592790604,-0.005384725518524647,0.015902729704976082,-0.8398460149765015,0.5425649881362915,-0.02136921021649071,-0.0017145689023721554,0.02159263731348036,0.0017124469159170985,0.005398410372436047,0.0039315298199653625,-0.33037758808583023,-0.11728992003947496,-9.802039015889168
2.7,1.100000023841858,162.0,24.006820678710927,-0.14313192665576935,-79.78276633602505,40.45905973867115,264.17148015213013,-0.005364800337702036,0.01591472141444683,-0.8398460149765015,0.5425648093223572,-0.022355058234763543,-0.0005344400477889142,0.02119717784282461,-0.006408847868442535,-0.0029126489534974107,-0.00927400216460228,-0.33626299336552623,-0.111737495418638,-9.800033420920373
2.81,1.2000000476837158,161.0,24.003063201904297,-0.13518016040325165,-79.78276632515968,40.45905975830776,264.17361036252976,-0.005377195775508882,0.015902040526270866,-0.8398481607437134,0.5425618886947632,-0.02533681424240936,-0.0021603016362424557,0.020925262638990968,0.008640778250992298,0.003261434845626355,0.008719610050320625,-0.3299961303547025,-0.12571377522312105,-9.8044697034359
3.0,1.2000000476837158,156.0,24.014331817626953,-0.05566241592168808,-79.78276630463904,40.45905967688211,264.18108198356634,-0.00536265829578042,0.015928301960229874,-0.8398329019546509,0.5425847768783569,-0.023173279188455628,0.00028801285214625534,0.02395176836555938,-0.002652905182912945,-0.0011270736576989293,-0.0011362629011273384,-0.3341296367347241,-0.11177683621644974,-9.801688767671584
3.1,1.2000000476837158,153.0,24.0218448638916,-0.04771064221858978,-79.78276633744201,40.45905959806355,264.1867878170013,-0.005337461829185486,0.015936413779854774,-0.8398184776306152,0.5426071286201477,-0.017070464373900397,-0.005703067231703447,0.022356963105000426,-0.004902862012386322,-0.005057786591351032,-0.0019613304175436497,-0.3286019348725677,-0.12781205769628287,-9.805329828858376
3.3,1.2999999523162842,149.0,24.014331817626953,-0.07156596332788467,-79.78276633484123,40.45905961509361,264.1890474886894,-0.0053378860466182215,0.015942862257361412,-0.8398234844207764,0.5425991415977478,-0.020340911967354,-0.007246814960157581,0.02215336139228494,0.0014867050340399144,0.0037587648257613173,-0.0014333869330585005,-0.33271271020174026,-0.11212829042226076,-9.801435583233834
3.4,1.2999999523162842,145.0,24.018089294433594,-0.05566241592168808,-79.7827663344108,40.45905953462877,264.194329890728,-0.005336219444870949,0.01597883366048336,-0.8398165106773376,0.5426089167594911,-0.018716354479027742,-0.0061763336351009146,0.02137390396263574,-0.00325142708607018,-0.0014991080388426779,-0.0015734904445707796,-0.3287531950324774,-0.128908666446805,-9.804372054934502
3.6,1.399999976158142,145.0,24.02059364318848,-0.06361418962478638,-79.78276633156591,40.45905955340279,264.19648644638056,-0.00534072145819664,0.015976617112755775,-0.8398185968399048,0.5426056981086731,-0.02216703435309569,-0.007807459722029908,0.021089028218978262,-0.0010755230905488133,0.0025125967804342517,-0.005389757920056582,-0.33400154616683725,-0.1111367853730917,-9.800488919019699
3.71,1.399999976158142,143.0,24.0218448638916,-0.05566241592168808,-79.78276635657721,40.45905947016824,264.2013126344681,-0.0053383265621960154,0.016018344089388847,-0.8398098349571228,0.5426181554794312,-0.01873227967726573,-0.010285774879617142,0.020650820005261642,-0.005812056362628937,-0.002825804287567735,-0.002165197394788265,-0.3264839637279511,-0.12728917957283556,-9.804944497346881
3.91,1.5,144.0,24.02059364318848,-0.04771064221858978,-79.78276635793269,40.459059490348594,264.2034170360565,-0.0053336420096457005,0.016020946204662326,-0.8398137092590332,0.5426121354103088,-0.02200120962345715,-0.01152039014620093,0.02051567099778138,0.0046277488581836215,-0.0003832170623354614,-0.000819913053419441,-0.3312806174531579,-0.11139324973337353,-9.801829100847245
4.01,1.600000023841858,146.0,24.0218448638916,-0.04771064221858978,-79.78276633528411,40.45905942478928,264.2067904205323,-0.0053210221230983725,0.01604439504444599,-0.8398051857948303,0.5426247715950012,-0.02421885300947481,-0.008396122339248309,0.018594193495111204,-0.005251186434179544,-0.0035885297693312172,-0.00197422644123435,-0.32805529329925776,-0.1288979039154947,-9.80418786764145
4.2,1.600000023841858,146.0,24.01683616638184,-0.06361418962478638,-79.78276632235169,40.459059327582644,264.2087463767529,-0.00528778787702322,0.016092022880911827,-0.8398070335388184,0.542620837688446,-0.017617495586149442,-0.006444657236724497,0.0188813933936544,-0.0009802686981856825,0.0011437162756919859,-0.0024039323907345533,-0.33323271039873364,-0.11272223048843445,-9.80101926147938
4.31,1.5,145.0,24.01683616638184,-0.07156596332788467,-79.78276631965208,40.45905934569214,264.2106770904064,-0.0053115468472242355,0.016081515699625015,-0.8397969603538513,0.5426364541053772,-0.02078531553540157,-0.0074599077201881235,0.0188492771563425,0.006593735422939062,0.0028903903439641,0.003488893155008555,-0.3273596573621035,-0.12848446922376752,-9.804710608720779
4.5,1.399999976158142,146.0,24.013080596923828,-0.03180709481239319,-79.78276630255424,40.45905926979628,264.2122092576027,-0.0052951928228139895,0.016096077859401703,-0.8398040533065796,0.5426253080368042,-0.02008395316785243,-0.006597993909348811,0.015962486555173915,0.0017907710280269387,0.0021877102553844448,0.002896803664043545,-0.3316897763684392,-0.11384349804371595,-9.802519072294237
4.6,1.399999976158142,145.0,24.01934051513672,-0.039758868515491486,-79.78276631268658,40.459059168153246,264.2128520638944,-0.0052468772046268,0.016112787649035454,-0.8397965431213379,0.5426368117332458,-0.011308570459176092,-0.007046890545628363,0.013348691317457759,-0.005517798475921154,-0.005880207754671575,-0.0027432965580374,-0.32746720958501097,-0.12665156811475756,-9.803738216757775
4.8,1.2999999523162842,148.0,24.011829376220703,0.02385532110929489,-79.78276631455539,40.45905918100241,264.21420768213267,-0.005231595598161221,0.016114970669150352,-0.8398006558418274,0.5426304936408997,-0.014275181437658938,-0.00835819148395986,0.01318124243378832,0.00024077921989373863,0.00043462548637762666,-0.0014209472574293613,-0.33285878095775845,-0.1105135270021856,-9.80150750398636
4.9,1.2999999523162842,151.0,24.01683616638184,-0.06361418962478638,-79.7827663142077,40.45905911272115,264.2145085067749,-0.005231959279626608,0.016119705513119698,-0.8398002982139587,0.5426309108734131,-0.015062126165886845,-0.010127089872923723,0.01210063160982916,-0.008329126983880997,-0.00045435086940415193,-0.0013121182564646006,-0.3285408680140972,-0.12902581175789238,-9.804530514478683
5.1,1.2999999523162842,155.0,24.014331817626953,0.015903547406196594,-79.78276631759941,40.4590591299466,264.215751680851,-0.0052235322073102,0.016108877956867218,-0.8398054242134094,0.5426233410835266,-0.01817961778825145,-0.011548974748031605,0.0118894294503659,0.002916918834671378,-0.0002952612703666092,-0.0036721057258546352,-0.3336574375256896,-0.11275580629706385,-9.801068378090859
5.21,1.2999999523162842,155.0,24.008071899414066,0.02385532110929489,-79.78276629548782,40.45905905137226,264.21535623383517,-0.005198294296860695,0.016141245141625404,-0.8397939205169678,0.5426405072212219,-0.017147156069858446,-0.00862382561871287,0.011252592992175249,-0.007189010735601188,-0.005010935477912426,-0.00436188792809844,-0.3262343241646886,-0.12640000079758465,-9.805119329094886
5.4,1.2000000476837158,157.0,24.014331817626953,0.02385532110929489,-79.78276629624527,40.4590590696707,264.2165138156414,-0.00518677057698369,0.01612803153693676,-0.8397877216339111,0.5426506400108337,-0.02008819913516947,-0.009863169941490169,0.011040247433458768,-0.00227914098650217,-0.002414356218650937,-0.001269447966478765,-0.3321248457580805,-0.11117756970226764,-9.800989440679553
5.5,1.2000000476837158,159.0,24.00431632995605,-0.007951773703098297,-79.78276624454426,40.45905898425042,264.21511733841896,-0.005174532067030668,0.016141219064593315,-0.8397766947746277,0.5426673293113708,-0.019404812740711118,-0.004377745235563022,0.010571098382434328,-0.004848865792155266,-0.0016539706848561766,0.0004604776040650903,-0.3344391737133265,-0.12199175750836733,-9.803096777200698
5.7,1.100000023841858,159.0,24.014331817626953,0.02385532110929489,-79.782766218017,40.459058870953065,264.2137992413044,-0.005140023771673441,0.016174331307411194,-0.8397806882858276,0.5426605939865112,-0.01119930793029465,-0.0020713351603349056,0.013394951839178592,-0.002754443325102329,-0.0009040309814736248,-0.003380750305950641,-0.3356893449649215,-0.11137217234820128,-9.801466573476793
5.8,1.2000000476837158,158.0,24.00431632995605,0.03180709481239319,-79.78276621430099,40.4590588820003,264.21515724372864,-0.005147769581526518,0.016172371804714203,-0.8397741913795471,0.5426706075668335,-0.013766410710065577,-0.0033203185517729893,0.013284284945085548,0.003386911703273654,0.004561273381114006,0.008735003881156445,-0.3280708980560303,-0.12811466937884688,-9.805328659415244
6.0,1.2000000476837158,158.0,24.006820678710927,-0.03180709481239319,-79.78276618290647,40.45905879192517,264.21459693026543,-0.005120414774864912,0.01622476615011692,-0.839776337146759,0.5426658987998962,-0.011117697688591244,-0.0017916333634409745,0.014680179793997763,-0.0021348176524043088,0.00018416657985653728,-0.0038433752488344908,-0.3368089040368796,-0.11182935152202846,-9.800197727680208
6.1,1.2000000476837158,155.0,24.01558494567871,0.03180709481239319,-79.78276615715441,40.45905870383929,264.21385920357704,-0.005112271290272474,0.016263939440250397,-0.8397668600082397,0.5426794290542603,-0.008384624133895138,-0.0008061587670315975,0.01626515585899505,-0.003861855249851942,-0.0021228690166026354,0.0006645365501753986,-0.330371265783906,-0.1250849345885217,-9.804546301960944
6.3,1.2999999523162842,153.0,24.011829376220703,-0.04771064221858978,-79.7827661535039,40.45905871195523,264.215491178751,-0.005097488407045603,0.01627107709646225,-0.8397698402404785,0.5426748394966125,-0.011453350896248571,-0.0018943367417141688,0.01622453941032384,-0.003264824626967311,-0.002385343657806516,-0.007892741821706295,-0.336796917244792,-0.10757259679958224,-9.799928171038626
6.4,1.2999999523162842,151.0,24.00932502746582,0.02385532110929489,-79.78276610182427,40.45905863520913,264.2139844925404,-0.005094588734209538,0.01628262549638748,-0.839767575263977,0.5426779985427856,-0.011659722473103831,0.0014194353944424535,0.0167321209906418,-0.001595253706909716,-0.002748627914115786,0.0006323735578916968,-0.32941330913454303,-0.12751804324798285,-9.804292532801627
6.6,1.2999999523162842,148.0,24.003063201904297,-0.03180709481239319,-79.78276609430573,40.45905864513989,264.21565348219866,-0.005093341693282127,0.016293199732899666,-0.8397743701934814,0.5426672101020813,-0.014691315850490109,0.0002812297504436144,0.01655076271521332,0.0010920179774984717,-0.001886184443719685,-0.0038829168770462283,-0.3338426846265793,-0.11168014702387156,-9.800721053481103
6.71,1.2999999523162842,146.0,24.00556755065918,-0.015903547406196594,-79.78276603814392,40.45905856699175,264.2140020163059,-0.00510304793715477,0.01632813550531864,-0.8397698402404785,0.5426731109619141,-0.013380097616243343,0.003804928490675012,0.017191153363880832,-0.004381262697279453,-0.0009075264097191392,0.0007291171350516379,-0.3278861625865102,-0.12641575173474848,-9.80458255469799
6.9,1.2000000476837158,144.0,24.011829376220703,0.015903547406196594,-79.78276602703023,40.45905857740721,264.2157174975872,-0.005091945640742779,0.016322623938322067,-0.8397740721702576,0.5426667928695679,-0.016299829929755923,0.00291975842818886,0.017204169493354026,1.813010203477461e-05,-0.0015684707323089242,-0.006708484143018722,-0.3330900017917157,-0.10933269093744458,-9.801911546587943
7.0,1.2000000476837158,141.0,24.00556755065918,0.007951773703098297,-79.78276599390641,40.45905851357685,264.2130203576088,-0.0050846212543547145,0.016353573650121692,-0.8397647738456726,0.5426802039146423,-0.014877875254908256,0.0019732289679813726,0.014867651829442663,-0.005306641105562449,-0.0017316635930910707,-0.001030685962177813,-0.32983156777918343,-0.12760592507198454,-9.805307024717331
7.2,1.2999999523162842,137.0,24.013080596923828,0.03180709481239319,-79.78276592643914,40.459058435533365,264.2108824284077,-0.0050743049941957,0.01640212908387184,-0.8397685885429382,0.5426730513572693,-0.010614038546519584,0.007894682291664214,0.015797520911332182,-0.0045840893872082225,-0.0020453014876693487,-0.004346146248281002,-0.3355181677266956,-0.10984449589625002,-9.80012463748455
7.3,1.2999999523162842,135.0,24.011829376220703,0.015903547406196594,-79.7827659121581,40.45905844211469,264.2124472887516,-0.005081257317215204,0.0163870882242918,-0.8397639989852905,0.5426806211471558,-0.012667035389911542,0.0068581452214697075,0.015625393947026632,0.004394383635371923,0.003345552133396268,0.0063194301910698405,-0.3293883488327265,-0.12745056272484362,-9.804416493773461
7.51,1.399999976158142,132.0,23.998056411743164,-0.02385532110929489,-79.78276591289938,40.459058413180706,264.21216994833947,-0.005059760995209217,0.0163873378187418,-0.839767336845398,0.5426754355430603,-0.014678146710974876,-0.002952405285314537,0.016999075131987704,-0.0028544391971081487,-0.0018439828418195245,-0.004903259221464396,-0.33474213257431984,-0.11044063780456782,-9.8020401853323
7.6,1.399999976158142,132.0,24.011829376220703,0.02385532110929489,-79.78276590208671,40.45905839106639,264.21181154561043,-0.005076367408037186,0.016402136534452442,-0.8397650718688965,0.5426784753799438,-0.01555657269922389,-0.0078430786679408,0.017377380647516358,-0.0042388010770082465,-0.001027177320793271,0.0015405940357595682,-0.3306115863472223,-0.1260058070998639,-9.80391480267048
7.8,1.399999976158142,129.0,24.013080596923828,-0.015903547406196594,-79.78276590246294,40.459058407479695,264.21357736301417,-0.005070848390460014,0.016402756795287132,-0.8397582173347473,0.5426891446113586,-0.018337795412285102,-0.008667543870396806,0.017242054057260044,-0.0034308135509490967,-0.004107301123440266,-0.009415661916136742,-0.33594782844185833,-0.10832236516289412,-9.799576753377915
7.91,1.600000023841858,132.0,24.01558494567871,-0.039758868515491486,-79.78276584054206,40.45905835919897,264.2111780972481,-0.005081889219582081,0.016420280560851097,-0.8397377729415894,0.5427201390266418,-0.016292537805073476,-0.0019909490068650507,0.015700333305171916,-0.0021436274982988834,0.001995423575863242,-0.0007444334914907812,-0.32969247713685035,-0.12755060493014753,-9.805525125861168
8.1,1.7000000476837158,132.0,24.018089294433594,-0.03180709481239319,-79.78276583425186,40.459058374062636,264.21277007770544,-0.005073143169283867,0.016406923532485962,-0.83974689245224,0.5427064299583435,-0.019215473145309112,-0.002701424633722642,0.015750617196296918,-0.00488584628328681,-0.004995347466319799,-0.006137132178992033,-0.33501527063548564,-0.11023329919204117,-9.801142637729646
8.2,1.7000000476837158,133.0,24.01934051513672,-0.05566241592168808,-79.78276577186102,40.459058335537684,264.20936644387245,-0.005051041953265667,0.016425067558884617,-0.8397593498229979,0.5426868796348572,-0.017284729587554063,0.0010179019162766636,0.013606996017532744,-0.001915608532726765,-0.0015403992729261518,0.003218051278963685,-0.3314644027501345,-0.12167690321803093,-9.804432865977287
8.41,1.7999999523162842,134.0,24.011829376220703,-0.06361418962478638,-79.7827657619264,40.459058350461454,264.21073353600497,-0.005042854230850935,0.016410514712333683,-0.8397599458694458,0.5426864624023438,-0.02043374148509641,0.00016315496252103552,0.013573183798640276,-0.004595127888023853,-0.00022276473464444282,-0.0079425647854805,-0.33738993454724553,-0.10987540391273797,-9.799746322631837
8.5,1.7999999523162842,137.0,24.013080596923828,-0.06361418962478638,-79.78276566975596,40.459058284265005,264.2081917853356,-0.005040186922997236,0.01643337681889534,-0.8397585153579712,0.5426879525184631,-0.016592511761144024,0.007109326109234502,0.014923474695859919,0.0006070606177672744,-0.00018848823674488807,0.00035675993422046304,-0.3315778021886945,-0.12489604211412372,-9.80410776078701
8.7,1.7999999523162842,127.0,24.013080596923828,-0.06361418962478638,-79.78276564787778,40.45905823746254,264.20316562366486,-0.0050228764303028575,0.01644301787018776,-0.8397547602653503,0.5426937341690063,-0.01286689687775124,0.004018193899907535,0.015957181577908392,-0.004937622230499983,-0.0019518946064636113,-0.010043878108263016,-0.3353953396528959,-0.11106224250979722,-9.800870742201806
8.8,1.7999999523162842,130.0,24.01683616638184,-0.07156596332788467,-79.78276562539912,40.45905825924675,264.20634779644007,-0.005022253841161728,0.016431627795100212,-0.839748740196228,0.5427033305168152,-0.017652537465886003,0.0025318199242418344,0.0159292555051435,0.0006280798697844148,0.000978803844191134,0.003288731677457691,-0.3307006832957268,-0.1242620394844562,-9.80351251423359
9.0,2.0,144.0,24.01558494567871,-0.04771064221858978,-79.78276557231759,40.459058207588676,264.200549605608,-0.004998297430574894,0.016453512012958527,-0.839748740196228,0.5427029132843018,-0.015504772999284122,0.0047305767224107426,0.016353550814046932,-0.00547954672947526,-0.0013322557788342235,-0.006716056726872921,-0.3360849456489086,-0.11231310811825096,-9.800497689843178
9.1,1.8999999761581416,145.0,24.018089294433594,-0.04771064221858978,-79.78276550673236,40.45905815026502,264.1956604452133,-0.004974605981260538,0.016484616324305534,-0.839738667011261,0.5427178144454956,-0.011208749594615151,0.007339855303689065,0.01654817836907324,0.0017246045172214508,0.004543612711131573,0.002252583857625723,-0.3307139857113361,-0.12062857054173945,-9.804822875261307
9.31,2.0,159.0,24.02059364318848,-0.04771064221858978,-79.78276549265678,40.45905815749529,264.19730115246773,-0.004969264846295118,0.016474613919854164,-0.8397343754768372,0.5427247881889343,-0.014041259677499751,0.006822673640301561,0.016541730979989795,-0.005232777446508408,-0.004174155183136463,-0.0053947968408465385,-0.33624366100877523,-0.11096597358584404,-9.801054344773293
9.4,2.0999999046325684,157.0,24.01558494567871,-0.04771064221858978,-79.78276542261567,40.4590581040632,264.1892478795052,-0.004967642016708851,0.016493603587150574,-0.8397229313850403,0.5427419543266296,-0.012289516134721774,0.007955633985401339,0.01334730537381454,0.003749985946342349,0.003329078666865825,0.006104247178882361,-0.3303396542742849,-0.11986864264123145,-9.803702548742297
9.6,1.7999999523162842,152.0,24.0218448638916,-0.04771064221858978,-79.78276540733452,40.45905811237077,264.19056120824814,-0.004971159622073174,0.016512684524059296,-0.8397257924079895,0.5427368879318237,-0.015760747585593496,0.007384578098770634,0.013288994353161806,-0.005468034651130438,-0.0029870711732655764,-0.0050732227973639965,-0.33630502022802833,-0.11898308183066547,-9.80106954753399
9.7,1.7999999523162842,154.0,24.02059364318848,-0.06361418962478638,-79.78276533494397,40.459058049200614,264.18330225658417,-0.004940159153193235,0.016541564837098118,-0.8397137522697449,0.5427548885345459,-0.012057868906191746,0.008498661248080195,0.013934847350728887,0.0089020561426878,0.0014917065855115652,0.0045435382053256035,-0.3302034506946802,-0.11259046713821592,-9.801733206510542
9.9,1.7000000476837158,158.0,24.018089294433594,-0.039758868515491486,-79.78276531889172,40.45905805719525,264.18468919706345,-0.004949584137648344,0.01653427444398403,-0.8397040367126465,0.5427701473236084,-0.015348283761567641,0.008134501462544269,0.014068596897343084,-0.0039932653307914725,-0.002252297243103385,-0.0002910786133725196,-0.3342113515734673,-0.12354346236214042,-9.802455337643623
10.0,1.7000000476837158,152.0,24.01683616638184,-0.07156596332788467,-79.78276527766405,40.45905799797948,264.1774369807244,-0.004927113652229309,0.01653600111603737,-0.8397111892700195,0.5427590608596802,-0.011599546782526686,0.005242489219010825,0.014742001572047888,0.0058155320584774035,0.003353412263095379,0.0044170827604830265,-0.33331767775118354,-0.11176141418516636,-9.80084326028824
10.2,1.7000000476837158,157.0,24.0218448638916,-0.04771064221858978,-79.78276521900342,40.45905794709221,264.1664411754608,-0.004925766494125128,0.016544518992304802,-0.8397025465965271,0.5427722930908203,-0.009618602551394356,0.007937248677283987,0.012429212786385606,-0.005100658629089594,-0.001967722084373236,-0.003905502613633871,-0.3340733207389712,-0.12088775751180947,-9.8027114456892
10.3,1.600000023841858,158.0,24.010576248168945,-0.07951773703098297,-79.78276520567208,40.45905795269177,264.16765752744675,-0.0049395556561648854,0.01652187667787075,-0.8397002220153809,0.5427764654159546,-0.011894605531821943,0.006878969251012791,0.012322612803093387,-0.0013734092935919762,-0.0001835689035942778,-0.0011196486884728074,-0.3347325943037868,-0.1128764142561704,-9.800957865715027
10.5,1.399999976158142,157.0,24.013080596923828,-0.05566241592168808,-79.78276513151377,40.459057894004715,264.15717664670944,-0.004929680377244949,0.016537914052605632,-0.8396879434585571,0.5427950024604797,-0.009107175879252678,0.009613025352365648,0.010335964959503816,-0.005485153757035732,-0.004753386601805687,-0.0042975889518857,-0.3348077310249209,-0.12036179132759572,-9.802114444971084
10.61,1.399999976158142,159.0,24.01934051513672,-0.05566241592168808,-79.78276504860492,40.45905784668266,264.1460195512772,-0.004924546461552382,0.016562089323997498,-0.8396684527397156,0.5428244471549988,-0.0077191551723650624,0.010379477770205307,0.008448776894765605,0.002434681635349989,0.0020261947065591808,0.0017667997162789106,-0.33081349801272153,-0.11113824717700482,-9.801842549443244
10.8,1.2999999523162842,165.0,24.01683616638184,-0.07951773703098297,-79.78276503290543,40.45905785036436,264.1468360157013,-0.004927095025777817,0.01654575578868389,-0.839665949344635,0.5428287982940674,-0.010988593135248343,0.01002804163425102,0.00844475922222048,-0.003262060461565852,-0.005945355631411076,-0.004186231177300215,-0.3345473472028971,-0.11592336178757252,-9.801680581569672
10.91,1.2000000476837158,161.0,24.018089294433594,-0.05566241592168808,-79.78276495477185,40.45905782385068,264.1362921924591,-0.004929543938487768,0.016539035364985466,-0.8396493196487427,0.5428547263145447,-0.012272134934652224,0.008774568696582337,0.007815433020861937,0.0017194378888234494,0.001393417129293084,0.0043938960880041105,-0.3324017479643226,-0.11811622297391294,-9.802205076813696
11.1,1.2000000476837158,162.0,24.018089294433594,-0.03180709481239319,-79.78276493887665,40.45905783179861,264.1370587081909,-0.004938430152833462,0.016530787572264668,-0.8396425843238831,0.5428653955459595,-0.01544020433794846,0.00818802771810616,0.007828894087406543,-0.007961966097354889,-0.0029582565184682608,-0.008329209871590137,-0.33655919138342144,-0.11386238272301852,-9.800570780038834
11.2,1.100000023841858,162.0,24.018089294433594,-0.05566241592168808,-79.78276494321214,40.45905777904177,264.1288377375604,-0.00491871265694499,0.016524974256753918,-0.8396260738372803,0.5428910851478577,-0.006388384342372085,-0.0022366323492842197,0.011461972163836456,0.0024255127646029,0.0024534743279218674,0.002488045487552881,-0.33050326667726043,-0.12036764767952265,-9.803364579677584
11.4,1.100000023841858,156.0,24.014331817626953,-0.05566241592168808,-79.78276494204748,40.45905778617167,264.1299936504364,-0.004911032039672136,0.016528388485312462,-0.8396207094192505,0.5428995490074158,-0.009422865700326577,-0.0028915842656633585,0.011447061039647677,-0.005886480677872896,-0.003268560627475381,-0.008829185739159584,-0.3360003072023392,-0.11349409949965775,-9.801728528738023
11.51,1.100000023841858,156.0,24.018089294433594,-0.06361418962478638,-79.78276481885406,40.459057721877535,264.11917987775803,-0.004925812594592571,0.016570845618844032,-0.8396118283271791,0.5429117679595947,-0.007558097828319801,0.0073983679628323,0.01013413194137486,-0.0010277603287249806,0.0019167911959812047,0.0019034632714465265,-0.3311545368656516,-0.12097996992990374,-9.80358385026455
11.7,1.0,155.0,24.014331817626953,-0.06361418962478638,-79.78276481417024,40.459057707340214,264.10643664312363,-0.004896182101219893,0.016547057777643204,-0.8396092653274536,0.5429167151451111,-0.007846746825943579,-0.0031193845262571396,0.008311650702300244,-0.0081483768299222,-0.0022278556134551764,-0.009617922827601431,-0.3360402509942651,-0.1110653031617403,-9.801304020881654
11.8,1.0,153.0,24.01558494567871,-0.05566241592168808,-79.78276481278913,40.45905772605197,264.1080974669456,-0.004907913971692325,0.016515051946043968,-0.8396012187004089,0.5429301261901855,-0.012043106544300313,-0.004533731674256857,0.008091595518411992,0.0008152656373567879,0.004058034159243107,0.001969704870134592,-0.33185466784983875,-0.12141296538524332,-9.8039615803957
12.01,1.0,153.0,24.02059364318848,-0.04771064221858978,-79.78276472803155,40.45905764890974,264.09721467208857,-0.004899495746940374,0.0165565088391304,-0.8396022319793701,0.5429273247718811,-0.004592039695432067,0.0042377414518545604,0.009664898389392676,-0.004706360865384339,-0.003033055225387216,-0.008101098239421844,-0.3371682154387236,-0.1131557558476925,-9.800696495175362
12.1,1.100000023841858,154.0,24.018089294433594,-0.05566241592168808,-79.78276467070823,40.459057664625256,264.08782568883896,-0.004889834206551313,0.016557643190026283,-0.839599609375,0.5429313778877258,-0.013697161419114694,-0.0011563537379225641,0.011745716671189906,-0.000721807882655412,0.0010323819005861876,0.0032259011641144753,-0.3303241956979037,-0.12762032384052874,-9.801521537303923
12.3,1.100000023841858,151.0,24.018089294433594,-0.06361418962478638,-79.78276466482173,40.45905767708688,264.08900961589814,-0.004877323750406504,0.01655619777739048,-0.8395950198173523,0.542938768863678,-0.016397377828113572,-0.0016080578572432967,0.01163704909541161,-0.004629416391253471,-0.0033080694265663624,-0.007634412031620741,-0.3337020956352353,-0.110328681897372,-9.798947592973713
12.4,1.100000023841858,149.0,24.0218448638916,-0.04771064221858978,-79.78276460617714,40.45905762375569,264.0800747008324,-0.00485271355137229,0.016615139320492744,-0.8395887613296509,0.5429467558860779,-0.009067049147030371,0.0011363473016416208,0.013080236046070231,-0.0018867276376113298,-0.0005658876616507769,0.001974922837689519,-0.33150255583226684,-0.1262607274297625,-9.803572740554811
12.6,1.0,147.0,24.02059364318848,-0.05566241592168808,-79.78276460024732,40.459057631422894,264.0813760490417,-0.00485649099573493,0.016616201028227806,-0.8395891785621643,0.5429461002349854,-0.011375557747051164,0.00031577831981629065,0.012893615065168286,-0.004522044211626053,-0.00397438183426857,-0.0016497011529281735,-0.33677941214293244,-0.1091490335483104,-9.799798947572713
12.7,1.0,149.0,24.01558494567871,-0.07156596332788467,-79.78276451961658,40.45905757869989,264.0724299879074,-0.004858171101659536,0.016638461500406262,-0.8395899534225464,0.5429442524909973,-0.007951207927027658,0.005045372940927705,0.013634657928511134,-0.006042294204235078,-0.0027756912168115373,0.00040824047755450016,-0.3289831367880106,-0.12682255349121987,-9.804641026854515
12.9,1.0,153.0,24.018089294433594,-0.07951773703098297,-79.78276451000819,40.4590575840638,264.0737747282982,-0.004846704192459582,0.016635889187455174,-0.8395863175392151,0.5429499745368958,-0.0103745055966922,0.004362276539340701,0.013495421473251534,-0.0018696340266615152,-0.0020798349287360907,-0.006819673348218204,-0.33452476233243944,-0.11149701953865587,-9.800581889748576
13.0,1.0,154.0,24.011829376220703,-0.10337305814027786,-79.7827644152718,40.459057530601115,264.0680017800331,-0.004837573040276766,0.01667080633342266,-0.8395707607269287,0.5429730415344238,-0.007987789224548217,0.009891826849679831,0.01648808138018304,-0.001739454222843051,-0.00301032024435699,0.0009530720999464393,-0.3297793082892895,-0.12580309144221247,-9.804215934276579
13.2,1.100000023841858,153.0,24.018089294433594,-0.07156596332788467,-79.78276437233875,40.459057482604344,264.0604732365608,-0.004802355077117682,0.016695773229002953,-0.8395611643791199,0.5429874658584595,-0.0014641060929101665,0.008911878827027589,0.019683052810572067,-0.004177688620984554,-0.0006459934520535171,-0.007353184744715691,-0.33520694967359305,-0.1081690036598593,-9.799186744093896
13.31,1.100000023841858,155.0,24.01683616638184,-0.05566241592168808,-79.78276436142598,40.45905748083354,264.0624085993767,-0.004807280376553536,0.016686806455254555,-0.839555025100708,0.5429971814155579,-0.0028554889476665834,0.0081030733398293,0.019484341951964308,0.007271402981132269,0.0023529455065727234,0.00451284134760499,-0.3301650052517653,-0.1268037784472108,-9.804643365740775
13.51,1.100000023841858,158.0,24.02059364318848,-0.07951773703098297,-79.78276432337975,40.45905747092479,264.05477908563614,-0.0047931186854839325,0.01671009138226509,-0.8395441770553589,0.5430133342742921,-0.005950533276633557,0.0038012365803020117,0.018413416737044427,-0.0011001764796674252,0.0004686278989538551,-0.005492373835295439,-0.3362448669970036,-0.11050277360714973,-9.79961651444435
13.61,1.100000023841858,159.0,24.01683616638184,-0.08746951073408127,-79.782764260071,40.45905744629141,264.0472373695374,-0.0048170634545385855,0.016741098836064342,-0.8395200371742249,0.5430494546890259,-0.005814275288887063,0.00650587085499716,0.017784477774963166,-0.001172587275505066,-0.002852685051038861,-0.0011757779866456983,-0.33006666239351035,-0.12471878925338388,-9.80466850876808
13.8,1.100000023841858,161.0,24.003063201904297,-0.11132483184337616,-79.78276424974901,40.45905744904772,264.0489899249077,-0.004800827242434025,0.016729352995753292,-0.8395150303840637,0.5430577397346497,-0.007929127923507268,0.00601764498483222,0.017661697162509017,-0.00582410953938961,0.0013915984891355038,-0.008382030762732029,-0.3357793189957738,-0.10941288915462792,-9.799963254332543
13.9,1.100000023841858,161.0,24.014331817626953,-0.05566241592168808,-79.78276421012832,40.459057434631184,264.042667719841,-0.004779228940606117,0.01674663834273815,-0.8395062685012817,0.5430709719657898,-0.0064720443293656785,0.0045901245695544116,0.01752934524540802,0.0020981936249881983,6.304541602730751e-05,0.0025071343407034874,-0.33197358559817075,-0.12350822375155986,-9.804277914762498
14.1,1.100000023841858,164.0,24.011829376220703,-0.06361418962478638,-79.7827642013908,40.4590574387745,264.04440167856217,-0.004773347172886133,0.016746772453188896,-0.8395007848739624,0.5430794358253479,-0.008854664390966053,0.004211909243387983,0.017447365253191145,-0.0067339385859668255,-0.000628656183835119,-0.008210540749132633,-0.3362913889065385,-0.1121167513076216,-9.800146272182463
14.2,1.100000023841858,165.0,23.99555206298828,0.278312087059021,-79.78276416359179,40.45905739845567,264.0381237597465,-0.004752666689455509,0.016769381240010258,-0.839513897895813,0.5430585741996765,-0.0017411244629052596,0.005713167376125527,0.01729489952590019,0.0009400366107001901,-0.00032902226666919887,0.009517808444797993,-0.3312013511359692,-0.12168212916702033,-9.802594501376152
14.4,1.100000023841858,165.0,24.001811981201172,0.2624085247516632,-79.7827641558232,40.45905739861777,264.03981849861145,-0.00472841365262866,0.01677217148244381,-0.8395244479179382,0.5430424809455872,-0.003792872688763642,0.0040846140011849726,0.018092157218515446,-0.005938069429248571,-0.005233988165855408,0.02388975024223328,-0.3287433644011617,-0.08336123194545507,-9.80607359468937
14.5,1.100000023841858,165.0,24.00056076049805,0.2544567584991455,-79.78276410085488,40.459057405962376,264.0342438549996,-0.004749415908008814,0.016814230009913445,-0.8396026492118835,0.5429201126098633,-0.0061768315446852715,0.004535117356624302,0.017308682197516603,0.008839904330670834,0.0008525470038875937,0.019897600635886192,-0.33197676502168183,-0.09368714983575048,-9.81009472489357
14.7,1.100000023841858,163.0,24.00056076049805,0.2465049922466278,-79.78276408198906,40.45905738906276,264.02667573404307,-0.004725303500890732,0.01680040918290615,-0.8395944833755493,0.5429334044456482,-0.0033608348790486664,0.004406698464529536,0.017545570802579562,-0.006623918656259775,0.003294592490419745,-0.0058979298919439324,-0.3355544570088387,-0.12225985234603284,-9.797339023947718
14.8,1.100000023841858,163.0,23.99930763244629,0.22264966368675232,-79.78276407500205,40.459057390271546,264.02838811588293,-0.004723639227449894,0.016796024516224858,-0.8395846486091614,0.5429485440254211,-0.005421330429218206,0.003081062219334271,0.017456242352811468,0.001997516490519047,0.006003476213663817,-0.0030966855119913816,-0.33534311670809985,-0.12638044003397228,-9.795849153399466
15.0,1.0,161.0,23.994298934936523,0.2703603208065033,-79.78276407267805,40.45905742262474,264.0229370923043,-0.004742548335343599,0.016775516793131832,-0.8395267128944397,0.5430386662483215,-0.010149376543651173,-0.0018615688859433496,0.01640223827805262,-0.009724129922688007,-0.005978867877274753,-0.01871086098253727,-0.3354920014366508,-0.12350320793688298,-9.786216450333596
15.1,1.100000023841858,158.0,23.99555206298828,0.326022744178772,-79.78276407139927,40.459057417050936,264.0166758627892,-0.004749605432152747,0.016779785975813866,-0.8394785523414612,0.5431129932403564,-0.004770938911243649,0.0004963995668938274,0.013610643710837568,-0.0023622659500688314,0.001206575077958405,-0.015457882545888426,-0.32949224654585124,-0.14516743429005147,-9.804710023999217
15.3,1.0,156.0,23.98929214477539,0.37373337149620056,-79.78276406911074,40.4590574211014,264.0180869431496,-0.0047386037185788155,0.016800783574581146,-0.8394550085067749,0.5431488156318665,-0.007292022092943901,-0.0009725630291689742,0.013268139466049815,-0.005605419166386128,0.002394660608842969,-0.023369137197732925,-0.33474523890763525,-0.12027751833200455,-9.793125520348552
15.4,1.0,156.0,23.015195846557607,12.698983192443848,-79.78276407989338,40.45905746131771,264.01170143795014,-0.004636495374143125,0.017053769901394844,-0.8396278619766235,0.5428745150566101,-0.00747070910320491,-0.0037165116884792897,0.012047174890649172,0.011480305343866348,0.0076834182254970065,-0.02656042762100697,-0.3191358774527908,-0.11981407167389987,-9.81061395764351
15.6,1.0,154.0,23.984283447265625,0.2465049922466278,-79.78276408105779,40.45905747299726,264.0128576488495,-0.0047067245468497285,0.01717148721218109,-0.8395070433616638,0.5430570244789124,-0.016529985252512678,-0.0064070797966503295,0.012666961550947056,-0.008582326583564281,-0.016916153952479362,-0.0248060654848814,-0.4598801489174366,-0.14894538427703086,-9.770036035180091
15.71,1.0,154.0,23.994298934936523,0.16698725521564484,-79.78276415103483,40.4590574855775,264.0063184232712,-0.004643939435482025,0.017123427242040634,-0.8395119905471802,0.5430514812469482,-0.005060471987363618,-0.016051126089943666,0.011874388021927208,0.023047756403684616,0.00838184729218483,0.0018141814507544039,-0.4241133885830641,-0.1724297483637929,-9.751529597640037
15.91,1.0,154.0,23.96049499511719,0.8508397936820984,-79.78276416083222,40.45905749592318,264.0075010986328,-0.00464145140722394,0.01695549674332142,-0.8396079540252686,0.5429084300994873,-0.0024299981643622626,-0.011175427875219732,0.011176996412904776,0.005307265557348728,0.00028827792266383767,-0.035191390663385384,-0.3115401250496507,-0.10309819774702192,-9.797437841892243
16.01,1.0,155.0,23.984283447265625,0.2385532110929489,-79.78276420862781,40.45905757776481,264.00052717638016,-0.0045479126274585715,0.01697973906993866,-0.839554488658905,0.5429911613464355,-0.017408925444179192,-0.014611595554040244,0.008078953342965076,-0.01933431625366211,-0.06387828290462494,-0.00903581827878952,-0.2980075484141708,-0.06444716124795377,-9.746626707315444
16.2,1.0,156.0,23.98678779602051,0.3816851377487183,-79.78276423070376,40.45905760600797,263.9933417172432,-0.004582578781992197,0.016989784315228462,-0.8394990563392639,0.54307621717453,-0.0188393889199106,-0.01625525877821389,0.006060365071410468,-0.03936295211315155,-0.021976687014102936,0.013263856060802937,-0.2795530414581299,-0.12380030130967498,-9.8024793112278
16.3,1.0,155.0,23.87911033630371,2.926252841949463,-79.7827642424665,40.459057624429335,263.99393633317953,-0.004676015581935644,0.017017465084791183,-0.8395158648490906,0.5430485606193542,-0.016579266648532997,-0.018176050665192886,0.004822962071925824,-0.009168771095573902,-0.014782660640776156,-0.0011139059206470847,-0.3632333851978183,-0.07206783740781247,-9.798539457321167
16.5,1.0,157.0,23.75891494750977,5.200459957122803,-79.78276426973905,40.459057661332714,263.99032107305527,-0.004738383926451206,0.016254676505923268,-0.8395969271659851,0.5429460406303406,-0.014706233850860203,-0.013652818253690135,0.006927071955593711,-0.013219588436186314,-0.013463069684803486,-0.00875125639140606,-0.3224043613672257,-0.08653827088885009,-9.788959379196168
16.6,1.0,156.0,23.67377471923828,6.504550933837892,-79.782764299747,40.45905768153615,263.98786416959763,-0.004653023555874825,0.016627715900540352,-0.8396967053413391,0.5427811741828918,-0.002105619686770555,-0.007754791553350136,0.00948162958794093,0.030118526890873912,0.02181561104953289,0.006468417588621378,-0.3154125897958875,-0.13646216358058155,-9.77375018656254
16.8,1.100000023841858,155.0,23.56109046936035,8.651530265808105,-79.78276430519388,40.459057692968244,263.9889148206711,-0.004665915854275228,0.01657477766275406,-0.8397313952445984,0.5427289605140686,-0.014271049209200713,-0.011457066028829623,0.01052666336334256,-0.06294851750135423,-0.03013755939900875,-0.018220452591776848,-0.35491911962628364,-0.13097605917602778,-9.80162561774254
16.9,1.100000023841858,155.0,23.487218856811523,10.138511657714844,-79.78276435339484,40.459057742640816,263.98697224569315,-0.005445629823952913,0.012940509244799614,-0.8398727178573608,0.5426018238067627,-0.01947780174002563,-0.01980204550969719,0.010461402540434116,-0.10439785569906236,0.11734937876462935,0.04981044307351112,-0.33596080195158723,-0.11762699374929073,-9.836835211515426
17.1,1.100000023841858,157.0,23.33572196960449,12.985246658325195,-79.78276436169874,40.45905776837296,263.98819545221335,-0.005992017686367035,0.010298566892743107,-0.83992600440979,0.5425702333450317,-0.025224515388361048,-0.01798864539215342,0.012531670290470986,-0.13938041031360626,0.04307745769619942,0.136594757437706,-0.3882117037475109,-0.003621363379061223,-9.757819447517397
17.21,1.100000023841858,158.0,23.23680877685547,14.678975105285645,-79.78276445983094,40.45905781922266,263.9846358032226,-0.00711711449548602,0.0044615305960178375,-0.8400030136108398,0.5425167679786682,-0.017627536985934233,-0.018783280175533698,0.01167430398023375,-0.016802538186311722,-0.06016019359230995,0.049218375235795975,-0.3321352611109615,0.2096721266582608,-9.744395409822463
17.4,1.2000000476837158,160.0,23.05401039123535,18.01872062683105,-79.78276447126767,40.45905783949373,263.98606852006907,-0.006871572695672512,0.0024942676536738877,-0.8401873111724854,0.5422471165657043,-0.012619104700415927,-0.017789667254414245,0.01838536912811336,-0.044599100947380066,0.034222498536109924,0.08114219456911087,-0.2312404952198267,0.08745035430416465,-9.793149493932725
17.5,1.2000000476837158,162.0,22.95885467529297,19.65678596496582,-79.78276454151245,40.45905785204713,263.989469739914,-0.003700604196637869,-0.001984829781576991,-0.8395799398422241,0.5432199835777283,-0.0045501732315209615,-0.02780148682001613,0.04568839103551442,0.019631952047348026,0.05534794181585312,0.0509897954761982,-0.2248257159255445,0.15190739186480642,-9.916428680419925
17.7,1.2000000476837158,163.0,22.74350166320801,23.529298782348643,-79.78276455796724,40.459057866945685,263.9891632528305,-0.002618653234094381,-0.0004340112209320069,-0.8388569951057434,0.5443454980850221,-0.015817415535028502,0.008232003996720652,0.08995059309935563,-0.0039041901472955938,-0.052865296602249146,-0.05465279147028923,0.044859536988660687,0.04245491980109364,-10.294509644508363
17.8,1.2999999523162842,163.0,22.63707733154297,18.448116302490234,-79.78276453401266,40.45905788169447,264.0023395152092,-0.003797323442995548,-0.0002397932403255254,-0.8375449776649475,0.5463553071022034,-0.027317533282723846,0.009857628553864062,0.18731095348624816,-0.02918575704097748,0.12440143525600432,-0.1659119576215744,0.03713031275197864,0.0567629605717957,-10.721687339544298
18.0,1.2999999523162842,163.0,23.0815544128418,15.816078186035154,-79.78276466995712,40.45905791736435,264.04278198194504,-0.006326258182525635,-0.0038325500208884478,-0.835798978805542,0.5489857792854309,-0.0526842653220476,0.03717427572093448,0.3242012505223069,-0.012044309638440607,0.03423001244664192,-0.006748138461261989,0.09328109725378454,0.17444908428937198,-10.207111312150957
18.1,1.399999976158142,163.0,23.0076847076416,17.98691177368164,-79.78276455076814,40.45905814343571,264.07213571977616,-0.0037297673989087343,-0.005376546178013086,-0.8352096080780029,0.5498929619789124,-0.08214294264993446,0.05256485509019322,0.14215870718840665,0.0684099867939949,0.0744379460811615,-0.018537838011980057,0.20805924531072376,-0.045165446866303686,-9.564887058734897
18.3,1.399999976158142,164.0,22.86995887756348,20.63485336303711,-79.78276444262995,40.45905819799609,264.0829141469002,-0.0009939734591171145,-0.004676447715610266,-0.8352993130683899,0.5497748255729675,-0.09933583068361784,0.0572241730610537,0.08512667305507822,0.026533026248216632,0.056558337062597275,0.01856664381921292,0.01516785555984825,0.05772745879366995,-9.345438716411591
18.41,1.399999976158142,165.0,22.73974418640137,21.6685848236084,-79.78276416284307,40.459058297273046,264.1238903136253,0.0032272618263959885,-0.003724388079717755,-0.8360731601715088,0.5485959649085999,-0.1024576784595238,0.056246233907249685,0.12227675692939588,0.10778090357780457,0.06915204972028732,0.018288202583789825,-0.003285575599875301,0.1438010496273637,-9.518809245228768
18.61,1.5,165.0,22.76353454589844,21.39027214050293,-79.78276404176604,40.459058365699775,264.13740822982794,0.00454563507810235,-0.002534522907808423,-0.8364516496658325,0.5480161309242249,-0.11590908335087982,0.0629109301142226,0.14607295411381166,-0.006245000753551722,-0.02127823419868946,-0.04597195237874985,0.06411799041554332,0.13246828688308598,-9.954687012434006
18.71,1.5,165.0,22.81111145019531,19.17967796325684,-79.7827638434524,40.45905857996545,264.1828112335205,0.00431977491825819,0.0017492424231022596,-0.8374758958816528,0.5464545488357544,-0.11554634051264455,0.06453446967605914,0.2377314728847731,-0.05359244719147682,-0.0661306232213974,0.018488653004169464,0.06767706267535686,-0.057296281456947325,-10.142097290754318
18.9,1.5,165.0,22.81987571716309,20.603046417236328,-79.78276371602574,40.459058639804944,264.20697933745384,0.0036939592100679866,0.0032019326463341713,-0.8379276990890503,0.5457594394683838,-0.1118285829595296,0.06794681330787597,0.2421737966210941,-0.03250299394130707,0.03487849608063698,-0.02185451053082943,-0.010359449159586802,-0.06003231700044125,-9.907262585163117
19.01,1.5,163.0,22.81987571716309,20.444011688232425,-79.78276340783455,40.45905872650327,264.2501968474388,0.007502179592847823,-0.0004545550909824669,-0.8383537530899048,0.5450748801231384,-0.07795044069065411,0.10071829243203284,0.1747416153098773,0.08891448378562927,0.12423883378505708,0.02435038611292839,0.03779845078708604,-0.19727467730641365,-9.584968151450155
19.2,1.5,161.0,22.753517150878906,22.050268173217773,-79.78276326771042,40.459058966225726,264.28615528655047,0.010681253857910631,-0.0015456498367711902,-0.8379188179969788,0.5456882119178772,-0.10288632565276637,0.08256357484004526,0.1848039603010748,0.037230778485536575,0.10511016100645064,0.023948287591338158,0.0222847255691886,-0.0334910034458153,-9.751937148571015
19.3,1.5,159.0,22.684654235839844,21.891233444213867,-79.78276302366974,40.459059059874136,264.3250025243759,0.015913207083940506,-0.00532913813367486,-0.837136447429657,0.5467367172241211,-0.07525281385248665,0.06406633633586498,0.20881491782763467,0.06644533574581146,0.1231268346309662,-0.018429651856422424,0.04649014270864426,-0.24521303828805685,-9.895023193359377
19.5,1.5,156.0,22.697175979614247,22.2331600189209,-79.7827631343372,40.45905931881185,264.36911809754366,0.017155123874545097,-0.007116957101970911,-0.8366679549217224,0.5473954677581787,-0.09642800424421287,0.0233883645030758,0.2500063401470901,-0.028697030618786805,-0.033731237053871155,0.016778120771050453,0.038090224564075466,-0.009704034528695048,-10.062516685724257
19.6,1.5,154.0,22.70218276977539,21.135814666748047,-79.78276276629589,40.459059543581,264.4257915945053,0.017387399449944496,-0.005024318117648363,-0.8357141017913818,0.5488665699958801,-0.057569336512428064,0.030182680900857482,0.3158531559880263,0.00019261872512288392,0.002770731691271067,-0.05382778123021127,0.17948682602494956,-0.036731162625364966,-10.233353615999222
19.8,1.5,157.0,22.73724174499512,21.119911193847656,-79.78276273146443,40.459059574357155,264.45930235397816,0.015952331945300102,-0.0032532899640500546,-0.8355990648269653,0.5490986108779907,-0.034916403320326445,0.011294888324031159,0.3483558567309312,0.054565776139497764,0.02445265278220177,0.06743200868368149,0.07589971882291137,-0.2291259958595037,-10.19175535440445
19.91,1.5,157.0,22.77605438232422,20.11798858642578,-79.78276299441423,40.459059589338366,264.5228224576712,0.012470643967390059,-0.004705014172941446,-0.8362513184547424,0.5481843948364258,-0.007960484391889322,-0.01395565171636968,0.3582743291710783,-0.0740915909409523,-0.0022656612563878298,0.02842228300869465,0.06497424662578853,-0.09195765308104456,-10.051259626150133
20.1,1.600000023841858,158.0,22.754770278930664,22.2331600189209,-79.78276302710607,40.45905959661373,264.5586523742676,0.009833051823079586,-0.005522529128938913,-0.8368746638298035,0.5472784638404846,0.006731376379621346,-0.0269339463870528,0.3526636433222951,-0.00522973295301199,0.030996697023510933,0.07337663322687149,0.1376265178062022,-0.17305788550525905,-9.813822909593584
20.2,1.600000023841858,156.0,22.6859073638916,20.952924728393555,-79.78276306447313,40.459059494422654,264.6248686568141,0.005329099018126726,-0.006178920157253742,-0.8382008075714111,0.5453006625175476,0.024249830239216855,-0.007942645328786633,0.3501440054824397,-0.05167851969599724,-0.035535644739866264,0.0961153730750084,0.1234907826036215,-0.10269795583561064,-9.80741436123848
20.4,1.600000023841858,153.0,23.02145576477051,15.553669929504395,-79.7827630992879,40.459059477556316,264.6600720950663,0.004346356261521578,-0.004813779145479202,-0.838797926902771,0.5444042086601257,0.027524749571597118,-0.015233612664491766,0.3368859225244129,-0.0261448547244072,-0.00021688110427930948,-0.01857462897896767,0.13074449116364126,0.05101106823887677,-9.57357952952385
20.5,1.5,151.0,22.581987380981445,24.88109970092773,-79.78276312468545,40.45905957165829,264.69617510739755,0.004350195638835429,-0.003007789608091116,-0.8392801284790039,0.5436735153198242,0.01298901936991503,-0.010687579994907088,0.16811782246810206,-0.05618062987923622,-0.07574743032455444,0.0069135227240622035,0.17168561708182098,-0.016751386625692248,-8.499498054385183
20.7,1.600000023841858,151.0,22.493091583251953,24.93676376342773,-79.78276317631169,40.459059563654,264.74226296257973,-0.007531521376222372,-0.00010213020868832244,-0.8403548002243042,0.5419845581054688,0.0010402598970175763,-0.004754253153641579,0.1719535346190077,-0.14578565955162048,-0.09480127692222597,-0.0015935077099129558,-0.006502295667305589,0.02341285446658731,-10.022879580259325
20.8,1.5,151.0,22.44300842285156,26.3521785736084,-79.78276318471487,40.45905956644037,264.7647678063512,-0.009219860658049585,-0.002423542784526944,-0.8405372500419617,0.5416699647903442,-0.005345921504525386,-0.001928656237535516,0.28312116820566857,-0.05738870799541474,-0.003462187945842743,-0.05622793361544609,0.11802586521953345,0.03799134723376483,-10.741655580997467
20.9,1.600000023841858,152.0,22.406700134277344,27.58470344543457,-79.78276317465448,40.459059578979286,264.79966384482384,-0.006422056816518307,-0.004032576456665993,-0.8406385183334351,0.5415435433387756,-0.00894269466901278,0.0044107358018700615,0.417582603628972,0.17525862157344818,0.13890528678894046,0.0794382393360138,0.0773123056255281,-0.09668996002525093,-11.080550844669345
21.11,1.600000023841858,153.0,22.22640419006348,29.008071899414066,-79.7827631824695,40.45905958549565,264.9277624518872,0.0015695608453825116,-0.001157055259682238,-0.8402497172355652,0.5421960949897766,-0.014773561315595072,0.03152494505840567,0.7473699928292843,0.1575787365436554,0.060910627245903015,-0.042359884828329086,0.05364844115450978,-0.04872353240847588,-11.418853200674054
21.3,1.600000023841858,153.0,22.09619140625,31.24251937866211,-79.78276323651609,40.45905975662392,265.112414005518,0.0017004612600430846,-0.00225870800204575,-0.8397804498672485,0.542918860912323,-0.0596437700429673,0.0186639479584583,1.13927932543219,-0.1349138766527176,-0.0869944617152214,-0.061533227562904365,0.12384577254764735,-0.009625818883068859,-11.940084528923034
21.4,1.600000023841858,152.0,22.099946975708008,32.252395629882805,-79.78276319368938,40.459059793707105,265.23827025604254,0.0004995107883587482,-0.00325683131814003,-0.8393698930740356,0.5435507297515869,-0.06451124241089237,0.027204249307267368,1.3775521901115242,-0.12025344371795656,-0.17442482709884646,-0.02600513584911824,0.07722980506718159,-0.12411201272159815,-12.128514561653136
21.5,1.7999999523162842,153.0,22.1062068939209,30.821075439453125,-79.78276314661066,40.459060065080656,265.5581087203026,-0.0013068178668618202,0.0017309110844507813,-0.837762176990509,0.5460309386253357,-0.07351877360660619,0.022971513805194303,1.8448012039386872,0.07591140270233154,0.02357097528874874,0.09727977961301804,0.01608033411903307,-0.2389196800813079,-12.259336656332016
21.71,1.7999999523162842,151.0,21.90337562561035,34.47093963623047,-79.78276309211941,40.45906039857713,265.9622755975724,0.005049766041338444,0.0026572493370622396,-0.8368988037109375,0.5473279356956482,-0.09763532303025207,0.023093669007139845,2.2723635386415184,0.11129778623580933,0.08034456521272659,0.0672900527715683,0.09947387421503663,-0.18093456007540226,-12.034906486272812
21.9,2.0,153.0,22.12874412536621,29.715778350830078,-79.78276301110536,40.459060458576594,266.2017272443772,0.006801401264965534,0.00011690585961332543,-0.8371701240539551,0.5469003915786743,-0.11736963906399132,0.04523820930745809,2.5065668221430046,-0.05919292196631432,0.014377573505043985,-0.0789758488535881,0.14914500273764136,-0.00944015836576,-12.056419562101365
22.0,2.0999999046325684,153.0,22.12874412536621,27.544944763183594,-79.78276293613477,40.45906067859266,266.4551845521927,0.008904154412448406,-0.00035641278373077517,-0.8373404741287231,0.5466093420982361,-0.11160352241266573,0.06724782891311636,2.667326011781405,-0.02334979921579361,0.0018323671538382766,0.02460883371531964,0.15816086109727626,-0.09564920132048428,-11.726391016244893
22.2,2.200000047683716,157.0,22.3891716003418,24.80158233642578,-79.78276275008227,40.45906092999682,267.0213100643158,0.010572218336164951,0.0007953884778544308,-0.8373684287071228,0.5465362071990967,-0.0997587152845278,0.07749005311389122,2.906953995840996,0.0929589420557022,0.00850832462310791,0.1427849382162094,0.14759573726914826,-0.3492647890001536,-10.933540148735046
22.3,2.299999952316284,155.0,22.220144271850586,29.06373405456543,-79.78276267026284,40.45906095721743,267.31538936805725,0.008259530179202557,-0.00013609221787191927,-0.8370452523231506,0.5470713376998901,-0.10968729343005976,0.0798709460124877,2.963845083144673,-0.13627620041370392,-0.009234125725924969,-0.052548352628946304,0.11097158325836062,-0.06252959428355097,-10.515734370946882
22.4,2.299999952316284,152.0,22.330324172973643,25.087846755981445,-79.78276259273187,40.459060977685496,267.6145534248352,0.005656757391989231,-0.0027332298923283807,-0.8368169665336609,0.5474468469619751,-0.10015868004691736,0.08030652748639545,3.0209610205481927,-0.2754693925380707,-0.1148049458861351,-0.08020000904798508,0.13103922737762333,0.10430357384495438,-10.379553887844086
22.6,2.4000000953674316,152.0,22.365381240844727,24.920860290527344,-79.7827624207627,40.459061242024156,268.2405633659364,0.006100942846387625,-0.007260179612785578,-0.8370393514633179,0.5470605492591858,-0.049384529992303125,0.08622354093216111,3.0844356080125337,0.1997731626033783,0.11450660973787308,0.04439370334148407,0.10534731097519398,-0.04804083343595267,-10.012762727737428
22.8,2.5,151.0,22.38791847229004,25.06399154663086,-79.7827623635006,40.459061546865506,268.8825044364929,0.007166599389165641,-0.00967270415276289,-0.8377916812896729,0.5458574891090393,-0.08309621126223324,0.07991593051374374,3.108586236101288,-0.1579432487487793,-0.043647699058055885,-0.11851877719163895,0.09486639618873596,0.2663818592950702,-9.962032284736633
22.9,2.5,153.0,22.40043830871582,24.89700508117676,-79.78276232290115,40.4590615971524,269.19378564071656,0.006843161769211292,-0.009597640484571457,-0.8382692933082581,0.5451290607452393,-0.05931173919311356,0.07829880808141262,3.1149667026629517,0.10366901010274887,0.10706060379743576,0.15070226788520813,0.11992273852229116,-0.20489752789959312,-9.89882622241974
23.1,2.700000047683716,152.0,22.283998489379886,25.15146064758301,-79.7827623556297,40.45906186075381,269.8087782592773,0.006498468108475207,-0.007964788936078548,-0.838360071182251,0.5450201034545898,-0.07703988589969575,0.04337385186392996,3.1217201509376427,0.04277287796139717,0.03126239404082298,-0.003684222931042313,0.0796682949922979,-0.007793041113764048,-10.0170838201046
23.2,2.5999999046325684,150.0,22.419219970703125,23.24303436279297,-79.7827624054584,40.45906221992768,270.10225579452515,0.00592481205239892,-0.008574502542614937,-0.8383824825286865,0.5449827909469604,-0.08230600687403387,0.014714958428702787,3.1095390307637967,0.2059309184551239,0.10097233951091766,0.1568916141986847,0.13040114996954802,-0.30702176224440336,-10.036619367599489
23.41,2.5,153.0,22.406700134277344,24.141586303710927,-79.78276242668316,40.459062419995824,270.72304961395264,0.0035995226353406906,-0.009327685460448263,-0.8384830355644226,0.5448359847068787,-0.09750780569440093,0.002993544037611942,3.0778363175404686,0.05799197405576706,0.1158038005232811,0.009073239751160143,0.13483030619099734,-0.021670895833522084,-9.563529335260393
23.51,2.5,149.0,22.37038993835449,24.761823654174805,-79.78276282916906,40.45906323195385,271.05667254638666,0.003230684669688344,-0.009340655989944937,-0.8384650945663452,0.5448657274246216,-0.14163470954203405,-0.0527967673386862,3.034963555284587,-0.024361668154597282,-0.07925661653280258,0.001179056940600276,0.12450880112126472,-0.009811554774641993,-9.524819598197936
23.7,2.5,152.0,22.352861404418945,24.97652244567871,-79.78276278106787,40.459063550987636,271.72930381011963,0.004431339912116528,-0.009989673271775246,-0.8382961750030518,0.5451056361198425,-0.15220525505945498,-0.04519310907522761,2.9979969107721303,-0.007199044805020094,-0.07757803797721863,-0.06203603371977806,0.145312573146075,-0.0016240778518840672,-9.582411164045334
23.8,2.5,150.0,22.31529998779297,24.984474182128906,-79.78276282194084,40.45906372657054,272.02767321777344,0.0045245247893035394,-0.0098605053499341,-0.8383798003196716,0.5449786782264711,-0.14471552377644048,-0.051687446376158686,2.97609845645844,0.1543194055557251,0.06156374886631965,0.061965763568878174,0.13325141178444028,-0.13094913457520307,-9.60756003856659
23.9,2.5,151.0,22.34785270690918,23.43387794494629,-79.7827628696125,40.45906390869196,272.32469508361817,0.006027083843946457,-0.0089788306504488,-0.8385043740272522,0.5447876453399658,-0.16728973275248182,-0.05784457686935213,2.9737462493199947,0.03155526891350746,-0.0804235190153122,-0.05248095840215683,0.030888962787576017,0.1271642592921853,-9.725344596505163
24.11,2.5,151.0,22.33407974243164,23.974597930908203,-79.7827629996562,40.45906380926283,273.43057105255133,0.007375358138233423,-0.012141326442360878,-0.8389706611633301,0.5439912676811218,-0.10895260207748712,-0.0200664361089409,3.04384864817894,0.08865826576948166,0.0021144505590200424,0.09476617723703384,0.06001953078433873,0.030815790365450086,-9.790146948695185
24.3,2.5999999046325684,153.0,22.40043830871582,23.664478302001953,-79.7827630584202,40.45906394118659,273.7345680923462,0.0052103507332503796,-0.01119786873459816,-0.8394572734832764,0.5432853698730469,-0.1177208656389487,-0.02202002214426036,3.0377612368354585,-0.005579138640314341,-0.07750195264816284,-0.0499684065580368,0.12451545232906938,0.06265207517892123,-9.723568797111511
24.4,2.5999999046325684,153.0,22.445512771606445,23.27484130859375,-79.7827631246879,40.45906408433915,274.037482711792,0.002429300453513861,-0.009841623716056349,-0.8395628333091736,0.5431680083274841,-0.11613398872771573,-0.046808695077711335,3.025323633948772,0.00017909800226334482,-0.07950405776500702,0.0247852560132742,0.13635723346844314,-0.04443891204893589,-9.736308710575104
24.6,2.4000000953674316,153.0,22.375398635864254,23.410022735595703,-79.78276313829073,40.45906423868119,274.72220084381104,0.002460263669490814,-0.008763663470745087,-0.8391137719154358,0.5438798069953918,-0.0964692223978653,-0.0584745307606925,3.036063343639435,-0.02593120001256466,-0.0905601754784584,-0.05374744161963463,0.06744696103502065,0.09744152823463084,-9.642245721817018
24.71,2.4000000953674316,156.0,22.38165855407715,23.93483924865723,-79.78276334323512,40.45906448347027,275.0976900787353,0.0038935467600822453,-0.008831673301756382,-0.8385903835296631,0.5446770787239075,-0.09952421987031404,-0.06577307809999364,3.062015510266377,0.011564814485609531,-0.005412816535681486,0.02751930803060532,0.10885295430198312,-0.08821142423897982,-9.669148176312447
24.9,2.5,158.0,22.402942657470703,23.61676788330078,-79.78276349318688,40.45906477852183,275.70766017150885,0.005652011837810278,-0.011060716584324837,-0.8371368646621704,0.5468525886535645,-0.12425516130965752,-0.06800244078844472,3.0460002700625086,-0.06556416302919388,0.011442831717431544,-0.08420203626155852,0.18629095679149035,-0.022896760026924312,-9.759554316401482
25.01,2.5,156.0,22.38541412353516,22.996530532836914,-79.7827638645678,40.45906516078222,276.37924906921387,0.008356146514415741,-0.007786750793457031,-0.8369159102439879,0.5472123622894287,-0.1135273527845332,-0.07657942453967326,3.0495776817384685,0.029486048966646194,-0.07341384887695312,0.06871559470891953,0.18941802944988007,0.09036400359123946,-9.639781120419503
25.2,2.5999999046325684,154.0,22.352861404418945,24.23700714111328,-79.78276403659821,40.45906535924133,276.72901484680176,0.0075443387031555184,-0.0052664089016616344,-0.8373740315437317,0.5465529561042786,-0.11661481916057186,-0.09383542247377444,3.044581386574808,0.029911607503890988,0.022269284352660186,0.059399116784334176,0.12215412737801673,-0.13971601118333635,-9.56423450946808
25.3,2.5999999046325684,152.0,22.339088439941406,24.23700714111328,-79.78276416675664,40.45906550594579,277.0323786468506,0.004917262122035026,-0.005875145550817251,-0.8378819227218628,0.5457977652549744,-0.12777227029502336,-0.1179863424116068,3.0279571017640565,-0.04003026708960533,-0.07134579122066498,-0.004892720840871334,0.07628181152511389,-0.031069321981631218,-9.631240677237509
25.5,2.5999999046325684,151.0,22.38541412353516,22.670507431030273,-79.78276424392456,40.459065983299716,277.68231246185303,0.0003486172354314476,-0.006173884496092796,-0.8388121128082275,0.5443859696388245,-0.09805511643552482,-0.12994464397027802,3.0343074120279465,0.02021852135658264,-0.044288113713264465,0.011689990758895874,0.04089032823219897,0.044381029182113715,-9.583304618597033
25.61,2.5999999046325684,152.0,22.302780151367188,24.9924259185791,-79.78276458551251,40.459066525498656,278.32937476348883,0.001460270257666707,-0.003909554798156023,-0.8392424583435059,0.5437414050102234,-0.10515944723686987,-0.16648367458763155,3.036939664016872,0.14100097119808194,0.054980527609586716,0.04888057708740234,0.04522509303409607,-0.1215851932950318,-9.666149724125864
25.74,2.5999999046325684,149.0,22.33282852172852,24.10182762145996,-79.78276472917106,40.459066704694564,278.63319060516363,0.002882551634684205,-0.003997331950813532,-0.8390910029411316,0.5439688563346863,-0.1334999331807407,-0.16736687839816716,3.0435070097911536,0.037387531250715256,-0.07318954169750214,-0.0067756958305835715,0.03279994478216395,0.014774874702561646,-9.803259914517405
25.9,2.5,147.0,22.290258407592773,24.45965576171875,-79.78276508567852,40.459067441735264,279.27713153076166,0.0014562081778421998,-0.001848342129960656,-0.8381405472755432,0.5454494357109071,-0.18538363458253526,-0.18213918186517508,3.0953427091502483,-0.07837671786546707,-0.07400408387184143,-0.15499815344810486,0.15725825199857354,-0.2282464284449816,-9.912783526182173
26.1,2.5999999046325684,146.0,22.369138717651367,22.38424301147461,-79.78276522888491,40.45906765922517,279.58697554779053,-0.0006292128236964345,0.0005513957003131509,-0.83760005235672,0.5462833046913147,-0.16320952433086894,-0.1958394651086957,3.0993730416312,0.08498474955558777,0.05989392474293709,0.022016208618879318,0.12869756368920207,-0.11004840840585532,-9.888105937242507
26.2,2.5999999046325684,143.0,22.392927169799805,22.185449600219727,-79.78276531294532,40.459068255005825,279.92360636901856,-0.0015167067758738995,0.002449460793286562,-0.8372582197189331,0.5468000769615173,-0.21426066237910946,-0.215033446065974,3.1025912541083307,-0.03994638472795488,-0.03988708928227425,-0.05671138688921928,0.00453173145884648,0.05256420748773963,-9.758436913490296
26.3,2.5999999046325684,137.0,22.379154205322266,24.22905540466309,-79.78276543650476,40.459068504100266,280.23331019592285,-0.0016596931964159012,0.002787014003843069,-0.8372271060943604,0.5468457937240601,-0.2102585349051181,-0.2266601692777092,3.0883547282783894,0.04975878819823265,0.015274761244654655,0.07481689006090164,0.01665184463141486,-0.17453010477125647,-9.734114835262297
26.5,2.700000047683716,130.0,22.304031372070312,23.736045837402344,-79.78276565229456,40.45906928277623,280.8693976135254,0.0006743903504684567,0.0004183146520517767,-0.8376732468605042,0.5461712479591371,-0.2370835151548677,-0.20422653207637895,3.082948162945596,-0.017658287659287453,-0.1019105613231659,-0.024205438792705536,0.00661017793812789,0.017393634743057194,-9.77587448000908
26.6,2.700000047683716,128.0,22.2714786529541,25.962541580200195,-79.78276575500017,40.45906954202498,281.17812869262696,0.0020374213345348835,1.6819027223391462e-05,-0.8377656936645508,0.5460261106491089,-0.2235058883588789,-0.1944751321385235,3.0885166438453417,0.16780714690685272,0.05799342691898346,0.07275902479887009,0.04252342358697207,-0.1925408811494708,-9.857772921323775
26.8,2.700000047683716,128.0,22.32781982421875,23.489540100097656,-79.7827660433556,40.45907008271279,281.8109011383057,0.0007232296047732233,0.00236258702352643,-0.8375793695449829,0.5463100671768188,-0.20214482686213905,-0.18027002181942064,3.1094604971799864,0.11199743300676346,0.07843814790248871,-0.04187815636396408,0.06808079464361072,0.0031065525859594345,-9.838797537088396
26.91,2.5999999046325684,129.0,22.35161018371582,24.03821182250977,-79.78276627480194,40.45907056096501,282.4417757720948,-0.0012954717967659235,0.003419175511226058,-0.837601900100708,0.5462688803672789,-0.1700833482232844,-0.17731263604347414,3.077047947236581,0.0886411964893341,0.0927116721868515,0.11404600739479065,0.012232825106475505,0.10699695669114592,-9.765510290265084
27.1,2.700000047683716,129.0,22.24768829345703,24.761823654174805,-79.7827663573308,40.4590707555667,282.7493109436035,-0.0014044294366613028,0.0010451303096488118,-0.8376149535179138,0.5462583899497986,-0.18350079329331107,-0.17084056262487718,3.0725062572831674,-0.03779579326510429,-0.01919267512857914,-0.007963883690536022,-0.04450448309071362,0.060628728428855534,-9.735452678203584
27.2,2.700000047683716,129.0,22.290258407592773,24.51531982421875,-79.78276647900734,40.459071075539825,283.0624899597168,-0.0009367729071527721,-0.0007989760488271713,-0.8375267982482909,0.5463948845863342,-0.14511873642994585,-0.1550638371919455,3.0781123361953417,0.17956496775150302,0.10520075261592864,0.1192067563533783,-0.005577471717260778,-0.1881573697552085,-9.869749188423157
27.4,2.700000047683716,127.0,22.320308685302734,24.14953804016113,-79.78276662190268,40.459071443256896,283.67978617858887,0.0014779934426769614,0.0040564206428825855,-0.8376290202140808,0.5462226271629333,-0.16323894436625205,-0.13973294499777775,3.092864364754727,0.17648637294769287,0.06602935492992401,0.009471452794969082,-0.02581312735565007,-0.02698248825967312,-9.852153747081758
27.5,2.799999952316284,128.0,22.3741455078125,22.320629119873047,-79.78276689966013,40.459071699685744,283.98834559631354,0.001997437793761492,0.006495441775768995,-0.8379623889923096,0.5456857681274414,-0.16368866960279124,-0.17717085958135986,3.0968072634007475,-0.03522888571023941,-0.06850974261760713,-0.0384749174118042,0.0004745380952954293,-0.02305464855395257,-9.844483369588852
27.7,2.799999952316284,127.0,22.285249710083008,24.14953804016113,-79.78276708305877,40.459072211912726,284.61095378112793,0.0029513516929000607,0.005304089281708002,-0.8383339643478394,0.5451233386993408,-0.1670707376100885,-0.16516048040444314,3.0493864839824427,0.002307822462171316,-0.04119491949677466,0.001624200027436018,-0.04091874204576016,-0.030722527275793256,-9.568104781508444
27.8,2.799999952316284,126.0,22.263965606689453,24.34037971496582,-79.7827671689548,40.45907236304422,284.9149794311524,0.004235337022691965,0.004885553847998382,-0.8381564021110535,0.5453916192054749,-0.1432434140395384,-0.15183651453492011,3.028910169586104,0.14238283038139346,0.07927149534225464,0.12654390931129456,0.016355562102980913,-0.21506289403885606,-9.630803890228274
27.9,2.799999952316284,127.0,22.20887565612793,26.12157821655273,-79.78276725304592,40.45907250412579,285.21809146118164,0.005714366678148508,0.0051283747889101505,-0.8379325270652771,0.5457199215888977,-0.15933217744017833,-0.13723004729424945,3.031361826748988,-0.023493729531764984,-0.07790697365999223,-0.017432477325201038,-0.03753968180157245,0.0465787554346025,-9.771666238904
28.12,2.799999952316284,128.0,22.25520133972168,24.809534072875977,-79.78276735474064,40.459072756082286,285.83568522644043,0.0041766860522329825,0.0037021364551037546,-0.8374651670455933,0.54646235704422,-0.1347309218847386,-0.10128631835141802,3.0528534756003274,-0.23921462893486026,-0.0625053197145462,-0.15880873799324036,0.03661597704514862,0.23335574375465515,-9.88834567308426
28.3,2.9000000953674316,125.0,22.322813034057614,23.09990310668945,-79.78276737060203,40.45907301992229,286.4426722259521,0.0017528003081679346,0.002400567289441824,-0.8367702960968018,0.5475461483001709,-0.0867467738180936,-0.07842084352442796,3.061434309873486,-0.20694057643413544,-0.091710664331913,-0.036156050860881805,-0.06607905518263579,0.025945301838219168,-9.963436785936356
28.41,2.9000000953674316,124.0,22.266469955444336,24.74592018127441,-79.78276742206101,40.459073087559425,286.74983355712885,0.001148552168160677,0.000897698977496475,-0.8366008400917053,0.5478110313415527,-0.06515109497483319,-0.07383466259551873,3.076249656518644,-0.015778400003910058,0.06760247051715851,-0.02095697075128556,-0.039331140769645584,0.11610182977281512,-9.897454465627671
28.51,2.9000000953674316,120.0,22.325315475463867,22.74207305908203,-79.78276729576652,40.45907317974783,287.3526472778321,0.00021755638590548187,-0.0013674848014488814,-0.8368475437164307,0.5474343299865723,-0.03183623592367772,-0.04033421760085431,3.082548157867085,-0.033237453550100333,-0.10383021831512453,-0.10324276983737946,-0.07167382186744363,0.2152633987180889,-9.860457962751386
28.7,2.9000000953674316,121.0,22.240177154541016,24.44375228881836,-79.78276740257462,40.459073326778395,287.9603075714112,0.002118880627676845,0.0013918179320171475,-0.8372873067855835,0.5467572808265686,-0.026360881496654217,-0.04306824262431143,3.0722644741005314,0.010316184721887112,-0.1563498079776764,-0.008110562339425087,-0.03826867884490639,-0.2915202819183469,-9.82925254225731
28.9,2.9000000953674316,119.0,22.31529998779297,24.96061897277832,-79.7827674508833,40.459073358133736,288.26727244567866,0.0022366205230355267,0.003441723762080073,-0.8377436399459839,0.5460482835769653,-0.020232059483884075,-0.0552326246920524,3.0669066259063475,0.16720113158226013,0.10153068602085114,0.050043899565935135,-0.042734891795553266,-0.08469774099066854,-9.803030118942262
29.0,2.9000000953674316,119.0,22.32155990600586,23.10785484313965,-79.78276736887558,40.45907349515358,288.5703997344972,0.0006451731896959245,0.004369766917079687,-0.8379474878311157,0.5457329750061035,-0.03740422684482205,-0.038378309991681736,3.035352255635188,-0.17334842681884766,-0.07649863511323929,-0.12792009115219116,-0.02427460614591837,0.14203919218853114,-9.732285241484645
29.2,2.9000000953674316,117.0,22.1988582611084,25.23892974853516,-79.78276746884144,40.459073721062296,289.175084564209,-0.0004483005031943321,0.0022144920658320197,-0.8378809690475464,0.5458484888076782,-0.02283630945059785,-0.05959202156252656,2.99306583948936,-0.13611137866973874,-0.03821737691760063,-0.115982286632061,-0.0391119341365993,0.17318688970059154,-9.604872073531151
29.3,2.9000000953674316,117.0,22.26146125793457,25.453628540039066,-79.7827675086092,40.459073740622145,289.47381922912604,0.0010331722442060713,0.0013153511099517345,-0.837660014629364,0.5461896061897278,-0.004729457475660282,-0.053897177886741546,2.983920965212552,0.0701327919960022,0.14053918421268466,0.06294345110654831,-0.026630705147981645,-0.13048691217787564,-9.731343255043033
29.4,2.9000000953674316,115.0,22.2276554107666,25.5570011138916,-79.78276754670921,40.45907376234947,289.77197024536133,0.0013134421315044165,0.0009770903270691633,-0.8372161388397217,0.5468698143959045,-0.02632967947679225,-0.04171921596326129,2.9781170472485887,-0.18322831392288208,-0.09776610881090164,-0.10505196452140808,-0.03044932982884348,0.02523532195016742,-9.721957889199258
29.61,2.9000000953674316,117.0,22.137508392333984,25.93073463439941,-79.7827673363287,40.4590739367794,290.6622137756348,0.0004588759620673954,-0.0007513503660447898,-0.8365747928619385,0.5478519797325134,-0.0032539957578190145,-0.005050611939865411,3.0039215906970176,0.012928586453199388,-0.002925205742940307,-0.13175778090953827,-0.00201670924667269,-0.3164391781389713,-9.864570894241334
29.8,2.9000000953674316,116.0,22.273983001708984,22.972675323486328,-79.78276734899427,40.45907394129362,290.9640993804932,0.0006906608468852937,-0.0015774290077388287,-0.8365154266357422,0.547940731048584,0.006137806173533726,-0.009377780621362505,3.0345356224622435,0.0938514992594719,0.0917145386338234,0.07264600694179535,-0.11025723623111844,0.03239792358130217,-10.034015017747883
29.9,3.0,117.0,22.212631225585934,24.3801383972168,-79.78276737151927,40.45907395010253,291.2686667175293,0.0002581636072136462,-0.0013235470978543162,-0.8365547060966492,0.5478819012641907,0.003080594271594006,-0.01470509706498034,3.0468432237910834,-0.04767880961298943,-0.07233162969350815,0.04702301695942879,-0.059600408761762085,-0.07716572323814035,-9.885735476016999
30.11,3.0999999046325684,117.0,22.246437072753906,24.47555923461914,-79.78276750609133,40.45907423296079,291.86198565673834,-0.002491320949047804,0.003096628934144973,-0.8367835283279419,0.5475195646286011,0.0010814520308105797,-0.06950649197112188,2.9999242134242428,0.18702857196331024,0.06603915989398956,0.104669451713562,-0.08867560179904102,-0.20444519095122807,-9.699576501846314
30.2,3.0999999046325684,117.0,22.273983001708984,23.592912673950195,-79.78276748749668,40.45907434437892,292.1645559997558,-0.005096081644296646,0.0045683193020522594,-0.8365438580513,0.5478572845458984,-0.0038113096204230507,-0.08724850146603003,2.9900492680476054,-0.10364987701177596,-0.04877464100718498,-0.08015155047178267,-0.077248726291582,0.06891223216429353,-9.749551484584806
30.4,3.2000000476837163,115.0,22.233917236328125,24.11773109436035,-79.7827676313732,40.45907439293071,292.7614245147705,-0.004615829326212406,0.0037265664432197814,-0.8362928628921509,0.5482510924339294,0.01292848915362912,-0.1052191495013564,2.9850810617631365,0.007194954436272383,0.07173578441143036,0.09614896029233932,-0.11786534087732435,-0.21418104255571965,-9.838886414766312
30.5,3.2000000476837163,112.0,22.25770568847656,23.537250518798828,-79.78276795021443,40.45907475002567,293.37025973510737,-0.003140503307804465,0.003983061760663986,-0.8370262384414673,0.5471392273902893,0.010569509796843094,-0.13118511505667385,3.0071057071572853,0.20176999270915985,0.10663751512765884,-0.011296476237475872,-0.13968424435704946,-0.08083340752869844,-9.905903692245484
30.7,3.299999952316284,109.0,22.160045623779297,24.809534072875977,-79.78276811491287,40.45907522956399,293.6773714752198,-0.0037827016785740852,0.004867635667324064,-0.8365549445152283,0.5478484034538269,-0.04454345767983663,-0.1635284322749595,3.0241563059542838,-0.045407429337501526,-0.022093422710895545,0.07869596779346466,-0.04527730227448048,-0.11379343125969173,-9.917274187803267
30.8,3.299999952316284,107.0,22.207622528076172,24.28471755981445,-79.78276823470294,40.45907531412007,293.9807791442871,-0.006427848245948553,0.005910901352763176,-0.8362221717834473,0.5483213067054749,-0.05279132779741502,-0.16386046602947674,3.0414933719935284,-0.16168932616710666,-0.19355721771717072,-0.045906778424978256,-0.16555506728589536,0.11744653405621648,-9.95294220328331
30.9,3.299999952316284,106.0,22.151281356811523,25.98639678955078,-79.78276834822856,40.459075400391676,294.28535411071783,-0.011263996362686155,0.004837364424020052,-0.8359656333923341,0.5486448407173157,-0.02066946652641277,-0.17694717441022526,3.045813641897768,0.1464286595582962,0.09512785822153093,0.13773445785045624,-0.09921762912534178,-0.22043791048228745,-9.883118262290957
31.1,3.299999952316284,105.0,22.262714385986328,23.12375831604004,-79.78276845712358,40.459075858927314,295.2060446472168,-0.013216729275882244,-1.7173959349747747e-05,-0.8361921906471252,0.5482774376869202,0.0009712821486378359,-0.14251394612837778,3.062274941015692,-0.06025422737002373,-0.002832513069733977,0.0372154675424099,-0.1255277789477259,0.12002047838643196,-9.892833995819093
31.2,3.4000000953674316,104.0,22.29526710510254,23.378215789794922,-79.78276851166349,40.459075957366366,295.5118365020752,-0.010970538482069973,0.0004674964584410192,-0.8363633155822754,0.548065721988678,-0.0333188981778529,-0.1292618560969581,3.0519164658625173,-0.03833727538585663,-0.020330391824245453,-0.06047920882701874,-0.19032420169562106,0.17649228416383267,-9.707964332699776
31.4,3.299999952316284,105.0,22.177574157714844,24.75387191772461,-79.78276855681641,40.459076068985254,295.8167586059571,-0.008523007854819298,0.0017001022351905706,-0.8364558815956116,0.5479654669761658,-0.04708149177408411,-0.12651833753831498,3.0511658242120085,0.060434408485889435,0.011474557220935822,0.15137889981269834,-0.1261930459085852,-0.25689871704205874,-9.836108987331393
31.6,3.299999952316284,105.0,22.17882537841797,25.14350891113281,-79.78276874139213,40.45907648180968,296.4379477233887,-0.004711547400802374,0.003188084112480283,-0.8370785713195801,0.5470532178878784,-0.08561800681551365,-0.12894635768193402,3.0838416201289425,0.12225697934627533,0.07350941747426988,0.0761050283908844,-0.07464175889734179,-0.2434325428493321,-9.943988946676255
31.7,3.299999952316284,105.0,22.223899841308594,23.79170799255371,-79.7827686323822,40.459076624426935,296.73930499267584,-0.0043484545312821865,0.003459844272583723,-0.8374819159507751,0.5464367866516113,-0.08809413764340268,-0.09478230198248126,3.0933007817013483,-0.05026800557971002,-0.1597820669412613,-0.0611519031226635,-0.08464747320860624,0.0991237173601985,-9.958898177146912
31.9,3.299999952316284,104.0,22.265216827392575,23.871225357055664,-79.78276868765613,40.45907682682198,297.3586096496582,-0.005951350089162588,0.005209352355450392,-0.8373376131057739,0.5466290116310121,-0.08708461312593804,-0.10919232065339683,3.099826097451855,-0.12015371769666673,-0.06413187086582184,-0.1572558581829071,-0.08719675873406232,0.304738954436034,-9.882594351768494
32.0,3.299999952316284,104.0,22.21513557434082,24.11773109436035,-79.78276862660651,40.459077189238464,297.96528765869135,-0.005313979927450418,0.008662926033139229,-0.8369677066802979,0.547157883644104,-0.08521400316815281,-0.09775568506879566,3.093878779500024,-0.11260301619768145,-0.14592090249061584,-0.06146267428994179,-0.09686343960464,0.09280581912025808,-9.866285297870638
32.2,3.2000000476837163,107.0,22.22515296936035,24.3801383972168,-79.78276858948013,40.45907738839463,298.26601168823237,-0.007602586876600982,0.007710868492722511,-0.836335301399231,0.5481114983558655,-0.07522387327063157,-0.09690355988543876,3.0954508096444915,0.06273096799850464,0.05640380457043648,-0.007693074177950621,-0.17028897307813168,-0.09719832974486052,-9.883189598321913
32.3,3.2000000476837163,108.0,22.250192642211914,21.318706512451172,-79.78276858666325,40.45907747103767,298.57603213500977,-0.00851160753518343,0.004850102588534354,-0.8355345129966736,0.5493506193161011,-0.07022675084249883,-0.09850821484535144,3.0995604902484164,-0.01558691170066595,0.03563569858670235,0.07220249623060226,-0.09268769622780383,-0.19635507473722105,-9.899250730276108
32.5,3.299999952316284,111.0,22.118728637695312,24.65049934387207,-79.78276857999298,40.45907775120618,299.1860785217285,-0.003223545150831341,2.0395447791088366e-05,-0.8355928063392639,0.5493398904800415,-0.05354170431934368,-0.05193499051580566,3.063812812941493,0.17582140862941742,0.09793642163276672,0.13536866009235382,-0.025901561924256387,-0.25003684502094986,-9.607442509531976
32.6,3.299999952316284,111.0,22.24894142150879,22.33653259277344,-79.7827685691408,40.459078028651135,299.7963957519531,-0.004061140585690737,0.0015652154106646776,-0.8361442685127258,0.548492431640625,-0.06083544305035059,-0.03491021992746525,3.0255180682089686,0.2384614795446396,0.09746872633695602,0.0832582339644432,-0.046447119992226366,0.1136840700544417,-9.640183993577956
32.71,3.299999952316284,111.0,22.230159759521484,23.29869842529297,-79.78276855056005,40.45907811321688,300.09699771118164,-0.000340980535838753,0.003840034827589989,-0.8363845944404602,0.5481294989585876,-0.08035091272688713,-0.04489944071018785,2.9908299687478763,0.05279466137290001,-0.07879175990819931,-0.03671862185001373,-0.09858112315647304,0.11590329852886498,-9.498007775545119
32.9,3.2000000476837163,111.0,22.129995346069336,25.294591903686523,-79.78276853935229,40.45907819411221,300.39458987426764,0.004500745330005884,0.005715015344321728,-0.8363416790962219,0.5481603741645813,-0.08511358156162792,-0.05125243757002319,2.96503502175846,0.17194750905036926,0.03208179399371147,0.09126901626586914,-0.04465434540063143,-0.22457872588187452,-9.597953063249587
33.1,3.299999952316284,114.0,22.10871124267578,25.18326759338379,-79.78276843422806,40.45907843746482,301.00834796142584,0.00023023232643026856,0.002195302862673998,-0.8356421589851379,0.5492697954177856,-0.1111809968483536,-0.03298094114954818,3.0189410428982013,-0.1114325001835823,0.04864206537604332,0.03923358395695686,0.03221915409900248,-0.14444522093050186,-9.95782579779625
33.2,3.299999952316284,116.0,22.193851470947266,23.942790985107425,-79.78276837186789,40.45907862938,301.309361907959,-0.004419774748384953,-6.55869662296027e-05,-0.8361753821372986,0.548444390296936,-0.08797660353439671,-0.0113329927230139,3.0492561706262014,-0.2665660381317139,-0.10512886196374893,-0.10048689693212508,-0.03987161535769701,0.29399983026087284,-9.960073467493055
33.4,3.299999952316284,119.0,22.216388702392575,24.29266929626465,-79.7827683138839,40.45907875082817,301.9222311706543,-0.009123533964157104,-0.004034874029457569,-0.838827908039093,0.5443053841590881,-0.04413000364852891,-0.022835867162096783,3.0722469812239885,-0.12849240005016327,-0.07356147468090057,-0.05525238811969757,-0.08079474281519652,0.14259637702256442,-9.842060283422473
33.51,3.299999952316284,122.0,22.26146125793457,22.90906143188477,-79.78276821719594,40.45907895342181,302.2194609375,-0.004887971095740795,-0.003224350046366453,-0.8397644162178041,0.5429193973541261,-0.02938597552841302,-0.015800050879819286,3.0672244034568035,0.1923369318246841,0.10274680703878404,0.05519230291247368,-0.07336731713265181,-0.09431484843604268,-9.835298563241961
33.7,3.2000000476837163,125.0,22.20261573791504,22.821590423583984,-79.78276814491255,40.459079299567776,302.822602722168,0.003230227157473564,0.004314756486564875,-0.8396332263946533,0.5431270599365234,-0.11012839537360904,-0.02216332783120436,3.027204885162428,0.1478690505027771,-0.0477072224020958,0.13934077322483066,-0.07257938655093313,-0.2654059772752225,-9.715064606666566
33.8,3.2000000476837163,125.0,22.30778694152832,22.225208282470703,-79.78276811401513,40.45907940063915,303.12534091186524,0.005134235601872207,0.006710059475153686,-0.8390373587608337,0.5440082550048828,-0.13839609577429135,-0.0386325296091218,3.02488933030637,0.12761187553405762,0.04873104766011238,0.044422972947359085,-0.15102329285815358,-0.08198728244751692,-9.76576055109501
33.9,3.2000000476837163,127.0,22.22264862060547,23.75990104675293,-79.78276809020153,40.459079501122226,303.427525970459,0.006024458911269903,0.006854110397398472,-0.838181734085083,0.5453147888183594,-0.1568502286846463,-0.048663072956486975,3.011728801708077,0.0029197516851127148,0.008881933987140656,-0.108100526034832,-0.033863039393909285,-0.2403056894615293,-9.637651564478873
34.1,3.0999999046325684,129.0,22.237672805786133,23.131710052490234,-79.7827679244801,40.459079775836095,304.0232100219726,0.004520646296441555,0.002716676797717809,-0.8362627029418945,0.5483037233352661,-0.1372470309928357,-0.02630412563642022,2.97551038449878,-0.0031493452843278646,0.045697826892137534,0.01911680586636066,-0.07807218784466388,-0.12290823547169567,-9.664288555383683
34.3,3.0999999046325684,132.0,22.126239776611328,25.42977333068848,-79.78276791256451,40.45908008618388,304.62073275756836,0.006668256595730782,0.001726602902635932,-0.8342395424842834,0.5513593554496765,-0.11345459419836434,-0.038457314796465095,3.0094825028864918,-0.007491469848901032,-0.009056773036718369,-0.1256621778011322,-0.12498367725871505,0.19829150810837748,-9.893518120050429
34.41,3.0999999046325684,134.0,22.206371307373047,24.10977935791016,-79.78276792483109,40.4590801606047,304.9225592346192,0.008336573839187622,0.002688139211386442,-0.834334671497345,0.5511887669563293,-0.0977620865371946,-0.032764381221380486,3.0291643167691458,0.14911267161369324,0.15425218641757965,-0.034549664705991745,0.03634296232368797,-0.0528149388357997,-9.984249365329743
34.5,3.0999999046325684,138.0,22.18759155273437,23.65652656555176,-79.7827680071682,40.45908046729495,305.53144976806635,0.004352936521172524,0.007796401157975197,-0.8348867297172546,0.5503494143486023,-0.12011271595643365,-0.06737917324488837,3.0785200066399576,-0.105829656124115,-0.03439164534211159,0.007175958715379237,-0.15547994926571848,-0.02803104249062017,-9.9886043715477
34.7,3.0999999046325684,135.0,22.1888427734375,23.378215789794922,-79.78276821383938,40.45908090982844,305.8397803039552,0.0012668704148381946,0.008517434820532799,-0.8349313139915466,0.5502868890762329,-0.14035564632522982,-0.12725695174003804,3.080727907696203,-0.04988938570022583,-0.06229276955127716,0.1002342402935028,-0.058234284482896324,-0.2620284610614181,-9.935434470176695
34.9,3.0,135.0,22.18132972717285,23.5849609375,-79.78276833826638,40.45908114015691,306.45754763793946,0.00390806095674634,0.008430466055870056,-0.8337993621826172,0.5519894361495972,-0.12998992468860207,-0.14012141481185228,3.0851476928624404,0.07447543740272522,0.12432549893856047,0.04903637245297432,0.03762833564076573,-0.3629330210387707,-9.856221070289614
35.0,3.0999999046325684,137.0,22.192598342895508,23.64062309265137,-79.7827682863947,40.459081167300226,306.7531256408692,0.006270657759159803,0.00637098727747798,-0.8331384658813477,0.5529922842979431,-0.13072307193182958,-0.08403881829932182,3.075722848043453,-0.08354205638170242,-0.05800125002861022,-0.05560483783483505,-0.06681201280094684,-0.0450053747696802,-9.804334048032759
35.11,3.0999999046325684,141.0,22.08993148803711,25.47748374938965,-79.7827683126689,40.45908139414292,307.36373278808594,0.004917353391647339,0.004143666010349989,-0.8329155445098877,0.5533627867698669,-0.11647002428877948,-0.05181486957941329,3.1021026573805552,-0.11610247194766996,-0.12000259011983873,-0.02459331788122654,0.03922755825798959,-0.2300893611833453,-10.035176274776461
35.31,3.0999999046325684,142.0,22.19510269165039,23.1873722076416,-79.78276832823529,40.45908146622236,307.6751303405762,0.004220812581479549,0.0039685876108706,-0.8330987691879272,0.5530940294265747,-0.12727620667300255,-0.038281953855905805,3.1220802817831377,-0.0776352733373642,-0.05966781079769135,-0.1171690821647644,0.01964148488128558,0.03401356408372522,-9.941767004728318
35.4,3.0999999046325684,146.0,22.273983001708984,22.47171401977539,-79.7827683309784,40.45908154406883,307.9877600402832,0.00351125281304121,0.004575857892632485,-0.8331538438796997,0.5530113577842712,-0.0995913777188326,-0.039944072108455256,3.1297049181754097,0.1715349704027176,0.15932036936283112,0.002983420854434371,0.021728602827060968,-0.17428883403539658,-9.898492931127553
35.6,3.0,147.0,22.2276554107666,22.2331600189209,-79.78276844166398,40.45908189854758,308.6088995666504,0.010239539667963982,0.0048832674510777,-0.8331903219223022,0.5528700947761536,-0.13651369777985192,-0.04618577298311402,3.1303533748114174,0.0637553334236145,0.07104624062776567,-0.040646474808454514,-0.06605416797101497,0.06307117436081171,-9.723289300203325
35.8,3.0,142.0,22.218891143798828,22.86134910583496,-79.7827684234792,40.45908207701562,309.2212614746094,0.013022684492170807,0.0033417425584048037,-0.8340609073638916,0.5515086054801941,-0.13755122310787746,-0.0005869805516577134,3.075703832245956,-0.09901593625545503,-0.07193087041378021,-0.09201840311288834,0.06961266464553774,0.09186848304234446,-9.57087811589241
35.9,3.0,144.0,22.453025817871094,17.239446640014652,-79.78276843351657,40.459082123451466,309.5280852050781,0.011757594533264635,0.0037765342276543374,-0.8348796367645264,0.5502941608428955,-0.10534507018714684,-0.009559998921098982,3.0613046710050087,0.08351590484380722,0.05877812206745148,0.19477792084217072,-0.012109761773608623,-0.2879756632447243,-9.672224981188775
36.1,2.9000000953674316,143.0,22.463041305541992,18.360645294189453,-79.78276845116658,40.45908231180357,310.1316084594726,0.002196912420913577,0.002136838622391224,-0.8376236557960509,0.5462393164634705,-0.06617882324661814,-0.02781538220804197,2.9302109032593107,-0.09278365224599837,-0.05625741183757782,-0.005950896069407463,-0.020167441929224882,0.024217029344290496,-8.969986075758934
36.2,3.0,144.0,22.475563049316406,17.167879104614258,-79.78276844744072,40.45908262017928,310.7161307067871,-0.0020250382367521524,0.003461747663095593,-0.83961021900177,0.5431745052337646,-0.01489941877470386,-0.06012356318604532,2.7357051190731507,0.06880273669958115,0.038250934332609184,0.08503815531730652,-0.06905353835318237,0.002919505639001727,-8.820904880762098
36.4,2.9000000953674316,144.0,22.46053695678711,18.352693557739254,-79.7827684772303,40.45908265683735,310.9824309082031,-0.00018014029774349188,0.0017979893600568175,-0.8399927020072937,0.5425947904586792,-0.03442092473599318,-0.06047662491162192,2.5859074108979554,-0.014417094178497791,0.07702680677175522,-0.036573901772499084,-0.0029769294080324482,-0.01890528160147369,-8.418156852722168
36.51,2.799999952316284,142.0,22.471805572509766,17.68474578857422,-79.7827685200716,40.4590828073172,311.2398810119629,0.0013551448937505484,-0.0005988232442177832,-0.8398598432540894,0.5428013801574707,-0.04569186542909159,-0.03903900452667597,2.466756386447268,-0.04391297325491905,-0.026158986613154408,-0.05052360892295837,-0.017608031127601863,-0.057673559342511,-8.387897511720658
36.7,2.799999952316284,139.0,22.50686264038086,17.024747848510742,-79.78276856798377,40.45908300369935,311.71190783691407,0.004520212300121784,-0.0009135534637607633,-0.8386413455009459,0.5446645617485046,-0.046083332340982636,-0.03197353918626235,2.2079657304309395,0.03069055080413818,0.0735756978392601,-0.0538511723279953,-0.0272501217154786,0.0010957499407231806,-8.415972332954407
36.8,2.799999952316284,137.0,22.52689552307129,17.430288314819336,-79.78276859755691,40.459083055184045,311.9264616699219,0.006305409595370293,-0.0013546691043302415,-0.8379231691360474,0.5457502007484436,-0.06310557667122041,-0.034532796102320684,2.083538770964329,-0.04238317906856537,-0.0348081961274147,-0.022851061075925827,-0.0439937562122941,-0.026292242724448443,-8.486502032876015
36.9,2.799999952316284,136.0,22.431739807128906,20.141843795776367,-79.78276863616287,40.45908311049375,312.1285109252929,0.006225218530744314,-0.0011368267005309465,-0.8372038006782532,0.5468544363975525,-0.06106168026334515,-0.040276561199937486,1.9600711741928545,0.007501970976591109,-0.03267509862780571,0.0041536069475114346,-0.016710357901174575,0.0960519648436457,-8.716810408830643
37.1,2.799999952316284,133.0,22.471805572509766,19.14787101745605,-79.78276871399322,40.45908331437778,312.5201010437012,0.002281949855387211,0.002802028553560376,-0.8352124691009521,0.549915611743927,-0.05147060062978225,-0.06458421086648823,1.8120443449734696,0.03322096914052963,-0.05198931694030762,-0.07865419238805771,-0.09122135158628224,-0.04062156644649804,-8.95503825366497
37.3,2.700000047683716,132.0,22.451772689819336,18.71052360534668,-79.78276881036216,40.4590834784207,312.89053103637696,-0.001967370742931962,0.004843561910092832,-0.8348475694656372,0.5504564642906189,-0.04580113874430293,-0.08577887606725969,1.6881640262430933,-0.012741432525217531,0.0025358330458402642,0.016714738681912422,-0.13334419978782536,-0.047227960824966435,-9.061385073065756
37.4,2.700000047683716,134.0,22.436748504638672,19.251245498657227,-79.78276887007274,40.45908353661393,313.05640170288086,-0.0031654920894652605,0.005945559125393629,-0.8351746797561646,0.5499436259269714,-0.03655678998303013,-0.08696191721801938,1.6245408069088212,0.05622792989015578,-0.0027924641035497197,0.05416563153266907,-0.045769656104967006,-0.18024389427155252,-9.116803228855133
37.5,2.5999999046325684,134.0,22.292762756347656,21.70039176940918,-79.78276890120205,40.45908365745772,313.4036535949707,-0.005363843403756618,0.009237656369805336,-0.8357572555541992,0.5489952564239502,-0.03770069587259032,-0.07253495566104727,1.5321710322711557,0.05708004906773567,0.033767908811569214,0.05021654069423676,-0.08447435908019542,-0.1905548012629152,-9.263457244634628
37.7,2.5999999046325684,132.0,22.448017120361328,18.91727066040039,-79.7827688501048,40.4590837224561,313.5873617858887,-0.004719972144812346,0.008250133134424686,-0.8358981013298035,0.5488024353981018,-0.04748099496641893,-0.05763778140159807,1.5383081357470847,-0.019961383193731308,0.05740488320589065,-0.007662899792194366,-0.07343300694599747,-0.05495964271947742,-9.340686684250832
37.91,2.5,131.0,22.525644302368164,17.95510482788086,-79.78276883754006,40.45908382023387,313.88134906005865,-0.0036679694894701242,0.004434442147612572,-0.8358239531517029,0.5489674806594849,-0.059532766255631336,-0.03013342383415415,1.3992808986499714,-0.032367657870054245,0.07693415880203247,-0.04754288122057915,-0.03724706063512713,-0.07643968634773046,-9.182968567013742
38.0,2.5,129.0,23.139148712158203,3.419262886047364,-79.78276875059676,40.45908395158758,314.04020068359375,-0.00338355265557766,0.003184592118486762,-0.8358014822006226,0.5490122437477112,-0.06684412086484892,-0.01498222958563798,1.3606621526140337,-0.03830982372164726,-0.0009561116457916797,0.01828834228217601,-0.10859279888682068,-0.1622362607717514,-9.108366281390193
38.2,2.4000000953674316,129.0,22.52814865112305,17.493902206420902,-79.78276869630211,40.45908417227676,314.2754454345703,0.0009036887204274537,0.002538369037210941,-0.8287078142166138,0.5596750378608704,-0.10138121327535866,-0.01649509207128581,0.9265225316807258,0.009828978218138218,0.03805423527956009,-0.6219443082809448,-0.09935424383729696,-0.23611005641520025,-7.337401950359345
38.3,2.4000000953674316,129.0,22.519384384155273,17.470046997070312,-79.78276866012477,40.45908427245925,314.3572935791016,0.0021397280506789684,0.002505004871636629,-0.8058932423591614,0.5920517444610596,-0.1286255911128642,-0.020059960567830853,0.7217186226238727,-0.019724184647202492,-0.02578302845358849,-0.9417740702629088,-0.1518729115650058,-0.2302738225646317,-7.698357004523277
38.4,2.299999952316284,131.0,22.483074188232425,18.479923248291016,-79.7827686279171,40.45908438726117,314.4216742248535,0.0025280378758907322,0.003784448141232133,-0.7740893363952637,0.6330599784851074,-0.1410617520268912,-0.018454398585299132,0.5712443578992058,-0.020071683451533318,-0.04848671704530716,-1.1303006410598757,-0.14262660895474255,-0.23340933714061976,-8.173299434781075
38.6,2.299999952316284,132.0,22.455530166625977,18.662813186645508,-79.78276839400056,40.45908534526856,314.40248629760737,0.004448782652616501,0.006357155740261078,-0.6644204258918762,0.7473187446594238,-0.15573199193475878,0.009395439140827395,0.2923717621895541,0.06824778765439987,0.04767893254756928,-0.9243294000625608,-0.061932776290923364,-0.1001751655060798,-9.165965448617936
38.8,2.200000047683716,119.0,22.395431518554688,20.277023315429688,-79.78276838348745,40.459085478367854,314.4293074340821,0.006704614963382482,0.0089428024366498,-0.6316565871238708,0.7751678228378296,-0.15529205906399546,0.028330576088011206,0.23944455561809225,-0.008386850357055664,-0.11044465005397797,-0.7996474504470825,-0.012897141894791277,-0.03626076097832994,-9.266991301774981
38.9,2.200000047683716,113.0,22.07615852355957,24.53122329711914,-79.78276836468885,40.45908560342205,314.4514136047364,0.007767500355839729,0.01167699694633484,-0.6064099073410034,0.795028567314148,-0.11401274637355348,0.0440706688948597,0.1990323929481828,0.16150718927383426,0.08555573225021362,-0.5013467073440552,0.056040765484794974,-0.13195565052330493,-9.440328501462934
39.1,2.200000047683716,117.0,22.41170692443848,19.18762969970703,-79.78276808240021,40.459086156246464,314.40701434326166,-0.00032864874810911715,0.02325374260544777,-0.5783833861351013,0.8154336214065552,-0.0980694991891859,0.14300644867754914,0.1869964285603701,0.028320785611867905,-0.4890676736831665,-0.21722084283828733,0.44785988152027134,0.033523891749791805,-9.728337201476098
39.2,2.299999952316284,121.0,22.31404685974121,22.12978744506836,-79.78276760310574,40.45908627320404,314.4189161987305,-0.01976410299539566,0.043601144105196,-0.5732331275939941,0.8179927468299866,-0.05247879609403831,0.22126028498247235,0.1922307017142568,0.12653748691082,-0.6083800196647644,-0.195385217666626,0.22287395188584924,0.1977024924941361,-9.582905838489534
39.4,2.299999952316284,111.0,22.28900718688965,22.503520965576172,-79.78276686556897,40.459086503840616,314.4549154968262,-0.05984102189540862,0.07811015099287033,-0.5746512413024902,0.8124616742134094,-0.006826963053023632,0.446420334414693,0.26595559592375384,-0.16307610273361206,-0.4062269628047943,0.0627359002828598,-0.05569889523088932,-0.2025663343816996,-10.187063548564913
39.5,2.4000000953674316,104.0,22.26897430419922,21.30280303955078,-79.78276532321121,40.459086816063866,314.52196643066407,-0.07976863533258438,0.08516722172498703,-0.5822464227676392,0.8045946955680847,0.048964202955260674,0.7735490058424748,0.49812738222989095,-0.07286935299634932,-0.14513714611530304,0.296861469745636,-0.18176212381571533,-0.07316865798085928,-10.2521793115139
39.7,2.5999999046325684,108.0,22.238924026489254,22.26496696472168,-79.78276500222752,40.45908734574496,314.4526037902832,-0.08600485324859619,0.08334189653396606,-0.5866677165031433,0.8009234666824341,0.01788286869189571,0.9272662731340904,0.554335000626404,-0.23595280945301056,-0.13963483273983002,-0.1468437761068344,-0.20019839476794005,0.18899099998176105,-10.319614080190659
39.8,2.700000047683716,109.0,22.3741455078125,20.45991516113281,-79.7827636986532,40.459087625068605,314.4868063659668,-0.09355901181697844,0.08214327692985535,-0.5900320410728455,0.7977226972579956,0.03351049538381178,1.1450843355327105,0.6449255169242398,0.019350789487361908,0.09788809716701508,0.11700529605150226,-0.05605433285236359,-0.3230345450341702,-10.412244501113893
40.0,2.799999952316284,109.0,22.339088439941406,20.69051551818848,-79.7827608192728,40.45908879500511,314.45516345214844,-0.1055627539753914,0.08273870497941971,-0.5935887098312378,0.7935132384300232,-0.05328248893751287,1.555454286124513,0.7632042303529898,-0.036987897008657455,-0.1323224902153015,-0.005945839919149876,-0.321599017046392,-0.012356153391301632,-10.147667348384855
40.11,2.9000000953674316,108.0,22.310291290283203,20.49967384338379,-79.78275878168772,40.45908930418594,314.48803088378907,-0.10725446790456772,0.08623678237199782,-0.5950362682342529,0.7918280363082886,-0.055053554930695775,1.7784971409337968,0.8248873865062449,0.1503673940896988,-0.00801930483430624,0.06905665993690491,-0.25938244979828595,-0.18246459368616344,-9.995403513908386
40.3,3.2000000476837163,104.0,22.342844009399414,20.086181640625,-79.78275416770856,40.4590908991895,314.4824652404785,-0.1049974262714386,0.09260810166597366,-0.5964787006378174,0.7903242707252502,-0.13423759545854488,2.2148052881634945,0.9408217504576908,0.11734717339277267,0.04303651675581932,0.05597679316997528,-0.29510617827996616,-0.2665459102392197,-9.993250569105149
40.4,3.4000000953674316,102.0,22.304031372070312,20.68256378173828,-79.78274841370519,40.45909293934168,314.47781512451166,-0.10859215259552002,0.10241954028606416,-0.5960173606872559,0.7889748215675354,-0.18338969620181514,2.6719870208204792,0.9874003238646484,0.14407695829868314,-0.10824383050203323,-0.0191273782402277,-0.2815964240580797,0.1408584292139858,-9.814793547391893
40.6,3.700000047683716,95.0,22.24768829345703,23.083999633789066,-79.7827451119517,40.45909381736197,314.496373626709,-0.1147116646170616,0.10935527086257936,-0.5957289338111877,0.7873942255973816,-0.198174502648254,2.8992984276611486,1.052883903197662,-0.03458061069250107,-0.1904865950345993,0.048087429255247116,-0.4446346670016647,-0.11256465716287496,-9.791365508437158
40.7,3.9000000953674316,91.0,22.22139549255371,21.692440032958984,-79.7827420011006,40.45909540189424,314.46537921142584,-0.12119417637586595,0.11290842294692993,-0.5944322943687439,0.7869015336036682,-0.25087908431577444,3.0762960332281004,1.114633610634265,0.04295006766915322,-0.18327516317367554,0.25535261631011963,-0.5552866085618735,-0.5978454945981503,-9.856649086475374
40.9,4.300000190734863,85.0,22.26897430419922,21.191476821899414,-79.78273412081906,40.459097528562786,314.48310992431635,-0.13279102742671967,0.1199161857366562,-0.5926142930984497,0.7853629589080809,-0.2381095514556653,3.559130892073493,1.3412852629728258,0.16716334223747253,0.00683291582390666,0.08618452399969101,-0.7222515126317741,-0.4680805399641395,-10.032654955387116
41.01,4.5,83.0,22.192598342895508,23.34640884399414,-79.78272495992606,40.45910068649046,314.46017977905274,-0.13432835042476654,0.13018450140953064,-0.5918043255805969,0.7840762734413147,-0.2789708663301053,4.0598361172309785,1.5322812538799946,-0.0040048668161034575,-0.12999902665615082,-0.06357324123382567,-0.8283136457204819,-0.10223111961968244,-9.747875672578813
41.1,5.0,75.0,22.190093994140625,24.181344985961914,-79.78271986918716,40.459102697873995,314.43632647705084,-0.1342254877090454,0.1320512294769287,-0.5906279683113098,0.7846685647964478,-0.3364079241416855,4.3100363862557725,1.6401023249838984,0.029831843450665474,0.07807607203722,0.022313209250569344,-0.8704451733827592,-0.2171548450738192,-9.91250987648964
41.3,5.199999809265137,73.0,22.21138000488281,22.28087043762207,-79.78271457374716,40.4591041175539,314.43301150512696,-0.13304033875465393,0.13079403340816498,-0.5904621481895447,0.7852054834365845,-0.29254159958876125,4.5610497822699125,1.7493717119576648,0.0460914708673954,0.12355971336364745,-0.02525280229747296,-0.9899931784719228,-0.2417576810158789,-10.074532713890076
41.5,5.800000190734862,69.0,22.217639923095703,22.535327911376953,-79.78270300033913,40.459108117583455,314.4103522033692,-0.1275787204504013,0.1283567100763321,-0.5893658399581909,0.7873349189758301,-0.3383651859251844,5.067269127743524,1.8924259727045256,-0.09335175901651382,0.06637005507946014,0.007448927499353886,-1.1654326714575292,-0.30990549936890605,-10.033300487995149
41.6,6.099999904632568,68.0,22.207622528076172,22.304725646972656,-79.78269682322059,40.459109732488244,314.40842959594727,-0.1260758340358734,0.12481679022312164,-0.5898396968841553,0.7877911329269409,-0.2869473513857004,5.293178707523498,1.973129007306314,-0.06530065834522247,-0.06382979452610016,0.15338577330112454,-1.2388500188291074,-0.5992504343390465,-10.244123017787933
41.8,6.800000190734862,66.0,22.26772117614746,21.39027214050293,-79.78268376472913,40.45911447712747,314.3884710998535,-0.1282513588666916,0.12463615089654922,-0.5863795280456543,0.7900484204292297,-0.2912720393982021,5.732367264730321,2.0788545414906303,0.0213661789894104,-0.18956102430820465,0.011987868696451187,-1.3957515724003315,-0.4195426931977273,-9.91466983795166
41.9,7.099999904632568,66.0,22.32155990600586,19.903289794921875,-79.78267053841559,40.45912003981061,314.3672423095703,-0.12882938981056213,0.1285741925239563,-0.5812311768531799,0.7931216359138489,-0.4116647756107198,6.070251837478365,2.20716392975217,-0.08746348321437836,-0.04723503440618515,0.00043763555004261434,-1.493399781435728,0.07214956138283014,-9.741984602808953
42.1,7.699999809265138,65.0,22.324064254760746,19.99871063232422,-79.78266325276195,40.45912203686887,314.35783526611334,-0.12921079993247986,0.13121943175792694,-0.5798695087432861,0.7936230301856995,-0.2963422003589654,6.268410872556684,2.227959404919853,0.14356842637062073,-0.007899672724306583,0.03814997896552087,-1.437750368267298,-0.3218568061664701,-9.480878942012787
42.2,8.0,64.0,22.29526710510254,21.636775970458984,-79.78265582222322,40.459125452366024,314.33036181640625,-0.13035839796066284,0.1333623081445694,-0.5758826732635498,0.7959776520729065,-0.3604630450154021,6.4492292379113865,2.2661213782661838,0.2271947264671325,0.018173255026340485,0.023799331858754158,-1.7533395074307918,-0.4004609627276659,-9.370554261803626
42.4,8.600000381469728,61.0,22.21513557434082,22.074125289916992,-79.7826402421959,40.45912978513628,314.2855887145996,-0.13170574605464935,0.13587729632854462,-0.5753500461578369,0.7957155704498291,-0.2715505320872616,6.82123953289704,2.343485267686873,-0.1580638438463211,-0.17595861852169034,-0.2130603939294815,-1.6568282894790174,-0.06334157153964043,-9.18157751441002
42.5,8.899999618530273,59.0,22.15253257751465,24.133634567260746,-79.78263220000504,40.45913363012559,314.24985263061524,-0.13351444900035858,0.13554146885871887,-0.5714905858039856,0.7982487082481384,-0.3419670915349549,7.007077870093203,2.41003635551763,0.03704456612467767,-0.04094786569476128,0.0442783460021019,-1.6564502669870855,-0.2919763464666903,-9.45137096822262
42.7,9.5,58.0,22.160045623779297,22.821590423583984,-79.78261533025756,40.45914019964489,314.1890196533203,-0.13620932400226593,0.1319608986377716,-0.5660355687141418,0.8022700548171997,-0.3319718683234725,7.373045986642883,2.563237560503082,0.0188274122774601,0.12172383815050125,-0.11804614961147307,-1.7948208247125148,-0.05703893087804316,-9.659987928271292
42.8,9.800000190734863,58.0,22.1062068939209,26.002300262451172,-79.7825977159023,40.459145302776825,314.12387606811524,-0.13426427543163302,0.12867961823940274,-0.5663855671882629,0.8028836846351624,-0.2090268103972159,7.7106244097992525,2.674740037004473,-0.008216272108256817,0.1037239506840706,0.1071631833910942,-1.7596767197549343,-0.652517545670271,-9.904887446165086
43.0,10.199999809265137,57.0,22.022319793701172,24.78567886352539,-79.7825884472253,40.45914998247135,314.09524295043946,-0.1343456506729126,0.1263183206319809,-0.5638504028320312,0.8050265312194824,-0.34004104665707,7.911060503251027,2.760512900300345,-0.0852290540933609,0.1490919589996338,-0.11172709614038467,-1.9613906031847,-0.3298236009478569,-10.093143231868744
43.1,10.5,58.0,22.18508720397949,22.89315795898437,-79.78257915381234,40.45915276570664,314.0694365234375,-0.13666056096553802,0.12436922639608385,-0.5645326972007751,0.8044619560241699,-0.27034310785132804,8.065063966631518,2.8338947873910967,0.00013613751798402518,0.012953978031873705,0.31880396604537964,-1.9529347984492784,-0.540855863057077,-10.114376810789107
43.2,10.899999618530273,58.0,22.143768310546875,21.756053924560547,-79.7825696712595,40.45915558642985,314.0455221862793,-0.13794660568237305,0.12672702968120575,-0.5655648112297058,0.8031485080718994,-0.2670322362111203,8.215333878363651,2.9087250614735134,0.005521997809410095,0.04994221404194832,-0.30238962173461914,-1.9343307124078275,0.07920386161655188,-9.7855416816473
43.41,11.100000381469727,58.0,22.12123107910156,22.20135307312012,-79.7825393976282,40.45916777471817,313.91618869018555,-0.14536772668361664,0.13770079612731936,-0.5604985952377319,0.8035845160484314,-0.4468678197956968,8.650999944093606,3.2294026685106774,0.06146923452615737,-0.156760111451149,0.35332757234573364,-2.3513506244122984,-0.2620580991357565,-9.475895360112188
43.5,11.399999618530273,57.0,22.138761520385746,25.024232864379893,-79.7825292175783,40.459170931750506,313.8854460449219,-0.14906267821788788,0.14124447107315066,-0.5612406134605408,0.8017725944519043,-0.3865247898967629,8.787473584217413,3.3300975240197634,0.032410338521003716,-0.05703768879175186,-0.013219963759183884,-2.2861069536209118,-0.5445856922864915,-9.369843240380288
43.7,11.600000381469727,55.0,21.93968391418457,27.07579040527344,-79.78251814716981,40.45917534590347,313.83605334472657,-0.15532498061656952,0.13697101175785065,-0.559054434299469,0.8028519749641418,-0.4998419430412165,8.935521016678852,3.505843057668192,-0.1834966540336609,-0.035677492618560784,-0.15286624431610107,-2.436828584969044,-0.551226557828486,-9.663439539670943
43.9,12.0,55.0,22.053621292114254,23.60086441040039,-79.78249678836805,40.45918206488062,313.7785734863281,-0.1728167086839676,0.12420374900102615,-0.557320773601532,0.8025593161582947,-0.3868991828480301,9.207925302482751,3.8033730526813896,-0.02027424797415733,0.015163578093051909,-0.18320459127426147,-2.4888758209347728,0.058634270578622825,-9.71291633963585
44.0,12.100000381469727,55.0,21.984758377075195,26.39988899230957,-79.78248540415053,40.459186447265466,313.7267508239746,-0.1800263375043869,0.12147409468889235,-0.5545652508735657,0.8033007383346558,-0.4644575593932226,9.35500000528838,3.9182228534759584,-0.13892890512943268,-0.03922082856297493,0.13076354563236234,-2.56704636991024,-0.2469413655996323,-9.441096240878103
44.2,12.399999618530273,56.0,21.948448181152344,26.29651641845703,-79.78246265696593,40.45919505936958,313.642858001709,-0.1702984869480133,0.11362263560295105,-0.5524564981460571,0.8080099821090698,-0.5122752066735949,9.613380075579443,4.125149705644152,0.22428356111049647,0.5507655739784241,-0.17040535807609558,-2.8664004224538804,0.06182685032486916,-9.50369945526123
44.31,12.5,56.0,22.017311096191406,25.127605438232425,-79.78245130762609,40.45919890395525,313.60937258911133,-0.14195729792118073,0.10805326700210573,-0.5553290247917175,0.8122699856758118,-0.4922256023651359,9.804178665590584,3.9685865428549048,0.215349942445755,0.657336950302124,-0.06692136824131012,-2.9623526465892787,-0.1202364781871438,-10.016413729190827
44.4,12.800000190734865,55.0,21.987262725830078,25.708086013793945,-79.78243985151697,40.45920279622314,313.5849661560058,-0.11193112283945084,0.09831541031599043,-0.5577776432037354,0.8165106773376465,-0.5311976837538053,10.053794539077453,3.560170770291043,0.0764237642288208,0.6075761914253235,-0.13043826818466187,-2.6783425650000567,-0.34305347453802826,-10.568987302780153
44.61,13.0,55.0,22.2276554107666,21.65267944335937,-79.78241600290882,40.45921129026394,313.54850909423834,-0.07851177453994751,0.08099353313446045,-0.5596688985824585,0.8210034966468811,-0.5508812920797348,10.348180089331573,2.7572524460866275,0.028193056583404538,0.24875856935977936,-0.01993294432759285,-2.7104817858338364,-0.11700581844896076,-10.96767268538475
44.81,13.100000381469727,63.0,22.08993148803711,23.78375625610352,-79.78239204717161,40.45921926886089,313.56431338500977,-0.06244353577494621,0.08218102902173996,-0.562094509601593,0.8206075429916382,-0.5160370609096843,10.379943142496124,2.382839793542046,0.27243515849113464,0.0569746233522892,0.030333366245031364,-2.565335474610329,-0.3359905862063169,-10.231083726882934
44.9,13.199999809265135,65.0,22.32155990600586,18.495826721191406,-79.78238056580936,40.45922311085289,313.59326312255865,-0.059083525091409676,0.08646897971630096,-0.5637402534484863,0.8192858695983887,-0.5200319790569651,10.319885970646254,2.3575702001224537,0.2104289382696152,0.20852158963680267,0.1544850915670395,-2.6566388699412347,-0.2331943423300981,-10.258973776102069
45.1,13.399999618530273,65.0,22.324064254760746,19.33076286315918,-79.78235696966513,40.45923091630976,313.6454786987305,-0.03830351680517197,0.0652039647102356,-0.5653085708618164,0.8214059472084045,-0.4990780465897647,10.173201194254686,2.2120233482575142,0.04510985314846039,0.2850460410118103,0.28575214743614197,-2.8067629158496863,-0.6363027781248093,-9.930804644823077
45.21,13.399999618530273,65.0,22.473058700561523,17.756311416625977,-79.7823334847876,40.45923847476721,313.6973547668457,-0.006537985522300005,0.0380147360265255,-0.565489649772644,0.8238528966903687,-0.36625154848953057,10.078163648852463,1.3955924333282148,-0.006180816795676947,0.4267047941684723,-0.08528904616832733,-2.8048771888017656,-0.046210161577910185,-9.869627566337586
45.41,13.399999618530273,72.0,22.47430992126465,16.754386901855472,-79.78232253756404,40.45924198969967,313.74311968994135,0.007901968434453009,0.027994249016046524,-0.5654205083847046,0.8242896795272827,-0.3381808387345226,9.9342572091577,0.9858424176908844,-0.17752185463905334,0.2899515926837921,-0.0808653011918068,-2.0930418330430984,-0.1176455769315362,-10.022545119524002
45.5,13.399999618530273,80.0,22.52313995361328,17.501853942871097,-79.78231078111575,40.45924582421985,313.75634143066407,0.0186647828668356,0.016280803829431534,-0.5646088719367981,0.82498699426651,-0.3124390136567994,9.806487025716633,0.6386642596526133,-0.22198228538036344,0.35627865791320795,-0.14273399114608765,-2.1219789724051954,0.0287537195160985,-10.181498168706897
45.61,13.199999809265135,80.0,22.53065299987793,16.094390869140625,-79.78228865091273,40.459252867722995,313.82216403198237,0.028542038053274155,-0.005199729464948177,-0.5605822801589966,0.8275904655456543,-0.2002552350892184,9.414411207258793,0.13188011138444536,-0.05606547743082047,0.40668749809265137,-0.2286424636840821,-1.8026799210906037,0.22166794538497925,-10.265811510086062
45.8,13.100000381469727,80.0,22.49684715270996,15.704753875732422,-79.78227854821883,40.45925609651057,313.87111422729487,0.02635546401143074,-0.010559198446571829,-0.5582408905029297,0.8291929364204407,-0.1831569746677381,9.18805883675576,-0.007025159204618632,-0.2849797010421753,-0.21926863491535187,-0.1525365263223648,-2.061426815092564,0.07022341545671225,-9.884928560256958
45.9,12.800000190734865,90.0,22.56320571899414,14.79029941558838,-79.78226870826549,40.459259267413,313.91948458862305,0.020891498774290085,-0.013182070106267927,-0.5560315251350403,0.8307941555976868,-0.13189249020218066,8.961323063217614,-0.007550840767548889,0.046449754387140274,-0.11334095895290375,0.08908238261938095,-1.8750874543190004,-0.3810108576714993,-9.860514096021653
46.1,12.600000381469727,88.0,22.473058700561523,16.444269180297848,-79.78224818841655,40.459265752711175,313.9992651672364,0.015631347894668586,-0.012435409240424631,-0.5522836446762085,0.8334170579910278,-0.09304082389785964,8.595701152416902,0.05923373353283998,-0.08557016402482986,-0.1014414131641388,0.25508582592010504,-1.6936327113211156,-0.3965771690011025,-9.721969583630562
46.3,12.199999809265135,89.0,22.56946563720703,15.927403450012207,-79.78222855816162,40.459271672710415,314.1195959777832,0.0098784314468503,-0.012209629639983177,-0.5512284636497498,0.8342065811157227,-0.03841921029482477,8.269864997318006,0.07752593487481743,-0.07018032670021057,-0.02885784581303596,-0.17714853584766388,-1.4964485196769242,-0.07109607584774494,-9.547820205688476
