time,wind_speed,wind_angle,battery_voltage,battery_current,position_x,position_y,position_z,orientation_x,orientation_y,orientation_z,orientation_w,velocity_x,velocity_y,velocity_z,angular_x,angular_y,angular_z,linear_acceleration_x,linear_acceleration_y,linear_acceleration_z
0.0,1.5,199.0,23.4221134185791,0.10337305814027786,-79.78278865226756,40.45904235468209,269.3410050287247,0.0031835127156227827,0.009535223245620728,-0.7298077344894409,0.6835785508155823,0.0042220451084965215,0.003485599409502755,0.008336335120825437,-0.0004525010008364916,0.003593774745240808,-0.008844196796417236,-0.09096940054558217,-0.1711552380770445,-9.803397324085237
0.2,1.5,198.0,23.42336463928223,0.11132483184337616,-79.78278857808931,40.45904232548673,269.3337192847729,0.003177965991199017,0.0095268152654171,-0.729811429977417,0.6835747957229614,-0.0012190250113293802,0.001892709702976048,0.008691034687944358,-0.001234750379808247,0.005294847767800093,-0.004160330630838871,-0.0969615540560335,-0.17362418834120036,-9.805095355510712
0.3,1.600000023841858,197.0,23.42461585998535,0.10337305814027786,-79.78278857546253,40.459042326164386,269.334584371686,0.003177965991199017,0.0095268152654171,-0.729811429977417,0.6835747957229614,-0.0010736224430885012,0.0021970741368617626,0.00859642911698302,0.0032834443263709545,-0.004785633645951748,-0.002754354383796453,-0.09474422592669726,-0.1696843344345689,-9.804410061836244
0.5,1.600000023841858,200.0,23.420860290527344,0.12722837924957275,-79.78278845844123,40.459042265658496,269.3252483471632,0.003173245582729578,0.009542571380734444,-0.7298128604888916,0.6835730671882629,0.002294999701482207,0.008671635193815717,0.005781991571126028,-0.005153290927410126,0.0016565647674724462,-0.0056361122988164425,-0.09633051157929004,-0.1763397631980479,-9.803844051361084
0.61,1.600000023841858,198.0,23.40834045410156,0.11132483184337616,-79.7827884483782,40.45904226276585,269.32582558834554,0.003173245582729578,0.009542571380734444,-0.7298128604888916,0.6835730671882629,0.0027054236142335475,0.00884611178500137,0.005952128009644271,0.0011149862548336387,0.00038723339093849063,0.003310398664325476,-0.0954583080019802,-0.17375717595219614,-9.80485737383366
0.8,1.7000000476837158,197.0,23.4221134185791,0.04771064221858978,-79.78278837324001,40.4590422040584,269.3184297993183,0.003179490100592375,0.009544548578560352,-0.729816198348999,0.6835693717002869,0.004432961362418907,0.007297590672875437,0.006811022268982783,0.0013495521852746606,-0.002401334699243307,1.7948042341231483e-06,-0.09358638586476446,-0.17683226320892573,-9.804018298387527
0.91,1.7000000476837158,193.0,23.42586898803711,0.09542128443717957,-79.7827883651341,40.45904219948567,269.3191007241011,0.003178741317242384,0.009544027969241142,-0.7298173308372498,0.6835682392120361,0.004732180567542025,0.007100804611268905,0.006987762680501575,-1.3168310943001414e-05,0.0025325901806354523,0.002030245261266828,-0.09454311825335028,-0.17728562342002988,-9.803911879062653
1.1,1.7999999523162842,188.0,23.420860290527344,0.02385532110929489,-79.78278830269205,40.45904213920065,269.3096102192402,0.003183999098837376,0.00954502634704113,-0.7298171520233154,0.6835683584213257,0.0067598327876792685,0.005618583717378867,0.004745377674277134,-0.0006680033402517438,-0.002214564010500908,0.006131082307547331,-0.09060474442318082,-0.1696437693759799,-9.804339310526847
1.2,1.7999999523162842,187.0,23.42461585998535,0.039758868515491486,-79.78278825172269,40.45904212455921,269.29929858589173,0.003178310580551625,0.009533021599054337,-0.7298195958137512,0.6835659146308899,-0.0006387294211518608,0.002819244980565208,0.002474379137062469,-0.00013903003127779812,0.003351785708218813,-0.0003900467418134213,-0.09168380239047112,-0.1741775542125106,-9.803784994482994
1.4,1.7999999523162842,186.0,23.427120208740234,0.03180709481239319,-79.78278824472144,40.45904212506297,269.2998131378889,0.003177994629368186,0.009532889351248741,-0.7298219203948975,0.6835634708404541,-0.00039731593559123456,0.002746046095889796,0.002723441704561059,-0.00225225230678916,0.002003898611292243,0.0011111584026366472,-0.09499819608405233,-0.1705317604355514,-9.805248552560807
1.5,1.7999999523162842,186.0,23.427120208740234,0.039758868515491486,-79.78278819596638,40.45904210255439,269.29190436148644,0.003174618585035205,0.009527753107249737,-0.7298232316970825,0.683562159538269,-0.004271709947265782,0.0017585029130948722,0.00511481264737621,-0.0034129854757338762,-0.001888860948383808,-0.008044361136853695,-0.0911721162032336,-0.17066611848771573,-9.804318845272064
1.7,1.7999999523162842,185.0,23.427120208740234,0.04771064221858978,-79.78278813567115,40.45904205666577,269.2835762366056,0.003176846308633685,0.009535823948681356,-0.7298251390457153,0.6835600137710571,-0.0010813547511010948,0.0034345071996390386,0.006079206436238343,-3.9824510167818516e-05,0.002561766654253006,-0.00430433452129364,-0.09559452985413372,-0.17225413089618088,-9.805237442851068
1.8,1.7000000476837158,183.0,23.42586898803711,0.02385532110929489,-79.7827881312461,40.459042057345854,269.28418329501153,0.003176846308633685,0.009535823948681356,-0.7298251390457153,0.6835600137710571,-0.0013361417305224484,0.003788594716846821,0.006066872568849187,-0.0003999269101768732,-0.0011103375582024457,-0.0004229923069942743,-0.09234076447784904,-0.16939206501469015,-9.80461705327034
2.0,1.7000000476837158,181.0,23.41960906982422,0.04771064221858978,-79.78278807242592,40.459042007361695,269.27564643466474,0.003177632577717304,0.009542418643832208,-0.7298280000686646,0.6835567951202393,0.0015387394508684813,0.0051557236437707755,0.006923990593335531,-0.0005524643929675221,0.0038054687902331352,-0.0011401238152757287,-0.09692175644449892,-0.1751348347775638,-9.803951640129089
2.11,1.7000000476837158,175.0,23.427120208740234,0.039758868515491486,-79.78278806608873,40.45904200543953,269.27633142614366,0.003177632577717304,0.009542418643832208,-0.7298280000686646,0.6835567951202393,0.0014554925046537145,0.0056403925385343215,0.006935478737999642,-0.0005257339216768743,-0.004960622172802687,0.00026443586102686817,-0.094238862041384,-0.17118845757097007,-9.804935141801836
2.3,1.7000000476837158,179.0,23.41960906982422,0.0,-79.78278800778362,40.45904194948113,269.2676539286375,0.0031799622811377053,0.00955071859061718,-0.7298307418823242,0.6835538744926453,0.004319507759144053,0.00704189551807515,0.007656536520271144,-0.0013699121773242948,0.003020277479663491,-0.005399417597800493,-0.0965842076484114,-0.17652658173814414,-9.803293828368187
2.4,1.7000000476837158,179.0,23.42962455749512,0.03180709481239319,-79.78278799961936,40.459041944933354,269.268401743412,0.003180403960868716,0.009550445713102821,-0.7298324108123779,0.683552086353302,0.004322760840649836,0.0074178393904578985,0.007561469608170366,0.000211706617847085,-0.003756564809009433,0.0003318208910059184,-0.09468846724368632,-0.1704894412122667,-9.803887320756912
2.6,1.600000023841858,180.0,23.42336463928223,0.015903547406196594,-79.78278794672384,40.45904188852972,269.2593170567751,0.0031814181711524725,0.009555278345942496,-0.7298330664634705,0.6835513114929199,0.006404451938455153,0.008239453521876794,0.008081102761514084,-0.002334556076675653,0.0008848502766340971,-0.002043063286691904,-0.09797921625897288,-0.17560606554150582,-9.803628289103507
2.7,1.600000023841858,179.0,23.4221134185791,0.039758868515491486,-79.78278791317855,40.459041845782544,269.24930983924867,0.0031809373758733273,0.009557903744280338,-0.7298353910446167,0.6835487484931946,0.007297541101407449,0.00949790639934625,0.008242636680676822,-0.0005170950898900628,-0.003336495952680707,0.0001293120440095663,-0.0940044343750924,-0.1718239037320018,-9.80499478340149
2.9,1.600000023841858,177.0,23.43212890625,0.02385532110929489,-79.78278789238492,40.45904183087593,269.2509412407279,0.003182140178978443,0.00955876801162958,-0.7298378348350525,0.6835461258888245,0.007482903566498894,0.009092598846573369,0.008470174969567175,0.0008575716055929661,0.0011278049787506461,-0.006742385216057301,-0.09480481769889594,-0.17758805237710476,-9.804135242700575
3.0,1.600000023841858,179.0,23.417104721069336,0.03180709481239319,-79.7827879165952,40.45904182974793,269.240671397686,0.0031833755783736697,0.009539784863591194,-0.7298383116722107,0.6835458874702454,0.0007899027686784487,0.0013530393849604733,0.008555226814077265,-0.0013432669220492244,-0.0019835499115288253,0.0010479133343324065,-0.09470011599361897,-0.17159153172746305,-9.80571574509144
3.2,1.600000023841858,182.0,23.42586898803711,0.039758868515491486,-79.78278788794861,40.45904178480295,269.23069886261226,0.003183445427566767,0.009546778164803982,-0.7298423647880554,0.683541476726532,0.003284526797416207,0.0037497843682761647,0.008688615933543168,-0.0013689844636246562,0.001139514148235321,-0.0046800319105386725,-0.09360966509208084,-0.17751521799713374,-9.803520700335502
3.3,1.600000023841858,187.0,23.41960906982422,0.015903547406196594,-79.78278788357838,40.459041781253035,269.2315629734993,0.003183445427566767,0.009546778164803982,-0.7298423647880554,0.683541476726532,0.003681152019387292,0.003975545005338639,0.00875727752875922,0.001171192736364901,-0.0014594451058655975,0.007487056776881219,-0.09722445948980747,-0.17312352050095794,-9.804946251511574
3.5,1.7000000476837158,187.0,23.42461585998535,0.015903547406196594,-79.78278782717976,40.459041749038064,269.2234226181506,0.003175737569108605,0.009552689269185066,-0.729844868183136,0.6835387945175171,0.0022016601291396935,0.008753847140894055,0.011696463583774607,0.0005223840125836432,-0.005519759841263293,-0.0026641655713319787,-0.09285962264053524,-0.1787684590369463,-9.803146478533746
3.61,1.7999999523162842,189.0,23.427120208740234,0.02385532110929489,-79.78278781692207,40.45904174621089,269.2245813100934,0.003175737569108605,0.009552689269185066,-0.729844868183136,0.6835387945175171,0.0026730619911674424,0.008850977365734182,0.011739682331609758,0.0015845175366848707,0.0008007539436221122,0.007146748714148998,-0.097911982415244,-0.1733678792975843,-9.8049222779274
3.8,1.7999999523162842,188.0,23.427120208740234,0.03180709481239319,-79.78278777215216,40.459041720441974,269.2161815553308,0.0031732430215924983,0.009555604308843613,-0.7298482656478882,0.683535099029541,0.0019637608925341396,0.011277996571392692,0.013236886248614792,0.0014021897222846744,-0.004118417855352163,-0.0014491365291178224,-0.0903186145797372,-0.17513973182067274,-9.804806503057481
3.9,1.8999999761581416,186.0,23.427120208740234,0.02385532110929489,-79.78278775890087,40.459041717852614,269.21749510759116,0.003172817174345255,0.009555411525070669,-0.7298498749732971,0.683533251285553,0.0021129284146329773,0.01119813613013414,0.01337157826560491,0.0019239208195358515,0.001116537139751017,0.0008468860178254545,-0.09523935718461872,-0.17655861351639032,-9.804103083014489
4.1,2.0,187.0,23.41960906982422,0.02385532110929489,-79.78278776292257,40.459041716846436,269.20959716433293,0.003172887023538351,0.009545119479298592,-0.7298508286476135,0.6835324764251709,-0.0019009750350487038,0.00696412266344325,0.015372460357725937,0.00028867810033261776,0.00031922609196044505,0.005088852718472482,-0.09130935218185186,-0.16989543719217182,-9.803772715330123
4.2,2.0999999046325684,191.0,23.41209602355957,0.02385532110929489,-79.7827877683982,40.45904167241085,269.1993809580207,0.003182151122018695,0.009548483416438104,-0.7298548817634583,0.6835280656814575,0.002029668299037536,0.004509859033832135,0.016537534883225864,-0.0020490195602178574,0.00250790105201304,-0.004270324483513832,-0.0926779752317816,-0.17540631003677845,-9.803330665826797
4.4,2.0,192.0,23.42837333679199,0.03180709481239319,-79.78278775755516,40.45904166744735,269.202679009676,0.00318179652094841,0.009548438712954521,-0.7298554778099059,0.6835274696350098,0.002316095037501184,0.004446644551062465,0.016723502907214142,0.00015558663289994,0.003449794137850404,0.0017712761182338,-0.09483847573399544,-0.1714827004261315,-9.804167987108233
4.5,2.200000047683716,194.0,23.417104721069336,0.03180709481239319,-79.78278774490609,40.459041627505066,269.1899210042656,0.0031830444931983948,0.009553801268339157,-0.7298553586006165,0.6835274696350098,0.0044709334786426115,0.006357190077392454,0.014066193456075895,0.002004516776651144,-0.004520112182945013,-0.0052169342525303355,-0.0930742885451764,-0.16929633513092995,-9.804607113003732
4.7,2.200000047683716,192.0,23.42461585998535,0.007951773703098297,-79.7827877475617,40.459041604089066,269.17858797454835,0.003184839151799679,0.009549342095851898,-0.7298576831817627,0.683525025844574,0.0030592068881392467,0.004038141928773711,0.012338265494141422,-0.003790934570133686,0.0012753023765981195,-0.005856827832758428,-0.09778873407281936,-0.1762566596455872,-9.802977494001393
4.8,2.299999952316284,189.0,23.42461585998535,0.03180709481239319,-79.78278774280074,40.459041600711714,269.1798157296479,0.003184839151799679,0.009549342095851898,-0.7298576831817627,0.683525025844574,0.003394511013957307,0.0043675178788858396,0.01237653705238202,-0.000592399388551712,-0.004881466273218393,0.005967269651591778,-0.09582838193513453,-0.17374381871894004,-9.805342692732813
5.0,2.299999952316284,189.0,23.420860290527344,0.02385532110929489,-79.78278773286209,40.45904156427077,269.1677962667644,0.003184874774888158,0.00955413468182087,-0.7298602461814879,0.6835222244262695,0.005186872854730339,0.005931474840564162,0.011340096815539788,-0.0004288172349333763,-0.0061700819060206405,-0.0007046804530546067,-0.09229225086048247,-0.17527021609246732,-9.804381410479547
5.1,2.4000000953674316,189.0,23.41960906982422,0.03180709481239319,-79.78278772632746,40.45904155901796,269.16892424927653,0.003184874774888158,0.00955413468182087,-0.7298602461814879,0.6835222244262695,0.005377516873141991,0.005626961056487343,0.01151827311429671,-0.0002984912134706973,0.0051335925236344355,0.0030655106529593468,-0.095072382632643,-0.17786288978531958,-9.803818323612212
5.3,2.4000000953674316,190.0,23.417104721069336,0.015903547406196594,-79.78278774597706,40.459041520906574,269.1560198213309,0.003189697628840804,0.009553082287311554,-0.7298614382743835,0.683521032333374,0.007498653819769349,0.003894841522436275,0.01043344724560012,0.003161545377224684,-0.0004041169595438987,0.003859649412333965,-0.09260722392238677,-0.16902054755017162,-9.803563385009769
5.41,2.4000000953674316,193.0,23.42461585998535,0.03180709481239319,-79.78278774187385,40.459041514042646,269.15704726570846,0.003189915092661977,0.009552611969411371,-0.7298641204833984,0.6835181713104248,0.007179792703158609,0.003792277789824283,0.010463269733852452,0.0003092347178608178,0.003053901251405477,-0.00343464850448072,-0.09255406907759607,-0.17438617190346126,-9.803832941651343
5.6,2.4000000953674316,194.0,23.417104721069336,0.02385532110929489,-79.78278776855983,40.45904150569536,269.1435689707622,0.003188660833984613,0.009546805173158646,-0.7298644781112671,0.6835178732872009,0.004487373399607531,0.0021467288434860424,0.009829687296973763,-0.000962930149398744,0.0028228790033608675,0.002430276479572057,-0.09415081576444208,-0.16931373059749605,-9.80514856517315
5.71,2.4000000953674316,197.0,23.42461585998535,0.039758868515491486,-79.7827877951348,40.459041495658326,269.12725689405204,0.003188489004969597,0.009543904103338718,-0.7298658490180969,0.6835164427757263,0.0026257279658364148,0.0010262601201005991,0.0061723027219866035,-0.001218374352902174,-0.002290956676006317,-0.004520277958363296,-0.09204740784130992,-0.1693415779620409,-9.804985427856446
5.91,2.5,194.0,23.41835594177246,0.039758868515491486,-79.78278779272938,40.45904148994469,269.1284941793755,0.0031883413903415203,0.009545122273266315,-0.7298688292503357,0.6835132241249084,0.002785867039986066,0.0008520335006939666,0.006326272912627968,-0.003221702296286821,0.0020105945877730846,-0.0071702245622873315,-0.09721736974082887,-0.17553555177524688,-9.804870822429658
6.0,2.5,196.0,23.42336463928223,0.03180709481239319,-79.78278782253194,40.45904148404265,269.11211170585455,0.0031879993621259928,0.009543032385408878,-0.7298687100410461,0.6835134029388428,0.00209703207503591,0.000692680573172233,0.003434722223039813,0.0006061159656383097,-0.0037715944927185774,0.0022161093074828386,-0.09486347258090973,-0.17029321230947972,-9.804921693205834
6.2,2.4000000953674316,196.0,23.41835594177246,0.015903547406196594,-79.78278783956107,40.459041474887,269.0962272002697,0.003184379078447819,0.009544218890368937,-0.7298708558082581,0.6835111379623413,0.001178370345600547,0.0030382176904280877,0.0018361355600457672,0.001856060465797782,-0.0030636489391326904,-0.0027815019711852074,-0.09405091973952948,-0.17644185192883016,-9.804267974495886
6.31,2.4000000953674316,200.0,23.42461585998535,0.03180709481239319,-79.78278783616409,40.45904147346778,269.0964136286974,0.003184379078447819,0.009544218890368937,-0.7298708558082581,0.6835111379623413,0.0015121336629563516,0.002955423994195129,0.0019887905449021987,0.0013072139117866757,0.0009267160203307867,0.00154708547051996,-0.09590425869449974,-0.17710843451321126,-9.804846848845482
6.5,2.4000000953674316,204.0,23.42461585998535,0.02385532110929489,-79.78278785201196,40.45904145161834,269.07999693372847,0.003185461275279522,0.0095498189330101,-0.7298726439476013,0.683509111404419,0.004092772744033468,0.0050691909457265824,0.000638992145120707,0.002260965993627906,-0.0007675648084841669,0.005403385031968354,-0.09219007076695562,-0.16882472064346074,-9.804227043986321
6.61,2.4000000953674316,207.0,23.4221134185791,0.02385532110929489,-79.7827878463726,40.45904144777776,269.0800550631583,0.003185461275279522,0.0095498189330101,-0.7298726439476013,0.683509111404419,0.003742644365855826,0.004929236259852165,0.0007856021527402249,-0.004080846905708313,0.0021697692573070526,-0.0025655326899141073,-0.09275334949605167,-0.17383954860270026,-9.805300592780114
6.8,2.299999952316284,207.0,23.42586898803711,0.02385532110929489,-79.78278788667949,40.45904144019832,269.06374837601186,0.003186688525602221,0.009545745328068731,-0.7298759818077087,0.6835055947303772,0.003105560412676022,0.003084656942520114,0.00013166663505681324,-0.001680936198681593,0.0009771659970283508,0.0003341131377965212,-0.09395222056657077,-0.17253348162397744,-9.804715871214867
6.9,2.4000000953674316,198.0,23.42586898803711,0.015903547406196594,-79.7827878831272,40.459041437297614,269.0637375950217,0.003187332767993212,0.009546255692839622,-0.7298790216445923,0.6835023164749146,0.002891864351170501,0.003347373916580464,-5.9010013244775095e-05,0.0008720512269064784,-0.0021818270906805988,-0.00020879355724900958,-0.0937302090972662,-0.16852375349029902,-9.805207037329676
7.1,2.4000000953674316,199.0,23.417104721069336,0.02385532110929489,-79.78278790156813,40.45904143735881,269.04716225111486,0.003183279884979129,0.00954718142747879,-0.7298794984817505,0.6835017800331116,0.0013189023173978192,0.005574289869960778,-0.0005496980588487238,0.0011760657653212547,-0.0010564381955191493,-0.003436562605202198,-0.09308550789020956,-0.17894533731043338,-9.804363868832588
7.2,2.299999952316284,198.0,23.4033317565918,0.2862638533115387,-79.78278795217487,40.45904142292323,269.03056460762025,0.0031885439530014987,0.009548025205731392,-0.7298820018768309,0.6834990382194519,0.004860223485674582,0.003861743999960215,-0.0010279814864286526,-0.0021345415152609357,-0.0007874806760810318,0.003959745168685913,-0.09862044568173588,-0.17453874768689276,-9.80496671676636
7.4,2.299999952316284,198.0,23.404582977294922,0.3339745104312897,-79.78278794400077,40.459041414528436,269.03033246242995,0.003202306805178523,0.009538921527564527,-0.7298203110694885,0.6835650205612183,0.003639875402661534,0.0035104923378213486,-0.0007332799889680652,-0.000245890230871737,-0.006167585961520672,-0.015447751618921757,-0.0900314980186522,-0.1772695070318878,-9.805635638237
7.51,2.200000047683716,198.0,23.400827407836914,0.3180709481239319,-79.78278807792753,40.459041412777225,269.015595504582,0.003223311621695757,0.009545591659843922,-0.7298005223274231,0.6835858821868896,0.0047409261726610715,-0.010466974836315372,0.002558723957423234,-0.0028140745125710964,0.005845587700605393,0.014760659076273441,-0.09306041054427623,-0.16906887844204904,-9.795095447301863
7.7,2.0999999046325684,198.0,23.410844802856445,0.3180709481239319,-79.78278813029037,40.45904141460546,268.9994781776667,0.003215002128854394,0.009560329839587213,-0.7297638654708862,0.6836249828338623,0.0041678061406850335,-0.006101364249513629,0.0013178240743496436,0.002697547897696495,0.004052779637277125,0.004865365102887154,-0.09028431700542568,-0.1818438021093607,-9.806717957854273
7.8,2.0999999046325684,199.0,23.407087326049805,0.326022744178772,-79.78278813773154,40.459041412060365,268.9996109321117,0.0032090817112475642,0.009542843326926231,-0.7298569679260254,0.683525800704956,0.002952604789829055,-0.0065765366329170365,0.0014471127540268715,-3.9971542719285935e-05,0.0006837341934442519,-0.006739720236510038,-0.09625650775618852,-0.1743192212842405,-9.804661492109297
8.0,2.0,201.0,23.40583610534668,0.3498780429363251,-79.78278817171534,40.459041387256825,268.984756739378,0.003217147896066308,0.009522411972284315,-0.7298099994659424,0.6835761070251465,0.008066507327592341,-0.00018406520141557494,0.0028618575810016593,0.0005811948794871569,0.0014020175440236926,0.004064333625137806,-0.09903414532542228,-0.1753733646310866,-9.800853785276411
8.1,2.0,196.0,23.39581871032715,0.3896369338035584,-79.78278817237168,40.45904138074476,268.98503318572045,0.0032168964389711627,0.00951961800456047,-0.7297896146774292,0.6835979819297789,0.007347328559635877,0.0004595797589269285,0.0029478371464446056,-0.001141101005487144,-0.0011947436723858118,-0.011464845389127731,-0.08544332494027912,-0.1654501463100314,-9.805750243663786
8.3,2.0,199.0,23.39832305908203,0.4293957948684693,-79.78278821432998,40.45904136978234,268.9705187394619,0.003212966024875641,0.00952199101448059,-0.7298343181610107,0.6835502982139587,0.0075642762281141265,0.0013834376817947473,0.004293031918574341,0.0015563365304842591,0.005518948193639517,-0.007428187411278486,-0.08579868947155772,-0.15896172864362598,-9.802441304326056
8.4,2.0,200.0,22.157541275024414,18.797992706298828,-79.78278821254858,40.459041362480136,268.97092209899427,0.0032203083392232656,0.009513585828244686,-0.7298230528831482,0.6835623383522034,0.007776335308604564,0.0016074159096119555,0.004243677835540933,0.0022548518609255552,0.003984668292105198,0.009680657647550106,-0.08935711305588484,-0.17136506175622346,-9.803936437368394
8.6,2.0,200.0,23.400827407836914,0.3896369338035584,-79.78278827363367,40.4590413981001,268.95733381950856,0.003477434394881129,0.0095360754057765,-0.729745626449585,0.6836434006690979,-0.004666328824882706,0.001201333052720768,0.005727340236808242,-0.0029414379969239235,0.02144597098231316,-0.03442839533090592,-0.08546427441760898,-0.132558854771778,-9.799158677458763
8.71,2.0,202.0,23.4033317565918,0.2624085247516632,-79.78278835839005,40.4590413966527,268.94268174612523,0.003478605998679995,0.009525070898234844,-0.7297288775444031,0.6836614608764648,0.002193538975247209,-0.005213607762829269,0.00677043517254722,0.008101553656160831,0.004660417791455984,0.008247543126344679,-0.10037920592352748,-0.2127925846539438,-9.79337753534317
8.9,1.8999999761581416,200.0,23.35074615478516,0.9303575754165648,-79.78278836906865,40.45904139472785,268.9440439953804,0.0035644876770675187,0.009554339572787285,-0.7297512888908386,0.6836367249488831,0.002369986029171437,-0.005812280677760949,0.00616939341966071,0.03922649100422858,0.023068418726325042,-0.026019386947155,-0.06714087756816298,-0.16232146566733718,-9.823976014852525
9.0,2.0,198.0,23.394567489624023,0.37373337149620056,-79.78278841332839,40.459041391377355,268.9312501266003,0.003524266881868243,0.009544914588332176,-0.729742705821991,0.6836461424827576,0.0008054336733825322,-0.0030933892563486877,0.009895216193359823,-0.004571893252432346,0.032695602625608444,-0.029712677001953125,-0.058411162756383424,-0.1574496386758983,-9.805380114912987
9.2,2.0,199.0,23.402080535888672,0.3101191818714142,-79.7827884662471,40.459041393912756,268.91921147847177,0.0034362799488008022,0.009545094333589077,-0.7298381924629211,0.6835446953773499,0.00520168719618109,0.001344986562146406,0.012228923736302877,0.01837883144617081,-0.004985210951417685,-0.03727028891444206,-0.07767779314890504,-0.14669603350572288,-9.800398871898652
9.3,2.0999999046325684,195.0,23.328208923339844,2.3537251949310303,-79.78278846410589,40.459041391619685,268.92042239153386,0.003417270723730325,0.009533112868666649,-0.7298179864883423,0.6835665702819824,-0.0012948326269057973,0.003205426205614252,0.012029167850831484,-0.014557408168911934,-0.0258164182305336,-0.011428960599005222,-0.096661272123456,-0.1706804807111621,-9.785615356564524
9.5,2.200000047683716,194.0,23.185474395751953,4.818775177001953,-79.78278849163023,40.45904138915646,268.90864259147645,0.0034225345589220524,0.009550781920552255,-0.7298381328582764,0.6835448145866394,0.005797812145198056,0.008434881299724264,0.013579274325154328,0.002066250890493393,-0.04030865803360939,-0.02252549864351749,-0.07077957245986909,-0.1956007473729551,-9.804645119905473
9.6,2.200000047683716,191.0,23.13288879394531,5.812746524810791,-79.7827884842987,40.459041384317494,268.91002749049665,0.0034790080972015853,0.009538637474179268,-0.7298251986503601,0.6835584044456482,0.005626878488162797,0.007644279336347114,0.013602714597099108,0.02216115780174732,-8.838146459311248e-05,0.0114838108420372,-0.06991499310359359,-0.17436698572710158,-9.803793765306473
9.8,2.200000047683716,191.0,22.993911743164066,7.88815975189209,-79.78278861200353,40.45904142039021,268.8953470453024,0.0037144930101931095,0.009621076285839079,-0.7297569513320923,0.6836289167404175,0.0044325453998895255,-0.007820885577130609,0.01375436370479692,0.050427891314029694,0.05427417904138565,-0.02783915586769581,-0.10250251265242696,-0.2357194075919688,-9.8088744109869
9.91,2.200000047683716,189.0,22.953845977783203,9.009360313415527,-79.78278861775534,40.459041419480656,268.8967069550753,0.004051079973578453,0.00979069247841835,-0.7297651171684265,0.6836158633232117,0.00031075492500734297,-0.005102605510815282,0.014299397218578124,0.012913108803331852,0.023253733292222026,-0.04873863607645035,-0.04180475967004897,-0.008370106481015683,-9.819499386548996
10.1,2.200000047683716,186.0,22.81236457824707,12.062841415405273,-79.7827886769761,40.4590414018132,268.883125187397,0.004981392063200474,0.010624119080603123,-0.7297737598419191,0.6835880875587463,0.002514179987967892,0.0012897585892650038,0.014005832218334622,-0.008209601044654844,-0.03567289933562279,0.06339415907859802,-0.10612106205895544,-0.26907325956970457,-9.815490535497666
10.2,2.200000047683716,185.0,22.71846008300781,13.438497543334961,-79.78278873835069,40.45904141773885,268.8690365269184,0.005693527404218912,0.011282708495855331,-0.7298541069030762,0.6834861040115356,0.0063670400806374785,0.0036247488896003406,0.010965269465623928,0.021552015095949173,-0.003102079499512911,0.010180662386119366,-0.07516306101344526,-0.2729066027887166,-9.799841632246972
10.4,2.200000047683716,184.0,22.5494327545166,16.873664855957028,-79.78278873471058,40.45904140321926,268.8716743900776,0.007621126249432564,0.01286273542791605,-0.7298275828361511,0.6834677457809448,0.0170013988376434,-0.0026246100290031275,0.015682099809270232,0.08607440441846848,0.07038404047489166,-0.006613964214920998,-0.08416818425059319,-0.13064877041615547,-9.793133706450462
10.5,2.200000047683716,184.0,22.469301223754886,18.360645294189453,-79.78278879053858,40.45904140985801,268.8586446955204,0.007998515851795673,0.013609930872917177,-0.7296944260597229,0.6835911870002747,0.00992975902163736,0.002858449010369671,0.01577477794975264,-0.0180595014244318,-0.0757250040769577,0.057790759950876236,-0.25197581827640536,-0.4503026289492846,-9.769926692247394
10.7,2.200000047683716,181.0,22.276485443115234,21.8355712890625,-79.78278883870617,40.45904141240041,268.8491444303989,0.005997633095830679,0.013458962552249432,-0.7288708686828613,0.6844927072525024,-0.00017080369580101476,0.02399703187680593,0.04227932874903955,-0.030735231935977936,-0.08645488321781157,-0.02262725494801998,-0.0010425654030404986,-0.3102266942337156,-9.829858313798905
10.8,2.200000047683716,180.0,22.17506980895996,23.720142364501953,-79.78278881242001,40.459041417581844,268.85426908874507,0.0023508688900619745,0.012662812136113644,-0.7282655835151672,0.6851740479469299,-0.022316132532591227,0.032143731423504816,0.05598891150233698,-0.12112797796726227,-0.10109511017799376,-0.007794251665472984,-0.011813449552282692,-0.3468411912024021,-9.875784684419633
11.0,2.200000047683716,180.0,21.99352264404297,27.20301818847656,-79.78278882800507,40.45904142842886,268.85103660964967,-0.00893167220056057,0.0020213623065501447,-0.7255309820175171,0.6881285905838013,-0.07011730659150438,0.058249532825224215,0.16898741926109406,-0.27868208289146423,0.011142847128212452,-0.014286129735410212,0.10199452665634454,-0.4540871296450496,-10.164623104333876
11.1,2.200000047683716,179.0,22.13625717163086,23.61676788330078,-79.78278872687659,40.45904150088591,268.8727675392628,-0.0187043845653534,-0.006355481687933207,-0.7231844663619995,0.6903724074363708,-0.10522717316193417,0.0898540294173963,0.28002760917959585,-0.2146839052438736,-0.01475311350077391,0.0187350083142519,0.04343862704001367,-0.22361148677766324,-10.885989421606064
11.3,2.200000047683716,175.0,22.250192642211914,20.94497299194336,-79.78278856478462,40.45904156139825,268.9132754817009,-0.006426903884857893,-0.009280726313591005,-0.7216336131095886,0.6921831965446472,-0.1464982818198202,0.10780849789591833,0.4026572127078742,0.2139776796102524,0.1055670827627182,-0.02035941556096077,0.0050485956296324715,-0.01117537557031028,-10.702716633081435
11.41,2.200000047683716,175.0,22.309040069580078,20.420154571533203,-79.78278841109794,40.45904172991944,268.9539332106113,0.002141595119610429,-0.006422532722353935,-0.7223326563835144,0.6915126442909241,-0.19438798630793425,0.13100917540301454,0.4155317250881705,0.25627776980400085,0.0336141511797905,-0.015998825430870056,0.2501354985125363,-0.00384578111465089,-10.005956568717956
11.6,2.299999952316284,175.0,22.11622428894043,24.09387588500977,-79.78278821078965,40.45904237210454,268.9826365425587,0.015813011676073074,0.00466478057205677,-0.7246968150138855,0.6888706684112549,-0.2296339572124776,0.10421619229976968,0.27320425790110403,0.2195811867713928,0.11213261634111404,0.010067081078886986,0.14142088567838074,-0.17241904065012933,-9.498569692969324
11.7,2.299999952316284,179.0,22.158794403076172,22.86930084228516,-79.78278807632672,40.45904257336297,269.00801505291463,0.021574808284640312,0.0077046346850693235,-0.7261413335800171,0.6871637105941772,-0.2266964474289861,0.10042486313756904,0.2280951812966108,0.15959560871124268,-0.02734274603426456,0.1327364295721054,0.015688709998503327,-0.3048679586313665,-9.412581709027293
11.9,2.299999952316284,184.0,22.031084060668945,25.04808807373047,-79.7827881705973,40.459043179997096,268.9764079465866,0.022020338103175163,0.0063059134408831605,-0.7288594245910645,0.6842802166938782,-0.196827947839506,0.05997890763099732,0.14369357280674064,-0.05313560739159584,-0.03234226629137993,0.061157140880823135,0.09786562495864927,-0.36871197044849396,-9.645894384384157
12.0,2.4000000953674316,184.0,22.06614112854004,23.688335418701172,-79.78278806108392,40.45904355174288,269.00364129388333,0.0197982769459486,0.005244113504886627,-0.7295818328857422,0.683586835861206,-0.1989374559055785,0.0677072372812425,0.2018514788584886,-0.01808956079185009,-0.04674384742975235,0.04232212528586388,0.011954349176958205,-0.2144802007265389,-10.072713060379026
12.2,2.4000000953674316,184.0,22.09368705749512,23.51339530944824,-79.78278799711696,40.45904394658958,269.043380954802,0.01932903192937374,0.004318208899348974,-0.7292082905769348,0.6840052008628845,-0.19085965822336368,0.0401506072074153,0.2816712425888931,-0.08726611733436583,-0.016601862385869026,0.02271874248981476,0.09655157287605108,-0.11967408567667008,-10.171459668874741
12.3,2.299999952316284,183.0,22.04986572265625,24.03821182250977,-79.7827879515635,40.459044100816214,269.0732693313956,0.01677347905933857,0.004032463300973177,-0.7274406552314758,0.6859537363052368,-0.18278507299487406,0.0297830550744501,0.30420551430426884,-0.1196216344833374,0.009699433110654354,-0.013149133883416651,0.008792056180536748,-0.20442112600430848,-10.073903553485867
12.5,2.299999952316284,189.0,22.17381858825684,21.54135513305664,-79.78278840268702,40.45904451314159,269.1216154652983,0.007285119034349918,0.005578364711254835,-0.7218814492225647,0.6919559836387634,-0.210584619179532,-0.008151091744959982,0.32776870113995793,0.05120610073208809,-0.040989913046360016,-0.16510991752147675,0.09920280095189812,-0.18989868884906166,-10.053977411985398
12.6,2.4000000953674316,191.0,22.04110145568848,24.006404876708984,-79.78278839334078,40.45904469963868,269.15500071787835,0.004584729205816984,0.008156630210578442,-0.7189892530441284,0.6949582099914551,-0.2146403469780035,0.0007539440348030003,0.33089939458183026,0.031179990619421005,-0.0073208482936024675,-0.13748173415660858,-0.05320815495215357,-0.2332300286181271,-9.811806789636613
12.8,2.5,191.0,22.43424415588379,11.076821327209473,-79.78278837884919,40.459045005544034,269.2167052268386,0.012942292727530004,0.008106202818453312,-0.7159031629562378,0.6980326175689697,-0.2173066124188051,0.02785625849483037,0.3213076798736572,0.07186131924390793,0.10834736377000807,-0.08351479470729828,-0.07305465554818512,-0.4241266544535756,-9.849487416744232
12.9,2.5,183.0,22.24894142150879,22.74207305908203,-79.78278833674892,40.459045192099104,269.2466624467969,0.017424190416932106,0.007965699769556522,-0.7163878679275513,0.6974392533302307,-0.21333702089783574,0.0372329398216244,0.2284876512105179,0.012455529533326626,0.020643355324864388,0.07450556755065918,0.10564417594112456,-0.2823783064261079,-8.859956679940225
13.1,2.5999999046325684,187.0,21.938432693481445,26.09772109985352,-79.78278844632906,40.45904544006112,269.27405806028844,0.0270537156611681,0.014666647650301456,-0.7153462767601013,0.6980922222137451,-0.17950481630411233,0.031193578191518207,0.07971415172749134,0.05294127017259598,-0.008857235312461853,-0.05729816854000092,0.08280486937612297,-0.24672998875379565,-8.639859296679495
13.2,2.5999999046325684,188.0,21.80070686340332,29.15915489196777,-79.78278848939486,40.45904565035737,269.289500908494,0.02574409916996956,0.014269376173615456,-0.7147330045700073,0.6987777948379517,-0.19199064117041406,0.025374820427764025,0.14582745540485192,-0.08323342353105545,0.014903791248798369,-0.14540964365005493,0.07682841198518872,-0.29112559486180545,-9.959522659778596
13.4,2.5999999046325684,188.0,21.62541961669922,31.425411224365234,-79.78278842175406,40.45904592805286,269.3417718424797,0.01844373345375061,0.01256201323121786,-0.7147780060768127,0.6989952921867371,-0.16080435202041293,0.03627174123887116,0.4048214884107533,-0.07141294330358505,-0.05565262958407402,0.02010698989033699,0.017119953073561192,-0.4079342890530825,-10.619874451160433
13.5,2.700000047683716,190.0,21.650461196899414,30.05770492553711,-79.78278832043657,40.4590461624049,269.4007364227772,0.016923381015658382,0.013010242022573948,-0.7150042057037354,0.6987943053245544,-0.1494869347201303,0.05929059356479297,0.616785049402409,-0.021437112241983414,-0.002503067720681429,0.09209193289279938,0.07183278847485781,-0.4569998835772276,-11.567544386386876
13.7,2.700000047683716,191.0,21.572834014892575,33.254318237304695,-79.78278820882977,40.45904636820517,269.541398198843,0.01930460520088673,0.0048733395524323,-0.7148274779319763,0.699017345905304,-0.16657238776916045,0.058812107753494526,0.981274894012488,-0.1159394308924675,0.06645102053880693,7.125945700181546e-08,0.016786917597055438,-0.3529180562496185,-11.696358547210696
13.81,2.799999952316284,192.0,21.491451263427734,33.84275054931641,-79.78278815285911,40.45904647677137,269.65042007112504,0.019750474020838737,0.003088486148044467,-0.714664876461029,0.699181318283081,-0.15862757412122144,0.06622556610411379,1.1868998055746571,0.04508171230554581,-0.02777281403541565,0.03579261153936386,0.11268595034256575,-0.2909006780572236,-11.794005879163745
14.0,2.9000000953674316,192.0,21.32367515563965,36.1726188659668,-79.78278813151945,40.45904672217559,269.9125205888748,0.023336265236139297,0.014168902300298212,-0.71490478515625,0.6986887454986572,-0.15675787100831598,0.06625273159836541,1.5880296044857642,0.16133129596710205,-0.057464350014925,0.04154565557837486,0.13441678013652564,-0.3676988307014108,-11.79305161356926
14.1,2.9000000953674316,194.0,21.417579650878906,34.733348846435554,-79.78278808327667,40.45904680240808,270.0835833563805,0.025695309042930603,0.02006655000150204,-0.7153687477111816,0.6979861855506897,-0.17390289347937107,0.06426243218445749,1.8164330812510512,0.08890525251626967,-0.08166409283876419,0.03409963101148605,0.06425660597160457,-0.5794076887518168,-11.988219977617266
14.3,2.9000000953674316,194.0,21.17968940734864,39.408992767333984,-79.78278811165413,40.45904696091785,270.4572491064072,0.027627376839518547,0.01384130772203207,-0.7159041166305542,0.6975144743919373,-0.16315666840212778,0.05312056940440082,2.2306778604608892,-0.1573963314294815,0.10056376457214357,-0.011403445154428482,0.054784769858233634,-0.3849673030525446,-11.920967642068865
14.41,2.9000000953674316,195.0,21.308650970458984,36.7371940612793,-79.78278806522648,40.459046957428185,270.6929425611496,0.024510467424988747,0.009409118443727492,-0.7164551019668579,0.6971390843391418,-0.1320880373041209,0.08709221815041651,2.477103033925303,-0.1543503999710083,-0.01832996122539044,-0.035587310791015625,0.2767469809390605,-0.4603438331186772,-12.285501776933673
14.6,2.9000000953674316,196.0,21.417579650878906,33.27022171020508,-79.7827880438552,40.45904693170489,271.1757147922516,0.010411035269498823,0.008168566972017288,-0.7195737957954407,0.6942898631095886,-0.0356963631514401,0.10480754111993026,2.8577385262645127,0.0030271888244897127,-0.16133560240268707,-0.06260580569505693,0.3197645627707243,-0.2258576033078134,-12.144395599365234
14.71,3.0,196.0,21.511484146118164,31.377700805664066,-79.78278808501804,40.459046949925366,271.39327985191346,0.004101259633898735,0.008629169315099716,-0.7213929295539856,0.6924601793289185,-0.03469822002631828,0.08073522050377288,2.9455737610906363,-0.12537133693695068,-0.12029298394918445,-0.02295832149684429,0.30807787902653216,-0.14632867304608227,-11.349457275867465
14.9,3.0,192.0,21.314910888671875,23.93483924865723,-79.7827878627763,40.45904688869752,272.0039153709412,-0.0003046585770789534,0.0029055525083094835,-0.722790002822876,0.6910616159439087,-0.01364660596113833,0.1045115958443481,3.1361727630788074,0.02431553043425083,0.07696940749883653,-0.10052931308746338,0.23619144234806305,-0.3966885584592819,-11.027488532066343
15.0,3.0999999046325684,194.0,21.088289260864254,26.622539520263672,-79.78278782892673,40.45904691315766,272.23543769264217,0.004344811663031578,0.002345107961446047,-0.7224807739257812,0.6913734674453735,-0.007687193903788469,0.11126514145226757,3.0912126880481123,0.19247014820575714,0.08608227968215942,-0.08359958976507187,0.2034907060861588,-0.2181011072918773,-10.101736299991607
15.2,3.0999999046325684,194.0,21.456392288208008,32.22058868408203,-79.78278770739044,40.45904702296951,272.76578718566896,0.015528012067079544,0.0005433223559521139,-0.7199225425720215,0.6938804984092712,-0.08118293438828447,0.16946105669675438,2.9658946972515428,-0.04122118279337883,0.031535714864730835,-0.06987001746892929,0.2452185931429267,-0.22818687820807104,-9.676554259657859
15.3,3.0999999046325684,200.0,21.589111328125,29.930477142333984,-79.78278755293707,40.45904703973493,273.06344467544557,0.015371983870863913,-0.002510206308215857,-0.7187035083770752,0.6951422095298767,-0.08857457157319197,0.19141428709857988,2.9873881912802647,0.0810379907488823,0.038426473736763,-0.08539298921823503,0.2775308915600181,-0.21957107903435827,-9.931857143640519
15.5,3.0999999046325684,201.0,21.670494079589844,28.10951995849609,-79.78278740980883,40.45904712785168,273.6014104499817,0.016382420435547832,-0.006289955228567122,-0.7167282700538635,0.6971317529678345,-0.07200637040023741,0.1945204524119148,2.9884468851315766,0.009407940320670605,0.01262807659804821,0.038819570094347,0.23887863993644715,-0.15695724830031396,-10.054405428171158
15.6,3.0,204.0,21.640443801879886,28.90469741821289,-79.78278728295922,40.45904715188965,273.90110260391236,0.016326796263456345,-0.007827488705515863,-0.7163246273994446,0.6975322365760803,-0.07722110069766842,0.19823861896330525,2.9915950493834007,-0.08157184720039368,0.04864221811294557,-0.00432043056935072,0.21818461284041407,-0.13070869524031878,-9.881330183744431
15.8,3.0999999046325684,207.0,21.749372482299805,27.099645614624023,-79.78278717322941,40.45904736191928,274.45033604049684,0.016234684735536575,-0.011263735592365265,-0.7166472077369691,0.6971559524536133,-0.07876810663708818,0.17778177313495502,2.936927904963913,0.04282651841640472,-0.010422715917229652,0.04504645243287087,0.298021307643503,-0.12807900136336686,-9.880040287971497
15.9,3.0999999046325684,213.0,21.70429992675781,27.84711265563965,-79.78278708950322,40.45904741233916,274.74283796691896,0.017153045162558556,-0.011565080843865871,-0.7170933485031128,0.6966700553894043,-0.07989122074623757,0.17816723371490198,2.9043007984169225,0.02423316240310669,0.006067120004445314,-0.016395213082432747,0.3470088601112366,-0.1508122631907463,-9.597647838592527
16.1,3.0,219.0,21.756885528564453,26.78952598571777,-79.78278715452495,40.45904765913839,275.1798573150635,0.022939104586839683,-0.0134074529632926,-0.7171100974082947,0.696453332901001,-0.11391190979708615,0.13828300722614684,2.7715259086580764,0.07352836430072784,0.12876802682876587,-0.0842384621500969,0.2484944957122207,-0.17182081567123533,-9.614800060987475
16.2,3.0,225.0,21.736852645874023,26.81338119506836,-79.78278693521709,40.45904761980211,275.57640367889405,0.025863777846097943,-0.015172535553574562,-0.7162525057792664,0.6971967816352844,-0.10460247533526053,0.14414076268472495,2.7702090839937408,-0.03926166146993637,0.06327061355113983,-0.032910972833633416,0.2822667159698904,-0.12770202040672302,-9.520177493691444
16.4,3.0,229.0,21.76189422607422,26.23290252685547,-79.7827869567212,40.459047728819115,276.1253429069519,0.02718712016940117,-0.01486912276595831,-0.7147840857505798,0.6986583471298218,-0.09427827868389016,0.1313745272644154,2.698227586388737,-0.03016666322946548,-0.08221516758203506,0.08288803696632385,0.3852412085607648,-0.19397567823529244,-9.494045117497443
16.5,2.9000000953674316,239.0,21.759389877319336,26.46350288391113,-79.78278634486828,40.45904777024303,276.60466104888917,0.026002204045653343,-0.014192156493663788,-0.7149470448493958,0.698550820350647,-0.09432932285982906,0.1310413560388903,2.742258120832481,0.05470017343759537,-0.06365468353033066,-0.020388830453157425,0.32205579422414304,-0.1759393751062453,-9.40143574655056
16.7,2.9000000953674316,245.0,21.725584030151367,27.99819564819336,-79.78278601992119,40.45904785717928,277.3062115325928,0.023955142125487328,-0.015862077474594116,-0.7160809636116028,0.6974257826805115,-0.0657207490468067,0.10332709679138999,2.7489419766249577,0.0793500617146492,0.0056631872430443755,-0.04599149152636528,0.3054220005869865,-0.1434787858184427,-9.49454271554947
16.8,2.9000000953674316,255.0,21.763145446777344,25.75579643249512,-79.78278608106669,40.45904788349651,277.5799914016724,0.024842491373419758,-0.01512913126498461,-0.7163015007972717,0.6971845030784607,-0.05576811983945376,0.09335344479412754,2.7270662683137394,0.03875809535384178,0.01908827573060989,-0.05789162591099739,0.42782436054199935,0.02437387633603066,-9.653798650503159
17.0,3.0,259.0,21.733097076416016,26.43169593811035,-79.78278597553424,40.45904787874074,278.2490721359253,0.027277957648038864,-0.01288641057908535,-0.7158369421958923,0.6976155042648315,-0.05023587046083625,0.06957945057606107,2.744280711691983,0.018921608105301857,0.053984660655260086,-0.007038682233542205,0.3485355315729976,-0.015618358401115985,-9.635988616347314
17.1,3.0,268.0,21.56532096862793,29.636260986328125,-79.78278608850431,40.459047870329314,278.5224638595581,0.027980787679553032,-0.014851206913590431,-0.7152182459831238,0.6981828808784485,-0.0383732272284552,0.048731554615843366,2.7254666214481045,-0.07473034411668777,0.03128122165799141,-0.03896879777312279,0.33798178240656856,-0.043280578628182416,-9.66366641163826
17.3,3.0,273.0,21.778169631958008,25.93073463439941,-79.7827860247264,40.45904778595264,279.1935854568481,0.02399100176990032,-0.020140038803219795,-0.7139751315116882,0.6994700431823729,0.005337094486965101,0.04049279343245925,2.7834521089012814,-0.04628131166100502,0.016130486503243446,-0.07937498390674591,0.3249723123013973,-0.10349029923789203,-9.814393597841264
17.4,3.0,280.0,21.679258346557614,27.64831733703613,-79.78278619432487,40.45904774502564,279.4707279815674,0.021843312308192253,-0.020881956443190568,-0.7135033607482909,0.6999998092651367,0.034680022846417725,0.017969757150726,2.765678332454188,-7.600358367199078e-05,-0.00016984366811811924,-0.014586224220693113,0.4402398631721735,0.08769149713218212,-9.630492233633996
17.6,3.0,283.0,21.713064193725586,26.471454620361328,-79.78278621293727,40.45904762375312,280.1642552032471,0.01884289085865021,-0.020198862999677655,-0.7132119536399841,0.7004039287567139,0.052932772877250615,-0.006312847589118993,2.810442856331873,-0.06707189977169037,-0.010385320521891115,0.010567386634647844,0.3760761000216008,0.06269294173456727,-9.707650921940807
17.7,3.0,284.0,21.640443801879886,28.196990966796875,-79.78278598665416,40.459047510755546,280.5807715072632,0.01652984879910946,-0.020452357828617096,-0.7132611274719238,0.7004050016403198,0.06672225493580232,-0.002511906273538659,2.864543173814404,-0.03141239285469055,0.0192363765090704,0.033087827265262604,0.3238839261978865,-0.02891043403185904,-9.62762826740742
17.9,3.0,283.0,21.67424964904785,26.185192108154297,-79.7827863995403,40.459047400278905,281.1532364501953,0.015771359205245968,-0.018445426598191258,-0.7137840390205383,0.699945330619812,0.07744728119940275,-0.04597389475331475,2.8652831468619704,0.06063249707221985,-0.030220957472920418,-0.03488009050488472,0.31922830000519753,0.008297130488790572,-9.759573027491571
18.0,3.0,286.0,21.659225463867188,26.78952598571777,-79.7827862766407,40.459047176364415,281.55833059692384,0.016276080161333084,-0.016843685880303383,-0.7142203450202942,0.6995289325714111,0.08402251785591522,-0.03843217965397665,2.9169122327897035,-0.007359529845416545,-0.06845082342624664,0.07390523701906204,0.3023701194673777,-0.08365169238299132,-9.687742322087287
18.2,3.0999999046325684,286.0,21.749372482299805,24.594837188720703,-79.78278654205998,40.459046885469796,282.22482878112794,0.014702499844133854,-0.011858437210321426,-0.7146103978157043,0.6992676854133606,0.0784670010652635,-0.05166671120729162,2.9386624837774056,0.011537699960172176,-0.015351244248449802,-0.05084150657057762,0.3525311898440123,-0.0007096235733479261,-9.621997398734091
18.3,3.0999999046325684,285.0,21.7205753326416,27.91867828369141,-79.78278675484725,40.45904681398389,282.51674562835694,0.01310600433498621,-0.01202267687767744,-0.7139483094215393,0.6999725103378296,0.06711393627960624,-0.07134836530500374,2.9047059328684632,-0.021535430103540417,0.0288563184440136,-0.0829189121723175,0.3657114351913333,0.008401151541620494,-9.436612595915797
18.51,3.0999999046325684,279.0,21.75062561035156,25.60471153259277,-79.78278720436435,40.45904668518057,283.1675005569458,0.013617468066513538,-0.017372680827975273,-0.7131370902061462,0.7006770372390747,0.0633232927889719,-0.06021467393218116,2.8771481021697016,0.016466114670038223,0.0721006989479065,-0.04663465544581413,0.5039467395097017,-0.08366570742800833,-9.464652333855632
18.6,3.2000000476837163,276.0,21.629175186157227,29.055782318115234,-79.78278740387783,40.459046643653004,283.4525795593262,0.014922013506293297,-0.01825076900422573,-0.7132736444473267,0.7004890441894531,0.05507204509737483,-0.044413952909562265,2.8311400535612896,0.056434590369462974,0.03232928737998009,-0.0805332362651825,0.44840707127004864,-0.09728667751885953,-9.404004428386687
18.8,3.2000000476837163,275.0,21.700542449951172,27.10759735107422,-79.7827877250281,40.45904637693711,284.09570795440675,0.018072055652737614,-0.00968980323523283,-0.7142788767814636,0.6995607614517212,0.03177093488210563,-0.014117074180379887,2.871711630179358,0.1362909972667694,-0.017529942095279694,-0.04744164645671845,0.45453999649733295,-0.08974150353111326,-9.615453194975851
18.9,3.299999952316284,275.0,21.666736602783203,26.07386589050293,-79.782787884565,40.45904634682748,284.38192659759517,0.02093564346432686,-0.004579804372042418,-0.7147013545036316,0.699101448059082,0.0027226451928882914,-0.014698808859514412,2.8584124123014885,0.1497662216424942,-0.00955953449010849,-0.04192491993308066,0.5847535056620836,-0.18305397475138308,-9.739375575184825
19.1,3.4000000953674316,274.0,21.457645416259766,30.55071449279785,-79.78278807934281,40.459046230210454,285.0003262176514,0.026748130097985268,-0.0043075107969343645,-0.7146216034889221,0.6989864706993103,-0.04371699839348141,0.01489763657310036,2.8539354687752296,-0.03966552764177322,0.07614317536354065,-0.026654835790395737,0.5529593801870942,-0.05347163597121835,-9.650789088606835
19.2,3.5,271.0,21.496458053588867,29.89071846008301,-79.78278821549931,40.45904620215251,285.3227253570557,0.02490121871232986,-0.00857317540794611,-0.7149424552917479,0.6986871957778931,-0.041638713468915206,0.054170550661148016,2.8835864706428667,-0.14759735763072968,0.0046797748655080795,0.04302198439836502,0.5630120229721071,-0.3276856761798263,-9.784295055270196
19.4,3.5,270.0,21.62541961669922,28.181087493896484,-79.78278837452744,40.459046110931375,285.90265089416505,0.01890280656516552,-0.01801626197993756,-0.7156734466552734,0.6979467868804932,0.02380554265446896,0.08121452485074004,2.9058333146309434,0.04906132072210312,-0.023848233744502068,-0.043995019048452384,0.613082534596324,-0.16910045340657234,-9.963316333293916
19.5,3.700000047683716,271.0,21.5352725982666,28.37988090515137,-79.78278846362524,40.45904615322042,286.21476560974116,0.02180212363600731,-0.016064750030636787,-0.7154985666275024,0.6980891823768616,0.02335802274486452,0.09142620814114176,2.901287086577447,0.13093902170658112,-0.04483399167656898,0.008205201476812363,0.5112780881300569,-0.2670561346225441,-9.734879651069642
19.7,3.700000047683716,269.0,21.5352725982666,29.19891357421875,-79.78278859137222,40.45904607584385,286.80335432434083,0.027179835364222527,-0.009630815126001837,-0.7147051692008972,0.6988312005996704,-0.035420972638212325,0.1008523558146876,2.897729965341993,-0.018347432836890217,0.026576315984129902,0.12772619724273682,0.5514725063368678,-0.1912417394667864,-9.851019387245179
19.8,3.799999952316284,269.0,21.5064754486084,28.149280548095703,-79.78278864862042,40.45904605591182,287.09387213134767,0.02652936428785324,-0.0076099070720374576,-0.7144949436187744,0.6990960836410522,-0.04716105192357587,0.1090383734340181,2.9114575518366164,-0.035407677292823785,-0.07146283239126205,-0.0288810133934021,0.6685892757028342,-0.1962550142593682,-9.952960914373397
20.0,3.9000000953674316,269.0,21.55280113220215,28.9444580078125,-79.78278882224201,40.45904604775679,287.68177229309083,0.02395365759730339,-0.0062007340602576715,-0.7143913507461548,0.6993087530136108,-0.05474784198629392,0.10245960956321196,2.92464030960523,-0.05162166804075241,-0.018433162942528725,-0.06545834243297577,0.5336619240045548,-0.2773016441613436,-9.882693754434586
20.1,4.0,274.0,21.550296783447266,28.69795227050781,-79.78278884590421,40.45904602279364,287.9741421356201,0.02429468184709549,-0.007942956872284412,-0.7144632935523987,0.6992059350013733,-0.05052429655811568,0.10938759178007436,2.91958479898696,-0.04323234781622887,0.05954619869589805,0.009560233913362026,0.5425414326041937,-0.13624950765632093,-9.736131539940834
20.3,4.0,273.0,21.448881149291992,30.87673759460449,-79.78278892835141,40.459045974937226,288.557664932251,0.026235898956656456,-0.013043802231550215,-0.7147903442382812,0.6987248063087463,-0.036307393434257804,0.14434012178840913,2.8780816060925,0.031768880784511566,0.06968648731708528,-0.06727992743253708,0.4966098360344768,-0.23541253840550785,-9.602385837435722
20.4,4.099999904632568,272.0,21.362489700317386,33.27022171020508,-79.78278892427137,40.45904595279685,288.846088470459,0.026857398450374603,-0.01387334056198597,-0.7147918343544006,0.6986836791038513,-0.025801764139706845,0.16587028703017426,2.8877290943034155,0.07635008543729782,0.005697513930499554,-0.004502671770751475,0.5961774301528932,-0.15840185774490234,-9.8660537481308
20.5,4.099999904632568,272.0,21.491451263427734,28.37988090515137,-79.7827889859615,40.45904592192016,289.14285475158687,0.02784617058932781,-0.013612790964543821,-0.7145450115203857,0.6989026069641113,-0.025894238131015646,0.1696820500392101,2.93350256650657,0.01677488163113594,0.03977814316749573,0.0024564736522734165,0.6538855017721653,-0.1734588583186269,-10.17892422437668
20.7,4.099999904632568,274.0,21.52525520324707,27.67217254638672,-79.78278901643519,40.459045929900775,289.72630125427247,0.029116185382008563,-0.013930413872003557,-0.7139579653739929,0.6994442343711853,-0.04563197943502237,0.17952570576205862,2.9451842998863698,-0.05776583403348923,-0.06407788395881653,0.04403271153569222,0.6211508882045746,-0.2495730329118669,-9.829546072483064
20.9,4.099999904632568,274.0,21.435108184814453,30.908544540405273,-79.78278900872418,40.45904588507656,290.31374365234376,0.029340254142880436,-0.014268567785620691,-0.7131060361862183,0.7002965807914734,-0.029835944901811406,0.1812734674348489,2.9199441634659724,0.057850852608680725,0.032953836023807526,-0.043138325214385986,0.5819004298746586,-0.1968686247244477,-9.740829192996024
21.0,4.199999809265137,274.0,21.38252258300781,30.741558074951172,-79.78278903349243,40.45904584291054,290.60488706970216,0.02948369458317757,-0.012954958714544771,-0.7129142284393309,0.7005113959312439,-0.031567247333098056,0.17662386088282792,2.9024162080381952,0.03742734715342522,0.0420880913734436,0.044194154441356666,0.4725629789382221,-0.12919812189415095,-9.702626409530641
21.1,4.199999809265137,275.0,21.47892951965332,29.66011619567871,-79.78278903245801,40.459045810217745,290.8965912475586,0.028910519555211067,-0.012585566379129888,-0.7128450870513916,0.7006124258041382,-0.023320301191721328,0.1776575350972435,2.923638392676671,0.04300214722752571,0.03117428347468376,-0.10857798159122467,0.6862694285809994,-0.07646030691917986,-9.948114742040637
21.3,4.199999809265137,277.0,21.388782501220703,28.77746963500977,-79.78278907013744,40.459045723056825,291.4873715057373,0.027695536613464355,-0.012596344575285913,-0.7130728960037231,0.7004294395446777,-0.024990235278771325,0.17598978284814662,2.9686015510793604,-0.03905626013875008,0.027941837906837463,0.07077230513095856,0.6178156363964081,-0.11345996637828648,-10.116067825555804
21.4,4.199999809265137,277.0,21.637939453125,26.59073257446289,-79.78278906344397,40.45904567956953,291.7865200653076,0.02732966467738152,-0.013335681520402431,-0.7133239507675171,0.7001744508743286,-0.010730116169190479,0.17829727424281228,2.999290658573549,-0.03310442715883255,-0.03960713744163513,0.04966321587562561,0.6007485640794039,-0.19334900289773946,-10.089494569301603
21.6,4.199999809265137,278.0,21.38627815246582,31.011919021606445,-79.78278908893462,40.459045562279755,292.37394529724116,0.028439534828066826,-0.016202978789806366,-0.7130714654922485,0.7003269791603088,-0.0058929369175286074,0.1759056219628271,2.9207478001950222,0.0399407185614109,-0.00619056448340416,-0.10081081837415697,0.5399966878071427,-0.1522692796960473,-9.459979823827744
21.8,4.099999904632568,278.0,21.510231018066406,28.610483169555664,-79.78278917423141,40.45904545794303,292.9680309906006,0.02501168474555016,-0.017656276002526283,-0.7126455903053284,0.7008559107780457,0.005431009453074037,0.17080115951248853,2.9164319467357336,0.0013011526316404345,0.014557486400008203,-0.03016580641269684,0.5988013681769372,-0.07692553971894085,-9.66091705083847
21.9,4.099999904632568,280.0,21.490198135375977,27.71988296508789,-79.78278919230479,40.45904541430421,293.25996214294435,0.02552582323551178,-0.01661539450287819,-0.7124569416046143,0.7010546326637268,0.017298590930531297,0.16075284813902935,2.9113870828615904,0.06143283098936081,-0.021242555230855945,-0.0564037524163723,0.5847355254739524,-0.1389768408983946,-9.790390192866326
22.0,4.099999904632568,279.0,21.547792434692386,27.87891960144043,-79.78278920856866,40.45904533863981,293.56127363586427,0.02760318852961064,-0.015675460919737816,-0.7123779654502869,0.7010777592658997,0.015779796572937863,0.15767139000457098,2.8987911707719025,0.05048583820462227,-0.03341904655098915,0.05919605866074563,0.6026476666331292,-0.3042142947390676,-9.672750645875931
22.2,4.099999904632568,279.0,21.496458053588867,28.841083526611328,-79.78278918299931,40.45904518704297,294.15466696166993,0.029160175472497937,-0.017091600224375725,-0.7128511667251587,0.7005003690719604,0.004113100625851546,0.17047012782430848,2.8618336536631994,-0.04636821523308754,-0.0019455784931778906,-0.09488087147474288,0.6324243930727244,-0.06240468313917516,-9.596105343103408
22.4,4.099999904632568,279.0,21.427595138549805,29.84300804138184,-79.78278922002518,40.459045087182105,294.72743994140626,0.026766024529933933,-0.019037408754229542,-0.7133830189704895,0.7000041604042053,0.015790883389253052,0.16894958622794365,2.8600043884006725,-0.05836290121078491,-0.008292298763990402,0.024459131062030792,0.6422127051651478,-0.10678919780999424,-9.710508456230164
22.5,4.099999904632568,281.0,21.433856964111328,28.87289047241211,-79.78278919048755,40.45904504830028,295.0346470489502,0.027054509148001667,-0.01795109733939171,-0.7136075496673584,0.6997929215431213,0.015516173051466927,0.17311586066246426,2.8794284736777658,-0.015012446790933609,-0.08472876250743866,0.10917668044567108,0.6177201806008816,-0.2771743758581579,-9.801640820503236
22.6,4.099999904632568,281.0,21.417579650878906,30.328065872192386,-79.78278921115539,40.459045006118906,295.32359510803224,0.028127456083893776,-0.016234496608376503,-0.7136499881744385,0.6997492909431458,0.009963435837612698,0.16505557306760205,2.8890756596087996,0.06388562172651291,-0.05584786087274552,0.08409986644983293,0.6031252014264464,-0.2033699062652886,-9.904333130121232
22.8,4.099999904632568,283.0,21.42884826660156,28.77746963500977,-79.78278918505477,40.45904482858652,295.92060667419435,0.030173467472195625,-0.014031309634447098,-0.7131181359291077,0.7002536654472351,-0.005879282175646653,0.1733008569751579,2.9167443128192585,-0.07034160941839218,-0.04663948714733124,0.06318020820617676,0.6182965698838234,-0.2359192361868918,-9.896607788801196
22.9,4.199999809265137,283.0,21.46014976501465,28.1015682220459,-79.78278920217527,40.459044768918716,296.2133064880371,0.02871400117874145,-0.015443725511431694,-0.7129703760147095,0.7004357576370239,0.0012543464277850642,0.1695242643104443,2.9282913147494147,-0.06641755253076552,-0.07577863335609436,0.10111434757709503,0.6242624109238386,-0.265605294238776,-9.901259833574297
23.11,4.300000190734863,281.0,21.451385498046875,27.79145050048828,-79.7827892331528,40.459044633040115,296.80606466674806,0.028352474793791767,-0.01750715635716915,-0.7125126719474792,0.7008675336837769,0.024508050193691858,0.18109888025365206,2.922218156358477,-0.016027338802814484,-0.00626319320872426,0.0076263099908828735,0.7659068246930838,-0.09779046082869172,-9.764808624386788
23.2,4.300000190734863,282.0,21.43886375427246,29.00012016296387,-79.78278925665543,40.45904450157556,297.1027336730957,0.02831842191517353,-0.01748928427696228,-0.7122464179992676,0.7011399865150452,0.032411572699531474,0.1852517126428777,2.9050705874914025,-0.0834617018699646,-0.010963574051856995,0.15073534846305847,0.6738041880726815,-0.2482259623333812,-9.640915480256082
23.41,4.300000190734863,282.0,21.50897979736328,27.9266300201416,-79.7827892668836,40.45904435735953,297.6817055358887,0.02791313081979752,-0.018713116645812992,-0.7123000621795654,0.7010701894760132,0.034671038839725644,0.17783998165219767,2.8767747755734154,-0.016878793016076088,-0.008673137985169888,0.08208207041025163,0.6718735836446286,-0.245915727429092,-9.669828792214394
23.6,4.300000190734863,282.0,21.375009536743164,29.866863250732425,-79.7827893210672,40.459044176165904,298.26234442138673,0.029920008033514026,-0.020311152562499046,-0.7124639749526978,0.7007763385772705,0.02830233630671484,0.18171858665350152,2.8420161144614244,0.036053799092769616,-0.00165808224119246,-0.02778936550021172,0.7138662399351597,-0.2974984386563301,-9.597243211269381
23.7,4.400000095367432,281.0,21.331188201904297,30.34396934509277,-79.78278929260965,40.45904405844559,298.5662918701172,0.028327427804470062,-0.01879298873245716,-0.7126998305320741,0.7006449103355408,0.028519138357506718,0.1927234115381608,2.87578343551383,-0.061592783778905875,-0.043394554406404495,0.01889466866850853,0.5985719380527735,-0.20832514744251968,-9.799383795261383
23.8,4.400000095367432,282.0,21.470165252685547,27.86301612854004,-79.78278930992342,40.459043995606095,298.8557205810547,0.026833750307559967,-0.016716312617063522,-0.7126503586769104,0.7008066773414612,0.027861996588024168,0.17739463820868367,2.9019790799716354,0.003114340594038368,-0.08567706495523453,0.008572487160563469,0.5642703437805177,-0.2292970269173384,-9.984135929346083
24.0,4.400000095367432,282.0,21.45889663696289,28.67409706115723,-79.7827893150772,40.459043830404006,299.4422970428467,0.027378270402550697,-0.01773095689713955,-0.7118402719497681,0.7015835642814636,0.01996658617395117,0.16545859024109713,2.882957497132232,0.006052808836102486,0.03724388778209686,-0.12538908421993256,0.7105499915778637,-0.051806166227906944,-9.659689720273018
24.1,4.400000095367432,282.0,21.268585205078125,31.98998641967773,-79.78278933102412,40.45904377572111,299.72996717834474,0.02744381316006184,-0.01893184706568718,-0.7113410830497742,0.7020557522773743,0.02164996649014336,0.16728546220707144,2.867501470465496,0.033878728747367866,0.07689768821001053,-0.0429622083902359,0.6193430753052235,-0.03990641085896642,-9.607712066173553
24.31,4.400000095367432,283.0,21.427595138549805,28.63433837890625,-79.7827893890383,40.45904364954346,300.31474882507325,0.027794213965535164,-0.01759721338748932,-0.7111319899559021,0.7022885680198669,0.020358894644567933,0.17390090842374814,2.918900779044728,-0.01936344988644123,-0.08943318575620651,0.10618844628334044,0.7134171006828547,-0.2753215942159295,-10.07907132267952
24.5,4.400000095367432,284.0,21.401302337646484,29.69987487792969,-79.78278942673248,40.459043447326096,300.9016533508301,0.025714324787259102,-0.015583447180688381,-0.7114344239234924,0.7021089792251587,0.020317095648233027,0.15998179830198647,2.9217555987099924,-0.014387569390237331,-0.016320662572979927,0.03449313342571258,0.5788469407707453,-0.09307668224908412,-9.913477005958557
24.6,4.300000190734863,284.0,21.46515655517578,28.06976127624512,-79.78278944488527,40.45904338509904,301.1935883178711,0.025199202820658684,-0.014937214553356169,-0.7113617062568665,0.7022154331207275,0.027866680027819425,0.1590322688011545,2.9137186635533925,-0.06273855268955231,-0.029776992276310917,-0.101275235414505,0.6057868905365468,-0.0260830129031092,-9.746612673997882
24.7,4.300000190734863,284.0,21.32617950439453,31.26637458801269,-79.78278950349466,40.459043305717145,301.4857674255371,0.024786094203591347,-0.01552219409495592,-0.7113252282142639,0.7022543549537659,0.028644826811420405,0.1514220478396643,2.8993669179869497,-0.017180679365992546,-0.0006097384612075982,-0.002787331817671657,0.5701424100995064,-0.12764322848059234,-9.691454719305039
24.9,4.300000190734863,282.0,21.294878005981445,31.011919021606445,-79.78278952485748,40.45904318268415,302.0679016723633,0.02335344068706036,-0.018932513892650604,-0.7111916542053223,0.7023550271987915,0.03610842253549437,0.16836823732746822,2.931940581554476,-0.01971257850527764,0.05607689544558525,0.028757544234395024,0.5964025845006109,-0.07926715772598983,-9.951455841064453
25.1,4.300000190734863,280.0,21.39253807067871,28.66614532470703,-79.78278957159856,40.45904304288814,302.66087728881837,0.02240881510078907,-0.02041884884238243,-0.7115112543106079,0.7020204663276672,0.037137536571858976,0.17207471890845125,2.968375364545079,-0.0465715117752552,-0.06955341249704361,0.13275033235549927,0.7736616213619709,-0.12963459827005866,-10.108634845018386
25.2,4.300000190734863,281.0,21.39379119873047,28.9444580078125,-79.78278962854318,40.4590429612961,302.95241552734376,0.02178364992141724,-0.02026910334825516,-0.7115805149078369,0.7019743323326111,0.03327399680976688,0.17049657759643155,2.9456722069149297,0.011702093295753002,-0.035055231302976615,0.012721783481538296,0.7417706879228354,-0.050118659790605306,-9.848665298223496
25.3,4.300000190734863,281.0,21.463905334472656,27.52108955383301,-79.78278963491199,40.45904292614419,303.24730307006837,0.021445108577609062,-0.019499490037560463,-0.7114980220794678,0.7020900845527649,0.025291130502381,0.17068089246199078,2.9460655510671394,-0.01787770725786686,0.04297712072730064,0.05299168825149536,0.6621541956067085,-0.112646828815341,-9.77120255470276
25.5,4.199999809265137,282.0,21.288618087768555,30.542762756347656,-79.78278975033106,40.459042854686864,303.83404547119136,0.021167226135730743,-0.01951864361763,-0.7110808491706848,0.702520489692688,0.012845919552268634,0.1628438472732862,2.9492559109061247,0.04788713902235031,-0.05367735028266907,0.03518469631671905,0.6270956792682411,-0.15774453934282065,-9.85564453482628
25.6,4.199999809265137,282.0,21.37250518798828,28.96831321716309,-79.78278975578421,40.459042839840116,304.1310997619629,0.02103626169264317,-0.018598953261971474,-0.7111787199974059,0.7024503350257874,0.009278552708272957,0.1696217060295211,2.9818845411012647,0.11036648601293564,-0.010838006623089314,-0.07631116360425949,0.6281460584700108,-0.040114950891584164,-9.967726303339003
25.81,4.199999809265137,283.0,21.38627815246582,28.80927658081055,-79.78278979701942,40.459042826404534,304.7268028869629,0.021616002544760704,-0.018024316057562828,-0.7111855149269104,0.7024408578872681,-0.0073034360737627485,0.17242085199457258,3.018000590360012,0.04928741976618767,0.06283789128065109,-0.07786533981561661,0.6191324293613434,0.01411575417034328,-10.035468635559084
26.0,4.199999809265137,284.0,21.351221084594727,30.137222290039066,-79.78278987263194,40.45904279483315,305.32871633911134,0.021469298750162125,-0.018523449078202248,-0.7117708921432495,0.7018392086029053,-0.007412855709719016,0.1835986234129267,3.0403412344389187,0.0837777704000473,0.046149078756570816,-0.11108797043561937,0.6320437393337488,-0.11822070540860295,-10.07532910466194
26.11,4.199999809265137,285.0,21.35622978210449,29.636260986328125,-79.7827898511679,40.45904279631007,305.6344605102538,0.020928246900439262,-0.02005408331751824,-0.7120026350021362,0.7015783190727234,-0.02472651698947113,0.19411857722893425,3.0637875796122818,-0.06270439922809601,0.07816225290298462,-0.018706563860178,0.5542662694305182,-0.10799163202755152,-9.95204173207283
26.2,4.199999809265137,286.0,21.38001823425293,29.00012016296387,-79.78278986196598,40.45904276259429,305.936061920166,0.018791614100337032,-0.022757094353437424,-0.7122347354888916,0.7013207674026489,-0.024026455381030036,0.1972550610071443,3.0552736803145586,-0.0012022712035104632,0.020326470956206318,-0.08103558421134949,0.6484153584390879,-0.03465770797803998,-9.855317090749741
26.4,4.199999809265137,287.0,21.43260383605957,28.39578437805176,-79.78278980819064,40.45904282028994,306.55043798828126,0.01901317946612835,-0.024584675207734108,-0.7123897075653076,0.7010955810546875,-0.0202754836118048,0.20770138540418573,3.0664941432618704,0.12085209041833878,0.04676017165184021,-0.15163563191890714,0.6339834069460629,0.08456270685419441,-9.71503946363926
26.6,4.199999809265137,287.0,21.54153251647949,25.994348526000977,-79.7827897557245,40.459042929721754,307.15711599731446,0.021529225632548332,-0.02275164425373077,-0.7119038701057434,0.7015780806541443,-0.06455863383604596,0.2158234824688656,3.004257161383169,-0.02228939346969128,0.056990895420312875,0.051366068422794335,0.6860477460175753,-0.049837011289782816,-9.723551840186119
26.7,4.300000190734863,288.0,21.411319732666016,28.316267013549805,-79.78278978275479,40.459042940724174,307.46959692382814,0.023839468136429787,-0.023285353556275368,-0.7114309072494507,0.7019655108451843,-0.07871696448166421,0.2008111236778748,2.969325824946933,-0.0027096057310700412,0.04121275991201402,0.06065278500318527,0.5774136785790325,-0.03535159888677298,-9.380109781622886
26.8,4.300000190734863,289.0,21.48644256591797,28.745662689208984,-79.78278976546567,40.45904301162084,307.76486975097663,0.026173010468482968,-0.0230706837028265,-0.7110991477966309,0.7022255063056946,-0.08909483247563266,0.2063400498500968,2.924431962001057,0.017149476334452633,0.05075935274362564,0.08331059664487839,0.5798776221647859,-0.1178424179647118,-9.271726961731911
27.0,4.300000190734863,290.0,21.48518943786621,28.403736114501953,-79.78278962453132,40.459043179434545,308.3703804626465,0.0254616029560566,-0.020462330430746082,-0.7111300826072693,0.7023013234138489,-0.11561923098445315,0.2153524962662952,2.8834905628317733,-0.06341985613107681,0.00042836449574679136,0.06499902904033661,0.514407846853137,-0.1194413116760552,-9.449413320422172
27.1,4.300000190734863,290.0,21.46014976501465,28.05385780334473,-79.78278960465474,40.459043261934006,308.658229888916,0.025947540998458862,-0.02086758241057396,-0.7109915018081665,0.702411949634552,-0.11684730491833055,0.19932436465477688,2.8593057889032107,-0.04497894272208214,-0.011575830169022085,-0.018216365948319442,0.5511427233740688,-0.01294690489768982,-9.52194920003414
27.31,4.300000190734863,291.0,21.47266960144043,26.94856262207031,-79.78278953109981,40.45904344958669,309.2561569824219,0.027493754401803017,-0.023023584857583046,-0.7109828591346741,0.7022943496704102,-0.10853342969291754,0.2174779779287707,2.856939337061041,0.05157310515642166,-0.04034021869301796,-0.022187134250998497,0.6748558098077775,-0.08238275522366166,-9.638023447394373
27.4,4.300000190734863,293.0,21.47892951965332,27.354103088378906,-79.78278951359351,40.4590435323336,309.54206091308595,0.027637243270874023,-0.022971440106630325,-0.7110525965690613,0.7022199630737305,-0.1084444539894673,0.21299335021687613,2.8377194936303884,0.02389692887663841,-0.010362738743424416,-0.040134496986866,0.6111603355407715,-0.0565827932395041,-9.640549444556235
27.6,4.300000190734863,293.0,21.38627815246582,29.016023635864247,-79.78278937008932,40.45904360182594,310.1486664428711,0.027321532368659973,-0.0221735518425703,-0.7106562256813049,0.702659010887146,-0.09939845779840796,0.2186727210682872,2.8572710034329063,0.009921948425471784,0.03176002576947212,-0.012057187035679815,0.6589573035389186,-0.02633525402052328,-9.651337557435037
27.8,4.300000190734863,294.0,21.37375831604004,29.16710662841797,-79.78278927138525,40.45904375187021,310.7513695373535,0.02804854698479176,-0.020226066932082176,-0.7108331918716431,0.7025100588798523,-0.0853632861022679,0.2126242165503089,2.9153649255359686,0.06945528090000153,0.015969948843121532,-0.08867142349481583,0.5835172580927611,0.05551488609518857,-9.749783619046212
27.9,4.300000190734863,295.0,21.415075302124023,28.83313179016113,-79.7827892577798,40.45904380346923,311.0443535461426,0.029039191082119938,-0.019284682348370552,-0.7112998962402344,0.7020236849784851,-0.08336547662265642,0.20670339853617808,2.9238970525650863,0.11361990123987198,-0.05765637382864953,-0.03157389536499977,0.6255865859985352,-0.06144083816092464,-9.87457197189331
28.0,4.300000190734863,296.0,21.39379119873047,28.268556594848643,-79.78278922578261,40.45904384397996,311.34301763916017,0.02846398390829563,-0.019866984337568283,-0.7116883397102356,0.7016372084617615,-0.09060350989405648,0.21240781028132605,2.9218463407813986,-0.0600959025323391,0.025703269988298416,-0.060657620429992676,0.7015781700611115,0.01926190693862736,-9.791340950131417
28.2,4.400000095367432,296.0,21.331188201904297,29.96228408813477,-79.78278918070559,40.45904392783033,311.93405157470704,0.02502143755555153,-0.023442722856998444,-0.712024450302124,0.7013170123100281,-0.053828754454152535,0.21556006573382508,2.955505998809456,-0.04630232602357864,-0.0009008658234961332,0.07158452272415161,0.6632004086673261,-0.06985796447843312,-10.041522842645646
28.3,4.400000095367432,297.0,21.2235107421875,29.69192314147949,-79.78278916964332,40.4590439570241,312.23207861328126,0.02386227995157241,-0.02406236156821251,-0.7119185328483582,0.7014439702033997,-0.04101416292409172,0.21314456686553893,2.986898497106882,0.003771411022171378,0.030687069520354267,0.005847261752933264,0.6940887638926506,0.026537273037247358,-10.091446369886398
28.5,4.400000095367432,297.0,21.652965545654297,23.56905746459961,-79.78278926747952,40.459044079071724,312.82009130859376,0.02306492440402508,-0.023927222937345505,-0.7117384076118469,0.7016580104827881,-0.03960845309117195,0.18315099137403326,2.968461072572719,0.02886820212006569,0.0025232946500182147,0.04753650352358818,0.6147352501004935,-0.1235232072416693,-9.63398886859417
28.7,4.400000095367432,296.0,21.733097076416016,20.73822593688965,-79.78278934125862,40.45904410625865,313.4078903808594,0.02841448225080967,-0.023030651733279228,-0.711330771446228,0.7019051313400269,-0.052489483880537605,0.1816654870045663,2.7906538671477383,0.10351508855819702,0.014886992052197456,-0.00044306452036835237,0.6502485336363316,-0.0958425979781896,-9.051483982801438
28.8,4.400000095367432,296.0,21.733097076416016,22.153642654418945,-79.78278936071568,40.45904414051454,313.6809921875,0.03286715596914292,-0.020739065483212468,-0.7110611796379089,0.7020553946495056,-0.04864897652405062,0.1726107780031006,2.6531345113966536,0.14247213304042816,0.026549270376563072,0.11393991112709045,0.5109426406770945,-0.16314155593514446,-8.477427738904954
28.91,4.400000095367432,296.0,21.75438117980957,21.318706512451172,-79.78278938703555,40.45904416964404,313.93927770996095,0.03732755407691002,-0.01877369359135628,-0.7109317183494568,0.7020187377929688,-0.07510301637250544,0.1645510464701982,2.5017164120131543,-0.04335366562008858,0.02268961630761624,0.10287390649318696,0.6145001189410687,-0.18965992145240307,-8.311305418610573
29.1,4.400000095367432,299.0,21.776918411254886,20.8177433013916,-79.78278949088848,40.45904415586988,314.4221611633301,0.03836985304951668,-0.01790725812315941,-0.7105090022087097,0.7024130821228027,-0.07159017664012225,0.1441830119058763,2.2305859359423454,-0.08942356705665587,0.01893802918493748,0.02556569129228592,0.6310171875357629,-0.05362131555564702,-8.424595806598662
29.3,4.300000190734863,298.0,21.65171241760254,23.354360580444336,-79.78278958506347,40.45904415640828,314.8544235839844,0.03503761440515518,-0.020070960745215416,-0.7100419998168945,0.7030006051063538,-0.026940673710245715,0.10249576716891964,1.9896173481413568,0.02365049906075001,0.08302468806505202,-0.2419957220554352,0.6156735089421272,-0.10123106301762164,-8.503543158173562
29.4,4.300000190734863,296.0,21.725584030151367,21.692440032958984,-79.78278965239718,40.45904413002501,315.04778677368165,0.033811796456575394,-0.022283602505922318,-0.7099249362945557,0.7031123042106628,-0.003427379093543424,0.08677524532397538,1.8772112098503075,-0.06676310300827026,-0.023488976061344147,-0.045568764209747314,0.6200854524224997,-0.15401876661926509,-8.609956635832786
29.5,4.199999809265137,296.0,21.709306716918945,22.86134910583496,-79.78278970559207,40.45904410419987,315.2499733581543,0.0330742746591568,-0.024374775588512417,-0.7099705934524536,0.7030318379402161,0.01111587138019744,0.07496186453994963,1.789074022852424,0.014351651072502138,0.01607551984488964,-0.017713747918605804,0.5835071716457606,-0.11223396057263016,-8.589835782051086
29.7,4.199999809265137,292.0,21.76439666748047,21.18352508544922,-79.78278978546872,40.45904404989218,315.6224671020508,0.03211493045091629,-0.02549353614449501,-0.7106875777244568,0.7023118138313293,0.03639292842709521,0.06250163803541511,1.6184877599497398,-0.006896127946674825,-0.08414255827665329,0.15999774634838104,0.6268625946342945,-0.21018733944743875,-8.741580383777617
29.8,4.099999904632568,292.0,21.66798973083496,24.69820976257324,-79.78278987826991,40.45904400136735,315.7786827697754,0.03255117312073708,-0.02493714913725853,-0.7111185789108276,0.7018753290176392,0.037188657700405935,0.039599327534962384,1.5080599978213232,-0.011719773523509502,0.04685984924435616,-0.05464550852775574,0.5787879569828511,0.09518580034375193,-8.675646010637282
30.0,4.099999904632568,292.0,21.624168395996094,24.17339324951172,-79.78278997389744,40.459043882634006,316.1063500061035,0.0314156636595726,-0.021878480911254883,-0.7120285034179688,0.7011061310768127,0.048449951097645855,0.026944772765081632,1.3979065147243714,-0.01651594415307045,-0.060663782060146325,0.05097484216094017,0.6371936014294625,-0.05010637150146068,-8.967929610013963
30.2,4.0,292.0,21.640443801879886,22.74207305908203,-79.78279003292984,40.45904374578849,316.43080145263673,0.028227798640727997,-0.01832397468388081,-0.7126911282539368,0.7006703019142151,0.06327719768286351,0.020810087703221118,1.333180578513724,-0.07000979036092758,-0.1404528021812439,0.05909119546413421,0.4864576444029808,-0.13954528162255886,-9.136004315614699
30.3,4.0,291.0,21.716819763183594,21.50954818725586,-79.78279011837563,40.459043665682344,316.5609207763672,0.0268375426530838,-0.016955256462097168,-0.7125780582427979,0.700874388217926,0.07248323914731228,0.01297338147565353,1.276089373231448,0.01195369567722082,-0.027541279792785645,-0.06874611228704453,0.6606904913485051,-0.0006317916512489319,-9.206862629055976
30.4,4.0,291.0,21.796951293945312,20.793888092041016,-79.78279019874839,40.45904358843718,316.6852265014648,0.02516071312129497,-0.016727248206734657,-0.7121850252151489,0.7013413310050964,0.07828057392947359,0.015266879255433631,1.2144821939274228,-0.07810951024293901,-0.02992215007543564,-0.0261625312268734,0.6419967236369849,-0.13700522373430432,-9.198482984304428
30.61,3.9000000953674316,291.0,21.81447982788086,20.49967384338379,-79.7827901180643,40.45904339820828,316.9711571350098,0.021066058427095413,-0.018706394359469414,-0.7075403928756714,0.7061111927032471,0.087578954142379,0.03505071740613041,0.8882833094729455,0.022628434002399445,-0.08217848092317581,-0.2944224774837494,0.5658631618693472,-0.21144624497741465,-7.371560799479486
30.8,3.9000000953674316,291.0,21.81447982788086,19.736303329467773,-79.78279025436134,40.45904324836718,317.1107597961426,0.016527099534869194,-0.016372105106711388,-0.6715323328971863,0.7406100034713745,0.06215494341220495,0.030540541344646687,0.5229626507591145,-0.013591852970421314,-0.0464516282081604,-0.6530908942222595,0.4422184147685767,-0.202843163497746,-7.498924850821496
30.91,3.9000000953674316,287.0,21.78818702697754,21.33460998535156,-79.7827902382844,40.459043192477225,317.1571770324707,0.01607557013630867,-0.015819642692804337,-0.6497176289558411,0.7598410844802856,0.06510788863168494,0.030039448334692388,0.4062441392364245,0.06529000401496887,0.058215461671352386,-0.5634933710098267,0.4768218350037933,0.0114926749560982,-8.473822930455206
31.0,3.9000000953674316,277.0,21.776918411254886,20.698467254638672,-79.7827904473381,40.45904314843778,317.1381340637207,0.0187459234148264,-0.015773765742778778,-0.6279971599578857,0.7778299450874329,0.062160373961905185,0.038147877949896616,0.2990707317150039,-0.011451729573309422,0.07785174995660782,-0.4871680438518524,0.6541978892683983,0.05496299573220313,-8.761503601670265
31.2,3.799999952316284,280.0,21.54403686523437,24.984474182128906,-79.78279057368314,40.45904305189619,317.1243591918945,0.022144913673400882,-0.015697959810495377,-0.5946424007415771,0.803532063961029,0.09067639787349988,0.05442059678008528,0.14400831284758453,0.07290889322757721,0.046550389379262924,-0.3714982867240906,0.6143353736400604,0.27978656463325025,-9.093486871719358
31.3,3.799999952316284,281.0,21.6279239654541,23.56110572814941,-79.78279049274045,40.45904295968579,317.13770681762696,0.03353086858987808,-0.010523565113544464,-0.5827372074127197,0.8119004964828491,0.1389824145726693,0.05522489662315536,0.12085535795584568,0.2810351550579071,0.055357817560434334,-0.26336780190467834,0.6842582787573338,0.3348190234601498,-9.444550775885585
31.51,3.799999952316284,275.0,21.637939453125,22.495569229125977,-79.78279032629018,40.45904266555646,317.09656149291993,0.02305008284747601,0.01815342903137207,-0.5705270171165466,0.8207545280456543,0.20046069179548653,0.15726279159008724,0.08051605577268826,-0.13466325402259827,-0.7166352868080139,-0.09366528689861298,1.1861406587809324,-0.2584490331821144,-9.642669060230256
31.6,3.700000047683716,266.0,21.634183883666992,23.87917709350586,-79.78279002503194,40.459042524631634,317.10479360961915,-0.012350774370133877,0.0304260216653347,-0.5685830116271973,0.8219702839851379,0.2517677980412741,0.2401447357096825,0.09578079579807253,-0.2859648764133453,-0.805301308631897,0.022345336154103286,0.8284034004807472,-0.1480253157578409,-9.796281262636183
31.8,3.5999999046325684,268.0,21.57032966613769,25.032184600830078,-79.78278919633982,40.4590424268179,317.08050161743165,-0.06601690500974655,0.04316017031669617,-0.5695304870605469,0.818177342414856,0.3020846365120992,0.4979429497658983,0.19877047737620146,-0.13043738901615146,-0.3775250911712647,0.09291977435350418,0.4687868836149574,0.010415590424090623,-10.246418634653091
32.0,3.5999999046325684,269.0,21.515239715576172,25.7876033782959,-79.78278751785352,40.459042497143976,317.14263540649415,-0.08359505981206894,0.04908574000000954,-0.5748060941696167,0.8125272989273071,0.3055848706906411,0.8971855337829677,0.4283979542858051,0.10638227313756944,-0.11877360194921495,0.1413675844669342,0.5427755039557814,0.2679749149270356,-10.46796612739563
32.1,3.4000000953674316,240.0,21.48518943786621,26.63049125671387,-79.78278619774856,40.45904257967028,317.1700859680176,-0.08483846485614778,0.05304047092795372,-0.5784463286399841,0.809561014175415,0.2955427773724668,1.1352335693182234,0.5058674667517119,0.08003482967615128,-0.05618830770254135,0.0319555439054966,0.4213583998382092,0.1496034609898925,-10.37650398015976
32.2,3.299999952316284,240.0,21.47892951965332,26.344226837158203,-79.78278538291912,40.4590430319759,317.1706505432129,-0.08480039983987807,0.05586110055446625,-0.5813359618186951,0.8073022365570068,0.23825621041868164,1.3143694787555225,0.6052954237882244,0.013311998918652534,-0.03402059525251388,0.02569029852747917,0.4120380111783743,0.05752359196543694,-10.374146382808686
32.4,3.0,242.0,21.4238395690918,26.28856468200684,-79.78278150862417,40.45904362344483,317.24459844970704,-0.08701925724744798,0.05426684394478798,-0.5852156281471252,0.8043665289878845,0.1994941183682957,1.7944794681112757,0.7895697747784153,-0.08647836744785309,-0.05248973146080972,0.1505003720521927,0.4741653352975845,-0.18479924071580173,-10.545040615797042
32.5,2.9000000953674316,243.0,21.38627815246582,28.348073959350586,-79.78278005558681,40.459044339958155,317.14061361694337,-0.08828046917915344,0.05246385931968689,-0.5856350660324097,0.8040434122085571,0.1424436794393296,1.9803544692293245,0.833776800149702,0.05744373425841332,-0.032569341361522675,-0.03847599029541016,0.3885431312397121,0.11467638823203745,-10.496671278476716
32.7,2.5,244.0,21.47892951965332,26.98036956787109,-79.78277506075169,40.45904569817228,317.10404974365235,-0.09156946837902068,0.05349176004528999,-0.5847957730293274,0.8042187094688416,0.08360007363936894,2.4338922384349257,0.9844554183770632,-0.03778409957885742,-0.039506904780864716,0.041239641606807716,0.2599458107538521,0.07380433254875242,-10.518226454257963
32.9,2.4000000953674316,247.0,21.436359405517575,27.20301818847656,-79.78276866811903,40.459047165500095,317.20446783447267,-0.09432102739810944,0.05883925408124924,-0.582809567451477,0.8049685955047607,0.06942880289172917,2.888175681793263,1.1834084499804087,-0.027109406888484955,-0.062011521309614175,-0.038039661943912506,0.27952035186812285,0.10001108715310693,-10.483102229833603
33.0,2.0999999046325684,253.0,21.348716735839844,28.70590400695801,-79.78276541890929,40.459048364315294,317.13770681762696,-0.09509843587875366,0.06149034947156906,-0.5808872580528259,0.8060678839683533,0.03182026641867169,3.103438830884347,1.237573387366936,0.08166639506816864,0.03630611672997475,-0.08064691722393036,0.14306711442768574,0.1575291059911251,-10.417346781492233
33.1,2.0,258.0,21.50397109985352,25.000377655029297,-79.78276157595305,40.459049313554296,317.1920433654785,-0.0951000303030014,0.06442441046237946,-0.579690158367157,0.8066999912261963,0.04070099017820896,3.331241310651036,1.3501120704418053,0.03599140048027038,-0.055033568292856216,-0.01166745275259018,0.05218820868059993,0.054315288690850144,-10.504692488908768
33.3,1.8999999761581416,273.0,21.41257095336914,25.811458587646484,-79.78275335584019,40.459051836130755,317.2093773498535,-0.09408537298440932,0.06714582443237305,-0.5769471526145935,0.8085613250732422,0.021360681359181902,3.775727188981741,1.4838273355362417,0.014704130589962006,0.036318957805633545,-0.056487612426280975,0.03986463524401188,0.059636131594888876,-10.310968387126923
33.51,1.7999999523162842,285.0,21.477678298950195,26.24880599975586,-79.7827442405033,40.45905486672565,317.2195206298828,-0.09571298211812973,0.06831032782793045,-0.574393093585968,0.8100897669792175,0.0031549647176668393,4.224815534124282,1.5792752136474186,-0.0011872765608131886,-0.06606579571962358,0.046421755105257034,0.14258256297558547,-0.004007444065064193,-10.289127867221833
33.61,1.7999999523162842,332.0,21.50897979736328,25.620615005493164,-79.78273912433849,40.45905621635834,317.27619177246095,-0.09648636728525163,0.06963842362165451,-0.5742666125297546,0.8099745512008667,0.02139111533631833,4.443095556239968,1.6519795936680557,-0.0041529289446771145,-0.02497340925037861,0.04965896159410477,-0.07524369777180255,0.06511696893721819,-10.152110062837599
33.7,1.8999999761581416,352.0,21.60163116455078,23.632671356201172,-79.78273429838227,40.45905842559693,317.2239494934082,-0.09739011526107788,0.07013759762048721,-0.5730087757110596,0.8107138276100159,-0.04743127650017562,4.651066072865897,1.6632914933351104,0.004575693048536778,-0.00800379738211632,-0.040189921855926514,-0.09219131330028177,0.12692976767197253,-10.05438320875168
33.9,2.0999999046325684,16.0,21.470165252685547,26.216999053955078,-79.78272315233008,40.45906156140331,317.31677633666993,-0.09935317933559418,0.06994357705116272,-0.5743826627731323,0.8095192313194275,-0.03010006410985505,5.064078305849597,1.7296720698450612,0.03699219599366188,-0.08866187930107118,-0.007913158275187016,-0.13290912126190962,0.05620478445198388,-9.840972701311113
34.0,2.200000047683716,21.0,21.495206832885746,26.002300262451172,-79.78271775745323,40.45906432649046,317.2577858581543,-0.10008664429187776,0.07068873196840286,-0.5727204084396362,0.8105413317680359,-0.134561947808542,5.271645190343324,1.7135618126427017,0.04741227626800537,-0.019516771659255028,0.007506475783884525,-0.16347336715087296,0.04950759834609926,-9.861255522966383
34.21,2.5999999046325684,30.0,21.491451263427734,25.10375022888184,-79.78270536619463,40.45906892683772,317.2732697143555,-0.1010620892047882,0.07163215428590775,-0.5705384612083435,0.8118751645088196,-0.198887777915364,5.6887497668921325,1.7889900554780294,0.06968064606189728,-0.016206610947847366,-0.17289136350154874,-0.2487413213029504,0.0595765036996454,-9.986051477193833
34.4,2.799999952316284,33.0,21.522750854492188,24.91290855407715,-79.78269181735665,40.45907297493814,317.34146505737306,-0.10224022716283797,0.06877849996089935,-0.57011479139328,0.8122719526290894,-0.15919780784625204,6.096486297172687,1.8811176743975853,-0.030895857140421867,-0.003070282051339745,-0.05651677772402764,-0.2861752141825855,0.06343364691361786,-9.980115383863447
34.5,3.299999952316284,37.0,21.463905334472656,25.58085632324219,-79.78268506242563,40.45907639895919,317.33148962402345,-0.10301308333873747,0.06827232986688614,-0.5683814883232117,0.8134307861328125,-0.2742709386784532,6.295389010521555,1.896831405587548,0.0291063841432333,0.03643634542822838,0.010592954233288763,-0.3773064272850752,0.0577401673514396,-9.883546278476716
34.6,3.5,41.0,21.63543701171875,22.447856903076172,-79.78267777757242,40.45907867449944,317.36094290161134,-0.10413628816604614,0.06999410688877106,-0.5696910619735718,0.8122245669364929,-0.2420545649444601,6.490001396890018,1.9449980702575358,0.04078439623117447,-0.08051107823848724,0.04398918524384498,-0.5440363098308444,0.010103499856777493,-9.881608511209487
34.8,4.0,43.0,21.473920822143555,25.000377655029297,-79.78266291437427,40.45908473593294,317.38035971069337,-0.10559315234422684,0.07610141485929489,-0.5677675008773804,0.8128337264060974,-0.35474062875271545,6.851539715914724,2.0386081748238967,0.02569746598601341,-0.014239231124520304,0.0891975536942482,-0.5739274589717388,-0.07606789936311542,-9.706520070433617
35.0,4.199999809265137,45.0,21.433856964111328,26.69410514831543,-79.78264693747487,40.459091037003546,317.42613607788087,-0.10653221607208252,0.08266589790582657,-0.5639864206314087,0.8147003650665283,-0.4391632457968727,7.220705770775599,2.139499836467965,-0.0004244357696734369,-0.0720493346452713,-0.01193922571837902,-0.6981563794612885,0.11782289374619725,-9.719032527208329
35.1,4.699999809265137,44.0,21.42884826660156,28.554821014404297,-79.78263867193225,40.45909376938325,317.4425354614258,-0.11041980981826782,0.08311896026134491,-0.5628138780593872,0.8149474859237671,-0.3892644865914001,7.410139317178285,2.2035059145677147,-0.09502016752958298,-0.1005169004201889,-0.02067761123180389,-0.5999673029780388,-0.03277084803208709,-9.749569026231766
35.2,5.0,41.0,21.447628021240234,25.5570011138916,-79.78263018914073,40.459096560541255,317.4571190490723,-0.11476170271635056,0.08051998168230058,-0.5617203712463379,0.815362811088562,-0.36670336400759496,7.586568954461986,2.3018766034250246,-0.13834631443023682,0.00374191184528172,0.0955413207411766,-0.6434430324286223,-0.16607276514172556,-9.917588768005373
35.41,5.400000095367432,42.0,21.55655670166016,25.024232864379893,-79.78261236644673,40.45910318300314,317.5010147705078,-0.12032118439674375,0.07508713006973268,-0.5590176582336426,0.8169357180595398,-0.3383733928288657,7.9603078681069634,2.497855231901812,0.036033451557159424,-0.06173115223646164,-0.039760004729032516,-0.6696652364730835,0.053644782076589764,-10.003632885217668
35.5,5.599999904632568,42.0,21.456392288208008,26.550973892211914,-79.78260317588173,40.4591071729028,317.52526098632814,-0.12031643092632295,0.07678946852684021,-0.5573338270187378,0.81792813539505,-0.4156220182883257,8.153381870261274,2.5407496752884744,0.015526755712926388,0.0268585067242384,-0.06396760046482086,-0.8721285136789084,0.1589778450317681,-9.687822428941727
35.7,6.099999904632568,45.0,21.421335220336914,27.58470344543457,-79.78258409051998,40.459113985131715,317.55264669799806,-0.12274833023548125,0.08507932722568512,-0.5569107532501221,0.8170341253280641,-0.4303901178234252,8.50693061300781,2.6799520576024167,-0.00749718165025115,-0.06475310772657394,0.04889455810189247,-0.8015738169103861,-0.10102997361682356,-9.738223673701288
35.9,6.300000190734862,44.0,21.36624526977539,27.62446212768555,-79.78256448089162,40.45912071042128,317.57232290649415,-0.12616892158985138,0.08576298505067825,-0.5565852522850037,0.8166633844375609,-0.4361685819911118,8.8444858359994,2.8830018800616504,-0.01936987601220608,-0.027746956795454025,-0.032749880105257034,-1.0489142549782993,-0.07503309750929475,-9.85432072520256
36.0,6.699999809265138,44.0,21.542783737182614,23.688335418701172,-79.78255409819003,40.45912468146963,317.58288961791993,-0.12558840215206146,0.08697417378425598,-0.5560221672058105,0.8170083165168762,-0.4681206612805779,9.016164369269136,2.9810188399528696,0.04610810428857803,0.04099047556519509,-0.03476976975798607,-1.041190887093544,0.10719169638119637,-10.076520767211914
36.1,6.9000000953674325,44.0,21.5064754486084,25.06399154663086,-79.7825437721337,40.45912822782668,317.5946884765625,-0.12439584732055665,0.0896432101726532,-0.55645352602005,0.8166084885597229,-0.4407579498191068,9.202634125935756,3.0211496280483563,0.11294973641633987,0.049905117601156235,-0.06385485082864761,-1.0964327493309975,0.1762388256378472,-9.685392910838127
36.3,7.300000190734862,42.0,21.38627815246582,26.344226837158203,-79.78252181567332,40.45913602600072,317.5945015563965,-0.124826580286026,0.0986042618751526,-0.5574250817298889,0.8148453831672668,-0.4902059476165226,9.566434332544006,3.0844017755221738,0.040615275502204895,-0.11535613983869553,0.08426683396100998,-1.336492673009634,0.07554973555728793,-9.560447852611542
36.5,7.5,42.0,21.336196899414066,28.39578437805176,-79.78249951003164,40.459144004434506,317.59397131347663,-0.1315399706363678,0.0956219732761383,-0.5552701950073242,0.8156155943870544,-0.5379823941732403,9.891918822723065,3.312321645563416,-0.11560484021902084,0.034762993454933167,-0.10467961430549624,-1.2578772971034051,-0.3234749134629965,-9.66364302277565
36.6,8.0,42.0,21.580345153808594,22.105932235717773,-79.78248815469105,40.45914786271853,317.5951805725098,-0.1334087997674942,0.0940944403409958,-0.5559667944908142,0.8150149583816528,-0.4616849220202384,10.05400776256829,3.4321718554976486,0.038777709007263184,0.06833123415708542,0.002691837260499597,-1.3608799476921558,0.2856557073444128,-10.0891799890995
36.7,8.199999809265138,42.0,21.5452880859375,24.403993606567386,-79.7824762469298,40.459152362582714,317.60129934692384,-0.13450267910957334,0.09487557411193848,-0.5557176470756531,0.8149145245552063,-0.5249374949652201,10.242604527357672,3.514852649403578,-0.0330926738679409,-0.12530966103076935,0.10429883748292924,-1.2322904661297798,-0.13054437020793558,-9.844054183959964
36.9,8.600000381469728,39.0,21.507726669311523,24.91290855407715,-79.78245248796266,40.45916044290807,317.60129553222663,-0.14471480250358582,0.09844668954610823,-0.5522940754890442,0.8150689005851746,-0.4753019524704773,10.569445742077463,3.733131338261909,-0.04557272419333458,-0.10018260031938553,-0.07808664441108704,-1.5466562215983868,0.02265269359108061,-9.748781406283381
37.0,8.800000190734863,39.0,21.46265411376953,25.88302421569824,-79.78243997408134,40.45916519069922,317.5939102783203,-0.1489393264055252,0.0998641699552536,-0.549153745174408,0.8162564039230347,-0.466286778691694,10.727599179966074,3.8906887371713132,0.031985871493816376,-0.07178757339715958,-0.2798224687576294,-1.4172186014056207,0.34126163184642794,-9.593247808814047
37.2,9.199999809265137,38.0,21.24354362487793,30.34396934509277,-79.7824144040848,40.4591740814335,317.5809059753418,-0.15047341585159302,0.10292700678110124,-0.5478187799453735,0.8164916038513184,-0.3827475727337426,11.035913196815514,4.17362185622884,0.03624008595943451,0.12042932957410812,-0.16699835658073425,-1.5310853786766532,0.2043319194205105,-9.687548194527627
37.4,9.399999618530273,38.0,21.61415100097656,22.60689353942871,-79.78238861391601,40.45918281601536,317.5725556030273,-0.12270988523960115,0.07804615050554277,-0.5512285828590393,0.8215827941894531,-0.3273142863810811,11.422211519862854,4.012191972616181,-0.07324687391519548,0.4641700387001038,0.06250745058059692,-1.6935593287646769,0.27780242163687946,-10.293771725893023
37.5,9.699999809265137,39.0,21.59161376953125,22.24906349182129,-79.78237514709448,40.45918771143076,317.5544167175293,-0.11082200706005096,0.06647433340549469,-0.5515456199645996,0.8240735530853271,-0.3464656032208793,11.717562560033475,3.5422592282795287,-0.09213826805353163,0.2429902702569961,0.1355031430721283,-1.8303808128833767,0.2111054984852672,-9.815419199466707
37.6,9.899999618530273,44.0,21.597875595092773,23.09990310668945,-79.78236191040698,40.45919220333359,317.5567169799805,-0.10263120383024216,0.05970866233110427,-0.5517351627349854,0.8255242109298706,-0.3071629604481102,11.902147399389534,3.175085995280801,0.021949974820017808,0.1630961000919342,-0.3103666603565216,-1.8318987500667567,0.29653401352465153,-9.661551473736765
37.81,10.100000381469727,44.0,21.65546989440918,21.62882423400879,-79.78233462969644,40.45920164377903,317.52999884033204,-0.08517522364854813,0.04651239886879921,-0.5515581369400024,0.828471839427948,-0.30352261148510506,12.116473613774776,2.670640720315145,-0.02315247431397438,0.1143646165728569,-0.14838559925556186,-1.7415775407850744,0.1108434287365526,-9.537612721323967
38.0,10.300000190734863,44.0,21.636688232421875,22.0025577545166,-79.78230723133285,40.45921137493832,317.4918938293457,-0.06813754886388779,0.04307131096720696,-0.5524557828903198,0.8296354413032532,-0.3287069831986177,12.272657709033716,2.1368508715323817,0.08332540094852448,0.025413326919078827,-0.028449617326259613,-1.8070014519989488,0.20702867355197668,-9.529245355725287
38.11,10.5,54.0,21.739356994628906,20.436058044433594,-79.78229384353133,40.45921597855772,317.4894333496094,-0.06317051500082016,0.04268118739128113,-0.5538879632949829,0.8290935158729553,-0.3383510527276567,12.280821679047547,1.9793654393649656,0.04529004544019699,0.007213019300252198,0.09271044284105301,-1.6177947628498075,-0.11060339139774444,-9.83504011631012
38.21,10.600000381469727,55.0,21.78192710876465,19.426183700561523,-79.78228008041843,40.459221102851245,317.472927154541,-0.06036140397191048,0.041872017085552216,-0.5549045205116272,0.8286641240119934,-0.3967713438653427,12.30534393435764,1.8563124813731329,-0.020710907876491547,0.055441170930862434,0.032014697790145874,-1.6710763460397722,-0.15635341364890334,-9.577470851540566
38.4,10.699999809265137,55.0,21.763145446777344,20.23726463317871,-79.78225338720854,40.45923029452805,317.46271520996095,-0.0584360659122467,0.0355982705950737,-0.5561020970344543,0.8282925486564636,-0.4289173040079825,12.254221392063947,1.6959290761003365,-0.08535385131835938,-0.01587032899260521,0.17531777918338776,-1.5841978311538698,-0.13009513959288602,-9.404320178031922
38.5,10.800000190734863,55.0,21.684267044067386,21.660633087158203,-79.78223946299728,40.459235292041114,317.45445639038087,-0.05782439559698105,0.03139353543519974,-0.5560516715049744,0.8285392522811891,-0.4339532921438982,12.282226894960553,1.5984953310321417,-0.05591806024312973,0.03758785128593445,-0.10240206867456436,-1.7384817324578763,0.2786977765336633,-9.386391445398331
38.7,10.800000190734863,59.0,21.758136749267575,19.680641174316406,-79.78221223899945,40.45924469933573,317.444850982666,-0.05948082357645035,0.027614807710051537,-0.5558284521102905,0.8287063837051392,-0.4193742528352261,12.2496360038964,1.4860361290164263,0.0008571823127567768,0.08795043081045151,-0.02294440381228924,-1.8344791263341904,0.1028305231779814,-9.5336331063509
38.81,10.800000190734863,60.0,21.70304679870605,21.175573348999023,-79.78219899219273,40.45924926786335,317.43179708862306,-0.06069070100784304,0.02659718319773674,-0.5551936030387878,0.8290774822235107,-0.4228303133929368,12.219775903160407,1.4594368189281957,-0.025700261816382408,-0.09163013100624083,-0.0821215957403183,-1.5677466899156571,0.03577008593827486,-9.552673394680022
39.01,10.800000190734863,60.0,21.632932662963867,22.83749389648437,-79.78217207199701,40.45925869022182,317.40826040649415,-0.05945684388279915,0.026275737211108208,-0.5541132092475891,0.8298994898796082,-0.4114819419771552,12.166469240090553,1.4365243898108675,-0.03432435169816017,0.03750012814998627,0.19036318361759186,-1.7392811930179597,-0.10500477377325296,-9.610213505029677
39.1,10.699999809265137,60.0,21.679258346557614,20.284975051879886,-79.78215895390703,40.45926324679453,317.3942375793457,-0.05316359549760818,0.021308477967977524,-0.5528965592384338,0.8312790989875793,-0.3921554588688815,12.106503191313319,1.4540001122275814,-0.03771325200796127,0.33736008405685425,-0.20052219927310946,-1.6098543901741504,0.2595325405150652,-10.082123569250108
39.3,10.600000381469727,61.0,21.819488525390625,19.903289794921875,-79.78213228597276,40.459272259285115,317.36183172607423,-0.033119019120931625,0.00019655455253086984,-0.551579475402832,0.8334646821022034,-0.3393210760068915,12.055151495141954,1.00516958266662,-0.0600198432803154,0.3578092455863953,0.0562935546040535,-1.631243358850479,0.0960935440286994,-10.045656824111939
39.4,10.600000381469727,71.0,21.666736602783203,21.787860870361328,-79.78211936532044,40.459276792171295,317.3629990234375,-0.02572618797421456,-0.007166377268731594,-0.5514844655990601,0.8337576389312744,-0.3437942258788351,11.98586919469826,0.7144042639170216,-0.009858282282948494,0.2325687855482101,-0.17681698501110074,-1.625351411998272,0.3451746616512537,-10.063393768072126
39.6,10.399999618530273,70.0,21.779422760009766,19.283052444458008,-79.7820932580821,40.45928580105478,317.35095602416993,-0.016860242933034897,-0.013183330185711384,-0.553643524646759,0.8324787020683289,-0.3952553812693146,11.816491454793901,0.3720309595578165,0.06370707601308823,-0.04376871138811112,-0.0633617639541626,-1.4877192114293576,0.11947845976799727,-10.040646929740909
39.8,10.300000190734863,70.0,21.859554290771484,17.430288314819336,-79.78206783544418,40.45929486852764,317.35553747558595,-0.016546446830034256,-0.009399651549756529,-0.5571160316467285,0.8302167057991028,-0.5103130888395951,11.611063372150118,0.34132550916903914,0.08047173172235489,0.03567163273692131,-0.20233546197414398,-1.0919782673567533,-0.09017901230603458,-10.211038302183152
39.9,10.0,79.0,21.801958084106445,18.257272720336914,-79.78205548259373,40.459299303352644,317.3698235168457,-0.0166602972894907,-0.009186124429106712,-0.5588423609733582,0.8290557265281677,-0.587249524398538,11.5107528557299,0.3520942461223884,0.019388020038604736,0.0736231729388237,0.13309210538864136,-0.9452082574367524,0.10291067571379243,-9.829263067245485
40.0,9.899999618530273,75.0,21.80070686340332,18.84570503234864,-79.78204297494138,40.45930367879816,317.3512268676758,-0.01658504456281662,-0.009137190878391266,-0.559625506401062,0.8285292983055115,-0.6289452485745035,11.425353759233143,0.303025669304159,0.07900497317314148,0.10946942120790484,-0.12237607687711714,-1.0645839158445598,0.2551660591363907,-9.780467467904092
40.2,9.600000381469727,76.0,21.84703254699707,18.599199295043945,-79.78201840308432,40.45931234548953,317.36010748291017,-0.010275608859956264,-0.005148509051650762,-0.5607224106788635,0.8279241323471069,-0.6750145382942608,11.224175130024982,0.1821312952130917,0.07782107591629027,-0.04027697816491127,0.1300646960735321,-1.4864838409423828,0.00016439698054455219,-9.400188535451887
40.4,9.399999618530273,76.0,21.952205657958984,16.754386901855472,-79.7819946157608,40.459320966078906,317.3571434631348,-0.012836746871471405,0.003215456381440163,-0.5620711445808411,0.8269830942153931,-0.7242887070168397,11.060337419217978,0.1211501391474469,-0.0024809851311147213,-0.09981358796358107,-0.09023289382457733,-1.1942827603965998,0.2823439723066985,-9.346975949406623
40.5,9.100000381469727,80.0,21.83952140808105,18.15390014648437,-79.7819826346688,40.45932521431457,317.3564644470215,-0.015693997964262962,0.006063302978873253,-0.5619400143623352,0.827006995677948,-0.7288169473270661,10.965671087760782,0.15908659897002894,0.044224318116903305,-0.07311345636844635,-0.08067535609006883,-1.0071492015570402,0.1425805804040283,-9.129998055696488
40.6,9.0,79.0,21.74812126159668,20.54738426208496,-79.78197098260955,40.459329451299546,317.3416023864746,-0.015728412196040154,0.006064038723707199,-0.5618506669998169,0.8270670175552368,-0.735656520981525,10.874335862867053,0.183055372496599,0.052140530198812485,-0.02741974033415317,-0.07216812670230865,-1.120237641334534,0.04445926766842604,-9.264812044501305
40.81,8.800000190734863,79.0,21.848285675048828,17.86763572692871,-79.78194763072824,40.45933787844613,317.344623626709,-0.009626014158129692,0.002634393982589245,-0.5611966252326965,0.8276224136352539,-0.7362557077999087,10.718372828426359,0.11521327073120916,-0.007784764748066664,0.010655122809112072,0.09935950487852097,-1.1714617355167871,-0.1990332274138928,-9.544196686148645
40.9,8.699999809265138,79.0,21.78067398071289,20.36449241638184,-79.78193625238323,40.459342040850345,317.3263779296875,-0.01078146230429411,0.0020957672968506813,-0.5605145096778871,0.8280718922615051,-0.727203127353515,10.64601844977674,0.008461080171909108,-0.053821194916963584,-0.03959965333342552,-0.017152396962046627,-1.0542009419202805,-0.033360937158577145,-9.395594962835313
41.11,8.5,78.0,21.7456169128418,20.316781997680664,-79.78191325957759,40.459350385137036,317.3274117126465,-0.02571476437151432,0.009754458442330359,-0.5594474077224731,0.8284094333648682,-0.6859168687641574,10.528027227907797,0.1845317010849732,-0.0013486732495948672,-0.2161354273557663,-0.18265992403030398,-1.2388726767897609,0.1741939446888864,-9.484683725237847
41.2,8.399999618530272,73.0,21.776918411254886,18.93317413330078,-79.78190192440802,40.45935438477583,317.3253098144532,-0.03302982449531555,0.014518529176712038,-0.5583760738372803,0.8288030624389648,-0.6578114476761799,10.470139316544408,0.393978904878156,0.030111566185951236,-0.117036834359169,-0.06356900930404663,-1.01851019538939,0.013223482766188682,-9.66988317131996
41.4,8.399999618530272,74.0,21.74060821533203,20.07027816772461,-79.78187966666408,40.459362519989,317.28802496337886,-0.0492987334728241,0.024908710271120068,-0.5562687516212463,0.8291649222373962,-0.6362250715858889,10.413756632684894,0.7210958670921401,-0.1187179759144783,-0.3870999217033386,-0.014919498935341837,-1.0353916916996242,-0.11026157596148553,-9.680561356544494
41.6,8.300000190734862,74.0,21.76690101623535,20.261119842529297,-79.78185713844404,40.45937063008999,317.2654457702637,-0.07600677758455276,0.04058331996202469,-0.5536544322967529,0.828277051448822,-0.5799442495140649,10.392925428832896,1.2495693633034668,-0.0016177853103727102,-0.2886054813861847,-0.058953143656253815,-1.3110363811254502,0.06861142946407199,-9.491247809529305
41.7,8.399999618530272,60.0,21.72808837890625,20.730274200439453,-79.78184597345764,40.45937456586621,317.26425939941413,-0.08354754745960236,0.04524042084813118,-0.5525615215301514,0.8280392289161682,-0.5547346566575723,10.35930912361526,1.6089699847804846,0.061428572982549674,-0.09050821512937546,-0.32794034481048584,-1.3269868545234205,0.26552038170397285,-9.733685064911842
41.8,8.399999618530272,53.0,21.580345153808594,23.17146873474121,-79.78183478076699,40.4593786703853,317.244281829834,-0.0895959734916687,0.049397505819797516,-0.5520629286766052,0.8275016546249391,-0.569760927305852,10.396802952704695,1.7950440705638235,0.016133487224578857,-0.25887539982795715,0.1986427754163742,-1.3389423640072349,-0.3979916104674339,-9.769709760546682
42.01,8.5,54.0,21.63919258117676,22.026412963867188,-79.78181218067786,40.45938683613847,317.22222525024415,-0.09799901396036148,0.062055014073848724,-0.5528861880302429,0.8251438736915588,-0.5897058958751922,10.473450695807848,2.1934772179116626,0.05223836004734039,-0.1118360310792923,-0.07045246660709381,-1.3225011630356311,-0.10340669319033624,-10.112040263414382
42.1,8.5,54.0,21.665485382080078,23.75194931030273,-79.78180074503545,40.45939105330165,317.20809942626954,-0.1050984337925911,0.07216086983680725,-0.553547739982605,0.8230018019676208,-0.6410936675406302,10.554684833566057,2.365042057589876,0.04634065553545952,-0.3369930684566498,0.10304629802703856,-1.3991995292901993,-0.15107172424905002,-9.955097486972807
42.3,8.5,48.0,21.67424964904785,19.64088249206543,-79.7817776661488,40.45939958501933,317.17397314453126,-0.12742534279823306,0.09105774015188216,-0.5534079670906067,0.8180532455444336,-0.7305167708908933,10.649927557212699,3.008070112560066,-0.02670704759657383,-0.3406267464160919,0.10382780432701112,-1.3368525691330433,-0.15216245837509632,-10.066331409215929
42.4,8.600000381469728,42.0,21.500215530395508,25.843265533447266,-79.7817657827412,40.459403940763295,317.16304403686524,-0.13984668254852295,0.10033196955919266,-0.5540446639060974,0.8145003914833069,-0.7462424859600509,10.729594084820748,3.340028084430806,0.04895779490470886,-0.3996609747409821,0.11719155311584473,-1.4106874077022076,-0.09084520203061404,-9.566718991398812
42.6,8.699999809265138,42.0,21.34496116638184,27.91867828369141,-79.78174173672491,40.45941269275364,317.11473471069337,-0.13574308156967166,0.0983034372329712,-0.5529530644416809,0.8161820769309998,-0.7955377046668872,10.868945636626773,3.8367532638340514,0.0001953278406290337,0.3549764454364777,-0.008199477568268776,-1.5580230626463891,-0.05639949216507376,-9.82009697198868
42.7,8.800000190734863,42.0,21.337448120117188,27.58470344543457,-79.78172956853938,40.45941723881428,317.11702352905274,-0.11896387487649918,0.08505626767873764,-0.5521695017814636,0.8208056688308716,-0.7587669106260475,11.041201418928392,3.6880599177290887,-0.07955320179462433,0.5803422331809998,-0.12948860228061676,-1.6743177500367166,0.16804448280483486,-10.133542814254762
42.91,9.0,42.0,21.696786880493164,19.903289794921875,-79.78170447219078,40.45942631863709,317.10187536621095,-0.08276305347681047,0.0550353117287159,-0.550149142742157,0.8291305899620056,-0.5793036909649728,11.508536037156684,2.8347149192691097,-0.102914996445179,0.3624401688575745,-0.20674283802509308,-1.5780785737931728,0.16642407316714525,-10.364134780168534
43.1,9.100000381469727,52.0,21.59161376953125,22.77388000488281,-79.78167878910607,40.45943551210027,317.0675316467285,-0.0771963894367218,0.043896060436964035,-0.5483308434486389,0.8315330743789673,-0.4497009005844615,11.731413563386354,2.086408399701817,-0.08773830533027649,-0.00953441485762596,-0.059949800372123725,-1.3109754239022733,-0.008528447253629565,-10.0569957447052
43.2,9.199999809265137,52.0,21.68927383422852,20.45991516113281,-79.78166604416873,40.45944014634554,317.04263693237306,-0.0797785073518753,0.04658015817403793,-0.5491466522216797,0.8306043744087219,-0.4371852397010919,11.746159249692347,2.0304228567837384,0.02186322025954724,-0.19897688925266266,-0.03491111472249031,-1.6437346194684506,0.07854997845366597,-9.674190815091134
43.3,9.300000190734863,52.0,21.699291229248047,20.8734073638916,-79.78165332270804,40.45944474534444,317.03391653442384,-0.08091945946216582,0.05098670721054077,-0.5502703785896301,0.8294907212257385,-0.4685754201498189,11.759359254733612,2.0994743474820403,0.05370102077722549,-0.2212205231189728,0.02641768380999565,-1.6049624633789064,0.010545231874566524,-9.562750486135483
43.5,9.399999618530273,53.0,21.65171241760254,21.92304039001465,-79.78162759581828,40.45945414681618,317.010150970459,-0.0802413746714592,0.052538514137268066,-0.5511434674263,0.8288800120353699,-0.5636023251302704,11.781432259679658,2.2119384955862693,-0.05461205914616585,0.0737767443060875,0.1017308235168457,-1.4368067738413812,-0.002048718184232712,-9.664722418785095
43.61,9.5,55.0,21.736852645874023,20.10208511352539,-79.78161481688029,40.45945879494014,316.99557501220704,-0.07560862600803375,0.049660038203001015,-0.5514322519302368,0.8293007016181946,-0.5638479808413909,11.806378171830266,2.1468382438014264,0.033865690231323235,0.13682594895362854,-0.08586284518241882,-1.4714706762135032,0.20875119019299745,-9.582095414400099
43.8,9.5,55.0,21.63543701171875,22.54327964782715,-79.78158883453591,40.45946818064376,316.96405798339845,-0.06384872645139694,0.05541713163256645,-0.5548631548881531,0.8276347517967224,-0.5928177859250194,11.899601400720705,1.8920651889334947,0.18299251794815066,0.017722142860293392,0.1878362149000168,-1.3949507962167265,-0.29265328958630565,-9.457951424717905
44.0,9.600000381469727,55.0,21.685518264770508,22.41604995727539,-79.78156289050969,40.459477659101,316.94008642578126,-0.0399179644882679,0.0457364097237587,-0.5576264262199402,0.8278692364692688,-0.6779361283810574,11.870093650861433,1.7157148287179722,-0.017454195767641068,0.575089156627655,0.08341818302869798,-1.6541966038942335,-0.2455008492060005,-9.65579138159752
44.1,9.600000381469727,53.0,21.660476684570312,21.461837768554688,-79.78155012353488,40.45948224727864,316.9263840332032,-0.010895141400396824,0.02256343513727188,-0.5583117604255676,0.8292527198791504,-0.6529066776009176,11.82640312419857,1.2496242093194063,-0.04739269241690637,0.9909343123435974,-0.13126827776432035,-1.8079153718054293,0.04487526051700117,-9.94417021036148
44.2,9.5,67.0,21.73434829711914,20.913166046142575,-79.78153697247869,40.45948700327162,316.8773918762207,0.024132436141371727,-0.00618285546079278,-0.5574034452438354,0.829867959022522,-0.6203158920431716,11.782195523747143,0.3973494647664952,-0.1797628104686737,0.8670518398284912,0.03368866816163063,-1.5672718960046768,-0.14000904805026948,-10.039158228635786
44.4,9.399999618530273,67.0,21.39253807067871,27.393861770629893,-79.78151224384081,40.45949582482717,316.8680153503418,0.08439541608095169,-0.05541720613837242,-0.5520373582839966,0.8276841640472412,-0.5111097528568828,11.195487391357684,-1.4938479055499774,-0.1464465856552124,0.464600682258606,0.10624638199806212,-1.4676318329572675,-0.16473265640437604,-10.562560043334964
44.5,9.300000190734863,67.0,21.42884826660156,25.09579849243164,-79.78149978080306,40.459500344710655,316.86188513183595,0.1026611328125,-0.06935372203588486,-0.5489058494567871,0.8266518712043762,-0.4696771930188917,10.799850144423306,-2.1052070790427684,0.061571557074785226,0.4255664944648743,0.06720796972513199,-1.0067432586103675,0.022882886594161392,-11.160562974214557
44.7,9.0,125.0,21.785682678222656,17.93920135498047,-79.78147674446221,40.45950859806445,316.90357595825196,0.10232622176408768,-0.06526771187782288,-0.5460284352302551,0.8289285898208618,-0.34806640474620776,10.033562166174065,-2.4407192702041285,0.00229729525744915,-0.41018301248550415,-0.027679374441504482,-0.9727677197009326,0.2497673066519201,-10.871035752296448
44.9,8.899999618530273,119.0,21.88083839416504,17.485950469970707,-79.78145538935459,40.45951624037807,316.9530869140625,0.07646679878234862,-0.05615409091114998,-0.5484324693679811,0.8307956457138062,-0.32439530756339263,9.500722934116233,-1.8657168548273613,-0.03951410949230194,0.006004577502608299,0.09833907335996628,-0.7772141703218222,0.14207729045301676,-10.470204441547397
45.0,8.600000381469728,119.0,21.811975479125977,18.670764923095703,-79.78144474957932,40.45951991513875,316.95563513183595,0.07717284560203552,-0.059010062366724014,-0.5486595034599304,0.8303824067115784,-0.34434702694456576,9.272990794675422,-1.7317404662414062,-0.061088677495718,0.17932218313217166,-0.024243194609880447,-1.0904161106050014,0.11614584834314885,-9.24918536067009
45.1,8.399999618530272,119.0,21.799455642700195,19.521604537963867,-79.78143484441597,40.45952347540025,316.95411688232423,0.09148084372282027,-0.0678086131811142,-0.5477178692817688,0.8288778066635132,-0.3556538241713871,8.943203108024752,-1.8247981791514305,-0.005318600218743086,0.4537281095981598,-0.05917445942759514,-1.3051298162341118,0.04415847410447896,-9.127326462864877
45.3,7.900000095367432,124.0,21.654216766357425,21.70039176940918,-79.78141565320699,40.4595302107553,316.92347341918946,0.13177655637264252,-0.0952867716550827,-0.5433114171028137,0.8236311078071594,-0.3415506167375847,8.089662996880069,-2.6102326838120287,-0.023304907605052,0.3850997388362885,-0.047076787799596786,-0.6328507281839848,-0.013017082905862482,-9.290660830736163
45.4,7.699999809265138,133.0,21.561565399169922,22.20135307312012,-79.78140679738651,40.45953344424928,316.8899269714356,0.14316649734973907,-0.10828736424446106,-0.542923092842102,0.820372998714447,-0.3733606289475464,7.58562511765485,-2.9623073677711766,-0.08915349841117859,0.3201569616794586,0.1209411397576332,-0.5585424844175577,-0.15300210940651596,-9.513107625246047
45.6,7.099999904632568,133.0,21.473920822143555,24.69820976257324,-79.78139000529227,40.45953943207893,316.81605535888673,0.14555135369300842,-0.1192878559231758,-0.5444582104682922,0.8174046874046326,-0.4900607088124251,6.674243844525787,-3.1857660600487394,0.01372420135885477,0.0024132607504725448,0.021060410887002945,-0.3663604395836592,0.07582071288954467,-9.774080554246902
45.8,6.800000190734862,133.0,21.29988670349121,28.849035263061523,-79.78137490918292,40.45954483367139,316.73369985961915,0.13774996995925906,-0.11259002983570099,-0.5448171496391296,0.8194649815559387,-0.5582869041495311,5.969372887681043,-2.833867332143753,0.011470558121800423,-0.06360942125320435,0.01790054328739643,-0.4543867994472385,-0.04777276600711048,-10.192901408672332
45.9,6.300000190734862,132.0,21.31991958618164,30.04180145263672,-79.78136820151998,40.45954748099688,316.68248754882814,0.1327390819787979,-0.10968832671642303,-0.5445377826690674,0.8208699226379395,-0.5726755575311914,5.63815194805166,-2.6014018041663705,-0.006556118372827768,-0.14248715341091156,-0.046560097485780716,-0.2103696629405022,-0.0006859806081047282,-10.86338057756424
46.0,5.9000000953674325,130.0,21.22100830078125,29.604454040527344,-79.78136128814413,40.45954957640403,316.6741181030273,0.12632854282855988,-0.10651789605617523,-0.5433011651039124,0.823115348815918,-0.5362245463999262,5.359212281043291,-2.3562474361636303,-0.015642004087567333,-0.1665096879005432,0.07177737355232239,-0.2727484904229641,-0.06680186240002513,-10.939790822267533
46.2,5.199999809265137,129.0,21.258569717407227,30.36782455444336,-79.78134926963342,40.45955372300577,316.6329727783203,0.1253458708524704,-0.1037752777338028,-0.5401189327239989,0.8257062435150146,-0.4820828600038849,4.767523033414764,-1.873301093960333,0.04863564297556877,0.0223624873906374,-0.07141593098640442,-0.17188327124342326,0.07909236252307893,-11.101211396455765
46.4,4.800000190734863,127.0,21.04572105407715,32.97600555419922,-79.78133943669899,40.45955790712121,316.58892446899415,0.12722235918045044,-0.1063779667019844,-0.5398126840591431,0.8252881765365601,-0.5105916036884249,4.11736166054763,-1.543969888997376,-0.08019480109214783,0.056081034243106835,0.06791260838508606,-0.1225361881032586,0.023589769285172226,-11.075221692323685
46.5,4.099999904632568,121.0,20.99438667297364,34.017688751220696,-79.78133444229111,40.459558986498415,316.5931893005371,0.12646818161010742,-0.10617933422327044,-0.5391272902488708,0.8258775472640991,-0.4545572602397718,3.830222096269971,-1.3518182666799547,0.05833455175161361,-0.0021627440582960844,-0.06089283898472786,0.108834718298167,0.203632300067693,-11.280247292518617
46.6,3.799999952316284,119.0,20.98186492919922,34.26419448852539,-79.78133045495017,40.45956075544722,316.59395223999024,0.12404929846525192,-0.10416225343942642,-0.5399475693702698,0.8259653449058533,-0.4732351266567344,3.5329008424558483,-1.1168338797166657,0.04948031157255173,-0.1113295629620552,0.004439245443791151,0.09095035141333938,0.11253596926108003,-11.547027676105499
46.8,3.2000000476837163,110.0,21.07201385498047,32.54661178588867,-79.78132331814145,40.45956299606529,316.6151199951172,0.1203715354204178,-0.10221131891012193,-0.5394316911697388,0.8270896077156067,-0.4530563270702911,2.963033343805505,-0.6309820972065718,-0.05957252159714699,0.010710051283240318,0.05394797399640083,0.11943508073687555,0.15708201326429844,-11.547286123037338
