time,wind_speed,wind_angle,battery_voltage,battery_current,position_x,position_y,position_z,orientation_x,orientation_y,orientation_z,orientation_w,velocity_x,velocity_y,velocity_z,angular_x,angular_y,angular_z,linear_acceleration_x,linear_acceleration_y,linear_acceleration_z
0.0,0.10000000149011612,126.0,24.03561782836914,-0.07951773703098297,-79.7827727091838,40.45911890170778,260.45328284811967,-0.005577584262937307,0.0006775481742806733,-0.9931015372276306,0.11712338775396347,-0.01612684569186014,-0.011571460229099266,0.0014237952291283858,0.007742166984826326,0.003132987301796675,0.006686932407319546,-0.052606056192889813,0.05899562850594521,-9.813231171369553
0.2,0.20000000298023224,123.0,24.03561782836914,-0.09542128443717957,-79.78277284583764,40.459118883840105,260.4518355281353,-0.0055666333064436895,0.0006978982710279522,-0.9930994510650636,0.11714126169681548,-0.00779240972100606,-0.006387785704360507,0.0042884611386404025,-0.002242334419861436,-0.0016078007174655795,0.0013668620958924296,-0.05593932086136194,0.0620158752752468,-9.813953887224198
0.3,0.20000000298023224,119.0,24.02685356140137,-0.07951773703098297,-79.78277294015085,40.45911887140343,260.4506973774433,-0.005551125388592482,0.0007156762294471264,-0.9930981397628784,0.11715323477983475,-0.0067196650194531,-0.002553838384315986,0.005972162143146505,0.002487869001924992,0.00015511081437580287,0.006834151223301888,-0.05357668485492468,0.06037094844505191,-9.813185563087464
0.5,0.20000000298023224,116.0,24.038122177124023,-0.06361418962478638,-79.78277293214995,40.45911887510714,260.45130871248244,-0.005538761615753174,0.0007355029229074718,-0.9930951595306396,0.11717886477708815,-0.011238784000558126,-0.004916767231365714,0.006388995579187457,9.71541230683215e-05,-0.0005987336626276374,-0.0006296901847235857,-0.05373809998389334,0.05884182846173645,-9.814068492650987
0.6,0.20000000298023224,117.0,24.040626525878906,-0.08746951073408127,-79.78277300830577,40.45911886313424,260.4493476600647,-0.005548972636461258,0.0007563461549580097,-0.9930933117866516,0.11719375848770144,-0.012074501895587878,-0.0024440963045800714,0.004756134656288221,0.006644286680966616,0.006103589665144682,0.006759874057024717,-0.05698124900925905,0.07820995372720063,-9.810659565925599
0.8,0.20000000298023224,116.0,24.038122177124023,-0.06361418962478638,-79.78277299426671,40.45911886815464,260.4498292953968,-0.005545677617192268,0.000758508627768606,-0.9930909276008606,0.117213673889637,-0.016401698828685553,-0.004925586350716982,0.005068650940450574,0.001227913424372673,-0.0006373784854076803,0.007082484662532806,-0.05406972390599549,0.05642007619142533,-9.81502860546112
0.9,0.20000000298023224,112.0,24.03060913085937,-0.05566241592168808,-79.78277304849256,40.4591188417298,260.44833929848664,-0.0055378442630171784,0.0008114418014883995,-0.9930896759033204,0.1172252595424652,-0.018493607352323888,-0.0004514074947685742,0.003576143915299247,0.004214698914438486,0.0012972597032785411,0.004168269224464893,-0.058550860960967836,0.0771860971301794,-9.810783526897431
1.1,0.30000001192092896,117.0,24.03561782836914,-0.08746951073408127,-79.78277302479945,40.45911884756501,260.44869904232024,-0.005560418590903282,0.0007930735591799023,-0.9930853247642516,0.11726056039333345,-0.02283463465710336,-0.002978535817679989,0.004013059376796296,0.0008448894368484616,0.0018029473721981046,0.008092457428574562,-0.05299305050633848,0.055248632216826084,-9.815205191373826
1.2,0.30000001192092896,119.0,24.04312896728516,-0.06361418962478638,-79.78277314001839,40.45911883399711,260.44806848478316,-0.005532584618777037,0.0008214816334657371,-0.9930829405784608,0.1172819510102272,-0.01696858139609645,-0.004784487624185624,0.003088082510465885,0.004624080378562212,0.002915753284469247,0.006080994382500649,-0.05728585239965469,0.07699863905087112,-9.811731945276259
1.4,0.30000001192092896,116.0,24.02935791015625,-0.06361418962478638,-79.7827732399123,40.459118823347076,260.44839511823653,-0.005536536686122418,0.0008230275707319379,-0.9930793046951294,0.11731210350990295,-0.01258816851052623,-0.003928237602213604,0.002492559489141473,-0.00025258076493628323,0.0009610319393686947,0.004710004664957522,-0.05158540642820299,0.05551080218050629,-9.81490815281868
1.5,0.4000000059604645,116.0,24.03937339782715,-0.05566241592168808,-79.782773207641,40.45911883999684,260.44895039510726,-0.005528890062123537,0.0008202411117963492,-0.9930766224861144,0.11733590066432953,-0.01974322404132859,-0.009060955885807872,0.003194992971637691,0.00788247399032116,0.0008975827950052918,0.001078472356311977,-0.05623665177728981,0.06664472304750234,-9.812728310823443
1.7,0.4000000059604645,121.0,24.034364700317386,-0.07156596332788467,-79.78277331220767,40.45911880641633,260.4495550544262,-0.005520549602806568,0.0008202219032682477,-0.993075966835022,0.117342010140419,-0.012353712949735212,-0.003172265094905179,0.002348695073816525,0.00017132014909293503,0.0016860601026564837,0.008321485482156277,-0.0511318954685703,0.0556194873014465,-9.814358514547347
1.8,0.4000000059604645,122.0,24.036869049072266,-0.07951773703098297,-79.78277335909108,40.459118786430025,260.45179511618613,-0.005514513235539198,0.0008561203721910715,-0.9930747747421264,0.117351196706295,-0.016033568284017443,-0.000328198819183374,0.005136073427715981,0.00038787207449786365,-0.0008348719566129147,-0.0008849534788168967,-0.0560665526194498,0.06852201274596155,-9.812428933382037
2.0,0.4000000059604645,121.0,24.03937339782715,-0.07156596332788467,-79.78277334013963,40.45911879014097,260.452300861597,-0.005507699213922025,0.0008720382465980947,-0.9930704832077026,0.11738835275173187,-0.019420126058910223,-0.0025347918869153443,0.005258708534007599,0.005299916490912437,0.0023749095853418107,0.010225565172731876,-0.05232025982346386,0.0564139137743041,-9.8137199985981
2.1,0.4000000059604645,121.0,24.040626525878906,-0.07156596332788467,-79.78277348254633,40.45911873835434,260.4545653910637,-0.005463550798594953,0.0008704885258339343,-0.9930672645568848,0.11741726845502852,-0.00547927289175741,0.0017355679903556743,0.007296478072403216,-0.0009219474159181117,0.0014178393175825474,-0.0028226911090314393,-0.05465355011634529,0.07255636770743877,-9.811568223237993
2.3,0.4000000059604645,121.0,24.034364700317386,-0.06361418962478638,-79.78277347541366,40.45911873804811,260.45530165743827,-0.005474673584103584,0.0008834658074192703,-0.9930658340454102,0.11742864549160005,-0.00855568109647077,-0.0005526033469651897,0.007506659593499883,0.003287335624918341,0.0028698600362986326,0.006228417158126831,-0.05248344738967717,0.05743653697427362,-9.813990139961243
2.4,0.4000000059604645,121.0,24.034364700317386,-0.07156596332788467,-79.78277354100364,40.459118733156814,260.45498217654233,-0.005469823721796274,0.000906261964701116,-0.993063986301422,0.11744474619627,-0.011611209386139886,-0.0016239547484243812,0.005575652016565347,-0.004389061126857996,0.0018033052328974009,-0.009569793939590454,-0.05720252500846984,0.06502092842012644,-9.813971428871156
2.6,0.4000000059604645,117.0,24.034364700317386,-0.06361418962478638,-79.78277352645159,40.45911873853872,260.45553947997087,-0.005492874886840582,0.000895731325726956,-0.9930618405342102,0.11746194213628768,-0.014567053987009316,-0.004177646933332236,0.0057659947778729145,0.0034688308369368315,0.00024136817955877632,0.008715166710317135,-0.05368015316314995,0.059199801399372524,-9.81393283724785
2.7,0.4000000059604645,116.0,24.04312896728516,-0.06361418962478638,-79.78277356190482,40.45911871013293,260.45745299768447,-0.005496708676218986,0.0009366954327560961,-0.9930585622787476,0.11748902499675752,-0.019147835576769964,0.0009103413365261161,0.0077743325651753285,-0.002421020995825529,-0.002717453055083752,-0.0047092176973819715,-0.057193644549697636,0.06384865761268885,-9.814374886751176
2.9,0.4000000059604645,111.0,24.036869049072266,-0.06361418962478638,-79.78277364861346,40.45911868285193,260.45648376655583,-0.00548241613432765,0.0009458778658881783,-0.9930576682090759,0.11749709397554398,-0.01176737632145747,0.0063124572524383285,0.004724639294268198,0.006103551480919123,0.0009393548825755716,0.009629272855818272,-0.053818037817254666,0.05915397384669632,-9.813558615446093
3.0,0.30000001192092896,114.0,24.03186225891113,-0.06361418962478638,-79.78277361075621,40.45911868146492,260.45746497821807,-0.005472618620842695,0.0009473302634432912,-0.9930566549301147,0.1175060123205185,-0.019765079118362568,0.001681398105003425,0.005426612408888321,-0.0005210310919210317,0.0024605842772871256,-0.003274890827015043,-0.05475790464319289,0.07465311071835459,-9.812197383642195
3.2,0.30000001192092896,109.0,24.03937339782715,-0.07156596332788467,-79.78277370289693,40.45911866785677,260.45400469017034,-0.0054539525881409645,0.0009485029731877148,-0.993054747581482,0.11752328276634215,-0.012806598377695207,0.0025197123647873326,-0.0015146696338772141,0.005148321855813265,0.002476758323609829,0.010280139744281769,-0.05314776874613017,0.056760059804655615,-9.814125795364381
3.3,0.30000001192092896,106.0,24.036869049072266,-0.07156596332788467,-79.78277377364843,40.45911866101135,260.4537142963409,-0.0054192435927689075,0.0009501960012130439,-0.9930508732795716,0.11755780875682832,-0.009742965967145656,0.0014394512082846632,-0.0006657054569850702,-0.00048106379108503466,0.00020558318647090343,-0.00021173025015741587,-0.05594293425790967,0.0703636481333524,-9.811887481212617
3.5,0.30000001192092896,101.0,24.03561782836914,-0.07156596332788467,-79.7827737615148,40.459118661966265,260.45364643645286,-0.005430499091744423,0.0009606480598449707,-0.9930478930473328,0.11758218705654146,-0.012995024146354386,-0.0005650637693324786,-0.000504121756699993,0.0020143436267971992,0.0008990518981590867,0.009640487842261793,-0.049653842691332106,0.055187985626980664,-9.81417725086212
3.6,0.30000001192092896,102.0,24.040626525878906,-0.06361418962478638,-79.78277383360009,40.459118668074154,260.45350466680526,-0.005408342927694321,0.0009252747986465694,-0.9930482506752014,0.1175803765654564,-0.008898087554451956,-0.003496407235613479,5.207634359192974e-05,0.004222205840051174,0.005604964680969715,0.003148320829495788,-0.05372763438150287,0.0634810687461868,-9.813357471227649
3.8,0.4000000059604645,101.0,24.033113479614247,-0.05566241592168808,-79.78277382324787,40.45911867350357,260.4535235316753,-0.0053947907872498035,0.000915820652153343,-0.9930448532104492,0.11760932207107545,-0.01300338868580334,-0.005673770973638468,0.0004789005643832122,-0.001266153296455741,-0.0023353025317192078,0.006456401664763689,-0.0544883936829865,0.056926810517907135,-9.815092924833296
3.9,0.4000000059604645,99.0,24.048137664794922,-0.02385532110929489,-79.78277387492773,40.459118672650106,260.4528688938617,-0.005367961246520281,0.0009393389336764812,-0.993044137954712,0.11761649698019028,-0.012412995471035087,-0.004345449628426248,0.0006415452999078702,0.004197222646325828,0.0013320641592144964,0.009352275170385838,-0.0560695995669812,0.0774975253175944,-9.811439584493638
4.1,0.4000000059604645,97.0,24.04187774658203,-0.07156596332788467,-79.78277385937923,40.459118680547576,260.4529414327144,-0.005373595282435417,0.0009412580984644592,-0.9930416941642758,0.11763709783554074,-0.017174239621634012,-0.006556487990928243,0.001063330179887217,-0.0033258106559515,-0.0028247460722923283,-0.007546036038547754,-0.05767320302780717,0.06606673948466778,-9.814109423160554
4.2,0.4000000059604645,97.0,24.03937339782715,-0.07951773703098297,-79.78277395546752,40.45911866870379,260.45163948845857,-0.00533675029873848,0.0009691485902294515,-0.9930381774902344,0.11766818910837172,-0.008561111288730121,-0.004196574382427637,0.0007883596540314374,0.0029414934106171127,0.0006050904630683362,0.0086014149710536,-0.05386783964931965,0.07337520173750818,-9.81210733652115
4.4,0.4000000059604645,94.0,24.03186225891113,-0.08746951073408127,-79.7827739779305,40.4591186799931,260.4476680607796,-0.00535829272121191,0.0009696622728370133,-0.9930366277694702,0.11768000572919846,-0.012189260799366646,-0.001113094717456566,-0.002437796688461971,-0.006668311543762685,-0.0004495554603636265,-0.013903292827308178,-0.05813317333348096,0.07429695589933545,-9.81170504808426
4.5,0.4000000059604645,93.0,24.0218448638916,0.02385532110929489,-79.78277394767639,40.459118691297995,260.44719456148147,-0.005364338867366314,0.000985748483799398,-0.9930343627929688,0.11769933253526688,-0.018254450256349697,-0.005743316979216026,-0.001979547055815347,0.0004703259619418532,0.0006941712344996631,0.003758061211556196,-0.05338959222659469,0.055086965840309865,-9.814178420305252
4.7,0.4000000059604645,91.0,24.033113479614247,0.03180709481239319,-79.78277402563046,40.45911869507684,260.44205732655524,-0.0053321532905101785,0.0010157328797504306,-0.993033230304718,0.11770980805158615,-0.008873831166212875,0.0012894507412246345,-0.005218395651547032,-0.004419935867190361,0.0011762555222958324,-0.01111464109271765,-0.057616590103134524,0.07741533539257944,-9.810698157548904
4.8,0.4000000059604645,90.0,24.03561782836914,-0.007951773703098297,-79.78277407907946,40.459118746830185,260.4366288633346,-0.005294138565659523,0.0009972400730475783,-0.9930304288864136,0.11773521453142165,-0.006087325741242963,-0.004552115144828334,-0.0035573742579141274,-0.003584781195968389,0.0007035416783764957,0.0006042309105396273,-0.05529466533567757,0.06107635562773794,-9.813118904829023
5.0,0.4000000059604645,88.0,24.03561782836914,-0.02385532110929489,-79.78277407357255,40.45911875246277,260.436275854826,-0.005260656122118236,0.001001889817416668,-0.9930279850959778,0.11775751411914825,-0.009089542027785093,-0.006712864142553005,-0.003258228788591225,-0.0030759347137063733,0.0009179382468573748,-0.00433363625779748,-0.054074735152535136,0.07571693394798787,-9.812931793928149
5.1,0.4000000059604645,89.0,24.03561782836914,-0.02385532110929489,-79.78277412020684,40.4591188174912,260.430386528492,-0.005239118821918964,0.0009897175477817657,-0.993023693561554,0.117794930934906,-0.009037125912440384,-0.009759418411366462,-0.0022079165695347,-0.004908253438770771,-0.0007378644659183919,-0.008930472657084465,-0.05151626310311258,0.05683706489391625,-9.813745726346973
5.3,0.4000000059604645,88.0,24.033113479614247,0.007951773703098297,-79.7827741131392,40.45911882813425,260.4301627428532,-0.005217948462814093,0.0009915116243064404,-0.993023693561554,0.11779550462961196,-0.011134427644678268,-0.012235591403939762,-0.0020557092784280052,0.003208739683032036,0.0017938484670594337,0.002695964416489005,-0.0556471153954044,0.06836923596449197,-9.812321344614027
5.4,0.4000000059604645,87.0,24.03060913085937,-0.007951773703098297,-79.78277414967881,40.45911892312914,260.4223681540489,-0.005195222795009613,0.0009951703250408173,-0.9930225014686584,0.11780624091625215,-0.013674012317077874,-0.017490339538307267,-0.003055537849942097,-0.00898039434105158,-0.0016105666290968654,-0.014161367900669575,-0.05174295234493912,0.05405543934088202,-9.813385537862779
5.6,0.4000000059604645,85.0,24.0218448638916,0.08746951073408127,-79.7827741380726,40.45911894278292,260.42205630254745,-0.005210055503994226,0.000981616321951151,-0.9930218458175659,0.1178113967180252,-0.01569914022707052,-0.020128481579330133,-0.003012653590930373,0.00834291148930788,0.0020013188477605573,0.006676644552499056,-0.0545920584211126,0.061686503444798285,-9.812672177553175
5.7,0.4000000059604645,86.0,24.02309608459473,-0.007951773703098297,-79.78277413874055,40.45911905010362,260.41230340313905,-0.005200772546231747,0.0009637856855988504,-0.9930163025856018,0.11785944551229476,-0.022355795144424973,-0.022854593172234032,-0.004527217758838976,-0.002170296385884285,-0.0006107771769165992,-0.007206072565168142,-0.05510514702647925,0.05910082813818007,-9.813848637342453
5.9,0.5,82.0,24.02309608459473,0.015903547406196594,-79.78277421770093,40.45911906245011,260.40372951340674,-0.005171522032469511,0.0010065836831927302,-0.9930144548416138,0.11787544935941695,-0.008874524304335362,-0.008994562912033169,-0.003173951093466563,0.00749186286702752,0.004129867535084486,0.007594935130327941,-0.05419036841019989,0.05877808467485013,-9.813714151382447
6.0,0.5,82.0,24.02810478210449,0.015903547406196594,-79.78277419621226,40.45911908614361,260.4031478018761,-0.0051683858036994925,0.0009935785783454776,-0.9930123686790466,0.11789300292730333,-0.015440679157801243,-0.013499176308366471,-0.0025732863869397608,0.00041209024493582547,0.003336127148941159,-0.0022153931204229593,-0.05515233588404954,0.07255420241039247,-9.812310819625855
6.2,0.5,81.0,24.036869049072266,0.007951773703098297,-79.78277428567209,40.459119143249886,260.3914862127304,-0.005154783837497234,0.0009861312573775653,-0.9930093288421632,0.11791973561048508,-0.005339905470316013,-0.010481821319527606,-0.005811109313316232,0.0038162651471793647,0.001667909324169159,0.009894425980746746,-0.05095457408577204,0.056094212690368295,-9.814666078090667
6.3,0.5,81.0,24.02685356140137,0.0,-79.7827742892198,40.45911920553061,260.381814286232,-0.005160666536539793,0.0010156830539926887,-0.99300616979599,0.11794570088386536,-0.010098810957883269,-0.0059570586279846975,-0.004241172174789869,0.002733837580308318,0.0006711187306791544,0.0005607091588899493,-0.05499259269330651,0.0646953846886754,-9.812852271795274
6.5,0.5,80.0,24.02810478210449,-0.02385532110929489,-79.78277427847478,40.45911921293828,260.38140247774123,-0.0051761595532298105,0.0010236146626994014,-0.9930009245872498,0.11798888444900513,-0.013522498358788156,-0.007978926301820833,-0.003936430383792309,-0.0005795333418063817,-0.0015352934133261444,0.0036398267839103937,-0.05466191894374788,0.0571293388819322,-9.814728058576584
6.6,0.5,80.0,24.02935791015625,0.007951773703098297,-79.7827743146764,40.45911930721551,260.36975626659387,-0.00515025295317173,0.0010164127452299,-0.9929966926574708,0.1180259734392166,-0.011616617204012504,-0.01167278830706963,-0.006004771243736768,0.008684707805514336,-0.0007539153448306023,0.007287723943591119,-0.05517602167557925,0.0582368609122932,-9.813109549283984
6.8,0.5,77.0,24.033113479614247,0.007951773703098297,-79.78277430391276,40.45911932026515,260.36916427326196,-0.005154825747013092,0.00103248399682343,-0.9929938912391664,0.11804864555597305,-0.015612575897975609,-0.013700190367694985,-0.005669133799095672,-0.005461062304675579,-0.00390479201450944,-0.00463823601603508,-0.057627270407974725,0.06444959606509656,-9.813715320825578
6.9,0.5,77.0,24.033113479614247,0.02385532110929489,-79.78277438317637,40.459119369882174,260.35685144376754,-0.005119578912854196,0.0010727671906352043,-0.9929906129837036,0.11807774007320405,-0.004942112264953432,-0.007637549642116518,-0.0077259808188551455,0.0060327365063130856,0.005654012318700552,0.011118846014142036,-0.0539691061154008,0.0755402840813622,-9.812687380313873
7.1,0.5,77.0,24.02935791015625,0.007951773703098297,-79.78277437774429,40.45911937904239,260.3560971469879,-0.005112971644848585,0.0010587603319436312,-0.992988348007202,0.11809735745191575,-0.009071504452696192,-0.009637003787139818,-0.007290052436513547,-0.006474543828517199,0.0006255515036173165,-0.010271237231791021,-0.056407696539536124,0.07275711906608194,-9.812934132814409
7.2,0.5,75.0,24.02935791015625,0.05566241592168808,-79.78277436017859,40.45911942976729,260.34290252637857,-0.005136135499924421,0.0010816926369443538,-0.9929829239845276,0.11814174056053164,-0.013239188714396128,-0.0017796899751771672,-0.008709328421543457,0.004433548543602228,-0.001246236148290336,0.007830953225493431,-0.05507714434526861,0.06743704360909761,-9.812499099969862
7.4,0.5,75.0,24.02935791015625,0.0,-79.78277443053447,40.459119518394495,260.33086381864547,-0.005104825831949711,0.0010843141935765743,-0.9929811358451844,0.11815762519836424,-0.005060805972531399,-0.004128622607551876,-0.009295527016183915,-0.004085378721356392,-0.00015047808119561523,-0.012001878581941128,-0.05826231457293034,0.07705056049861014,-9.81156237602234
7.5,0.6000000238418579,76.0,24.03186225891113,-0.007951773703098297,-79.78277441915805,40.45911953158585,260.3290277571678,-0.005085092969238758,0.0010853962739929557,-0.9929768443107604,0.118195079267025,-0.010343897716371713,-0.00839563842934412,-0.008904502657597691,-0.0003791353374253959,-0.0024341200478374962,0.0040175383910536775,-0.05398836995009333,0.05717565522529185,-9.815008724927905
7.7,0.6000000238418579,73.0,24.03561782836914,0.015903547406196594,-79.78277445945163,40.459119599295455,260.3186564297676,-0.005052431020885706,0.0011009182780981064,-0.992976188659668,0.11820145696401595,-0.005856860197004258,-0.003261452118736091,-0.006325954378302825,-0.004602666478604078,6.183992081787437e-05,-0.008351564407348633,-0.05686796834226698,0.07836921726353467,-9.810991687774658
7.8,0.6000000238418579,72.0,24.02560043334961,0.02385532110929489,-79.782774499708,40.459119705499134,260.3044632525444,-0.0050499276258051395,0.0011167107149958608,-0.992972195148468,0.11823493987321855,-0.0036880746082951048,-0.0067206490158189715,-0.008195845066686355,-0.004776512272655964,-0.0011103597935289145,-0.004455396439880133,-0.05707702457439155,0.06497757679782808,-9.81431641459465
8.0,0.6000000238418579,71.0,24.03937339782715,-0.06361418962478638,-79.78277449804888,40.45911971261964,260.3036525697708,-0.005016050301492214,0.0011116781970486043,-0.9929704666137696,0.11825119704008102,-0.005710113893706078,-0.009015448477356035,-0.007952028966280583,-1.5000787243479863e-06,-0.0005207821377553046,-0.003840882563963533,-0.054921891633421184,0.07387664159294219,-9.813372673988344
8.1,0.6000000238418579,76.0,24.03937339782715,-0.06361418962478638,-79.78277453567351,40.45911978881743,260.2886057944297,-0.004986882209777832,0.001091331010684371,-0.9929654598236084,0.11829502880573273,-0.0029186300612784014,-0.0021956434764354173,-0.009195728703078178,-0.004986599553376436,-0.0009425756288692355,-0.011474092490971087,-0.05144897900987417,0.05546110541559756,-9.81478886961937
8.3,0.699999988079071,69.0,24.036869049072266,-0.07156596332788467,-79.78277453346766,40.459119791698,260.28768454504007,-0.0049724336713552475,0.0010873923311010003,-0.9929627180099488,0.11831824481487276,-0.0043566237121406715,-0.00458934991476694,-0.00915539639471838,0.003749618772417307,0.002076228149235249,0.0063630668446421615,-0.05540302611887455,0.06526517301332206,-9.81307914376259
8.4,0.8000000119209291,70.0,24.03561782836914,-0.05566241592168808,-79.78277453810072,40.45911991606647,260.2718368024826,-0.004948878660798073,0.0010675735538825393,-0.9929614067077636,0.11833010613918304,-0.00867364463667571,-0.0075993251017501375,-0.009324629142654722,-0.0024080693256109953,0.00040067374357022345,-0.010271729901432993,-0.054223336656577886,0.0579210884263739,-9.815566549301149
8.6,0.8999999761581421,61.0,24.03561782836914,-0.05566241592168808,-79.78277452951413,40.4591199257275,260.270906314373,-0.004946197848767042,0.0010672733187675476,-0.992958962917328,0.1183510422706604,-0.010346285061394343,-0.010002429326668628,-0.009216700078241113,0.006367651280015707,-0.0005692156264558432,0.008840847760438919,-0.05460611914750189,0.05783920913469048,-9.814188945293427
8.7,0.8999999761581421,60.0,24.02685356140137,-0.06361418962478638,-79.78277455413483,40.45912004255785,260.2540141196251,-0.004940574057400228,0.0010842438787221909,-0.9929549694061279,0.11838430166244507,-0.008328292749342851,-0.008745500798954217,-0.00949478422776842,0.00025332049699500203,5.013917325413786e-05,0.00033580805757083,-0.0552770643029362,0.07110895799472929,-9.812448813915251
8.9,0.8999999761581421,58.0,24.036869049072266,-0.06361418962478638,-79.78277456518236,40.45912014477364,260.23718272161483,-0.004941738676279782,0.0011130623752251267,-0.9929522871971128,0.1184069961309433,-0.005626069965708688,-3.755260954894273e-05,-0.010175902316344007,0.003561798250302673,-0.0005994359962642193,0.00870363786816597,-0.05198617367539555,0.05498820728156716,-9.814786530733107
9.0,0.8999999761581421,57.0,24.040626525878906,-0.07156596332788467,-79.78277454769997,40.45912015155086,260.2351952047348,-0.00494108023121953,0.0010978589998558164,-0.9929506182670592,0.11842107027769087,-0.01070759174628372,-0.0044689734911525,-0.00973440878115997,0.0036026663146913047,0.002656139200553298,0.002976014045998454,-0.05726595816202462,0.07594191470649092,-9.812950505018234
9.2,0.8999999761581421,50.0,24.034364700317386,-0.06361418962478638,-79.78277456480781,40.45912027148805,260.21681974840163,-0.004926462657749653,0.0011002466781064868,-0.99294775724411,0.11844594031572342,-0.008029038792424064,-0.000869266447063433,-0.010344939783753329,-0.00032991677289828664,0.0004361877799965441,0.009104952216148376,-0.05327181651256978,0.05502009744755925,-9.814677772521973
9.3,0.8999999761581421,49.0,24.03561782836914,-0.07156596332788467,-79.78277456876278,40.45912043899689,260.1958360524177,-0.004921498242765665,0.0010718650883063674,-0.9929471015930176,0.1184518188238144,-0.009996373594396918,-0.007646854748676114,-0.010776965379728654,0.004762480966746807,0.0019152014283463359,0.007168044336140157,-0.058290920248255135,0.07727072644047439,-9.810079522132874
9.5,0.8999999761581421,46.0,24.03561782836914,-0.07156596332788467,-79.7827745583062,40.45912044799957,260.1947601289749,-0.0049205394461750976,0.00108483643271029,-0.9929434061050416,0.11848212778568268,-0.01300804046614264,-0.009583318042569159,-0.010633581600498359,5.908582170377487e-05,-0.0021337985526770353,0.005019864067435265,-0.05421540637034923,0.05562715720385313,-9.814338634014133
9.6,0.8999999761581421,43.0,24.036869049072266,-0.03180709481239319,-79.78277457832125,40.45912061137851,260.17186890554433,-0.004892983473837376,0.001102100475691259,-0.9929381012916564,0.11852813512086867,-0.008883195001098035,-0.009071583438949605,-0.011163004042821868,0.0024948755744844675,0.0012843452859669926,0.003247006563469768,-0.05862675599288196,0.07750083264894785,-9.809951468110086
9.8,0.8999999761581421,39.0,24.03937339782715,-0.07156596332788467,-79.78277457041206,40.45912062138978,260.17076157045364,-0.004895129706710577,0.0011099454713985324,-0.992933452129364,0.1185663491487503,-0.011655744754460084,-0.011022625001616295,-0.010883618135070536,0.0018593288259580727,0.0012178260367363693,0.005863352213054895,-0.05238711451180279,0.05480773388408125,-9.815374760627748
9.9,0.8000000119209291,40.0,24.033113479614247,-0.07951773703098297,-79.78277464185119,40.45912077559185,260.14667259168624,-0.004857130814343691,0.0011531889904290438,-0.992932677268982,0.11857428401708606,-0.0003523409106049908,-0.008655457479690824,-0.011625200533323663,0.002897492377087474,0.0031690462492406373,0.006658400874584913,-0.05770499726291746,0.0770542880985886,-9.811679320335386
10.1,0.699999988079071,35.0,24.036869049072266,-0.05566241592168808,-79.78277464222855,40.45912078448021,260.14551727485656,-0.004874040372669697,0.0011559464037418365,-0.9929302334785458,0.11859407275915144,-0.0032960216999985354,-0.01072323120313067,-0.011575322861941965,-0.0013041709316894412,0.003384537296369672,0.005447959527373314,-0.054162073368206616,0.05592055038549006,-9.81429068684578
10.2,0.6000000238418579,35.0,24.03060913085937,-0.07951773703098297,-79.78277465752338,40.459120924375505,260.1229733080864,-0.004862519912421703,0.0011719528120011091,-0.9929298758506776,0.1185971051454544,-0.005573593059251768,-0.0061316605388242965,-0.01134471791085749,0.0024512002710253,0.0015007432084530592,0.007088189013302326,-0.05498130482621491,0.061662150705233225,-9.814242739677429
10.4,0.6000000238418579,31.0,24.038122177124023,-0.09542128443717957,-79.78277468066132,40.45912105626224,260.1030697078705,-0.004869784228503704,0.0011843739775940776,-0.9929249286651612,0.11863856017589568,-0.00565051301908205,-0.0008282671272185735,-0.011478498226348149,-0.0005272718844935298,0.003269745735451579,0.0006548264063894749,-0.055066002658568335,0.057000850886106486,-9.814102406501773
10.5,0.6000000238418579,32.0,24.036869049072266,-0.07156596332788467,-79.78277466550705,40.45912106405182,260.10081098985665,-0.0048827449791133395,0.0011666464852169154,-0.9929242134094238,0.11864415556192398,-0.009701623661543613,-0.005181113196402115,-0.011202694716036372,0.0063581340946257114,0.003209053538739681,0.009686223231256008,-0.05680032793432475,0.07733277088031174,-9.81154249548912
10.7,0.5,30.0,24.03561782836914,-0.05566241592168808,-79.78277469446637,40.459121189073684,260.0830018372536,-0.00487527996301651,0.0011667510261759162,-0.9929199814796448,0.11867967247962953,-0.008471074575815002,0.0011395240023342765,-0.007457482077976919,-0.0058133481070399284,-0.0019212551414966585,-0.004872799851000309,-0.05488319951109588,0.06376883398275822,-9.814661400318148
10.8,0.5,31.0,24.02935791015625,-0.06361418962478638,-79.78277473266726,40.459121311065886,260.06315468263625,-0.004859081469476223,0.0011754705337807536,-0.9929161667823792,0.11871253699064255,-0.00240288923060158,0.0035352249651984624,-0.00914494581962347,0.0022486401721835136,0.0021974733099341393,0.005310684442520143,-0.054428893695585435,0.07507659074384719,-9.81227456688881
11.0,0.5,35.0,24.04187774658203,-0.06361418962478638,-79.78277472784795,40.459121309058226,260.0622473807335,-0.004844943061470985,0.001178328413516283,-0.9929116368293762,0.11875047534704207,-0.005861191438242821,0.0016409222221003548,-0.008894238451676398,-0.006294555496424437,-0.0015862025320529938,-0.010271776467561722,-0.05833090058527887,0.0717922828020528,-9.812963368892673
11.11,0.4000000059604645,38.0,24.03937339782715,-0.007951773703098297,-79.78277474280479,40.45912146165456,260.04240416002267,-0.00485252495855093,0.0011384737445041535,-0.9929073452949524,0.11878656595945356,-0.00849215751556277,-0.0039761194180471075,-0.010151965918581595,0.006548942066729069,0.0023532065097242594,0.008487292565405369,-0.05631755805574357,0.06929163880180568,-9.811538987159727
11.3,0.4000000059604645,40.0,24.036869049072266,-0.07156596332788467,-79.78277473416618,40.459121467278145,260.0413932056427,-0.0048475591465830786,0.0011433711042627694,-0.9929054379463196,0.11880270391702652,-0.011656546865387208,-0.006027890277412304,-0.009956203097495531,-0.00912293791770935,-0.005992521066218615,-0.010534141212701796,-0.059821246219798924,0.07487900053616614,-9.810812762975694
11.4,0.4000000059604645,41.0,24.034364700317386,-0.09542128443717957,-79.78277477488773,40.45912162006114,260.02208404254907,-0.004821396432816982,0.0011374537134543061,-0.9928993582725524,0.11885476857423782,-0.008460473691400202,-0.010837358331162776,-0.010662908687709185,0.003449975745752454,-0.00036094279494136566,0.009179660119116306,-0.05218282741494477,0.05522797053214163,-9.815261324644087
11.6,0.4000000059604645,42.0,24.038122177124023,-0.06361418962478638,-79.78277476696451,40.45912163255846,260.0210216493606,-0.004807365592569114,0.00114698545075953,-0.9928962588310242,0.11888061463832855,-0.011748852570484223,-0.012817670607306368,-0.010443898797891324,-0.005830076057463884,-0.003338209353387356,-0.010703817009925842,-0.05771839104127139,0.0755098831281066,-9.812282752990725
11.7,0.4000000059604645,41.0,24.03561782836914,-0.05566241592168808,-79.78277473286052,40.45912174582145,260.00178162765496,-0.004807031713426113,0.001187066431157291,-0.9928935170173644,0.1189035028219223,-0.017191365168395343,-0.004757787878136528,-0.011009816222831759,0.0010457169264554977,0.0006654398748651148,0.0032161099370568986,-0.05290643862448633,0.055770934754982585,-9.814164386987684
11.9,0.4000000059604645,41.0,24.036869049072266,-0.06361418962478638,-79.7827748186746,40.45912187632412,259.98257659387593,-0.0047690067440271395,0.001177811762318015,-0.9928913116455078,0.11892316490411756,-0.0048774301119336155,-0.005682768353334461,-0.011662467834952266,-0.008056827820837498,-0.0012811659835278988,-0.011336409486830236,-0.05764336395543069,0.07711732839234174,-9.812075761556626
12.0,0.5,40.0,24.03561782836914,-0.02385532110929489,-79.78277480909432,40.459121891995075,259.980251953125,-0.004785788245499134,0.0011704912176355722,-0.9928836226463318,0.11898701637983322,-0.008788043315041886,-0.009797576555934284,-0.01145234888746492,-0.0006699475343339143,0.0013548561837524176,0.007226606830954552,-0.05530694905668497,0.06477504843380302,-9.813193749189377
12.2,0.6000000238418579,43.0,24.040626525878906,-0.04771064221858978,-79.78277485644541,40.45912197014362,259.9612879605293,-0.004775281064212322,0.0012169465189799664,-0.9928829073905944,0.11899284273386004,-0.004774809925321789,0.0034642223721941053,-0.011252733935180515,-0.005735947750508785,-0.004509618971496821,-0.011270435526967049,-0.05779131678398699,0.07721088384278119,-9.81103846549988
12.3,0.6000000238418579,44.0,24.038122177124023,-0.05566241592168808,-79.78277490795101,40.45912211388885,259.94072781515115,-0.004770176019519568,0.0012128696544095876,-0.9928803443908693,0.11901472508907318,-0.003008368521140981,-0.0006291547004650844,-0.011618582460436507,-0.0035909563302993774,0.0010954915778711438,0.008665177971124649,-0.05532031999435276,0.062258502747863535,-9.812998452186584
12.5,0.699999988079071,45.0,24.038122177124023,-0.06361418962478638,-79.78277490484496,40.45912211523989,259.93957792234414,-0.0047476887702941895,0.0012174906441941855,-0.9928808212280272,0.11901156604290007,-0.005565870066333146,-0.002461297921565535,-0.011413834234823379,-0.004928459879010916,-0.0011069582542404532,-0.012385526672005652,-0.0580074353562668,0.07844294699840249,-9.810609279870988
12.6,0.699999988079071,45.0,24.038122177124023,-0.07156596332788467,-79.78277492081159,40.4591222801203,259.9191573710441,-0.004741399548947811,0.0011895796051248908,-0.9928794503211976,0.11902321130037308,-0.01091496024679731,-0.005929018644954824,-0.009284061815197805,-0.002327784895896912,-0.004113420844078064,0.007381128612905741,-0.05484444800298662,0.0617707992810756,-9.813120074272156
12.8,0.8000000119209291,46.0,24.03561782836914,-0.10337305814027786,-79.78277491060801,40.45912228758849,259.91822271060937,-0.004710550419986248,0.001202960149385035,-0.99287748336792,0.11904118955135345,-0.013187481934539395,-0.007796569362389389,-0.009174464213918756,-0.0013080211356282234,-0.001128430012613535,-0.010178647004067898,-0.054943567444570365,0.07802243169397116,-9.8109472489357
12.9,0.8000000119209291,49.0,24.03060913085937,-0.08746951073408127,-79.78277501359248,40.459122427017284,259.89801393461227,-0.0046440898440778255,0.0012393768411129713,-0.992872953414917,0.119081012904644,-0.002011164657427911,-0.00614303254944269,-0.0072006394810544905,-0.0020400944631546736,0.00047678267583250994,-0.0013757131528109312,-0.05521099076606333,0.06394522346556188,-9.813254560232163
13.1,1.0,54.0,24.03937339782715,-0.07156596332788467,-79.78277501282722,40.4591224340152,259.8972903342247,-0.004643804859369993,0.0012487036874517794,-0.9928745031356812,0.11906824260950087,-0.0036954908788991775,-0.008312456732449042,-0.007149478914875287,0.0013535984326153994,-0.0005059328977949917,-0.0052339001558721066,-0.05481607530266047,0.0764505311055109,-9.811623187065123
13.2,1.0,55.0,24.03937339782715,-0.07156596332788467,-79.78277510954128,40.45912256437797,259.87386421871184,-0.004608566872775555,0.001272628316655755,-0.992871344089508,0.11909539252519608,0.0019525840329444977,-0.005040130293077011,-0.009414009228971516,-0.009787374176084995,-0.004511479754000902,-0.010392559692263605,-0.0516124269599095,0.05625625822227449,-9.813529379367829
13.4,1.100000023841858,61.0,24.02935791015625,-0.08746951073408127,-79.78277513047759,40.459122729053,259.8526304216385,-0.0046232622116804106,0.0012777517549693589,-0.9928717017173768,0.11909161508083345,-0.003689955304472558,-0.003781264117936261,-0.00819994778584108,0.0015770773170515895,0.0027180064935237174,0.0021315279882401232,-0.05751861269585789,0.06766910041216763,-9.81158810377121
13.5,1.100000023841858,65.0,24.03060913085937,-0.07156596332788467,-79.7827751206563,40.459122740323636,259.8510102481842,-0.004633558448404075,0.0012738313525915144,-0.9928669929504396,0.11913082003593445,-0.008555839819191304,-0.007266690799744334,-0.007994639326065922,-0.005021488294005394,0.00020737238810397682,-0.013673259876668451,-0.05330183831043542,0.05439209278207273,-9.814469611644745
13.7,1.0,67.0,24.03561782836914,-0.09542128443717957,-79.78277523771918,40.45912286879108,259.8287277669906,-0.00458524702116847,0.0012792241759598255,-0.9928637146949768,0.11915992945432664,0.005717601950061115,-0.000914366903956456,-0.006624779645962252,0.007458198815584183,0.004358974751085043,0.004151829052716494,-0.05406897473149002,0.05989408516790716,-9.813048738241196
13.8,1.0,68.0,24.02935791015625,-0.07156596332788467,-79.78277534585466,40.45912303148685,259.8049756736756,-0.004566309973597527,0.001294572837650776,-0.9928596019744872,0.11919447034597395,0.00855142392274845,-0.00013274977249419279,-0.0055033897332769,-0.0011395509354770186,0.002405581763014197,-0.005544821731746197,-0.05434685908723623,0.0762415662361309,-9.812185689210892
14.0,1.0,71.0,24.03561782836914,-0.07156596332788467,-79.7827753557638,40.45912302994849,259.8044350595474,-0.004572800360620022,0.0013039512559771538,-0.992856740951538,0.11921854317188264,0.007356426664592869,-0.0019832202329514805,-0.005626157828226391,0.00592521857470274,0.002520949812605977,0.01080495212227106,-0.05215317106805742,0.055441352790221575,-9.81357966542244
14.1,1.0,71.0,24.040626525878906,-0.05566241592168808,-79.78277542439903,40.45912323302096,259.7804047317505,-0.004595103673636913,0.0012745294952765107,-0.992851972579956,0.11925741285085678,0.0014604699990514046,-0.006326124643642361,-0.004599029433177654,0.004266921430826187,-0.0015112650580704212,0.006607500370591879,-0.05859235791955144,0.07359868414700031,-9.811791586875916
14.3,0.8999999761581421,72.0,24.001811981201172,0.6997560858726501,-79.78277542708766,40.459123238442004,259.7799643726349,-0.004618288483470678,0.0012785771396011116,-0.9928462505340576,0.11930368840694427,-0.0009173582838483633,-0.007932412119468563,-0.004531038573736222,0.002345469081774354,0.0020661719609051947,0.005099975969642401,-0.0525324223889038,0.05470331997144968,-9.813301337957384
14.4,0.8999999761581421,73.0,24.02059364318848,0.2544567584991455,-79.7827755421014,40.45912341172142,259.755591556549,-0.004599642939865589,0.0012823066208511589,-0.9928440451622008,0.11932337284088135,0.003621129317418704,-0.006395142279027423,-0.004535320480611088,0.006658377591520548,0.002022169297561049,0.002780507318675518,-0.05751232693903149,0.08781219645403326,-9.810168399810793
14.6,0.8000000119209291,73.0,24.02560043334961,0.2385532110929489,-79.78277554635147,40.4591234177836,259.75516538333886,-0.004601442720741034,0.0012701655505225062,-0.9928385019302368,0.11936917155981065,0.000379901701099036,-0.00784239011663694,-0.004171856203030731,-0.007021227385848761,-0.004830783233046532,0.0028468805830925703,-0.05470517920330168,0.06871365067083389,-9.813097854852675
14.7,0.699999988079071,76.0,24.024349212646484,0.2385532110929489,-79.78277558789033,40.459123604323686,259.7294080705642,-0.004617547150701284,0.0012680977815762162,-0.9928385615348816,0.11936836689710616,-0.007005113509124944,-0.004799757550259955,-0.004148229045911062,-0.0017446952406316991,0.0019691288471221924,0.009996888227760792,-0.05676803120411932,0.061411035633645965,-9.808536441922188
14.9,0.8000000119209291,74.0,24.02059364318848,0.2465049922466278,-79.78277572409336,40.45912380718182,259.70327059936517,-0.004586614668369293,0.0012538647279143331,-0.9928343296051024,0.1194051206111908,0.0002499339386947919,-0.0052461161274716785,-0.004251310192044562,-0.002543474547564984,-0.006743395235389471,-0.012209516018629074,-0.05920114899985492,0.07429553064052016,-9.809479597806929
15.0,0.8000000119209291,73.0,24.01558494567871,0.2703603208065033,-79.78277572718255,40.45912381902863,259.70242528629296,-0.004596499726176262,0.001272765570320189,-0.9928293228149414,0.11944584548473358,-0.002733922091853837,-0.008969742513168887,-0.004261011269181819,0.0006293231854215263,-0.0008385252440348268,0.006000064313411714,-0.05437770771794021,0.05393143268767744,-9.814283670186997
15.2,0.8999999761581421,74.0,24.02059364318848,0.3419262766838074,-79.78277585197894,40.45912402622506,259.6750145406723,-0.0045955562964081756,0.001275928458198905,-0.9928328394889832,0.11941638588905334,0.0005230647139940718,-0.009203099252404864,-0.00795342274090425,-0.0023609665222465988,3.415974424569868e-05,-0.014103545807301996,-0.05205110060982406,0.06720779164228588,-9.808497265577316
15.3,0.8999999761581421,73.0,24.014331817626953,0.3498780429363251,-79.78277594187514,40.45912420663204,259.6513516159057,-0.004583482164889574,0.001278650015592575,-0.9928259253501892,0.11947408318519592,-0.0018625216346420247,-0.006164562758258186,-0.006729336118167614,-0.0035398788750171657,-0.0034857462160289288,-0.0067719584330916405,-0.046620147326029836,0.058230520337820064,-9.813226493597034
15.5,0.8999999761581421,71.0,23.89413642883301,2.059509515762329,-79.78277594289621,40.45912421297752,259.65069656085967,-0.0045518861152231685,0.0012585953809320927,-0.992833971977234,0.11940882354974748,-0.002915215215933132,-0.008738958507261347,-0.006393316858486098,-0.0038929760921746492,-0.003235320094972849,-0.0014769717818126082,-0.04548405159730465,0.06974176020361482,-9.810369544029236
15.6,0.8999999761581421,73.0,23.99930763244629,0.3975887000560761,-79.78277608026157,40.459124416296,259.6282862873077,-0.004557961132377386,0.0012734852498397233,-0.9928271174430848,0.1194656863808632,-0.0007230418231262317,-0.01397769554263142,-0.005738159446840698,-0.0314202606678009,0.007891499437391758,0.002445340622216463,-0.0784775369334966,0.0820015350356698,-9.8010104906559
15.8,1.0,73.0,23.000171661376953,17.454143524169922,-79.78277608628602,40.45912442750211,259.62768130016326,-0.004550004843622446,0.0013284673914313314,-0.9928213953971864,0.11951243877410887,0.000605914000170409,-0.014011724365153121,-0.006061858496769119,0.001400295295752585,-0.00579092837870121,-0.001993997721001506,-0.08154262910597028,0.06947240912821144,-9.811073548793793
15.9,1.100000023841858,69.0,23.937957763671875,1.3995121717453003,-79.78277620756809,40.45912458947284,259.6050013751984,-0.004475819878280164,0.0012772770132869482,-0.9928221702575684,0.11950934678316115,0.009109072998949159,-0.01335800330152993,-0.005879433394448172,0.07875119149684906,0.04174893721938133,0.00555597385391593,-0.0648273170599714,0.03270817318931222,-9.799272113442422
16.1,1.2999999523162842,63.0,24.018089294433594,0.18289080262184146,-79.78277621175282,40.459124599617354,259.60447947692865,-0.004504879005253315,0.001259972807019949,-0.9928227066993712,0.11950445175170896,0.00047850174016181134,-0.011942061378559993,-0.005037074611015046,0.0015746114077046516,0.011182758025825024,0.0019918465986847878,-0.05306655183434487,0.023630816282238808,-9.804259788393974
16.2,1.2999999523162842,62.0,24.006820678710927,0.1908425688743592,-79.7827763628684,40.459124729523815,259.58043019485467,-0.004493121989071369,0.0013534707250073552,-0.9928209781646729,0.11951769143342973,0.008344930727791192,-0.007200612244867915,-0.008521490472167444,0.012866336852312088,0.004630568902939558,0.0114651620388031,-0.05648503053467721,0.07314857644960285,-9.814912830591203
16.41,1.2999999523162842,62.0,23.830280303955078,3.7214303016662598,-79.78277637102494,40.45912473533849,259.5795841665268,-0.004490348510444164,0.0013181634712964294,-0.9928140640258788,0.11957584321498872,0.005112148581492163,-0.009016990530106985,-0.008326453239077686,-0.000555987935513258,0.0010137237841263411,-0.009040924720466135,-0.0611299855588004,0.05925729140639305,-9.815650749206544
16.5,1.2000000476837158,61.0,23.80023193359375,4.460945129394531,-79.78277640834531,40.459124920894425,259.5555067510605,-0.0044965483248233795,0.0013071073917672038,-0.9928106665611268,0.1196041852235794,-0.009151683224888544,-0.01038457693902089,-0.0107492494700487,-0.004866858944296837,-0.004421339835971594,-0.010199598036706448,-0.06177202810999007,0.0821842970699072,-9.809024099707603
16.7,1.2999999523162842,57.0,23.69505882263184,6.902139663696289,-79.78277657424273,40.45912507971365,259.53426723194116,-0.004441707395017147,0.001305747078731656,-0.9928185343742372,0.11954087764024734,-0.00035011048658928253,-0.011907905136634185,-0.011499094564171657,0.0036595400888472795,-0.005316022783517838,-0.014273998327553272,-0.08819724474102257,0.11907109156250956,-9.790787218809127
16.8,1.2999999523162842,56.0,23.66501045227051,8.11876106262207,-79.78277667850267,40.45912522054602,259.51225082588195,-0.0044256653636693954,0.0013351466041058302,-0.9928141236305236,0.1195778176188469,-0.0032862085510057893,-0.005768747656455461,-0.012303686072370243,0.01918403804302216,0.003417467465624213,-0.025888865813612938,-0.02973309387685731,0.09500752422027292,-9.834906799793245
17.0,1.5,59.0,23.50975608825684,11.11658000946045,-79.78277667999245,40.45912522606414,259.5111884326935,-0.004168445710092783,0.0013803443871438505,-0.9928133487701416,0.11959285289049147,0.0010447303827711275,-0.01024757138573344,-0.010022142465271092,0.033973578363657005,0.10046301037073137,0.03415088728070259,-0.04345838880166412,0.11794777748174964,-9.898068423271178
17.1,1.600000023841858,63.0,23.450910568237305,12.33320140838623,-79.78277683200892,40.4591253848019,259.4908776731491,-0.003090306418016553,0.0014543915167450905,-0.9928138852119446,0.11962001025676727,0.00641976557888851,-0.01468535540557365,-0.0061398391809549535,0.03932549059391022,-0.014028306119143965,0.04093281179666519,-0.09766269003041088,0.10479040022939444,-9.785782002210617
17.3,1.7000000476837158,61.0,23.265605926513672,15.513911247253418,-79.7827768390165,40.45912539153996,259.4902114124298,-0.0023721575271338224,0.0015172231942415235,-0.9928245544433594,0.11954711377620696,0.0026694259531120186,-0.009355874060799746,-0.004426721356310843,-0.004301716573536396,0.04612987488508225,0.011751082725822927,-0.039881788599304864,-0.02004552748287097,-9.857333210706713
17.4,1.7000000476837158,62.0,23.19799613952637,17.27125358581543,-79.78277694844219,40.45912551383704,259.4742451162338,0.00019334965327288955,0.0014537235256284475,-0.9928389191627502,0.11945236474275588,0.009094331970627744,-0.00877156442080633,0.005845124507171137,0.06722497195005417,-0.03170778974890709,0.031324584037065506,-0.07431068771984428,0.02266549807973206,-9.832827529907227
17.6,1.600000023841858,66.0,23.036481857299805,20.8734073638916,-79.78277696128309,40.45912552310597,259.4750793428421,0.00199967110529542,0.0007318296120502055,-0.9928257465362548,0.11955144256353376,0.011981772311659259,-0.012690507226757191,0.009713461760250768,0.0849652960896492,0.06920049339532852,-0.022010497748851776,-0.015279149087145925,-0.09906640551052988,-9.913416194915774
17.7,1.7000000476837158,67.0,22.9350643157959,23.02833747863769,-79.78277703027672,40.45912568310406,259.4596833438873,-0.003136332612484693,0.0014017208013683558,-0.9927117824554444,0.12046434730291368,-0.04228926871398697,0.0028588929484598827,0.03360932888511781,-0.22153741121292114,-0.027913087978959084,-0.03710242733359337,0.04339985725935549,-0.11169299262575806,-9.913555358648301
17.9,1.7000000476837158,66.0,22.73849296569824,26.65434646606445,-79.782777219622,40.459125774363855,259.4312243909836,-0.011449706740677357,0.001492500538006425,-0.9923710823059082,0.12274505198001864,-0.031947253884069785,0.02860166186455586,0.03610966553422697,-0.24078711867332456,-0.0902169942855835,-0.1784409135580063,0.212883216496557,0.2793030547164381,-9.98080418586731
18.0,1.7999999523162842,69.0,22.64959716796875,28.538917541503906,-79.78277708220745,40.459125710442756,259.45247535419463,-0.030419327318668362,0.005158218089491129,-0.9912313222885132,0.1284860074520111,-0.07534357589446962,0.07945648822132217,0.2013347019798406,-0.2909921407699585,-0.20243790745735168,-0.0610080361366272,0.14661956288851802,0.4927410988882184,-10.639618159532548
18.2,1.7999999523162842,64.0,22.82488441467285,23.86327362060547,-79.78277696384521,40.45912597927069,259.42935948085784,-0.03085695020854473,0.006053213961422443,-0.9908612370491028,0.13116911053657532,-0.0819266101405482,0.061190606412765976,0.24161809928329284,0.06727232784032823,0.11928799748420715,-0.05265558511018753,-0.08242381364107132,0.5992140354216099,-10.6579059112072
18.3,1.7999999523162842,61.0,22.90752029418945,21.597017288208008,-79.78277669934411,40.459125884756475,259.4819257707596,-0.0032635051757097244,-0.006296465173363686,-0.991028368473053,0.13346362113952634,-0.12003668663892705,0.08980229575501482,0.2773539957062903,-0.07506409287452698,0.032938409596681595,-0.0792672261595726,0.025525802944321187,0.1109444485232234,-10.266796181201936
18.5,1.8999999761581416,61.0,22.807355880737305,24.06206703186035,-79.78277626264071,40.45912597772292,259.47621719551086,0.003751701908186078,-0.010850036516785622,-0.9910928606987,0.13267691433429718,-0.1053498849449425,0.07032564049104034,0.21499063651313705,0.1552882194519043,0.2376183867454529,0.0651182308793068,0.20943750713020565,-0.05934310386423021,-9.727023332118991
18.6,1.7999999523162842,57.0,22.78356742858887,24.80158233642578,-79.78277604644708,40.45912594573768,259.49300913524627,0.010113066993653774,-0.015050603076815603,-0.9912818074226379,0.13050508499145508,-0.09000440586333287,0.06171750798184825,0.14061442334166466,-0.2019557058811188,-0.09068774431943892,-0.012363338842988014,0.13699501851573587,0.09266783396713436,-9.642778403162957
18.8,1.600000023841858,62.0,22.73348426818848,25.040136337280273,-79.78277596106308,40.45912591810001,259.5070888252258,0.0051199286244809645,-0.01418869383633137,-0.9914106130599976,0.12991364300251007,-0.05975453531913185,0.04585855526756522,0.13348874657308765,-0.13706310093402865,0.020211424678564068,0.08800682425498962,0.12386028095148505,-0.12399780929088593,-9.669904806017877
18.9,1.7000000476837158,63.0,22.74475288391113,25.087846755981445,-79.78277588000786,40.45912599847868,259.5262986869812,-0.005469792988151312,-0.009522422216832638,-0.9916352033615112,0.12860479950904846,-0.020971081925881808,0.02057636016215667,0.1340802729455065,0.1414424329996109,0.050756972283124924,0.11871176958084105,0.060116663086228074,0.2745052498206496,-9.785993086695672
19.1,1.7000000476837158,62.0,22.674638748168945,25.978445053100586,-79.78277583842547,40.45912599262737,259.54037837696075,-0.004759477451443672,-0.006987536791712046,-0.991763472557068,0.1278039962053299,-0.023906207061404373,0.018738410679536608,0.1497957078067848,0.05453438311815262,-0.16761165857315066,0.014207720756530762,0.13864437187090514,0.1589354344457388,-9.994947431087494
19.2,1.7999999523162842,63.0,22.708444595336914,25.636518478393555,-79.78277606352474,40.45912570272779,259.5919143409729,-0.002481000963598489,-0.003316737711429596,-0.992010533809662,0.1260872185230255,-0.023354096537061785,0.06581521759821805,0.20183497051781865,-0.23023176193237305,-0.07538137584924698,-0.029365912079811093,0.17978311540558936,0.04720219653099776,-9.999481362104415
19.4,1.7000000476837158,65.0,22.598262786865234,27.78349876403809,-79.78277604352796,40.45912565255871,259.612992808342,-0.004032691475003958,-0.006371228024363518,-0.9920900464057922,0.12530210614204407,0.010395468097211341,0.06920707911659127,0.2175386605973192,0.011054856702685356,0.11308950930833815,0.06342372298240663,0.1702034758217633,-0.015967960227280857,-9.958031619787217
19.5,1.7000000476837158,68.0,22.70343589782715,25.33435249328613,-79.78277599808409,40.45912548178954,259.6676800699234,-0.006376819219440222,-0.015255870297551157,-0.991950750350952,0.12554001808166504,0.02579870076281704,0.07869001080767885,0.27444772286947905,0.15639644861221313,0.13288305699825287,0.04837527498602867,0.20475982597097755,0.2262629432603717,-10.091341120004657
19.7,1.7999999523162842,66.0,22.65585708618164,26.471454620361328,-79.78277594213867,40.45912541243153,259.69388143730157,-0.005183568224310875,-0.0156913660466671,-0.9918138384819032,0.12661918997764587,-0.00725014091876232,0.09090360216150024,0.2661716479257341,-0.171254500746727,-0.09479652345180513,-0.14807170629501346,0.2361838409677148,0.34776680544018745,-9.746541922688484
19.8,1.7999999523162842,67.0,23.248077392578125,13.53391933441162,-79.78277601336204,40.459125137783154,259.766481921196,-0.0015828132163733244,-0.012982918880879879,-0.9916431903839112,0.1283462643623352,0.03998574285704963,0.07548132777820186,0.24370263123302505,0.1952199935913086,0.02179695852100849,0.018665103241801262,0.16833956619724633,0.06307141190394759,-9.373681937456134
20.0,1.8999999761581416,69.0,22.52439308166504,28.125423431396484,-79.78277602644822,40.45912506800377,259.78658072662347,-0.0006297638756223023,-0.01258401945233345,-0.991531491279602,0.12925419211387634,0.032431157285273765,0.0647593504227148,0.1646821247461112,-0.008366893045604229,-0.012216595001518726,0.026951439678668976,0.10728140546008944,0.02571038994938135,-9.193274284601213
20.1,1.8999999761581416,70.0,22.515628814697266,29.81120109558105,-79.78277623076366,40.45912476995697,259.8532742710113,-0.004629748873412609,-0.012127210386097431,-0.9913622736930848,0.13050828874111176,0.046443711904018886,0.07563932061812775,0.26117544034490736,-0.0396319143474102,0.0281091146171093,0.03384390100836754,0.2065071750059724,0.14187378907576206,-10.165983166694641
20.3,2.0,71.0,22.251445770263672,34.20058059692383,-79.78277626536237,40.45912470022779,259.88355915260314,-0.005188252776861191,-0.010755275376141071,-0.991316020488739,0.1309586763381958,0.0506733419415695,0.06995524291116234,0.3490820775715247,-0.08786912262439728,-0.14857366681098938,-0.03510134667158127,0.09791192759759723,0.13412968184798954,-10.650118589401243
20.5,2.0,70.0,22.263965606689453,34.129013061523445,-79.7827762559353,40.45912432484224,259.98362348985665,-0.008971611969172955,-0.006802440155297518,-0.9913126230239868,0.13104437291622162,0.07092699054834335,0.09832059998829816,0.6358578026690329,0.09464416652917862,0.07706992328166963,0.07027290761470795,0.1153180653322488,0.12617753251455724,-11.319236526489258
20.6,2.0,69.0,21.994773864746094,39.17839050292969,-79.78277628531771,40.459124231364605,260.0552847237587,-0.010392610915005207,-0.008177279494702816,-0.9913444519042968,0.13061930239200592,0.07395611378658097,0.10194517921328984,0.7928814464792288,0.06020458415150641,0.06649009138345717,0.07080407440662384,0.2352442665025592,0.2985973314754665,-11.429274108409881
20.7,2.0999999046325684,69.0,21.98976707458496,37.77092742919922,-79.78277646692383,40.459124073096035,260.1470149011612,-0.012902701273560524,-0.009278615936636923,-0.9913844466209412,0.13001663982868195,0.06097338560200712,0.10943386880278604,0.9697226663854284,-0.15002578496932986,-0.032872382551431656,-0.13977903127670288,0.2748276506736875,0.3265512067079544,-11.724536279439926
20.9,2.0999999046325684,67.0,22.007295608520508,38.32754898071289,-79.78277651151392,40.459123796285546,260.3954519481659,-0.014502885751426218,-0.012236172333359718,-0.991524577140808,0.12852634489536285,0.07001110536951573,0.11799780850163645,1.4125730862756964,0.10247916728258133,0.07519194483757019,0.0930551290512085,0.3000843697786331,0.14858954465948046,-12.067123475074773
21.0,2.200000047683716,67.0,21.925912857055664,40.61766052246094,-79.78277649969898,40.45912371190217,260.54832945775985,-0.01256336085498333,-0.012348749674856664,-0.9916017651557922,0.12812402844429016,0.05713578564037064,0.1400101388856308,1.6305820442437804,-0.009400933049619198,-0.10632436722517014,0.03809656202793121,0.32561265550553803,0.1387657746858895,-11.95418567419052
21.11,2.299999952316284,66.0,21.885847091674805,41.37308120727539,-79.7827765177492,40.459123505719326,260.92291942250733,-0.01108444482088089,-0.00719974748790264,-0.991642951965332,0.12833432853221893,0.04636064089047123,0.1358499612942705,2.07940366110554,0.016579654067754745,-0.15659134089946747,0.002585298614576459,0.3516125922650099,0.2181832241266966,-12.154151093959813
21.3,2.4000000953674316,66.0,21.83325958251953,42.868011474609375,-79.78277644650332,40.45912327392683,261.394642159462,-0.015405080281198025,-0.005835416726768017,-0.9913347363471984,0.13032354414463046,0.05060216138442783,0.129884364919121,2.5683166005085094,0.03735874965786934,-0.04809821769595146,0.02485603839159012,0.32910548977553844,0.2360033081844449,-12.21689756512642
21.5,2.5,65.0,21.561565399169922,32.80106735229492,-79.78277637763199,40.45912319169817,261.664427444458,-0.015751441940665245,-0.005851479712873697,-0.9912459850311279,0.1309543401002884,0.05076431463312903,0.13663757761456613,2.8104903862268693,0.02118951641023159,-0.047781862318515785,-0.010685098357498646,0.28728781141340737,0.24683476354926825,-12.137584762573242
21.6,2.5999999046325684,65.0,21.560312271118164,33.03961944580078,-79.78277628840334,40.45912310418207,261.95268623542785,-0.015249532647430897,-0.0065678078681230545,-0.9912443757057192,0.130992129445076,0.035900456106109084,0.1392079097481163,2.9327711446379445,-0.013577407225966457,0.02643674425780773,-0.0713915154337883,0.24328420629724865,0.3893349538743496,-11.203456978797913
21.8,2.700000047683716,62.0,21.683013916015625,31.560590744018555,-79.78277602397813,40.45912293475997,262.54957740020745,-0.015741344541311264,-0.008412559516727923,-0.9911607503890992,0.13146023452281952,0.01866513988886712,0.15236580674612582,3.0242177751646966,0.09996504336595537,0.06906053423881531,0.022881010547280308,0.14582064136862755,0.10422060733661057,-10.380973591804505
21.9,2.799999952316284,63.0,21.39253807067871,38.216224670410156,-79.7827758448287,40.459122960197675,262.83516578388213,-0.012773429974913595,-0.009430866688489914,-0.9912309050559998,0.13118401169776914,-0.0006503760261702443,0.14102239845101958,3.0182315465373795,0.15022724866867065,0.13359668850898745,0.09976185858249664,0.06821225192863495,0.1452427537366748,-10.044264017343524
22.1,3.0,65.0,22.350357055664066,29.365901947021484,-79.78277551574006,40.459122819724456,263.44916097831725,-0.006066314410418272,-0.008365809917449951,-0.9914778470993042,0.12986546754837036,-0.03999173962259702,0.1646414182471276,3.170192092093448,0.16922308504581451,0.03335167095065117,0.026198331266641617,0.13057832974009215,0.07224200220778584,-10.80859684467316
22.2,3.0,63.0,22.26146125793457,31.31408500671387,-79.78277505531192,40.45912269600419,264.10496871185296,-0.0031286790035665035,-0.0077800932340323925,-0.9914820194244384,0.12997353076934814,-0.09037100447501634,0.15209189830958586,3.236287902198433,-0.049581605941057205,-0.04623138532042504,-0.017217500135302544,0.10733686264604332,0.28959252800792457,-10.400068259239196
22.4,3.2000000476837163,65.0,22.253950119018555,31.011919021606445,-79.78277476073343,40.45912184577528,264.6172138900757,-0.0043445858173072355,-0.009951695799827577,-0.9914191961288452,0.13026948273181915,-0.06316660454699513,0.20417261029777672,3.3087827094929825,-0.07220033556222916,0.027359526604413983,0.04799232631921768,0.14693131998181344,0.0190137748606503,-9.879461413621902
22.5,3.2000000476837163,65.0,22.350357055664066,29.09554100036621,-79.78277461114415,40.459121735835815,264.9471675605774,-0.006626110058277845,-0.012703905813395977,-0.9913440346717834,0.13050585985183716,-0.04249823938178158,0.2146920673318784,3.2900951877017413,0.00849157478660345,0.12343483418226242,0.015257234685122969,0.1683078267797828,0.10188224184326827,-9.691764621734619
22.7,3.299999952316284,66.0,22.28274726867676,30.009994506835927,-79.78277414087613,40.4591214800645,265.64012353134154,-0.006116982083767653,-0.012947378680109978,-0.9913043379783628,0.13080789148807526,-0.03667201798494512,0.2167730055443599,3.2254537053839285,0.07248205691576004,-0.03370741009712218,-0.031236020848155018,0.2368001557700336,0.20707972705364228,-9.518410465121269
22.8,3.2000000476837163,67.0,22.406700134277344,27.67217254638672,-79.78277375809289,40.45912134852428,266.2942935676574,-0.0066612483933568,-0.013304856605827808,-0.9912461042404176,0.13118618726730347,-0.06649783577149064,0.1808238281642908,3.138142581794324,-0.12500041723251346,-0.0012078523868694901,-0.10352055728435516,0.1465073420293629,0.2704315677657724,-9.288398543000222
23.0,2.9000000953674316,66.0,22.212631225585934,31.40155601501465,-79.78277359637737,40.45912126218854,266.60800521087646,-0.005991045385599136,-0.014776454307138918,-0.9912983179092408,0.13066565990447998,-0.0657074435363804,0.17884339035944485,3.087506853531083,-0.060559757053852074,-0.0912581905722618,-0.08210506290197372,0.18158784024417396,0.14784974397160114,-9.334865196347238
23.1,2.799999952316284,62.0,22.22139549255371,31.07553291320801,-79.78277343557086,40.45912120320451,266.9160258026123,-0.0028894708957523108,-0.015228348784148691,-0.991396963596344,0.12996919453144073,-0.07402438895102585,0.1799635232465633,3.0755355402930062,-0.02811055071651936,-0.005279633682221174,0.0296789575368166,0.16222608296200633,0.048646312616765504,-9.617835350632667
23.3,2.5,55.0,22.13625717163086,33.5723876953125,-79.78277304383384,40.459121312486175,267.48270575714105,0.002802032046020031,-0.01641363650560379,-0.9916468858718872,0.1279037445783615,-0.10629333542996293,0.13662759650235096,3.0355135122862382,0.10342571139335632,0.055060409009456635,0.026557374745607376,0.21260306177660826,-0.0034662705520167947,-9.851197142601016
23.4,2.5,50.0,22.12248420715332,33.73142623901367,-79.78277298858306,40.45912136840364,267.69338290405267,0.0027270878199487925,-0.016629552468657494,-0.9917473196983336,0.12709587812423706,-0.11949347315150866,0.10626502573010016,2.9777933245842565,0.0743083730340004,0.05041464045643808,0.049094360321760185,0.21080330707132816,-0.019459551963955164,-9.980532875061037
23.51,2.200000047683716,51.0,22.355365753173828,28.268556594848643,-79.78277272265893,40.459121425795324,268.2957283706665,0.00011517578968778253,-0.014645355753600597,-0.9917761087417604,0.12714439630508426,-0.11682889054611835,0.08537800374575512,3.029306635686796,-0.1189822480082512,-0.12401832640171052,-0.10431449115276337,0.16681082993745805,0.23830473572015765,-9.95502965927124
23.7,2.0,52.0,22.31404685974121,30.84493064880371,-79.78277261060579,40.459121056128716,268.94910494995116,-0.004135146737098694,-0.013511482626199722,-0.9915022253990172,0.12932033836841586,-0.06909864999671324,0.058627986873336826,2.9375391592180757,0.13245642185211182,0.14133958518505094,0.059545654803514474,0.12072700476273895,0.1826901500299573,-9.554609407782557
23.9,1.8999999761581416,57.0,22.1988582611084,31.81504821777344,-79.78277252789422,40.45912077310098,269.34250609588616,-0.005510002374649048,-0.013111472129821777,-0.9912606477737428,0.1311492621898651,-0.040212104735510866,0.05115106347113105,2.939211905209087,0.09759143739938736,0.01494874246418476,0.018594836816191673,0.12991778623312716,-0.03263216852210462,-9.565470026135444
24.0,1.7999999523162842,57.0,22.22640419006348,31.425411224365234,-79.78277244167855,40.45912081683312,269.63637702178954,-0.0039000401739031076,-0.012642999179661274,-0.9911001324653624,0.13245992362499234,-0.03805340523799964,0.03708035623757006,2.943802670903041,0.11085500568151474,0.12078937888145448,0.002929409965872765,0.17367164215072992,0.21614294786006213,-9.815037961006166
24.2,1.7000000476837158,53.0,22.310291290283203,28.61843490600586,-79.78277230816238,40.459120474028026,270.33963744354253,-0.0016407674411311743,-0.013245542533695698,-0.9911227822303772,0.13227832317352295,-0.04823973810718053,0.03802136594975277,2.993113033703089,-0.10425207763910294,0.005876587703824043,-0.04759562388062477,0.1614568086527288,0.3202499182149768,-9.86010245203972
24.3,1.7000000476837158,49.0,22.33282852172852,28.92855262756348,-79.78277194413067,40.45911989278709,271.04263655853265,-0.0017797951586544516,-0.01676228828728199,-0.9913625717163086,0.13006244599819186,-0.05485716928834605,0.08624103864594462,2.99179200047718,-0.030194750055670738,-0.031397443264722824,0.006755021866410971,0.1524745535105467,0.0963092423323542,-9.752178053855896
24.41,1.7000000476837158,41.0,22.17632293701172,31.49697685241699,-79.78277186385864,40.45911991840732,271.3407141418457,-0.001663634553551674,-0.017276182770729058,-0.9913915395736694,0.12977580726146698,-0.046339550462096604,0.08172867598972247,2.974117723200404,0.07675334811210632,0.08808370679616928,0.0406348891556263,0.2457149852067232,0.1728839308395982,-9.691558215022088
24.6,1.7000000476837158,46.0,22.140012741088867,32.053600311279304,-79.78277178733602,40.45911995406996,271.6379467697144,-0.0011440688977018,-0.016459664329886436,-0.9914239048957824,0.12964002788066864,-0.037609827729052664,0.07312766972564516,2.9663917033559675,0.1748741716146469,-0.0030912028159946203,0.05280044302344322,0.23355644943192602,0.010891681686043741,-9.720617707371712
24.8,1.7999999523162842,50.0,22.212631225585934,30.05770492553711,-79.78277161064928,40.459119585511495,272.34656302642816,-0.0008287722594104707,-0.013175081461668016,-0.9915078282356262,0.1293756365776062,-0.0526844551044628,0.05606769813973887,3.0538795452452923,-0.055793657898902886,0.0041225473396480075,-0.044152263551950455,0.1740363074094057,0.20397092694416644,-10.086552250385283
24.9,1.7999999523162842,52.0,22.336584091186523,28.91264915466309,-79.78277149831398,40.45911922240661,272.7412230224609,-0.00014697540609631687,-0.011574646458029749,-0.9914933443069458,0.12964172661304474,-0.04363100792047223,0.06420100885116249,3.1032714801841803,-0.07377196103334427,-0.059902794659137726,-0.11444224417209625,0.1816628490574658,0.1968597625382245,-10.087949734926225
25.1,1.7999999523162842,54.0,22.3353328704834,28.23674964904785,-79.78277140975926,40.45911927826704,273.361521408081,0.0034449410159140825,-0.010000650770962238,-0.9913544058799744,0.1307843029499054,-0.05441017663562346,0.038498168940193145,3.092478953218267,-0.18765899538993835,-0.12205340713262558,-0.11460987478494646,0.10869016416370868,0.2185396301932633,-9.690977586507797
25.2,1.7999999523162842,51.0,22.30528259277344,30.717702865600586,-79.78277153194433,40.45911912688139,273.758512184143,0.0027694450691342354,-0.010640817694365978,-0.9913032054901124,0.1311376392841339,-0.0322898291266236,0.036364628094946734,3.06968571930522,-0.09874138236045836,0.06340215355157852,-0.046068158000707626,0.23637911969795825,0.19557397808879606,-9.49858489573002
25.4,1.7000000476837158,36.0,22.304031372070312,28.96036148071289,-79.78277134378175,40.45911896805479,274.44427363586425,-0.003387784818187356,-0.012716259807348251,-0.9912682175636292,0.13120265305042267,0.0178105691238069,0.03321463618579785,3.0420873228401653,0.1047680675983429,0.1597432792186737,0.07979784160852432,0.17731164352968334,-0.025523379547521475,-9.595182652473447
25.5,1.7000000476837158,29.0,22.310291290283203,28.63433837890625,-79.78277134353297,40.45911903540717,275.0473324508667,-0.004312365781515837,-0.0141235813498497,-0.9912300705909728,0.13131992518901825,0.017488341427771434,0.03707283277537773,2.9944934596892048,-0.09348931908607484,-0.028063492849469185,-0.05996644124388695,0.22761777967214586,0.12922070676460862,-9.613967417478564
25.7,1.600000023841858,27.0,22.24518585205078,30.638185501098643,-79.78277148882367,40.45911888535458,275.4273115844726,-0.00302745820954442,-0.012846012599766254,-0.9912167191505432,0.13158820569515228,0.022579221725700944,0.048472072831084366,3.0323141920331342,-0.07809998840093613,-0.17629562318325046,-0.09821880608797072,0.24514009427279235,0.15713222622871398,-9.882168674468994
25.8,1.5,28.0,22.320308685302734,27.59265518188477,-79.7827714901831,40.45911892052421,275.7318302841186,-0.0019609243609011173,-0.011588498018682005,-0.9911801218986512,0.13199986517429352,0.002349292790012585,0.03934192639227803,3.058883482087193,-0.19975054264068606,-0.08584927022457123,-0.12542499601840973,0.15965877156704664,0.268374279756099,-9.9753463947773
25.9,1.399999976158142,28.0,22.33282852172852,27.58470344543457,-79.78277141407963,40.459118811742684,276.0908419342041,-0.0022929429542273283,-0.011087465099990368,-0.9911400675773621,0.13233773410320282,0.012058298193498549,0.024943203949177085,3.080636508278355,-0.05020010843873024,-0.057746849954128265,-0.06319312006235123,0.1889263151586056,0.1685483483411372,-9.989877895116807
26.1,1.5,28.0,22.270225524902344,28.5468692779541,-79.78277143469339,40.45911889130896,276.7062041015625,-0.003379157511517405,-0.012751311995089054,-0.9910433888435364,0.1328875720500946,0.03177457586162623,0.02275869945631561,3.0596528201991715,0.14925004541873932,0.1189519464969635,0.08181441575288773,0.2525505630299449,-0.047475955858826635,-9.690700428485867
26.2,1.600000023841858,25.0,22.325315475463867,27.099645614624023,-79.78277133793524,40.45911880079905,277.36186854553216,-0.009486140683293344,-0.01402743998914957,-0.9909538030624392,0.13313116133213046,0.059501642741789235,0.029630233146421825,3.0436886939655383,0.23445485532283786,0.07495597004890442,0.0827006995677948,0.19497891426086428,0.0293077683239244,-9.683782002925874
26.4,1.7000000476837158,16.0,22.320308685302734,27.457475662231445,-79.78277133794437,40.459118668782146,277.7143179626465,-0.008273924700915812,-0.014087635092437269,-0.9909508228302002,0.13322806358337402,0.07016710787565003,0.030183191060154005,3.030364683300092,0.08033375442028046,0.07940689474344254,-0.002095181029289961,0.25444887986406683,0.1137139273993671,-9.608437705636023
26.5,1.7999999523162842,16.0,22.31154441833496,27.823257446289066,-79.78277135097395,40.45911874922498,278.3156630249024,-0.0007996392669156194,-0.010267243720591068,-0.9909195303916932,0.13406150043010712,0.017178540149739043,0.025614382064293225,2.9845781704231946,-0.0066397301852703094,-0.11839962005615234,-0.084403857588768,0.26267340894788505,0.0076776865124702455,-9.570049565434458
26.7,1.7999999523162842,5.0,22.306535720825195,27.72783470153809,-79.78277121947463,40.459118652400505,278.65696589660644,-0.00013099085481371728,-0.009355214424431324,-0.9908467531204224,0.13466677069664,-0.014850908077126941,0.01784422868479571,2.9753923671943747,-0.022877257317304608,0.05764187499880793,-0.0995083600282669,0.23251083936542274,0.22380263591185207,-9.60065798521042
26.8,1.8999999761581416,7.0,22.270225524902344,28.80132484436035,-79.7827712026143,40.459118692820255,278.9538561553955,-0.001454579527489841,-0.008601481094956398,-0.9907249212265016,0.13560299575328827,-0.01157354934950112,0.020556943042357115,2.9629294283270973,0.03893860802054405,0.02524673007428646,0.0977197363972664,0.1698452425003052,-0.2297973293066025,-9.640975121855735
27.0,1.8999999761581416,0.0,22.23641967773437,29.33409309387207,-79.78277103056503,40.45911862748049,279.58979861450194,-0.0031670527532696733,-0.009345768019557,-0.9905269145965576,0.13696400821208954,-0.013613887668865413,0.016443662430101282,2.9878986318159164,-0.05017656832933426,-0.03729848563671112,0.0011998601257801054,0.20262740124017,-0.08666768621653319,-9.94459588766098
27.1,2.0,358.0,22.218891143798828,29.206865310668945,-79.78277099408581,40.45911866037046,279.8894297332764,-0.0038054168689996,-0.0098883593454957,-0.9904717206954956,0.13730855286121368,-0.030396158498276576,0.027361399051056563,3.007519897819208,-0.16502368450164795,-0.0008493647328577938,-0.07059631496667862,0.19369612650945786,0.028229516632854938,-9.98440957903862
27.3,2.0,334.0,22.329072952270508,27.680124282836914,-79.78277082912794,40.45911850670273,280.5291182250976,-0.0008319203043356537,-0.0095046516507864,-0.9908368587493896,0.1347266435623169,-0.007984795594342042,0.05013830047732104,3.0300752693170767,0.2415554672479629,0.05235403403639794,0.14313320815563202,0.19934101022779946,-0.3071282912045717,-9.842110569477082
27.4,2.0999999046325684,320.0,22.29151153564453,27.64831733703613,-79.78277064253419,40.45911839652454,281.1616236419677,0.005411379504948854,-0.008359580300748348,-0.9915810823440552,0.1291039139032364,-0.08198460841037937,0.04569730859947229,2.974398652611456,-0.2359853386878968,-0.09310556203126907,-0.0733901634812355,0.20036891419440508,-0.2126618993841112,-9.659826545119287
27.6,2.0999999046325684,293.0,22.18759155273437,30.4711971282959,-79.78277058747561,40.459118420212675,281.45799319458007,0.006530538201332092,-0.010392858646810057,-0.9918004274368286,0.1272059679031372,-0.07326740625042742,0.035171678643573415,2.949611823953473,0.06884673982858658,0.05397122353315354,0.005701761692762375,0.13486913535743952,-0.037875759657472384,-9.562979112267497
27.7,2.0999999046325684,275.0,22.240177154541016,29.206865310668945,-79.78277035068315,40.45911830726153,281.78992144775384,0.006405620370060206,-0.01206647790968418,-0.991877019405365,0.12646543979644775,-0.07159387593129364,0.04783184279239156,2.939891741585664,0.1285400539636612,0.15681160986423492,0.04789065569639206,0.1548494184203446,-0.10586380284279584,-9.614717615246773
27.9,2.0999999046325684,243.0,22.238924026489254,28.80132484436035,-79.78277016626714,40.459118175037176,282.41572825622563,0.006134633906185627,-0.008094200864434242,-0.9919917583465576,0.12589403986930847,-0.0496168783277284,0.046355550930339134,2.930472387877665,-0.03427433595061302,0.002617953810840845,0.019354064017534256,0.1252485652640462,-0.12386482167989014,-9.630432007312775
28.0,2.0,225.0,22.14251708984375,30.3042106628418,-79.78277014654162,40.459118231424725,282.99932734680175,0.003995298873633146,-0.003620609175413847,-0.9918756484985352,0.12709741294384005,-0.04857170701858702,0.003892510955147175,2.9190701164939687,-0.2239177227020264,-0.1527579426765442,-0.1195310354232788,0.08784628389403225,-0.1038824738189578,-9.657794637680055
28.2,2.0999999046325684,205.0,22.232664108276367,29.413612365722656,-79.78276995702065,40.45911815322345,283.325617477417,0.002352348295971751,-0.002632935531437397,-0.9917359352111816,0.12824778258800507,-0.036175790517253496,-1.3637574896864861e-05,2.9372371141777287,-0.02447140961885453,0.05235442891716957,-0.0887376219034195,0.08454198578372599,0.16944785110652447,-9.820834890604019
28.3,2.0999999046325684,194.0,22.101198196411133,32.379623413085945,-79.78276994809076,40.459118178821406,283.6190287322998,0.0005008745938539505,-0.003637022338807583,-0.9915062785148621,0.13000726699829102,-0.018061686471565173,-0.0066774693311141215,2.930449923253477,0.055485356599092484,0.00980149768292904,0.01143467053771019,0.0706799825001508,-0.04959744446910918,-9.780076873898507
28.5,2.0999999046325684,184.0,22.285249710083008,27.10759735107422,-79.78276969661837,40.45911803692288,284.2464873046875,-0.002478415612131357,-0.0037598914932459593,-0.9909330010414124,0.1342819333076477,0.0030731062704541052,0.02015236818732252,2.9931940664648597,0.08663298934698105,-0.02999505214393139,-0.010616667568683624,0.21126063242554666,0.07870733250863851,-10.115106543302538
28.6,2.0999999046325684,180.0,22.23141288757324,28.276508331298828,-79.78276968196022,40.45911804345105,284.54686038208007,-0.001691844779998064,-0.0027070420328527693,-0.9907883405685424,0.13538211584091187,-0.00674309789349524,0.02112713347873027,3.0068712942511,-0.12213992327451705,-0.11827912926673888,-0.0833515152335167,0.04131762265227736,0.11028038755059244,-9.900069340467454
28.8,2.200000047683716,175.0,22.2714786529541,27.43362045288086,-79.78276961141547,40.45911788625247,285.166474029541,0.0010619822423905132,-0.003464666660875082,-0.9907541871070862,0.1356213390827179,-0.020060284500429085,0.030375281314227974,2.98718986047692,-0.2299991846084595,-0.11823983490467073,-0.0960763618350029,-0.01584273844957352,0.18641274333000185,-9.737496864795686
28.9,2.200000047683716,173.0,22.20011138916016,29.18301010131836,-79.78276941127169,40.4591177568279,285.7880293579101,0.001805627718567848,-0.005191545002162457,-0.9909553527832032,0.13407942652702332,-0.040979426542547125,0.050747925472973784,2.9613690950745064,-0.2241683006286621,-0.07076004892587663,-0.0889354944229126,0.13426408558152614,-0.012140500769019128,-9.719950540065764
29.1,2.0999999046325684,171.0,22.113719940185547,30.510955810546875,-79.78276938922534,40.4591177438381,286.08413760375976,0.000814598985016346,-0.0053508058190345755,-0.991081953048706,0.13314415514469147,-0.018517336481467788,0.04895181983703155,2.9624214668399103,0.03173564001917839,0.006047962233424187,0.053267121315002434,0.11806891534477472,0.03706871598958969,-9.846059778928755
29.2,2.0999999046325684,170.0,22.158794403076172,30.200838088989247,-79.78276917563745,40.45911762852948,286.4115015716552,0.0004283110611140728,-0.005888148210942745,-0.9911855459213256,0.1323496401309967,-0.03006441868549097,0.0535250929869103,2.9871133724834324,-0.11508554220199585,-0.045533578842878335,-0.07848881930112839,0.07722425021231175,0.26158926207572225,-9.921865421533584
29.4,2.200000047683716,170.0,22.191347122192386,28.97626495361328,-79.78276904529102,40.45911749274635,287.03174273681634,0.001292296452447772,-0.007901536300778389,-0.9914610981941224,0.13015717267990112,-0.009567954548720977,0.0623809550944556,2.9973270069938387,0.05526537448167801,-0.040368400514125824,0.001021110569126904,0.16517768433317542,0.08523433266207578,-9.892766168117523
29.5,2.200000047683716,173.0,22.033588409423828,31.592397689819336,-79.78276899917925,40.45911746272864,287.6331145019531,5.1543436711654074e-05,-0.0059168911539018145,-0.9916967749595642,0.12846218049526215,-0.011060616380572772,0.06258136024883337,3.0364108222668165,0.11853332072496416,0.12648019194602966,0.08470667898654938,0.08336464891210199,0.06082407111302018,-9.831479161977768
29.7,2.0999999046325684,176.0,22.193851470947266,29.143251419067386,-79.78276892322899,40.45911738532393,287.9554506988525,-0.003042431315407157,-0.005841360427439214,-0.991656482219696,0.12874066829681394,-0.006012124884261682,0.05364050506115727,3.0449951343776203,0.14906994998455048,0.06378913670778275,0.10816317796707152,0.11963469919748605,-0.3069360639899969,-10.011144218444825
29.8,2.200000047683716,180.0,22.20011138916016,28.37988090515137,-79.78276888346909,40.45911737637815,288.260431930542,-0.004511491861194372,-0.0066783330403268355,-0.9914998412132264,0.12985831499099731,-0.01821868602776385,0.054398628265232514,3.0541508806031565,-0.1155916377902031,-0.019660383462905884,-0.004915258847177029,0.12240087987855078,-0.06157368415966631,-9.899502160549163
30.0,2.299999952316284,184.0,22.18258285522461,29.461322784423828,-79.78276886656299,40.45911727338836,288.9039065093993,-0.0012733901385217905,-0.006032634060829878,-0.9910395741462708,0.13342639803886416,-0.007135215916208744,0.05523288913261442,3.069911138982916,-0.15012621879577634,-0.14588862657546994,-0.11498752981424333,0.1559201897867024,0.12708776126615706,-9.958700541257857
30.1,2.299999952316284,186.0,22.161296844482425,29.206865310668945,-79.78276883632502,40.459117267884324,289.2118193359375,0.0021220745984464892,-0.004576317500323057,-0.9908203482627868,0.1350914090871811,-0.02088571941112778,0.04786802532066703,3.0893203098281803,-0.025008246302604675,-0.105027973651886,-0.0682452842593193,0.09774642398580907,-0.08758272064849734,-9.998668599128724
30.3,2.4000000953674316,187.0,22.256452560424805,27.497234344482425,-79.78276850906646,40.459117172050206,289.83679644775384,0.0023549203760921955,-0.005775553174316883,-0.9906055927276612,0.13660800457000732,-0.04455456230666376,0.05214544861839935,3.0902961607489208,-0.005665054079145193,-0.07718055695295334,-0.0223320722579956,0.15446542080491782,-0.06219179880805314,-9.928614277839662
30.4,2.4000000953674316,188.0,22.262714385986328,28.47530174255371,-79.78276811871444,40.45911710181189,290.4653517456054,0.003853567643091083,-0.004569904413074255,-0.990830659866333,0.13497765362262726,-0.06790611156246057,0.051868368921983515,3.0645358137262964,-0.10245558619499208,-0.10587391257286073,-0.07306073606014253,0.11431407099589705,0.3143918486684561,-9.82562492966652
30.6,2.299999952316284,193.0,22.286502838134766,26.86904335021973,-79.78276806320288,40.4591170967346,290.77138392639165,0.002743338467553258,-0.004033222794532776,-0.9910044074058532,0.13374069333076474,-0.04652187468301189,0.047531234441999116,3.054560118012663,0.21374401450157168,0.13957437872886658,0.11403194814920425,0.17638964725658302,-0.09665122222155333,-9.748079740405084
30.7,2.4000000953674316,195.0,22.223899841308594,28.50710868835449,-79.78276799796019,40.459117002986886,291.09402529907226,0.0009395077358931305,-0.0034926373045891523,-0.9911274909973145,0.13286598026752472,-0.05091121502933705,0.0539900975503852,3.0449480862460967,-0.07571879029273987,0.02079077810049057,0.045811329036951065,0.07899743663147092,-0.09505939998663962,-9.723476411104203
30.9,2.4000000953674316,205.0,22.316551208496094,26.09772109985352,-79.78276781234655,40.45911685840881,291.7271410675049,-0.00033389282179996366,-0.005241502542048693,-0.991247832775116,0.13190965354442594,-0.04890961418859822,0.06910610195014287,3.0427175517160387,-0.04850411042571068,-0.001701480126939714,-0.08919882029294968,0.2014146887138486,0.2464526480063796,-9.744422307014467
31.0,2.4000000953674316,209.0,22.2714786529541,26.89289855957031,-79.78276766102627,40.45911679918445,292.3294188232422,0.002535930369049311,-0.005352827720344068,-0.991171419620514,0.13245488703250885,-0.05873120793851959,0.08423322315375976,2.9791451628879315,0.08263592422008514,0.014756535179913044,0.09946238994598387,0.0937063816934824,-0.3001002303510905,-9.514773496985436
31.2,2.4000000953674316,214.0,22.21513557434082,27.34615135192871,-79.78276730025783,40.459116633358384,292.67070643615716,0.006468769628554583,-0.005723916925489903,-0.9911802411079408,0.13223926723003387,-0.08518985355283917,0.09703732351482686,2.973629100906835,-0.06725305318832397,-0.1454291194677353,-0.05603386461734772,0.13947001699358225,-0.08053444121964276,-9.458269513249398
31.3,2.4000000953674316,218.0,22.186338424682614,28.451446533203125,-79.78276686690134,40.45911638407232,293.30754534912114,0.008207532577216625,-0.007418779190629721,-0.9911128878593444,0.13256286084651947,-0.11524860596652098,0.13074572193009396,2.98617678237094,-0.006389642134308815,0.08917838335037231,0.08518728613853455,0.1557710309699178,-0.3652694222331047,-9.73708054304123
31.5,2.299999952316284,219.0,22.14251708984375,29.23867225646973,-79.78276676264633,40.45911632782219,293.605927154541,0.005336360540241003,-0.00803067535161972,-0.9909947514533995,0.13355311751365662,-0.1128451741758386,0.13470600443812675,2.9734085598676114,-0.07512690126895905,-0.08993223309516908,-0.030860736966133118,0.13296868063509465,-0.2555247127264738,-9.654599134325982
31.6,2.4000000953674316,220.0,22.250192642211914,27.47337913513184,-79.78276666325702,40.45911627070519,293.902973815918,0.005784654524177313,-0.008415598422288895,-0.9908982515335084,0.13422547280788422,-0.0935613898269691,0.13566038337730793,2.9669326383142565,-0.022753667086362842,-0.11595989018678665,-0.056446544826030724,0.15176598060876131,-0.0748774245288223,-9.761149436831477
31.8,2.4000000953674316,222.0,22.26146125793457,26.79747772216797,-79.78276633688141,40.45911599130372,294.52299182128905,0.011926265433430672,-0.00761517509818077,-0.9907543659210204,0.13492834568023682,-0.1326701253401212,0.14677016465002626,2.985737583766765,-0.09658835828304292,-0.07982764393091203,-0.06182115897536278,0.05739461061079056,0.0992469748388976,-9.734083845019342
31.9,2.4000000953674316,224.0,22.161296844482425,28.25265312194824,-79.78276618938766,40.45911576824256,294.85008303833007,0.014514463953673841,-0.0075654969550669185,-0.9907631278038024,0.13461287319660187,-0.09651395541241893,0.15052579795285542,2.990899454654772,0.27331867814064026,0.09674367308616638,0.1209653466939926,0.09955480333417653,-0.2413461466692388,-9.746086424589157
32.1,2.4000000953674316,218.0,22.24894142150879,27.41771697998047,-79.7827660544274,40.45911562334189,295.44845263671874,0.011306202970445156,-0.007927943021059036,-0.9910977482795716,0.13241799175739288,-0.09056098231328276,0.13981218698473225,2.9794385100377987,-0.07912944257259369,-0.0874420627951622,0.04179389774799347,0.09679721988737584,-0.19656961273401974,-9.729749888777734
32.2,2.299999952316284,215.0,22.270225524902344,26.60663604736328,-79.78276563657339,40.459115294033815,296.0775534362793,0.007479344028979541,-0.010302621871232986,-0.9915868043899536,0.12881620228290558,-0.03890238891017919,0.15519760382964826,2.9731898828717016,0.06799934059381485,0.038091804832220084,0.07806374877691269,0.08847012698650361,0.28016440439969303,-9.73407916724682
32.4,2.299999952316284,201.0,22.16254997253418,28.538917541503906,-79.78276549122806,40.45911507432693,296.40506427001947,0.0042602093890309325,-0.011112043634057043,-0.9917252063751221,0.1278265416622162,-0.034884313516632945,0.1735839875778384,2.9620709369215175,-0.20277805626392365,-0.021783584728837013,-0.1193183660507202,0.08723397991620005,0.278214504159987,-9.426667066812515
32.5,2.4000000953674316,193.0,22.13249969482422,29.38975715637207,-79.78276547739033,40.45911498630708,296.70005099487304,-0.002296090824529529,-0.011102792806923393,-0.9917386174201964,0.12777313590049744,0.003684312878831158,0.16002832952600585,2.9376635286034074,-0.09199325740337372,-0.0700245052576065,-0.0372760146856308,0.23119956471025946,0.07085975697264076,-9.649534276127817
32.61,2.299999952316284,169.0,22.18508720397949,27.870967864990234,-79.78276532167752,40.459114578714,297.3250128479004,-0.01139668095856905,-0.009003874845802784,-0.991235613822937,0.13130508363246918,0.08081558107331935,0.15247604509127372,2.9738768918448084,-0.06949258595705032,-0.03556089103221893,-0.05121645331382752,0.07474553327076137,0.14114873433485628,-9.852931426763536
32.8,2.299999952316284,161.0,22.166305541992188,28.75361442565918,-79.78276538133262,40.459114117521366,297.9618231506348,-0.010099533013999462,-0.009188183583319187,-0.9903323650360109,0.1380414515733719,0.11363401897221405,0.15186701795439106,3.0219495900368814,0.10246321558952333,0.1407582461833954,0.009975426830351351,0.10024381547234952,0.3671032552421093,-9.876625514030456
33.0,2.5,135.0,22.01981544494629,31.34589195251465,-79.78276537817246,40.459114014416706,298.26504962158197,-0.00857997965067625,-0.010849762707948685,-0.989998698234558,0.1403968781232834,0.1029019945748898,0.15505878111215968,3.0397142082367044,0.1325460970401764,0.08075923472642899,0.04908070713281632,0.05294718640856445,-0.018117122612893586,-10.008728148937227
33.1,2.5,125.0,21.959716796875,33.58829116821289,-79.78276537188869,40.45911391966954,298.5715910644531,-0.0051639522425830356,-0.013281838037073612,-0.9899656772613524,0.14058777689933774,0.08866290570166198,0.15513910929729513,3.0841252883661023,0.15668146312236786,0.1647338569164276,0.058136571198701865,0.14074250816367567,0.09828276897780598,-10.204628584384919
33.3,2.299999952316284,109.0,22.15629005432129,29.44541931152344,-79.78276541292472,40.45911367004639,299.21396319580083,-0.0006829840131103992,-0.0103741604834795,-0.9902611970901488,0.13883386552333832,0.05274455344563925,0.16730168505208434,3.182328558593915,-0.03231656551361084,-0.17083702981472015,-0.03118445724248886,0.18904543390497566,0.14762990693561734,-10.260825004577637
33.4,2.299999952316284,104.0,22.20887565612793,28.371929168701172,-79.78276541998606,40.45911359089664,299.5324484558105,0.00032920078956522053,-0.005844369530677795,-0.9904674887657166,0.13762252032756805,0.03298581485289308,0.14557162735042034,3.182618183225288,-0.12587139010429382,-0.06536699831485747,-0.0741787999868393,0.11923421060666442,0.3629719781130553,-9.917945448160172
33.6,2.299999952316284,95.0,22.104955673217773,30.2962589263916,-79.7827654130976,40.459113423572994,300.1531149597168,-0.0011707295197993515,-0.00628992822021246,-0.9908021688461304,0.13516730070114136,0.06222404605538756,0.1019808655176911,3.093919247566681,0.10409827530384064,0.19596733152866366,0.1261594146490097,0.13968452758155764,-0.1471706355549395,-9.5793916618824
33.7,2.299999952316284,94.0,22.20011138916016,26.60663604736328,-79.7827654729498,40.45911327064655,300.7833410949707,-0.00452845124527812,-0.011154823005199429,-0.9910907745361328,0.13264352083206174,0.08581051565693136,0.10726630974327454,3.02875157645199,0.17681275308132172,0.11439017951488495,0.09836748242378236,0.15184954097494482,-0.0096362479403615,-9.576237089037896
33.91,2.5,94.0,22.20887565612793,27.79940223693848,-79.78276549606211,40.45911307613772,301.10950915527343,-0.004985719453543425,-0.012481979094445705,-0.9912132024765016,0.13159003853797913,0.08971337678257707,0.12062121590322275,3.008995708874536,-0.011761479079723358,0.034581851214170456,0.07504086941480638,0.15970463566482068,0.010720705445855856,-9.569441455006599
34.0,2.5,92.0,22.197607040405273,27.028079986572266,-79.7827655419821,40.4591130174496,301.40998141479486,-0.003918961156159639,-0.012111848220229149,-0.9913266897201538,0.13080348074436188,0.0818096017717356,0.12106551624470845,2.9943285149705083,-0.1017392724752426,-0.14447905123233795,-0.1105809286236763,0.16739450996741653,0.2882077063433826,-9.647309995293618
34.2,2.5,91.0,22.11997985839844,29.039878845214844,-79.78276563238163,40.45911278627839,302.04209963989257,-0.004112728871405125,-0.009950784966349602,-0.991318941116333,0.13103757798671722,0.08369296710922404,0.10500815420863434,2.9820576199201017,0.025288509204983708,0.008264839649200441,0.05009884759783745,0.14748670496977867,-0.04806775803677738,-9.697775559425354
34.3,2.5,93.0,22.13249969482422,28.92060089111328,-79.78276563617881,40.45911255721562,302.67049853515624,-0.007583861239254475,-0.007685068529099227,-0.9910007119178772,0.13342100381851196,0.08856886303792717,0.0957980102055884,2.990082957444097,0.052654832601547234,0.09810474514961244,-0.05111467093229294,0.12049064934253692,0.11308301283046605,-9.775391499996186
34.5,2.5,89.0,22.10245132446289,29.49312973022461,-79.78276566375851,40.459112506911815,302.9699789733886,-0.009872973896563051,-0.00709662027657032,-0.9907721281051636,0.13499198853969574,0.09313783350790204,0.08456637405109188,2.997539589847135,0.061000842601060874,0.004503808449953794,0.02471775934100151,0.2273138340935111,-0.1002298278361559,-9.901417708396911
34.6,2.299999952316284,88.0,22.190093994140625,27.76759529113769,-79.78276568455901,40.45911245829669,303.27043978881835,-0.010135625489056109,-0.008256508968770504,-0.990635335445404,0.13590748608112335,0.07453706281371439,0.08253124519954186,3.0079748833406876,-0.2197209149599076,-0.060849647969007485,-0.15987810492515564,0.0840976796206087,0.43347277086228136,-9.845292624235151
34.8,2.299999952316284,82.0,22.13249969482422,29.43746757507324,-79.78276572315924,40.45911225346472,303.89710681152343,-0.007767359726130962,-0.010645913891494274,-0.9905167818069458,0.13675849139690402,0.0809867418113473,0.09836205626987396,2.991552843030468,0.06682713329792023,0.12541723251342773,-0.017764504998922348,0.1634732757881284,0.2469916881993413,-9.732823185324673
34.9,2.4000000953674316,84.0,22.15629005432129,28.38783264160156,-79.78276572284265,40.45911208078734,304.21908251953124,-0.006912507116794586,-0.01088098157197237,-0.990533173084259,0.13666747510433194,0.08619668262980228,0.10773669986058614,2.98925865042484,0.19487035274505607,0.0746508538722992,0.08791512995958327,0.2091603491082788,-0.13745011461898685,-9.807122585177424
35.1,2.5,81.0,22.127492904663086,28.46735000610352,-79.7827657093296,40.45911198471328,304.81750552368163,-0.0061533483676612395,-0.0076485248282551765,-0.9907493591308594,0.13534940779209134,0.0516767592815256,0.1031058273153507,2.983794509361398,0.02360478974878788,-0.07078824937343597,-0.00612828740850091,0.21501679239794613,-0.044560205228626734,-9.797976370453835
35.2,2.4000000953674316,80.0,22.124988555908203,29.97023582458496,-79.78276572169844,40.459111738663935,305.44155947875976,-0.00364397675730288,-0.006128567270934582,-0.9909073114395142,0.13435718417167666,0.05689410989454954,0.0952933010399518,2.9709985454219137,0.25214701890945435,0.08559402078390121,0.11219127476215364,0.13794347343966365,-0.03998094001784922,-9.731549661755563
35.4,2.4000000953674316,83.0,22.03609275817871,29.37385368347168,-79.78276605347573,40.45911155122757,305.75330416870116,-0.002452540909871459,-0.006919236853718758,-0.9909093976020812,0.1343308538198471,0.08578511975806792,0.0720944480533681,2.977469226968258,0.10665173083543776,0.14245575666427612,0.09624786674976347,0.08909696677699687,-0.1078224921785295,-9.825496290922166
35.5,2.299999952316284,83.0,22.20261573791504,27.20301818847656,-79.78276609532462,40.45911150562478,306.05237643432616,-0.002313975244760513,-0.008188651874661446,-0.9909018278121948,0.13431741297245026,0.07452026619795499,0.07741088661110868,3.0021564709763267,0.08738672733306885,0.14684200286865234,0.08605405688285828,0.17591434171423315,-0.11371319649741055,-10.030372202396393
35.7,2.4000000953674316,83.0,22.153785705566406,28.32421875,-79.78276607751229,40.459111245071945,306.66678302001947,-0.003570742439478636,-0.01065198425203562,-0.9908611178398132,0.13441790640354154,0.043592313144366346,0.1025483411833731,2.988562199315862,-0.2303583472967148,-0.07830974459648132,-0.15017496049404144,0.08571148373186589,0.34344300873577605,-9.794170417785644
35.8,2.4000000953674316,82.0,22.20011138916016,26.38398551940918,-79.78276598007037,40.45911108074347,307.28272692871093,-0.0033310900907963514,-0.009602716192603113,-0.9908255338668824,0.13476452231407166,0.03386371600163116,0.09706459101108388,2.9820824249698874,-0.12532371282577515,-0.061447490006685264,-0.08432911336421968,0.20778696605935693,0.19135100930929186,-9.832131711244584
36.0,2.299999952316284,80.0,22.160045623779297,26.54302215576172,-79.78276598658096,40.45911104849226,307.580219909668,-0.002527815755456686,-0.008623444475233555,-0.9908073544502258,0.1349819302558899,0.06349850306312804,0.0834723279125668,2.9674009146697378,0.2957875728607178,0.12567119300365448,0.15276817977428436,0.18992461759597065,-0.2159235676378012,-9.752232432961463
36.1,2.4000000953674316,80.0,22.028579711914066,30.28035545349121,-79.78276594097036,40.45911089608649,308.193085357666,-0.0013490364653989673,-0.008076325058937073,-0.990669012069702,0.1360437273979187,0.02476442877984828,0.08163821591551856,2.9696869591566477,-0.047334566712379456,-0.07216642051935196,-0.030342169106006626,0.15486387200653556,0.021724763307720427,-9.885009251832964
36.3,2.4000000953674316,81.0,22.01105117797852,31.74348068237305,-79.7827659446906,40.45911086236454,308.4913489074707,-0.0010227879974991083,-0.007744334638118744,-0.9905683994293212,0.13679637014865875,0.015287675563728734,0.0846729126897648,2.9946255144320646,-0.1940975338220597,-0.1896034479141236,-0.12211325019598007,0.13500679160468282,0.20193545635789634,-9.999624034166336
36.4,2.4000000953674316,80.0,22.078662872314453,29.898670196533203,-79.78276580720456,40.45911070455994,308.8084608764648,-0.0014208966167643664,-0.007277394644916058,-0.9904969334602356,0.13733509182929993,0.0002512380033832125,0.0925483223009525,3.0056563475369646,-0.15554893016815186,-0.02457851357758045,-0.16638611257076266,0.13888612682931126,0.3690909796580673,-9.940369520187376
36.6,2.5,80.0,22.163801193237305,28.01409912109375,-79.78276577991456,40.45911062699581,309.4131399841308,-0.003580441465601325,-0.0079130083322525,-0.990390956401825,0.13802343606948853,0.010998016197464166,0.08660532251057472,3.0277212974964143,-0.17335841059684753,-0.008746540173888206,-0.06040362641215325,0.1059907422401011,0.3539693856239319,-9.779306210875507
36.7,2.5,83.0,22.08241844177246,29.715778350830078,-79.78276576022729,40.45911059649125,309.72425524902343,-0.004433384630829096,-0.008616553619503975,-0.9904394149780272,0.13760828971862793,0.0400335679590826,0.06960099490449242,2.9779032543148007,0.210745707154274,0.07817546278238298,0.10915403813123704,0.18472335482016208,-0.09818498343229294,-9.670067358613014
36.9,2.5999999046325684,86.0,22.14251708984375,27.902774810791016,-79.78276568146616,40.4591104727135,310.34277026367187,-0.0031939775217324487,-0.008323471993207932,-0.9905811548233032,0.13663707673549652,0.02717391060619444,0.07498861678905744,2.9763147963467413,0.13749177753925326,0.01939019560813904,0.10809513926506042,0.16480366352945566,-0.2011010404117405,-9.850360990762713
37.0,2.5999999046325684,89.0,22.07240104675293,29.461322784423828,-79.78276563305695,40.45911043704307,310.9378973693848,-0.0019932016730308533,-0.008567905053496359,-0.9908044934272766,0.13501542806625366,-0.011030906523046828,0.0709735432767858,2.971483387363308,-0.13541798293590546,-0.14806415140628815,-0.05441034212708473,0.10715436556376516,0.0434618971310556,-9.775007337927821
37.2,2.5,97.0,22.17632293701172,26.479406356811523,-79.78276559047369,40.459110335118226,311.26013629150384,-0.00407506013289094,-0.007934720255434513,-0.9909217357635498,0.1341436356306076,-0.020418487212173844,0.07549799738688227,2.9699217033068748,-0.2621537148952484,-0.11676573753356935,-0.11730855703353882,0.11886205360293388,0.38209982849657537,-9.668109710812569
37.3,2.299999952316284,101.0,22.01105117797852,30.852882385253906,-79.78276555614694,40.45911032037427,311.55580966186517,-0.0052303033880889424,-0.006888815201818943,-0.9910376071929932,0.13330349326133728,0.0150494917117298,0.06338371143673419,2.9409371404455213,0.14693520963191986,0.06409365683794023,0.039446305483579636,0.16028466118499635,0.0001579844579100609,-9.585366931557656
37.5,2.299999952316284,104.0,22.21388435363769,26.36808204650879,-79.78276541439061,40.459110199483256,312.1727492065429,-0.0017119136173278091,-0.007464451249688864,-0.9911258220672609,0.1327066272497177,0.006908340269435586,0.058732344133216936,2.940019775890111,0.23883576691150665,0.1017024591565132,0.13553740084171295,0.15885167308151724,-0.29859649093821644,-9.837428119182588
37.6,2.200000047683716,104.0,22.02983283996582,29.779394149780273,-79.78276518855417,40.45911013964107,312.78488604736333,0.002204755786806345,-0.010510378517210484,-0.9910611510276794,0.13297592103481293,-0.060193059177306975,0.07586643589132767,2.931219017275708,-0.0947667732834816,-0.05692471936345101,-0.12209848314523696,0.16992640916258098,0.1985485297814012,-9.744460313916207
37.8,2.200000047683716,106.0,22.058629989624023,30.51890754699707,-79.7827651190089,40.45911013269314,313.0781790466308,0.0025857794098556037,-0.011608686298131944,-0.9908903241157532,0.1341455727815628,-0.06447057757629672,0.08699438097121909,2.9318329533697542,-0.08005515486001967,-0.11587996780872345,-0.09250354766845703,0.19310371220111847,0.14365123299881816,-9.760950631499293
37.91,2.200000047683716,105.0,21.96597671508789,31.07553291320801,-79.7827650557344,40.45910998845591,313.39615313720697,0.003453915473073721,-0.009699816815555096,-0.9906303286552428,0.13618232309818268,-0.045723809149064286,0.10673842611399707,2.935583599868219,0.060108400881290436,0.01453486829996109,-0.07893986254930496,0.2923850668407977,0.25218511205166577,-9.837300649881364
38.1,2.200000047683716,93.0,22.1062068939209,28.37988090515137,-79.78276496519837,40.45910993894545,313.98849169921874,0.003813007613644004,-0.007798281032592058,-0.990184247493744,0.13949847221374512,-0.03582854091098196,0.08039578383142114,2.9817132046537336,0.03395476192235947,0.1921736150979996,8.035217615542933e-05,0.1735689869709313,-0.03553005773574114,-9.987859436273576
38.2,2.0999999046325684,76.0,21.959716796875,31.84685516357422,-79.78276488838341,40.459109786936885,314.3074309082031,-0.00023185249301604927,-0.011330544948577879,-0.9900557994842528,0.14021852612495422,-0.03097903512531769,0.10236915272459618,2.9782108362431323,-0.12886101007461548,0.0129282483831048,0.017421584576368332,0.23717991415411235,-0.12926463397219778,-9.835526604652406
38.4,2.0,40.0,22.02983283996582,29.453371047973643,-79.78276473624253,40.4591096368478,314.9257971496582,-0.004838885273784399,-0.01904512383043766,-0.9901027679443359,0.13896191120147705,-0.0012593613254073275,0.13861360297233205,3.0055788871979363,-0.1735183745622635,-0.0982694923877716,-0.026004645973443985,0.19043579215183856,0.21737345784902573,-9.954954814910892
38.5,1.8999999761581416,16.0,21.937179565429688,30.0736083984375,-79.7827646503986,40.45910958738994,315.5298887939453,0.0002654741983860731,-0.0173470601439476,-0.990321934223175,0.13770082592964172,-0.009023059894088529,0.1387682239042044,3.0407513960083126,-0.10539739578962326,-0.14569026231765747,-0.10168235003948213,0.25884731993079185,0.16725340934470298,-9.935912772417069
38.7,2.0,0.0,22.10871124267578,28.80132484436035,-79.78276456812766,40.45910952034432,315.8493010253906,0.0026113514322787523,-0.016409022733569145,-0.990376889705658,0.13739575445652008,-0.022130350554894464,0.1198337071187641,3.035055509586735,-0.060257546603679664,-0.004328826908022164,-0.07674311846494675,0.27691850535571577,0.25619659435004,-9.927778126001359
38.8,2.0999999046325684,0.0,21.99978256225586,30.24854850769043,-79.78276453475625,40.45910951478233,316.1526343078613,0.003007472259923816,-0.015198818407952784,-0.9904003143310548,0.13735830783843994,-0.022264991441247304,0.11319453703974296,3.0270712900425374,0.055503960698843,-0.0512012392282486,0.022553779184818268,0.22725978389382365,0.016647854363545773,-9.797535490393637
39.0,2.299999952316284,357.0,22.12248420715332,28.8887939453125,-79.78276452058087,40.459109432433436,316.7739950866698,0.0014609282370656727,-0.013552391901612282,-0.990388035774231,0.1376437246799469,-0.009087378874924132,0.09695430989021142,3.0141893789946272,-0.059771131724119186,-0.015127493999898434,0.08286017924547195,0.2122038065828383,-0.09470843000337482,-9.746401589512823
39.1,2.299999952316284,358.0,22.104955673217773,28.7218074798584,-79.78276442008544,40.45910935956496,317.3931585998535,0.000691414694301784,-0.015375677496194841,-0.9904332160949708,0.1371321678161621,-0.013859642464278444,0.08501629766950232,2.9683878502405854,-0.05459950491786003,0.1009022295475006,-0.10570569336414336,0.2691905510611832,0.2842095264606178,-9.583313389420509
39.3,2.299999952316284,357.0,22.111215591430664,27.632413864135746,-79.78276440316556,40.45910936232824,317.68943087768554,-0.0008202774333767593,-0.016580985859036446,-0.9904028177261353,0.13721032440662384,0.004663023189541854,0.09072605893667396,2.955224203003286,0.08154331892728807,0.06166869401931763,0.10514860600233078,0.2295915438607335,-0.1501600611023605,-9.646406015753746
39.41,2.299999952316284,356.0,22.138761520385746,26.837236404418945,-79.78276428606155,40.45910928609744,318.0154349060058,-0.0004621195839717984,-0.016583066433668137,-0.9903608560562134,0.1375141590833664,0.003617206991544633,0.09485375753837734,2.950771400899544,0.07317264378070831,0.01008821465075016,0.07366445660591125,0.3083326714485884,-0.10634632604196667,-9.625521515607836
39.6,2.4000000953674316,355.0,22.0035400390625,30.62228202819824,-79.78276425459173,40.45910930516453,318.60237567138665,5.2009436330990866e-05,-0.0164980087429285,-0.990242600440979,0.13837440311908722,0.0033137759165032398,0.07809517308920369,2.9179579462288285,0.04295496270060538,-0.009316550567746162,-0.04917728900909424,0.2952749618142844,0.18525364246219397,-9.665871981382368
39.7,2.299999952316284,354.0,21.93467712402344,31.81504821777344,-79.78276428403981,40.45910917256123,318.9302412719726,-0.00018771152826957405,-0.01694686338305473,-0.99018532037735,0.1387294977903366,0.022303231945780388,0.0910609938969016,2.945636779221775,0.017843225970864296,0.07873830944299698,-0.02986060082912445,0.2895187069103122,0.19904934380203487,-9.781353905797003
39.9,2.4000000953674316,356.0,22.00604248046875,28.95240974426269,-79.78276429314819,40.45910903810821,319.5472571105957,-0.001759993494488299,-0.014050467871129513,-0.99018794298172,0.13902278244495392,0.05241254927297975,0.09432702966487964,2.9786768096991576,0.04321631044149399,0.006299332249909639,0.04962398111820221,0.24306692741811275,0.0568782009696588,-9.850444021224977
40.0,2.4000000953674316,356.0,22.157541275024414,26.209047317504893,-79.78276436613646,40.45910901827783,320.14358584594726,-0.002166653284803033,-0.008894814178347588,-0.9900600910186768,0.14034727215766907,0.053511223444199764,0.07242822895296158,2.9730222748548347,-0.05603189393877983,-0.030489785596728325,0.0122614661231637,0.2642337749898434,0.05114526640623808,-9.707745062112807
40.2,2.5,0.0,22.09493827819824,27.823257446289066,-79.78276436091978,40.459108943021796,320.4608465881348,-0.0018295526970177887,-0.008434711955487728,-0.989923894405365,0.14133769273757935,0.05785266050021121,0.06589698194517424,2.954263479139075,-0.08119794726371765,-0.0989178791642189,-0.1067115068435669,0.2312153887376189,0.17858288303017614,-9.687581523656846
40.3,2.4000000953674316,1.0,22.081167221069336,27.163259506225586,-79.78276441224477,40.4591089139998,320.7564169616698,-0.00015307683497667313,-0.010108727030456066,-0.9898509979248048,0.14174970984458926,0.075881063548291,0.06935636553976096,2.9534986806172623,0.04450821131467818,0.0783214196562767,-0.002378488192334771,0.25535430293530226,0.3311803011596203,-9.749571949839591
40.5,2.4000000953674316,4.0,22.04110145568848,30.566619873046875,-79.78276448837494,40.45910877409429,321.37159030151366,-0.0050063859671354285,-0.015404000878334044,-0.9901798367500304,0.13885794579982758,0.08390979524869091,0.10683402617919148,2.9328725002571536,-0.1194164901971817,0.011885316111147405,-0.007959099486470222,0.3333151195943356,0.013395660426467658,-9.683272710442543
40.61,2.299999952316284,7.0,21.93592834472656,31.07553291320801,-79.78276475083955,40.45910857471697,321.98595874023437,-0.014432729221880438,-0.01956919208168984,-0.9906803369522096,0.13401970267295835,0.1707329133206383,0.1458879307581028,2.9838098679549274,0.17978374660015106,0.11062099039554596,0.11899659037590027,0.3002386997267604,-0.06735779556445777,-10.130444959402086
40.8,2.299999952316284,8.0,22.10245132446289,26.51916694641113,-79.78276480989841,40.45910851877817,322.28730075073236,-0.015976833179593086,-0.020088590681552887,-0.99078369140625,0.13299977779388428,0.16195134514184992,0.15274782855367874,3.0268404452231863,0.02352822013199329,0.016100170090794563,0.11420397460460666,0.28961081882938744,0.002613193765282631,-10.150194514989854
40.9,2.4000000953674316,6.0,22.03984832763672,28.80927658081055,-79.78276487968505,40.45910840654953,322.90560595703124,-0.012038356624543669,-0.01663825288414955,-0.9908767342567444,0.13319775462150574,0.11096308878068628,0.1368158424063239,3.0147069705882488,-0.188591867685318,-0.1983528435230255,-0.06157556176185607,0.2273793411813677,0.30673272706568244,-9.743846940994263
41.1,2.4000000953674316,5.0,22.10245132446289,26.209047317504893,-79.78276489222941,40.45910837378839,323.20688693237304,-0.009258050471544266,-0.015653938055038452,-0.9908156394958496,0.13399167358875275,0.1182568999761144,0.11816254701737915,3.0052377101255403,0.31893303990364075,0.1424085795879364,0.10605018585920334,0.2726193765923381,-0.08986517214216293,-9.758221151232721
41.2,2.4000000953674316,6.0,22.028579711914066,29.16710662841797,-79.78276486955947,40.45910832084797,323.52309481811517,-0.00701970374211669,-0.015318563207983969,-0.9907019734382628,0.13500317931175232,0.05974096283725602,0.11958691085798455,2.999162059479912,-0.09845427423715593,-0.07483899593353271,-0.0434115044772625,0.2547847475856543,0.06074233800172806,-9.761017874479297
41.4,2.4000000953674316,3.0,22.0135555267334,29.715778350830078,-79.78276473866481,40.459108244454,324.1452795715332,-0.005334438290446997,-0.015533175319433212,-0.9906338453292848,0.13555438816547394,0.0162458773941199,0.11378577961304875,2.9974740664430355,0.06193969026207924,0.1204015091061592,-0.043204326182603836,0.29003035655245185,0.18654613293707373,-9.817718324661255
41.5,2.299999952316284,4.0,22.012304306030273,29.57264709472656,-79.782764690955,40.45910822838207,324.44543902587884,-0.004926826804876328,-0.015452904626727102,-0.9905704259872437,0.13604143261909485,0.02296041929330916,0.11628716998152674,3.000262030552128,0.16498488187789914,0.03822818398475647,0.06669855862855911,0.4442285778746009,-0.23199261160567405,-9.8792427277565
41.7,2.299999952316284,2.0,21.938432693481445,31.830951690673828,-79.78276465222955,40.45910811441645,325.07385699462884,-0.0035035964101552963,-0.014136703684926031,-0.9904931783676147,0.13678929209709167,0.016412943942922458,0.11805957960961368,3.0204376820340766,0.09861315041780473,0.024719098582863808,0.007859149016439916,0.2971598483249545,0.12070441075600685,-9.82047587156296
41.8,2.299999952316284,1.0,22.052370071411133,27.95048522949219,-79.7827645185809,40.459108037901146,325.70230548095697,-0.0016048511024564507,-0.016002396121621132,-0.9902082681655884,0.13866864144802096,-0.002804680873042048,0.11981720811110945,3.0249882079131654,0.12588675320148468,0.03388895466923714,0.05929068103432655,0.3424918494746089,-0.17998033102601768,-9.872210866212844
42.0,2.4000000953674316,0.0,22.02607536315918,29.30228614807129,-79.7827644656003,40.45910801689096,326.00497119140624,-0.0010746812913566828,-0.017162531614303592,-0.990083873271942,0.13942137360572815,-0.028641813345618845,0.13093727990923199,3.0237572825537065,-0.232680544257164,-0.08799659460783005,-0.13971254229545593,0.2321305693499744,0.3856019086763263,-9.725160409212114
42.1,2.4000000953674316,359.0,21.938432693481445,32.10131072998047,-79.78276441801486,40.45910799885231,326.3070646972656,-0.0006990177207626402,-0.018216107040643692,-0.9900059103965759,0.13984315097332,-0.007626684418052088,0.13049058811044606,3.0137626959932238,0.052343808114528656,-0.012636193074285984,-0.025668898597359657,0.3940714178234339,0.15525833979249,-9.764919721484183
42.3,2.4000000953674316,358.0,22.08241844177246,27.60855865478516,-79.78276432874056,40.459107911527575,326.93425433349614,-0.0006013260572217405,-0.01869175024330616,-0.9899585843086244,0.14011573791503906,0.01107252483729998,0.12991427188895985,3.028425809592402,0.18791532516479487,0.05099578946828842,0.06477347016334534,0.34785012826323514,-0.19497357867658133,-9.899122091531757
42.41,2.4000000953674316,359.0,21.94344139099121,30.08156013488769,-79.78276426704439,40.45910780758986,327.26120440673833,-0.0015081389574334025,-0.018616672605276108,-0.9899765849113464,0.13999158143997192,-0.010926647139562885,0.13092403972102873,3.0337193628261376,-0.09695892035961153,0.015520027838647366,-0.03782732784748077,0.30662437085062266,0.08988461413420737,-9.803915972113607
42.6,2.4000000953674316,3.0,22.02357292175293,29.151203155517567,-79.78276420444277,40.45910779879008,327.8687178344726,-0.004585800226777792,-0.018783997744321827,-0.9900287985801696,0.13953229784965515,0.010249981740802242,0.11553842645330566,3.0454687344319176,-0.060339652001857765,0.04991404339671135,-0.03596096113324165,0.35732214253395794,0.37873387880623344,-9.91606966137886
42.7,2.299999952316284,2.0,22.05111694335937,28.06976127624512,-79.78276411388772,40.45910773126888,328.50216357421874,-0.007151785306632519,-0.014737265184521675,-0.9900673031806946,0.13963715732097626,0.024200446721989944,0.09706993478136004,3.0478039374180086,0.09606003016233444,0.1237764060497284,0.1186751276254654,0.3062113564275205,0.046051514740102,-9.85987207174301
42.9,2.299999952316284,2.0,21.937179565429688,29.98613929748535,-79.78276409114295,40.45910770017603,328.8284346313476,-0.009307436645030977,-0.015480244532227516,-0.9900709390640259,0.13940347731113434,-0.0028798416366786024,0.07707063146552062,3.0304368238974946,-0.2419889569282532,-0.10871843248605728,-0.07823570817708969,0.16638586526736618,0.1583457062020898,-9.640364672541619
43.0,2.4000000953674316,2.0,22.081167221069336,27.64831733703613,-79.78276403796207,40.45910771720125,329.1307951660156,-0.010342104360461237,-0.01668528839945793,-0.9901822805404664,0.13839712738990784,0.011066992363646012,0.07696022329734398,3.020337426619576,-0.028431283310055733,-0.05266990512609482,-0.09464818984270096,0.2624851468764245,0.2712565916217864,-9.699044989943506
43.2,2.4000000953674316,0.0,21.96347427368164,29.23072052001953,-79.78276389406874,40.45910767936658,329.762478515625,-0.00398564338684082,-0.016255615279078484,-0.9903583526611328,0.13751491904258728,0.01144257298904644,0.08875614649676608,3.020759408372317,0.3278607130050659,0.08616496622562407,0.08707500994205475,0.2995810889638961,-0.12798248576000334,-9.795179062485694
43.3,2.4000000953674316,1.0,22.131248474121094,27.84711265563965,-79.78276378239083,40.459107633354776,330.39123217773437,0.0007823904743418097,-0.015469486825168131,-0.9903429746627808,0.13777154684066772,-0.028357082631123118,0.09064429780294556,3.0062226893187534,0.05302819609642029,-0.03926444798707962,-0.0234554186463356,0.34703378386795525,-0.05977328991517425,-9.62097296655178
43.5,2.4000000953674316,0.0,22.018564224243164,28.96036148071289,-79.78276372611374,40.45910764550722,330.6905409545898,0.001364214695058763,-0.015006700530648232,-0.9903239011764526,0.13795478641986847,-0.04958082980025025,0.09357635494421264,2.980331735419961,-0.12671181559562686,-0.030024299398064613,-0.12752774357795715,0.3650578261166811,0.4125717157870532,-9.580955792069435
43.6,2.4000000953674316,0.0,21.910886764526367,30.08951187133789,-79.7827636744567,40.459107653634966,330.98755328369134,0.00013665718142874542,-0.014026086777448654,-0.9902822375297546,0.13836325705051422,-0.02475226411628928,0.0947442994064959,2.9591004215974217,0.115151546895504,0.03669271245598793,0.08895686268806458,0.2214548509195447,-0.14901886733248831,-9.57072433412075
43.8,2.5,359.0,21.895862579345703,30.20878982543945,-79.78276348375516,40.45910762474072,331.61771838378905,-0.0012114439159631733,-0.01518710609525442,-0.9901362061500548,0.1392778754234314,-0.03516441704881572,0.08649829947309137,2.9959195385948707,-0.2470311373472213,-0.14243339002132416,-0.09568080306053164,0.18337418289855129,0.19947032505646348,-9.865156785249713
43.9,2.5,359.0,22.03984832763672,28.332170486450195,-79.78276346351981,40.45910759228769,331.94263140869134,-0.0014432888710871339,-0.016691921278834343,-0.9900907278060912,0.13942663371562958,-0.022519278789658138,0.0971562104195897,3.0323437356972844,-0.09220903366804124,0.009772072546184065,-0.12411312758922576,0.334320986866951,0.26218830931931736,-10.010620307922363
44.1,2.5,357.0,21.88709831237793,31.838903427124023,-79.78276338405944,40.459107594546396,332.54904620361333,-0.00013585631677415222,-0.016426825895905498,-0.9900804758071899,0.13953767716884613,-0.011711539567977757,0.10689420490223132,3.0274015771179776,-0.02931438758969307,0.029311465099453926,-0.039906032383441925,0.33000501081347466,0.3278732621669769,-9.80907380104065
44.2,2.5999999046325684,356.0,21.85454559326172,32.037696838378906,-79.78276328511315,40.45910746860117,333.178364440918,0.0017726665828377008,-0.015660269185900688,-0.990099847316742,0.1394777148962021,0.0008720167978016084,0.11185325786200598,3.0628310846756293,0.1344970464706421,0.13808728754520416,-0.030214019119739526,0.21970978595316407,0.09249304790049792,-9.905849897861481
44.4,2.5999999046325684,357.0,21.962221145629886,28.79337310791016,-79.78276335854663,40.459107429396674,333.4964110107422,0.002277612453326583,-0.014802847988903522,-0.9901311993598938,0.13934120535850525,0.011591833141290564,0.11264691907642455,3.060732359089103,0.20678119361400604,0.02838054671883583,0.024366553872823715,0.3761031068488956,-0.0673735784785822,-10.066895080804823
44.5,2.5999999046325684,355.0,22.014806747436523,27.139404296875,-79.7827633497882,40.459107413787436,333.80433337402343,0.0024650224950164557,-0.013620978221297264,-0.9901448488235474,0.13936172425746918,0.0072284477314041905,0.11396789462343067,3.088876994301098,0.06400711089372635,0.037868056446313865,0.04671898856759072,0.23032544251531364,0.005204016220523046,-9.991091777086261
44.7,2.5999999046325684,354.0,21.925912857055664,31.385652542114247,-79.78276342120797,40.459107282069795,334.42964617919915,-6.814821972511709e-06,-0.016335850581526756,-0.9900673031806946,0.13964276015758514,0.008088027033675994,0.10949425351742392,3.016504586878323,-0.3125183880329132,-0.048630502074956894,-0.20065858960151672,0.33423017229884866,0.4325091862678528,-9.47881195127964
44.8,2.5999999046325684,354.0,21.89210700988769,29.779394149780273,-79.78276348044216,40.45910722780679,335.02885119628905,-0.00218039914034307,-0.01901059970259666,-0.9900668859481812,0.13928891718387604,0.07227938727883369,0.11948172911405365,2.9899114478471636,0.18297401070594788,0.15938957035541534,0.1193767562508583,0.2976974267140031,0.039029488395899536,-9.745826223492623
45.0,2.5999999046325684,354.0,22.002286911010746,26.9167537689209,-79.78276350842296,40.459107143020965,335.3556944580078,-0.0019648727029562,-0.020037729293107983,-0.9900438189506532,0.13931238651275635,0.0758889122819691,0.12396710101370695,2.997930088004219,0.07990285009145738,0.04971954226493835,0.10509613156318663,0.2884108788147569,-0.06328291665762663,-9.776580823659897
45.1,2.5999999046325684,355.0,21.99352264404297,28.08566474914551,-79.7827635244342,40.45910704257762,335.98112933349614,-0.0015156440204009414,-0.018467668443918228,-0.9900853633880616,0.13924004137516022,0.03137293724914544,0.1283306361441111,2.9730027763124087,-0.25011569261550903,-0.1606886088848114,-0.04733159765601158,0.2456963289342821,0.25171187130734324,-9.536415211558342
45.3,2.700000047683716,355.0,21.92716407775879,30.701799392700195,-79.78276355137356,40.45910702716592,336.277615234375,-0.0021153963170945644,-0.01826093532145024,-0.9901818633079528,0.1385713815689087,0.062171610932863164,0.1135363483054593,2.9551824512032847,0.131715327501297,0.03930191323161125,0.019490247592329986,0.3418381673097611,0.07880515459924936,-9.644868198037148
45.4,2.700000047683716,354.0,21.882089614868164,30.35192108154297,-79.78276349650824,40.45910692402047,336.6074873657226,-0.0021156568545848127,-0.018759755417704586,-0.9902253746986388,0.1381933093070984,0.05285704572404495,0.11778669694567236,2.9805873717784865,0.1182478293776512,0.1449507176876068,-0.004328900948166847,0.3205558737739921,0.1143779426906258,-9.792601609826088
45.6,2.700000047683716,354.0,21.90963554382324,31.306133270263672,-79.78276353300781,40.45910689909185,337.2082335205078,-0.0005431859171949327,-0.018882354721426964,-0.9902201294898988,0.13822922110557556,0.04388554152425635,0.11641570657427446,3.012670554112556,-0.026298509910702702,-0.0014132644282653928,0.07153857499361037,0.2942993721552193,-0.06224825184792281,-9.870160832405091
45.7,2.700000047683716,354.0,21.977245330810547,28.56277275085449,-79.78276346822,40.45910681271613,337.53149096679687,-0.0005084039294160904,-0.019473565742373463,-0.9900977611541748,0.13902215659618378,0.02245893207048203,0.11641159339972636,3.0038251210388816,-0.07221755385398865,-0.07335541397333145,-0.07746345549821854,0.30917960409075024,0.05544479716569185,-9.813424129486084
45.9,2.700000047683716,354.0,21.882089614868164,32.72949981689453,-79.78276349638877,40.459106716219104,338.1592909545898,-0.002360309008508921,-0.01984775625169277,-0.989871084690094,0.14055564999580386,0.04427005224670974,0.1166627734590549,2.9895641047469894,0.12005238980054855,0.03269277140498161,0.013605693355202677,0.37910433646291497,0.07151894831098618,-9.636307874321938
46.0,2.700000047683716,353.0,21.88083839416504,30.50300407409668,-79.7827635331712,40.45910672032432,338.75712268066405,-0.0031234424095600843,-0.017819948494434357,-0.9898221492767334,0.14115560054779053,0.0625044060266484,0.09690835971329248,3.00134383523427,0.2209114879369736,0.04613903537392616,0.07348650693893433,0.3281812277063728,-0.14667177669703962,-9.962282545566561
46.2,2.700000047683716,353.0,21.98600959777832,28.363977432250977,-79.78276368993775,40.45910656823093,339.07618395996093,-0.0036773157771676783,-0.016738804057240486,-0.9899117946624756,0.1406451165676117,0.08079382602447853,0.10949793441083253,3.0253092819722056,0.0033699041232466693,-0.011313561350107193,0.05829048901796341,0.2502114209532738,0.005267738308757544,-9.992379333972927
