time,wind_speed,wind_angle,battery_voltage,battery_current,position_x,position_y,position_z,orientation_x,orientation_y,orientation_z,orientation_w,velocity_x,velocity_y,velocity_z,angular_x,angular_y,angular_z,linear_acceleration_x,linear_acceleration_y,linear_acceleration_z
0.0,0.4000000059604645,18.0,23.06527900695801,-0.02385532110929489,-79.78281721270598,40.45906757275671,267.29938910865786,-0.0041918843053281325,-0.0048486990854144105,-0.9690549969673156,0.246761754155159,-0.02535533043092322,-0.0275440861772536,-0.021928638742293158,-0.004655592143535614,-0.0003441160952206701,-0.004886833019554615,0.05102984785102308,0.052874854523688564,-9.804303642511366
0.1,0.4000000059604645,23.0,23.06027030944824,-0.007951773703098297,-79.78281720000193,40.45906760712486,267.2971396889687,-0.004203996621072292,-0.0048692021518945685,-0.9690545797348022,0.24676281213760376,-0.030341018423149325,-0.029650345813947307,-0.022071390341456745,0.005391400307416916,0.003708191448822617,0.004550938494503498,0.05713207519613207,0.03464718755800277,-9.807313204407693
0.2,0.4000000059604645,21.0,23.05401039123535,-0.039758868515491486,-79.78281725786997,40.459067592641155,267.2879701700211,-0.00414720643311739,-0.004835422616451979,-0.9690567851066588,0.2467558979988098,-0.02530065452326396,-0.024422865618723644,-0.022169376580380186,0.002607109025120735,0.004091490060091019,0.003103578928858041,0.05089768707286567,0.04304785487707705,-9.804959115386009
0.4,0.4000000059604645,24.0,23.046497344970703,-0.07156596332788467,-79.78281724275804,40.45906762461942,267.2857047464848,-0.0041696312837302685,-0.00483867432922125,-0.9690524935722352,0.2467720806598664,-0.03127650343994385,-0.02616912613647954,-0.022253581448995464,0.0017881679814308882,-0.001182675827294588,0.004772183019667864,0.05476627803873271,0.032344732191413636,-9.805798775553704
0.51,0.4000000059604645,27.0,23.059017181396484,-0.04771064221858978,-79.78281727612713,40.45906765649475,267.2763394560814,-0.004131303168833257,-0.0047976234927773476,-0.969050943851471,0.246779665350914,-0.0305249491353945,-0.028064750429295224,-0.022390431007003508,0.008833147585391998,0.0036707881372421976,0.002470070729032159,0.050856952993199235,0.052130394335836175,-9.803777977824213
0.7,0.30000001192092896,35.0,23.059017181396484,-0.05566241592168808,-79.78281725721362,40.459067693695104,267.2740506973267,-0.004152978770434856,-0.004794699605554342,-0.9690520763397216,0.24677525460720065,-0.03748087339376464,-0.029477861264530444,-0.0222722437155618,-0.005934087093919516,-0.00010409977403469384,-0.001852879184298217,0.05184978280216456,0.04166404733899981,-9.805047993063928
0.8,0.30000001192092896,37.0,23.06027030944824,-0.05566241592168808,-79.78281728120677,40.45906765018236,267.2649664130211,-0.004131665453314781,-0.004733996465802193,-0.9690590500831604,0.24674901366233826,-0.03129408443009918,-0.02104273096897076,-0.02255985850453857,0.0012276137713342905,0.0018259012140333648,0.005036432296037674,0.0564177464414388,0.03180759691167623,-9.805823333859443
1.0,0.30000001192092896,43.0,23.059017181396484,-0.05566241592168808,-79.78281733868408,40.45906763164989,267.2579483833313,-0.004072163719683886,-0.00472220778465271,-0.9690564274787904,0.24676062166690824,-0.021382623436964343,-0.02074305762678149,-0.022614844620652903,-0.00700291758403182,-0.002805744064971805,-0.007579047698527574,0.0511022162809968,0.05277695934288204,-9.803020178675652
1.11,0.30000001192092896,46.0,23.052757263183594,-0.039758868515491486,-79.78281732637551,40.45906765874878,267.25563783907893,-0.004108630586415529,-0.004731279332190752,-0.9690579175949096,0.2467542737722397,-0.026041736757873368,-0.022628300888293703,-0.02279984110805177,0.005702222231775522,0.004269581288099289,0.003551630070433021,0.058049594694748526,0.03501779367914423,-9.806357184648514
1.31,0.30000001192092896,53.0,23.05150604248047,-0.06361418962478638,-79.78281729000348,40.459067698366326,267.2461896386147,-0.004069759510457516,-0.004718807060271502,-0.9690560102462769,0.2467624694108963,-0.03233332614973923,-0.022479778478691863,-0.02278040836162841,0.0038716779090464115,0.0004110605514142663,-0.0019117569318041203,0.05143765002954751,0.04674853939097375,-9.803898430466653
1.42,0.30000001192092896,55.0,23.06027030944824,-0.04771064221858978,-79.78281731061723,40.45906767820369,267.23697854542735,-0.00402175635099411,-0.004682383500039578,-0.9690535068511964,0.24677373468875885,-0.023454921598314842,-0.017653725841051668,-0.022691879175489336,-0.004506211262196302,-0.002602253807708621,-0.008343308232724667,0.051315571130253375,0.0523454576684162,-9.802610288858414
1.6,0.30000001192092896,59.0,23.059017181396484,-0.04771064221858978,-79.78281729456803,40.45906770375924,267.2346596565247,-0.004040782805532217,-0.00470574526116252,-0.9690569043159484,0.2467594295740128,-0.028029446390417958,-0.019559750023221804,-0.022928063612284173,0.008041934110224247,0.002593139652162791,0.006537740584462881,0.056671154717914764,0.036082923396024855,-9.806012783646583
1.7,0.30000001192092896,61.0,23.062774658203125,-0.039758868515491486,-79.78281722338635,40.459067767410865,267.2272813167572,-0.00402347557246685,-0.004721894860267639,-0.9690592885017396,0.2467503100633621,-0.03789478720282425,-0.02334734321910893,-0.019511449762360186,-0.0007670645136386156,0.0028968295082449913,-0.0024135555140674114,0.05166631270665676,0.03903924136888237,-9.805348539948463
1.91,0.30000001192092896,62.0,23.06152153015137,-0.03180709481239319,-79.78281719482214,40.459067803846175,267.22527192497256,-0.0040489500388503075,-0.004730308894068003,-0.9690627455711364,0.2467360347509384,-0.04339670150215359,-0.02502200102944949,-0.01956980279789633,0.002747540827840566,-0.0021927470806986094,0.005828393623232842,0.05519815430045128,0.031890800963155934,-9.805992318391802
2.01,0.30000001192092896,63.0,23.06402587890625,-0.039758868515491486,-79.78281719694631,40.45906775492644,267.2157091941834,-0.004011002369225025,-0.0046850447542965395,-0.9690678715705872,0.2467173337936401,-0.03173653739298897,-0.01665831766085097,-0.02057336288821129,0.009305725805461408,0.00347508629783988,0.00738805066794157,0.05124698054976762,0.052204749905504284,-9.803330081105235
2.2,0.30000001192092896,62.0,23.059017181396484,-0.02385532110929489,-79.78281717045041,40.459067783548825,267.2136114087105,-0.004034783225506544,-0.004692343529313803,-0.9690675735473632,0.24671804904937744,-0.03852135284026298,-0.017959193806766728,-0.020459707791745992,-0.006011173594743013,-0.004280181135982275,-0.0017806175164878364,0.051973711797036234,0.04328453920315952,-9.804666754603387
2.3,0.30000001192092896,61.0,23.06152153015137,-0.039758868515491486,-79.78281710825746,40.45906783012906,267.2043434824944,-0.004005436319857836,-0.004665118642151357,-0.9690574407577516,0.2467590868473053,-0.04150301990738894,-0.020379410013398474,-0.020843800737348667,0.0015086084604263306,-0.0017758687026798727,0.0010477539617568254,0.053066716287285084,0.04243203343357891,-9.804691312909128
2.5,0.30000001192092896,58.0,23.06152153015137,-0.04771064221858978,-79.78281710431938,40.45906782098467,267.19507409596446,-0.003947583492845297,-0.00463003758341074,-0.969056248664856,0.2467651218175888,-0.032094524524423615,-0.01910313882740468,-0.02382573322594825,-0.003116634208709001,0.0006682939128950237,-0.004505624528974296,0.050148603930138064,0.05319979526102543,-9.803637644648553
2.6,0.4000000059604645,57.0,23.059017181396484,-0.03180709481239319,-79.78281707983749,40.459067851351406,267.1926334049702,-0.003970831632614136,-0.004635186865925789,-0.9690564274787904,0.2467641830444336,-0.03683160209057654,-0.02080062868836929,-0.0240979538651018,0.007521667517721653,0.0037899275775998826,0.003924895543605089,0.05727772111538796,0.03212011231575161,-9.806453078985212
2.8,0.4000000059604645,56.0,23.05401039123535,-0.039758868515491486,-79.78281706466477,40.45906788574686,267.18135057353976,-0.003896077862009406,-0.004594665486365557,-0.969061017036438,0.2467479258775711,-0.03248239825480926,-0.02298226778996387,-0.023859439535246114,0.005079406313598156,0.0037870712112635374,-0.0007521818042732775,0.05620373834855855,0.037348952936008574,-9.805426307916642
2.91,0.4000000059604645,56.0,23.049001693725586,-0.06361418962478638,-79.78281699047858,40.459067877204326,267.17267905139926,-0.0038929367437958717,-0.004541152156889439,-0.9690555334091188,0.2467705160379409,-0.031412125456510176,-0.012977619719303888,-0.01851524825144624,-2.3140239591157297e-06,0.0015083077596500516,-0.003434329759329557,0.05096263684798032,0.04833002393133939,-9.804483736753463
3.1,0.4000000059604645,57.0,23.05025291442871,-0.015903547406196594,-79.78281696295512,40.459067902480506,267.17078052425387,-0.0039173313416540605,-0.00455934414640069,-0.969050943851471,0.246787577867508,-0.03643705666914827,-0.01440154449261457,-0.0186661455402235,0.006669505964964628,0.0017609124770388007,0.0041732355020940295,0.05539280719589442,0.03195191121893004,-9.805834443569184
3.2,0.4000000059604645,57.0,23.06152153015137,-0.03180709481239319,-79.78281689857019,40.45906792841689,267.15822271966937,-0.0038820721674710508,-0.004557372070848942,-0.9690458178520204,0.24680860340595245,-0.036003966257125736,-0.013248113657205449,-0.01981880799028231,0.007942697964608671,0.006137368734925985,0.0018840441480278969,0.051446754327043896,0.05227519514970482,-9.802931300997734
3.4,0.4000000059604645,56.0,23.06527900695801,-0.02385532110929489,-79.78281686585622,40.45906795608341,267.1562040891648,-0.003909272141754627,-0.0045761726796627045,-0.9690425992012024,0.2468204647302628,-0.04231424717178541,-0.014451021837645484,-0.01960390827865115,-0.006596955005079508,0.0008627704810351133,-0.004036854486912489,0.05130286257248372,0.03991233116481453,-9.806093475222587
3.51,0.4000000059604645,55.0,23.059017181396484,-0.03180709481239319,-79.78281674744437,40.459067994174795,267.1465135958195,-0.003931101411581039,-0.004559467080980539,-0.9690348505973816,0.24685084819793696,-0.04713321132068329,-0.011907050996017831,-0.015897038955318923,0.0018017814727500079,-6.673917960142717e-05,0.003778568003326655,0.05103273491375149,0.046392192710191016,-9.804697160124778
3.7,0.4000000059604645,54.0,23.06027030944824,-0.03180709481239319,-79.78281670288017,40.459068025612396,267.1448702361584,-0.0039537339471280575,-0.004570252262055874,-0.9690371751785278,0.24684105813503265,-0.053298345860958565,-0.013333055294454615,-0.015774332780559387,-0.0066318204626441,-0.003003342542797327,-0.005172073841094971,0.050774415889754884,0.05180336139164865,-9.804100159406662
3.8,0.4000000059604645,53.0,23.059017181396484,-0.039758868515491486,-79.78281668369716,40.45906801465279,267.13328669929507,-0.00388710992410779,-0.0045479433611035356,-0.9690341353416444,0.24685437977313995,-0.040715288254181865,-0.009926451163249354,-0.014600755000295843,-0.006309488788247109,-0.0006068376824259758,-0.0007181242690421643,0.05221852740738541,0.04008572394959629,-9.8053614038229
4.0,0.4000000059604645,54.0,23.059017181396484,-0.039758868515491486,-79.78281667164069,40.45906802428885,267.12409014964106,-0.0038393067661672826,-0.004532454069703817,-0.9690315127372742,0.2468658983707428,-0.03112600203313908,-0.010063461245594136,-0.011404754425536215,0.0015887649497017267,0.0019336773548275234,0.0027892591897398233,0.05198372515384108,0.047489313092082736,-9.804173249602318
4.1,0.4000000059604645,54.0,23.06027030944824,-0.04771064221858978,-79.78281664269191,40.45906804726282,267.1229103651047,-0.0038665391039103283,-0.0045400457456707954,-0.9690306782722472,0.2468686401844025,-0.03631820198550458,-0.011456508003756959,-0.011433740601312392,-0.0013536530314013366,-0.0018581169424578547,0.002815525513142348,0.0554481547465548,0.031992044588550934,-9.806586980223656
4.3,0.30000001192092896,54.0,23.06152153015137,-0.039758868515491486,-79.78281658686443,40.45906808465506,267.1119743731022,-0.003825767198577523,-0.004528905730694532,-0.9690297842025756,0.24687308073043826,-0.03363869038974937,-0.012616749024669662,-0.009313286239044195,0.008453979156911373,0.004973466508090496,0.007046522572636604,0.0572357307979837,0.03411449479172007,-9.80704189360142
4.41,0.4000000059604645,54.0,23.06027030944824,-0.03180709481239319,-79.7828165212341,40.459068137157324,267.0989983227253,-0.003803254570811987,-0.004524494055658579,-0.9690234661102296,0.2468981593847275,-0.033725037701323776,-0.01407380948910899,-0.010519564500743758,0.0007590974564664067,0.004655379336327314,0.005183457862585783,0.05240601289551705,0.04510766906663776,-9.804112438559534
4.6,0.30000001192092896,53.0,23.05025291442871,-0.04771064221858978,-79.78281649169469,40.459068164384384,267.097897395134,-0.0038564393762499094,-0.004528602119535208,-0.9690172672271729,0.2469217181205749,-0.03904132852906453,-0.01532309283250961,-0.010617642288566292,-0.000191736820852384,0.001724456204101443,0.00645344378426671,0.053950943201780316,0.03288433426525444,-9.805183063745499
4.7,0.30000001192092896,51.0,23.06402587890625,-0.02385532110929489,-79.78281645716751,40.45906817132628,267.083403244257,-0.0038116637151688337,-0.004494267515838146,-0.9690160751342772,0.2469274252653122,-0.02876427353644404,-0.0109736481688675,-0.011623100737415256,0.00915253721177578,0.0028565202374011282,0.005515618715435266,0.05098923711106181,0.052681658864021305,-9.803660448789595
4.9,0.4000000059604645,46.0,23.06152153015137,-0.039758868515491486,-79.78281643068267,40.459068194090094,267.0822071578503,-0.003845937317237258,-0.004517748951911925,-0.9690154790878296,0.24692900478839874,-0.035054446639571274,-0.011981842081065043,-0.011510420750801009,-0.004545795731246471,-0.0025673964992165565,-0.004586281254887581,0.05158484911546112,0.04347340883687139,-9.80423698425293
5.0,0.4000000059604645,43.0,23.06152153015137,-0.039758868515491486,-79.78281626966933,40.459068183790436,267.0747052576542,-0.003845848143100738,-0.0044511607848107815,-0.96901535987854,0.2469305843114853,-0.041263961005019036,0.0028628335242385306,-0.0005541026954875019,-0.00031540155760012567,-0.0006052849348634481,0.003697016276419162,0.05351508809253574,0.03325026032980532,-9.80563212990761
5.2,0.4000000059604645,39.0,23.06152153015137,-0.04771064221858978,-79.78281622306301,40.45906820102636,267.07460664176944,-0.003844690974801779,-0.004477507434785366,-0.969020426273346,0.2469104379415512,-0.04691421503314882,0.001513699052810671,-0.0005676475590008995,-0.005158924032002688,-0.000940465833991766,-0.006087882909923792,0.0507356598135084,0.05280742425005883,-9.803135368824003
5.3,0.4000000059604645,37.0,23.05776596069336,-0.039758868515491486,-79.78281605465419,40.45906819393189,267.072720035553,-0.003834665985777974,-0.004449361003935337,-0.9690218567848206,0.2469054013490677,-0.05117836556356434,0.011453238331245572,0.01470996078402851,-0.005227814894169569,-0.0016825265483930707,-0.0025479530449956656,0.05053922991268337,0.043393411617726085,-9.804743353128432
5.5,0.4000000059604645,33.0,23.06027030944824,0.07156596332788467,-79.7828159596977,40.45906818278641,267.0717513110638,-0.003800374688580632,-0.0044002654030919075,-0.969020426273346,0.2469120472669601,-0.046649058888457016,0.020534319491524542,0.033407758278388516,0.0029372291173785925,0.005318403709679842,0.001496451674029231,0.052720867185853434,0.0425164069281891,-9.805081906914713
5.61,0.4000000059604645,31.0,23.059017181396484,0.05566241592168808,-79.78281589684913,40.459068188523,267.07506339216235,-0.003836659016087651,-0.0043945834040641785,-0.9690216183662416,0.2469072192907333,-0.05212114292843748,0.0196851881590176,0.0334477852694851,-0.00039350165752694016,-0.0006257203640416265,0.005605052225291729,0.054241778226569295,0.033994012456387286,-9.805504075884821
5.8,0.5,27.0,23.049001693725586,0.03180709481239319,-79.7828157617897,40.45906818297214,267.0743170526028,-0.003799020079895854,-0.0043610199354588985,-0.9690217971801758,0.2469078004360199,-0.04904663385552995,0.02378142264585873,0.042986761050108666,0.005207451060414314,0.004687729757279158,0.005282117519527675,0.05751807365566493,0.03142701169475913,-9.806533770561217
5.9,0.5,26.0,23.05526161193848,0.06361418962478638,-79.78281568871726,40.45906817486855,267.0741455998421,-0.0037175728939473633,-0.004340691026300192,-0.9690239429473876,0.2469006925821305,-0.03845472244317503,0.02416417368706721,0.050672588021678566,0.0018978487933054566,0.0033872660715132947,0.0056296847760677355,0.050092351888306436,0.04917530290782452,-9.803175714612008
6.1,0.5,23.0,23.05401039123535,0.08746951073408127,-79.78281563207216,40.45906817437646,267.0791989710331,-0.0037423910107463603,-0.004344554618000984,-0.9690248966217041,0.2468966692686081,-0.04418695158343401,0.02345792728534009,0.05089512665564487,-0.003831445472314954,-0.004662590101361275,0.002463261596858501,0.0525585749745369,0.03819698193110526,-9.805646163225177
6.2,0.5,24.0,23.052757263183594,0.04771064221858978,-79.78281555514727,40.45906819096047,267.07459707522395,-0.003699784399941564,-0.004334249533712864,-0.9690276384353638,0.24688656628131864,-0.03914198354150112,0.019474365861964514,0.04947304881425574,0.0027219043113291264,0.003579766256734729,0.003834999166429043,0.05139985783025623,0.049241719054989516,-9.803316047787666
6.4,0.5,24.0,23.049001693725586,0.17493902146816254,-79.78281550077908,40.459068194523404,267.07952327990535,-0.003707534400746226,-0.004357769154012203,-0.969026267528534,0.24689166247844696,-0.044919829806809065,0.018486091611403303,0.04964475168880167,-0.006005273666232824,0.0017664165934547782,-0.0067156702280044564,0.05148245431948453,0.05084850193932653,-9.803482693433764
6.51,0.5,25.0,23.05401039123535,0.05566241592168808,-79.78281536248933,40.45906823650743,267.07444907689097,-0.0036674891598522654,-0.004344899673014879,-0.9690260887145996,0.2468933165073395,-0.04959561866431289,0.017150120814684925,0.048455804234224235,-0.0038554340135306116,-0.002295901998877525,-0.003087475663051009,0.0565533698676154,0.03727263991953805,-9.8055262953043
6.7,0.5,25.0,23.045246124267567,0.007951773703098297,-79.78281529961069,40.45906824621851,267.079250082016,-0.003689969424158335,-0.004346486181020737,-0.969022572040558,0.24690651893615725,-0.05384796583607927,0.01570644529925405,0.04839499587381462,-0.0010599489323794842,0.0025788901839405303,0.002003747271373868,0.051091586225666105,0.04880954129621387,-9.804363868832588
6.81,0.5,25.0,23.04274177551269,-0.015903547406196594,-79.78281531496233,40.45906832488705,267.0710090246201,-0.0036332663148641604,-0.0043619372881948965,-0.9690191745758056,0.2469204366207123,-0.043183110617996484,0.0015984337930366485,0.04385642159457291,-0.005067347548902035,-0.002474058186635375,-0.008046763017773628,0.05136164536233992,0.052642838833853615,-9.80373412370682
7.0,0.4000000059604645,26.0,23.05526161193848,0.02385532110929489,-79.78281529841809,40.459068318327866,267.05687184596064,-0.0035700723528862,-0.004304339177906513,-0.9690107703208924,0.24695539474487305,-0.0298458018665747,0.007472703532562812,0.03775765508110007,0.006161992903798819,0.00439335685223341,0.006561035290360451,0.05655897954013199,0.03540627263719216,-9.806944829821587
7.11,0.4000000059604645,27.0,23.05025291442871,0.039758868515491486,-79.78281526033274,40.45906832720669,267.0606368329525,-0.0035765357315540314,-0.004300746135413647,-0.9690097570419312,0.2469594627618789,-0.03541081734484956,0.006658104888027464,0.038072148184383765,-0.0035570403560996056,-0.003694279119372368,-0.0006676127086393535,0.050980160222388805,0.04096585781313479,-9.805709897875786
7.3,0.4000000059604645,29.0,23.052757263183594,0.039758868515491486,-79.78281514965184,40.45906838974869,267.04980920219424,-0.003550719236955047,-0.004288181196898222,-0.969015896320343,0.2469357550144196,-0.04000527726591952,0.00470195302979064,0.0325568223911611,0.005112756043672562,-0.0011369070271030068,0.005130734760314226,0.05590443856548518,0.0313289383566007,-9.807224326729775
7.41,0.4000000059604645,30.0,23.05401039123535,0.039758868515491486,-79.78281511722281,40.45906841719849,267.0379879471064,-0.003465330461040139,-0.004268099088221788,-0.9690191149711608,0.2469246983528137,-0.028073643914984736,0.004862312444316293,0.02686771768080357,0.006417522206902504,0.003850366920232773,0.003252852475270629,0.05655889274552465,0.0374189162417315,-9.806464773416518
7.61,0.4000000059604645,29.0,23.049001693725586,0.03180709481239319,-79.78281508261377,40.45906842715958,267.04066055977347,-0.00346586131490767,-0.00425802543759346,-0.9690186381340028,0.2469266206026077,-0.033314856571018965,0.004184510212072964,0.02701872260352419,-0.003458667313680053,-0.000825901806820184,0.0008319439366459846,0.05247582773678005,0.03844232744537294,-9.805230426192283
7.7,0.4000000059604645,28.0,23.045246124267567,0.04771064221858978,-79.78281500679516,40.45906845550485,267.02816562318804,-0.003438762156292796,-0.004216242115944624,-0.9690176844596864,0.2469316869974137,-0.03026858000763341,0.0075629242936303175,0.022964419390223187,0.005449154879897833,0.0032856559846550226,0.002602353924885392,0.05707495977636427,0.032286246330477296,-9.805776556134225
7.9,0.4000000059604645,28.0,23.049001693725586,0.04771064221858978,-79.78281496864314,40.45906846422707,267.030444413066,-0.003434288315474987,-0.004220970906317234,-0.969019055366516,0.2469260394573212,-0.035575657204068065,0.006843338662107644,0.023124452290838805,-0.007338391151279211,9.143340139416978e-05,-0.007649272214621306,0.052403952665627015,0.049164124676026405,-9.804000172019006
8.0,0.4000000059604645,29.0,23.046497344970703,0.07156596332788467,-79.78281496466286,40.459068530436674,267.0146714296341,-0.003380773821845651,-0.004225882701575756,-0.9690066576004028,0.24697549641132355,-0.028208799370351367,-0.00026697710268659604,0.016743093946043796,-0.002795638516545296,0.002231308724731207,0.0021684151142835613,0.054530557589605455,0.039587486358359465,-9.805754336714745
8.2,0.4000000059604645,32.0,23.05526161193848,0.05566241592168808,-79.78281493394753,40.45906854426289,267.0163135972023,-0.0033795565832406282,-0.0042364695109426975,-0.969005048274994,0.2469817996025085,-0.032417036187092324,-0.0014310413581636403,0.016686553247512382,-0.003139731008559465,-0.003345088334754109,-0.005297789350152016,0.05048569134436548,0.05265392113476992,-9.803658694624902
8.3,0.4000000059604645,35.0,23.05150604248047,0.039758868515491486,-79.78281491492955,40.45906861811487,266.9999333467484,-0.003364776261150837,-0.004228591918945313,-0.9690009951591492,0.2469976544380188,-0.03028875114883528,-0.005970518971290409,0.01147785053809426,-0.007351560052484273,-0.004477554466575384,-0.0019458942115306848,0.058294857982546085,0.03426601990358904,-9.806841918826104
8.5,0.4000000059604645,38.0,23.05776596069336,0.05566241592168808,-79.78281495987692,40.45906865890432,266.9824441369772,-0.003307171864435077,-0.004221804905682802,-0.9689958691596984,0.2470187246799469,-0.014993691972730969,-0.007887209477719738,0.006363152818203702,0.003487252863124013,0.002231739228591323,0.0024668797850608826,0.05184495884925127,0.04320450087077917,-9.805170784592633
8.6,0.4000000059604645,42.0,23.05150604248047,0.04771064221858978,-79.78281494657045,40.45906867300106,266.9830599572659,-0.0033296188339591018,-0.004218531772494315,-0.9689946174621582,0.24702370166778564,-0.019275449349969862,-0.008883039718884742,0.006320975508935053,0.0005282654310576618,-0.0029691837262362237,0.0017708559753373265,0.05399443643633277,0.03174266997724772,-9.806948338150981
8.8,0.4000000059604645,45.0,23.06027030944824,-0.03180709481239319,-79.78281494740261,40.459068691212,266.962438821435,-0.0032973214983940125,-0.004187081940472126,-0.968993604183197,0.24702855944633484,-0.011060166906588436,-0.002583167862624544,-0.0021043123564218028,0.006776591297239065,0.00390307791531086,0.002163497731089592,0.057068367954343564,0.03457741611404345,-9.806913839578627
8.9,0.4000000059604645,45.0,23.059017181396484,-0.02385532110929489,-79.78281494459628,40.45906874727239,266.94227036798003,-0.0032497381325811148,-0.004152718931436539,-0.9689882397651672,0.2470507919788361,-0.009789429495039166,-0.002770128531139311,-0.0064257773762937676,0.0023926403373479843,0.0011325723025947814,-0.0008155755349434912,0.05038394065573812,0.0403372638579458,-9.805257908105851
9.1,0.30000001192092896,48.0,23.06027030944824,-0.03180709481239319,-79.7828149342361,40.45906875483358,266.941614672184,-0.003264843951910734,-0.004149711225181818,-0.968990921974182,0.24704016745090485,-0.013386438456193356,-0.00373770617765934,-0.006530397977979803,0.0041246265172958365,0.0005021235556341708,0.0023129829205572605,0.05558277318254114,0.03206450438126922,-9.806927288174627
9.21,0.30000001192092896,49.0,23.06027030944824,-0.03180709481239319,-79.78281491499354,40.45906883648682,266.92192213946583,-0.0032519279047846803,-0.004124966915696859,-0.9689951539039612,0.24702423810958865,-0.015509910372471881,-0.00655278713442497,-0.008750484310952053,0.0065422668121755114,0.003236477263271809,0.0005174294929020107,0.05147689946461469,0.04971957818605007,-9.804298964738846
9.4,0.30000001192092896,52.0,23.059017181396484,-0.039758868515491486,-79.78281490036629,40.45906884963497,266.92103362792733,-0.0032547973096370697,-0.004118951037526132,-0.9689934253692628,0.2470311373472213,-0.020086208734559508,-0.007330270810537069,-0.008723900033168683,-0.0016037983587011695,-0.0015147224767133596,0.0011259748134762047,0.05214363736566156,0.035638815946877005,-9.805827426910401
9.5,0.30000001192092896,53.0,23.056514739990234,-0.03180709481239319,-79.78281488905212,40.45906893345622,266.9011658277512,-0.003227749839425087,-0.004114221315830946,-0.9689897298812866,0.24704554677009585,-0.018701519843119324,-0.009396115013392251,-0.01080885211223059,0.007262727711349727,0.004546841606497765,0.007349266204982995,0.04941100508440286,0.05203126575797797,-9.803195595145226
9.7,0.30000001192092896,58.0,23.06152153015137,-0.039758868515491486,-79.78281487268121,40.45906895021977,266.90006075018647,-0.0032444873359054327,-0.004123629070818424,-0.9689896702766418,0.2470454424619675,-0.023736841249419147,-0.010044659206926671,-0.010806165233286898,-0.008704002946615219,-0.00436387350782752,-0.005043213255703449,0.05036830849014223,0.045768459253013136,-9.803753419518474
9.8,0.30000001192092896,57.0,23.056514739990234,-0.007951773703098297,-79.78281489904377,40.459069011047454,266.8814007710816,-0.003216596320271492,-0.0041003962978720665,-0.9689895510673524,0.2470470517873764,-0.01628036902365361,-0.010071486476544735,-0.009199427666961827,0.0019823256880044933,-0.0008024572161957622,0.0061734258197247965,0.052521463427692656,0.03358274991391227,-9.806002843379977
10.0,0.30000001192092896,56.0,23.059017181396484,-0.03180709481239319,-79.7828149152607,40.4590690612796,266.8590653833151,-0.00316469743847847,-0.004082027822732925,-0.9689865112304688,0.2470595985651016,-0.009284361539116165,-0.006160656037924514,-0.01516912603958934,-0.004986631684005261,-0.0009682188974693418,-0.006821268238127232,0.052318309228867294,0.05317240927834064,-9.80431592166424
10.1,0.30000001192092896,57.0,23.056514739990234,-0.03180709481239319,-79.78281490806673,40.45906907098974,266.8575225692392,-0.0031796146649867296,-0.004089408554136753,-0.9689831137657166,0.2470727860927581,-0.011885917882195209,-0.007256624375869762,-0.015457183265033697,0.0041200025007128716,0.005623008124530314,0.006265482399612665,0.05760058335028589,0.035906147905625414,-9.806537863612176
10.3,0.30000001192092896,55.0,23.06152153015137,-0.039758868515491486,-79.78281490366173,40.459069160671156,266.8353616126031,-0.0031369971111416817,-0.004069965798407793,-0.96898353099823,0.2470721900463104,-0.01420637486044159,-0.008997299018441748,-0.01805105503975504,-5.910987238166855e-05,0.0036359347868710756,-0.0003866078623104841,0.05110952986869961,0.04741158166900277,-9.803626534938813
10.4,0.30000001192092896,56.0,23.062774658203125,-0.015903547406196594,-79.78281493328767,40.459069250123385,266.8129819888771,-0.0031022566836327314,-0.004044969566166401,-0.968975841999054,0.2471030950546265,-0.009153922097664077,-0.012745689303573051,-0.020251194389194992,-0.00910374615341425,-0.002992248861119151,-0.005524137988686562,0.051676138769835234,0.051530127399601035,-9.802323775291443
10.6,0.30000001192092896,55.0,23.056514739990234,-0.03180709481239319,-79.78281493010248,40.459069265026216,266.81091865127996,-0.0030853666830807924,-0.004047485534101725,-0.9689763188362122,0.247101292014122,-0.01167891554451025,-0.014025039298638705,-0.020593213724455942,0.0018106419593095786,0.0027816772926598787,0.0019209556048735976,0.05601787454914302,0.03641285939142108,-9.806660070419312
10.7,0.30000001192092896,53.0,23.05776596069336,-0.03180709481239319,-79.78281493848147,40.459069330526475,266.7903343919814,-0.003023779485374689,-0.004016018938273192,-0.9689717292785645,0.247120663523674,-0.009449779415682643,-0.009412832362634151,-0.018213565855165804,0.0016307621262967589,0.0014246279606595635,-0.003721917746588588,0.052440534308552736,0.03579376259353012,-9.806367124915123
10.9,0.30000001192092896,57.0,23.05401039123535,-0.03180709481239319,-79.7828149327395,40.45906934290597,266.7884883169234,-0.0030195992439985275,-0.0040248995646834365,-0.968970000743866,0.2471273243427277,-0.01221297421708446,-0.010438232363480376,-0.01847190012543146,0.003797845914959908,0.0005654973210766913,0.006470307242125273,0.057225320013239975,0.0325165535369888,-9.806803327202797
11.01,0.30000001192092896,53.0,23.06027030944824,-0.039758868515491486,-79.78281491572261,40.45906939893656,266.77092034333947,-0.00300172483548522,-0.003990194294601679,-0.9689621329307556,0.2471590787172317,-0.011758018539362104,-0.004590172083598198,-0.012024869827440715,0.00408334005624056,0.004337351769208908,0.0043860930018126965,0.05102823529858142,0.048824629853479566,-9.804886025190351
11.2,0.30000001192092896,50.0,23.06152153015137,-0.04771064221858978,-79.78281490412131,40.459069408683476,266.76971492508056,-0.0030313425231724977,-0.00399420876055956,-0.968963623046875,0.2471527308225632,-0.015722657872924692,-0.0052332974683983536,-0.011899014673163209,-0.001178717240691185,-0.0012462812010198832,0.0037880700547248134,0.05244025108404458,0.03334019324742258,-9.807396819591524
11.3,0.30000001192092896,49.0,23.05150604248047,-0.039758868515491486,-79.78281490745232,40.45906951769044,266.7492682445944,-0.002994439564645291,-0.004014365840703249,-0.9689595103263856,0.2471688240766525,-0.016306770182228418,-0.010763615393725666,-0.012903000425297148,0.006652432959526777,0.0027823918499052525,0.005286609753966332,0.050772620611824096,0.05292193831410258,-9.803801951408387
11.5,0.30000001192092896,48.0,23.05776596069336,-0.03180709481239319,-79.782814892,40.459069593789465,266.73013166302445,-0.002998029580339789,-0.0040081762708723545,-0.9689522385597228,0.2471972852945328,-0.015981385901389752,-0.008615664511878418,-0.013203273489342143,-0.009090506471693516,-0.0007295791292563081,-0.004171049688011408,0.050653424207121135,0.04539458919782192,-9.80461471438408
11.6,0.30000001192092896,45.0,23.05776596069336,-0.04771064221858978,-79.78281487957517,40.459069608343405,266.7287764247656,-0.003002727869898081,-0.004017617087811232,-0.968952476978302,0.2471962869167328,-0.01850394759754263,-0.00976269092852489,-0.0135039995796009,0.0025402631144970647,0.0032669419888406988,0.0015665235696360467,0.05325604730285705,0.043013968435116116,-9.804640442132948
11.8,0.30000001192092896,39.0,23.062774658203125,-0.04771064221858978,-79.78281486107781,40.459069672349294,266.7108112868071,-0.002955455100163817,-0.004008052870631218,-0.9689460396766664,0.2472221106290817,-0.016297350221191425,-0.004480100285651215,-0.009585308928450356,-0.0047543770633637905,-0.0009362231357954444,-0.007113538682460784,0.05034780669026077,0.0536365137482062,-9.803721844553948
11.9,0.30000001192092896,36.0,23.06027030944824,-0.02385532110929489,-79.78281487617542,40.45906976265123,266.69172220641383,-0.002921935636550188,-0.00402367627248168,-0.9689388275146484,0.2472507059574127,-0.011525814516560557,-0.008350902300628037,-0.008203902686889255,-0.006009630858898164,-0.004368816036731005,-0.00465757492929697,0.057814084379933774,0.03257517872611061,-9.807319051623343
12.1,0.20000000298023224,33.0,23.059017181396484,-0.039758868515491486,-79.78281486838466,40.459069775144506,266.69087220692643,-0.0029112899210304017,-0.004031441640108825,-0.9689377546310424,0.24725480377674106,-0.013806161574871334,-0.00972419757538642,-0.008489277542936925,0.0049149170517921465,0.006472249049693346,-0.001484014792367816,0.05355099365115167,0.041990353949368,-9.80486555993557
12.2,0.30000001192092896,32.0,23.05025291442871,-0.03180709481239319,-79.78281484688839,40.45906983362948,266.67427948081496,-0.002868158044293523,-0.004018488805741072,-0.9689264297485352,0.24729992449283605,-0.013955730773737546,-0.003937689150510132,-0.004345199658525168,-0.002471805550158024,-0.0018448671326041226,-0.005071060266345739,0.05275389024987817,0.03261102033080533,-9.805854324102404
12.4,0.30000001192092896,32.0,23.05150604248047,-0.03180709481239319,-79.78281483375862,40.459069843629216,266.6738220598698,-0.0028640618547797203,-0.004016437102109194,-0.9689266085624696,0.2472992688417435,-0.016050419821879384,-0.005068492825934785,-0.0045430149360187215,0.004034309182316065,0.003616312053054571,0.005258946213871241,0.05685894170310349,0.033666052180342375,-9.807535983324053
12.51,0.30000001192092896,31.0,23.06152153015137,-0.039758868515491486,-79.78281480540754,40.45906992935839,266.65786050224307,-0.002829632489010692,-0.004010813310742378,-0.9689202904701232,0.24732448160648346,-0.01729364185139684,-0.006095894629586728,-0.0013768568339526293,0.004526563454419375,0.005452102515846491,0.002764312550425529,0.051473962152376776,0.04793825591448695,-9.804640442132948
12.7,0.30000001192092896,30.0,23.06027030944824,-0.039758868515491486,-79.78281478900331,40.45906994275748,266.6577119972706,-0.0028469150420278306,-0.004009098745882511,-0.9689180850982666,0.2473330646753311,-0.021040591389146702,-0.006721112893048608,-0.0012580244697773227,0.00033052507205866277,-0.0006926479400135577,0.0012613525614142418,0.05361999079585076,0.034683828586712484,-9.807227250337599
12.8,0.30000001192092896,31.0,23.05025291442871,-0.04771064221858978,-79.78281479232356,40.45907004625022,266.63955922389044,-0.002812031656503677,-0.004020603839308024,-0.968914031982422,0.2473491281270981,-0.018209882062694683,-0.012471607553750787,-0.002434849705298809,0.006176290567964314,0.0017471060855314136,0.009664617478847505,0.05012129560578615,0.05238446499221027,-9.803965088725091
13.0,0.30000001192092896,32.0,23.059017181396484,-0.03180709481239319,-79.78281481002135,40.45907009554785,266.6218824234009,-0.002782369730994105,-0.004005702678114176,-0.9689075946807858,0.24737502634525305,-0.0090363927843391,-0.009954684938012572,-0.0033222763430715467,-0.008710083551704884,-0.002582506509497761,-0.006939309183508158,0.05135562455747277,0.047104648528620605,-9.80344351708889
13.1,0.30000001192092896,33.0,23.05776596069336,-0.04771064221858978,-79.78281480574955,40.45907010819789,266.62152276897444,-0.002781125018373132,-0.004007755778729916,-0.9689054489135742,0.24738337099552155,-0.011038647003960057,-0.011236792414494243,-0.003602348686820483,0.005573126953095198,0.003402032656595111,0.0039996388368308535,0.05396214427426458,0.04090098569635302,-9.805312871932985
13.3,0.30000001192092896,36.0,23.06027030944824,-0.03180709481239319,-79.78281477170309,40.45907017468257,266.60695074462893,-0.0027624836657196283,-0.0039935982786118976,-0.9688999652862548,0.2474053353071213,-0.013465924206438384,-0.007978646244908988,0.001452752971992542,-0.0023018068168312307,-0.0053166761063039285,-0.00243221502751112,0.049949136218056085,0.05271062999032438,-9.803578003048898
13.41,0.4000000059604645,37.0,23.06027030944824,-0.06361418962478638,-79.7828146766006,40.45907022449254,266.5938521173001,-0.002810975769534707,-0.003951297607272863,-0.9688952565193176,0.2474239021539688,-0.0204369472322649,0.0033987467377497287,0.009221042583244628,-0.0035281218588352203,-0.006261336151510477,-0.006115079391747713,0.05746014053933321,0.033498476918321106,-9.80663083434105
13.6,0.4000000059604645,37.0,23.05150604248047,-0.04771064221858978,-79.78281465289447,40.459070231594,266.5947510149479,-0.002803317969664932,-0.003965077921748161,-0.9688889384269714,0.24744856357574466,-0.02259216631368027,0.002218447872000086,0.009008154796892834,0.00312648992985487,0.003138342639431357,0.0008539812988601625,0.05163060814607889,0.04506175928749144,-9.804955607056618
13.71,0.4000000059604645,36.0,23.05401039123535,-0.07156596332788467,-79.78281462078478,40.45907027506474,266.58385698461535,-0.0027781946118921037,-0.0039464314468204975,-0.9688801169395448,0.24748343229293826,-0.017664188799979053,0.0057279683231702076,0.018240645548017024,-0.005154527258127928,-0.003612569067627192,-0.0077553014270961285,0.05432065625209362,0.033252706567291165,-9.806609199643136
13.9,0.4000000059604645,34.0,23.05526161193848,-0.07156596332788467,-79.78281459846663,40.45907027915948,266.58565570378306,-0.002771990839391947,-0.003972732927650213,-0.9688791036605836,0.2474871575832367,-0.0195525997732894,0.004566985779944465,0.017935619874126934,0.007332318462431431,0.0054089617915451535,0.0038638068363070492,0.0560376591514796,0.03505355077330023,-9.806633757948877
14.01,0.4000000059604645,35.0,23.056514739990234,-0.03180709481239319,-79.78281456647295,40.45907031686908,266.5748772617579,-0.002711641602218151,-0.0039680651389062405,-0.9688736796379088,0.24750907719135284,-0.015611136576273419,0.006904564353038701,0.023953851635603256,0.00184967287350446,0.007555062416940927,-0.0032149138860404487,0.05189315269701183,0.03890673341229558,-9.80552746474743
14.2,0.4000000059604645,36.0,23.05776596069336,-0.07951773703098297,-79.7828145451236,40.459070319276215,266.5772612836361,-0.00271240365691483,-0.0039667789824306965,-0.9688741564750672,0.2475072741508484,-0.017982770791149717,0.005930856793612052,0.023838370660890243,0.0008094033109955491,0.0027327998541295533,0.0045484215952456,0.05702125675510615,0.03144011539639905,-9.807621937394142
14.31,0.4000000059604645,33.0,23.06027030944824,-0.04771064221858978,-79.78281447450651,40.459070399488226,266.56458497011664,-0.0026894137263298035,-0.0039762407541275024,-0.9688706398010254,0.24752138555049896,-0.02182981439579684,0.002959868403040059,0.02416623902305761,0.0032845207024365664,0.0044067688286304465,0.0012864996679127214,0.05556137145962566,0.039640773679129784,-9.806777599453927
14.51,0.4000000059604645,29.0,23.05150604248047,-0.07951773703098297,-79.78281438930097,40.45907044126413,266.55073930287364,-0.0026947676669806238,-0.003951402846723795,-0.9688630700111388,0.2475511431694031,-0.02437416207927766,0.010825711181360262,0.027550365126644792,-0.0007952541927807032,-0.00014364764501806349,0.00092811428476125,0.05298644497990609,0.033287052107043566,-9.806993946433069
14.6,0.4000000059604645,28.0,23.05526161193848,-0.06361418962478638,-79.78281432212117,40.459070449518016,266.55620615148547,-0.0027019495610147715,-0.003970637917518616,-0.9688647985458374,0.2475440800189972,-0.02924202432914183,0.008699723556116225,0.0272911341015711,0.00563833536580205,0.0011195419356226919,0.003827983280643821,0.05691327055916191,0.034084070997778326,-9.807092764377595
14.8,0.30000001192092896,27.0,23.052757263183594,-0.06361418962478638,-79.78281433516355,40.45907048122386,266.5425318028927,-0.002665733685716987,-0.003949238453060389,-0.9688591361045836,0.2475668340921402,-0.01692563049758667,0.008858011410936131,0.030159268186669686,-0.0045962282456457615,-0.001940729329362512,-0.0031574631575495005,0.051310427407734095,0.04036674661561847,-9.805273110866546
14.91,0.30000001192092896,27.0,23.045246124267567,-0.02385532110929489,-79.7828141722675,40.45907052232183,266.5346301939489,-0.0026918230578303337,-0.003928039688616991,-0.968853771686554,0.2475878596305847,-0.02788551233089119,0.018109673453857042,0.03827430825253249,0.004890785552561283,0.0008025903953239323,0.006997606251388788,0.0518183129047975,0.04809535415377468,-9.804547471404076
15.1,0.20000000298023224,30.0,23.022708892822266,0.8190327286720276,-79.78281413149935,40.45907052139589,266.53844831848147,-0.0027032841462641954,-0.003938571549952029,-0.968858003616333,0.2475712150335312,-0.03145166938964985,0.017446765358553537,0.03830142126102072,-0.005704185459762812,-0.0049936058931052685,-0.006041505839675665,0.05136333100497723,0.05134734709281474,-9.804404214620591
15.2,0.20000000298023224,29.0,23.04023742675781,0.2703603208065033,-79.78281396240722,40.45907055064871,266.5334051396847,-0.002701624296605587,-0.0038891613949090242,-0.9688392281532288,0.2476453185081482,-0.04020646388900681,0.025424990542586415,0.04760743590113504,-0.012502791360020638,-0.008893797174096106,-0.007746398448944092,0.050974020645953716,0.0358081111125648,-9.802105089426039
15.4,0.20000000298023224,29.0,23.047748565673828,0.278312087059021,-79.78281390659262,40.45907054856712,266.5381257083416,-0.0027120646554976697,-0.003882555989548564,-0.9688449501991272,0.24762305617332456,-0.04064738335075068,0.02456351208934713,0.04723294968465688,0.003810621099546552,-0.002952176379039884,0.009364837780594826,0.044835042636841536,0.05192613007966429,-9.804453915953637
15.5,0.20000000298023224,27.0,23.04399299621582,0.2703603208065033,-79.78281378525392,40.45907054989267,266.53664599323275,-0.0026914665941149,-0.003853371134027839,-0.9688295125961304,0.2476838082075119,-0.036423822944948746,0.032111076997336584,0.059819236470293885,-0.00729634752497077,-0.0074211833998560905,-0.0026661420706659555,0.0594699518987909,0.022086664843372995,-9.8070489102602
15.7,0.20000000298023224,21.0,23.03773307800293,0.2624085247516632,-79.78281372858912,40.45907054199922,266.5426083352566,-0.0026917227078229193,-0.0038680958095937967,-0.9688413739204408,0.24763742089271545,-0.03778745294341961,0.03029959279752908,0.05945348457959671,0.009898805059492588,0.006740376818925142,0.004750210326164961,0.056736689214594675,0.037183106713928285,-9.806949507594107
15.8,0.20000000298023224,17.0,23.04274177551269,0.278312087059021,-79.78281367078654,40.459070585487396,266.53934259676936,-0.0026747339870780698,-0.003851830493658781,-0.9688423275947572,0.2476343661546707,-0.0317510220057148,0.025568737491444563,0.06514123933058455,-0.006534782703965902,-0.0009982442716136577,-0.004280488006770611,0.056665037982165815,0.045263479091227056,-9.80839844763279
16.0,0.20000000298023224,15.0,23.04399299621582,0.3657816052436829,-79.78281364685313,40.45907061143292,266.5266596820355,-0.002654816955327988,-0.0038140369579195976,-0.968824565410614,0.2477043867111206,-0.020573204371304825,0.026395512897501226,0.06479637100042443,0.004751123487949371,0.0014530534390360115,0.000999336945824325,0.06038368441164494,0.03242218495812267,-9.80978716135025
16.21,0.20000000298023224,15.0,21.837017059326172,20.809791564941406,-79.78281356770376,40.45907059223003,266.53961162233355,-0.0026567645836621523,-0.0038164088036865,-0.9688292145729064,0.24768602848052976,-0.026256144571013718,0.02507675916206873,0.06467232954340968,0.00046360268606804317,0.003731061005964875,-0.001820615027099848,0.05704815394710749,0.039250284740701316,-9.80318039238453
16.3,0.20000000298023224,11.0,22.96887016296387,1.669872522354126,-79.78281355080266,40.4590706528422,266.52454240584376,-0.00264344341121614,-0.0038116108626127243,-0.9688141942024232,0.2477452158927917,-0.021441853762576967,0.019206163595123886,0.05948346374233171,-0.0009370420011691748,0.006247613113373518,0.01166178472340107,0.08279256281442941,0.028444701021071526,-9.807182811498645
16.41,0.20000000298023224,6.0,23.03147315979004,0.326022744178772,-79.78281352687644,40.459070673401506,266.51456685328486,-0.002557734027504921,-0.003748033195734024,-0.9688138365745544,0.2477482259273529,-0.006894327336215412,0.016441488362747364,0.050332299516978665,0.015614721924066544,-0.010397991165518759,-0.027561627328395844,0.031519146454520516,0.04647236351855099,-9.797651849985122
16.6,0.20000000298023224,352.0,22.217639923095703,13.923556327819824,-79.78281350758355,40.45907066538138,266.51968274974826,-0.0025735199451446533,-0.003776830155402422,-0.9688233733177184,0.24771057069301605,-0.010885337137129988,0.01739121795408102,0.05099463078590325,-0.007712368853390217,-0.008833613246679306,0.02533849515020848,0.09958804110065103,0.018160323486663403,-9.811151901483537
16.7,0.20000000298023224,347.0,22.99766731262207,1.1848143339157104,-79.78281352009232,40.45907072816372,266.50491152668,-0.0025385059416294107,-0.003732246812433005,-0.9688103199005128,0.2477627247571945,-0.0020850845673077807,0.007265983724880255,0.04104556379244773,-0.0003561103076208384,0.008550915867090225,0.0008294606232084334,0.045030042710714036,0.03227087226463482,-9.799464486837387
16.9,0.20000000298023224,337.0,23.04023742675781,0.198794350028038,-79.78281351122024,40.45907072546028,266.50902815127375,-0.0025489600375294685,-0.003723813919350505,-0.9688234329223632,0.2477112114429474,-0.00694964940486911,0.0064158252933122295,0.04103602702713565,-0.0022249845787882805,0.004735026974231005,-0.0026126822922378787,0.055183380944654345,0.09468399960547688,-9.791684181690217
17.01,0.30000001192092896,329.0,23.04274177551269,0.22264966368675232,-79.78281340037859,40.45907080246484,266.4934876110554,-0.0025529318954795603,-0.003732170443981886,-0.9688032865524292,0.2477899044752121,-0.015993078347043558,0.003855921603952419,0.03274223225502823,0.013316615484654905,0.028701247647404667,-0.011132013984024523,0.06875668252352625,0.054985105516389014,-9.79808395922184
17.2,0.30000001192092896,314.0,22.867454528808594,3.435166358947754,-79.78281337897454,40.45907080644282,266.49671472573283,-0.002605113200843334,-0.003718810388818383,-0.9688116908073424,0.2477567642927169,-0.01767739450104337,0.003966714520613264,0.03249329685321895,0.0030689118430018425,0.00834820419549942,0.00266818655654788,0.052284514149650935,0.016526047268416732,-9.813517684936523
17.31,0.30000001192092896,310.0,22.85493278503418,4.802871227264403,-79.7828133805548,40.459070823057424,266.4825021770001,-0.0025424223858863115,-0.0037234846968203774,-0.9688079357147216,0.2477719783782959,-0.008689560069080813,0.00307180803740613,0.026826053411443587,-0.00319425156340003,0.030720204114913937,0.0038128523156046867,0.046666066241450616,0.042248344067484137,-9.801307529211043
17.5,0.30000001192092896,301.0,22.747257232666016,6.337563991546631,-79.78281328812052,40.45907088178984,266.46709121727946,-0.0025995918549597268,-0.0036320714280009283,-0.9688035249710084,0.2477898895740509,-0.014715766545592075,0.005845610370358694,0.024162250774331463,-0.007827536202967167,0.007983487099409103,-0.02650153450667858,0.05991968957707286,0.0651285948464647,-9.810625652074815
17.6,0.30000001192092896,295.0,22.708444595336914,7.482619285583496,-79.78281324779918,40.45907088844281,266.4719188656807,-0.0023032305762171745,-0.00357211078517139,-0.968804657459259,0.2477894276380539,-0.018606552149297663,0.005093767056271544,0.023158311347241858,0.0278235524892807,-0.04015208035707474,0.006891642697155476,0.0581152845080942,0.06815562073141337,-9.804511803388596
17.81,0.4000000059604645,291.0,22.59450721740723,10.528148651123047,-79.7828132273143,40.45907091332231,266.4540766026974,-0.001722299144603312,-0.003374929539859295,-0.9687947034835817,0.2478356510400772,-0.005936040284419003,0.0015624777787355342,0.01912432674952363,-0.04724288359284401,0.04139991104602814,0.02540876902639866,0.02609020771924406,0.07709819703362883,-9.822228866815568
17.9,0.4000000059604645,290.0,22.529399871826172,11.490313529968262,-79.78281322568125,40.459070968682745,266.43679727578166,0.0002452985499985516,-0.002797255525365472,-0.9688681364059448,0.2475614249706269,-0.000346807352002604,7.166732025525399e-05,0.016399957189064642,-0.08732117712497711,0.11806979030370712,0.1577504575252533,0.008230074802413584,0.008693456364562735,-9.77616450190544
18.1,0.4000000059604645,285.0,22.38416290283203,14.448372840881348,-79.78281323387758,40.45907097512424,266.4382039453984,0.0015791601035743956,-0.002940310863777995,-0.9689211845397948,0.2473470866680145,0.001326448786524247,-0.014726762202026173,0.011761335340109688,0.046018052846193314,-0.014698868617415428,0.05461009219288826,-0.0446329025644809,-0.032726605623029176,-9.753153954148292
18.2,0.4000000059604645,287.0,22.322813034057614,15.839933395385742,-79.78281321912985,40.459070989500226,266.4220091547966,0.003790699411183596,-0.0043314709328115,-0.9689816236495972,0.2470657527446747,0.0081346277045568,-0.0146454720544245,0.011687462123178827,0.005173858720809221,0.09861462563276292,0.06641281396150589,-0.013283823290839792,0.02547800195636228,-9.767780179381367
18.4,0.5,290.0,22.17632293701172,19.12401580810547,-79.78281322706967,40.45907099896669,266.4234429445267,0.004044162109494209,-0.004983605816960335,-0.9690393805503844,0.2468231022357941,-0.012737404666900385,-0.008537052518765357,0.011388354981691384,-0.05246013030409813,-0.0035895775072276592,-0.024416657164692882,0.17360151210799815,-0.20268580030649905,-9.839310922622682
18.51,0.5,295.0,22.084922790527344,21.27099609375,-79.7828131604276,40.459071078075645,266.40853552484515,-0.0038380268961191173,-0.003247471991926432,-0.9692354202270508,0.24608418345451355,-0.02411853359910736,0.0036844190041434117,0.030666428102732263,-0.00844070315361023,-0.07317207008600235,5.024566780775786e-05,0.2705629473924637,-0.17250419072806836,-9.859373888969422
18.7,0.6000000238418579,301.0,21.932172775268555,24.29266929626465,-79.7828131583311,40.45907110990871,266.3898573663235,-0.0071428618393838406,-0.000524877046700567,-0.9690036773681641,0.24694283306598666,-0.04182751323288457,0.008084885219174807,0.08546613199088113,-0.15400239825248718,-0.04697855561971664,0.059758178889751434,0.1542238211631775,-0.19357682503759865,-10.430587216615676
18.8,0.699999988079071,303.0,22.183834075927734,18.86956024169922,-79.78281300257315,40.45907112113736,266.4281036105156,-0.015548232011497019,-0.0016912179999053474,-0.9677296876907348,0.2515051066875458,-0.06726996687351655,0.041637758174456405,0.2944855489032908,0.06737471371889114,0.05013272911310196,-0.019079007208347317,0.14612166333943608,-0.06508927688933909,-10.7655379486084
19.0,0.8000000119209291,308.0,22.223899841308594,18.098237991333008,-79.78281280000171,40.459071245886676,266.42321298980715,-0.008058344013988972,-0.0033238516189157963,-0.96755713224411,0.25250190496444697,-0.08539712727060594,0.052419509806247655,0.28124534579185306,0.07376077026128769,0.08029402047395706,0.04747405275702477,0.12124153233133254,-0.026110860267654055,-10.253519493341447
19.1,0.8000000119209291,309.0,22.1888427734375,18.551488876342773,-79.7828126604763,40.459071245145395,266.4503206756115,-0.004169655963778496,-0.006364897824823856,-0.9675049185752868,0.2527379393577576,-0.10250762152996534,0.06131564451943877,0.2568234415163799,0.07280997931957245,0.1157526671886444,0.07589007169008255,0.2964056671410799,-0.1694479972869158,-9.85908386707306
19.3,0.8999999761581421,315.0,22.084922790527344,20.51557731628418,-79.78281236488051,40.45907124824685,266.4658154394627,0.004392488859593868,-0.007925800047814846,-0.9675600528717041,0.2524788975715637,-0.10160209244762304,0.06134034561310817,0.1247045374874312,0.020956875756382942,-0.05449890345335007,-0.04431159794330597,0.15305127169936894,0.17523553479462864,-9.332371943593024
19.4,0.8999999761581421,318.0,22.11997985839844,19.426183700561523,-79.78281197584158,40.45907142811585,266.47788281703,0.0064138262532651424,-0.00890682265162468,-0.9680076837539672,0.25068047642707825,-0.11421069869840812,0.028525006682884105,0.0959446737099998,-0.1194925382733345,-0.03594069927930832,-0.03144470602273941,0.207707535289228,-0.04628255741670728,-9.596423431634904
19.6,1.0,325.0,22.0035400390625,22.105932235717773,-79.78281185628113,40.4590714512232,266.48620112204554,0.0034547429531812672,-0.007380587514489889,-0.9682583808898926,0.2498186826705933,-0.10204175453262324,0.032595861637252636,0.06707755847575278,-0.08646901696920395,-0.09185533225536346,-0.0038669493515044455,0.2651890821196139,-0.007945050448179246,-9.563414729833605
19.71,1.0,328.0,22.028579711914066,21.15966987609864,-79.7828116258524,40.45907152875513,266.491784318924,0.0003141412162221968,-0.004320414271205664,-0.9686804413795472,0.24827298521995544,-0.0731764554339725,0.017805383027035344,0.1123248211695139,-0.003183143213391304,0.010336214676499368,0.004521649330854416,0.10031392724253238,0.13110334575176238,-9.915674389600754
19.9,1.100000023841858,334.0,22.145021438598643,19.23534202575684,-79.78281154416953,40.459071541689646,266.50412549042704,0.0033910656347870827,-0.005745943635702133,-0.9687029719352722,0.2481332570314408,-0.06638246277315292,0.0303187459409688,0.12871841077729404,0.05767938867211344,-0.011414124630391598,-0.022553222253918648,0.2003340318985284,-0.028303483910858632,-9.887718851566316
20.01,1.100000023841858,335.0,21.96347427368164,22.85339736938477,-79.78281122576504,40.4590715814599,266.51835818552973,0.0025950283743441105,-0.00931335799396038,-0.9686068296432496,0.2484097182750702,-0.06257491687598345,0.025995916007946082,0.08969046856792116,0.0499759316444397,0.15051159262657166,0.014456823468208313,0.17100288156419993,-0.09355298364534977,-9.75854333281517
20.2,1.100000023841858,334.0,21.93467712402344,23.012434005737305,-79.78281114158312,40.459071591157155,266.5290149595739,0.0038345383945852522,-0.01314130611717701,-0.9685127139091492,0.248587504029274,-0.05816500650358559,0.02868237431506665,0.12021172638945002,0.07168740779161452,0.03278657048940658,0.09898345172405244,0.18520786972716446,-0.061579376058653,-9.942961006164554
20.31,1.100000023841858,333.0,22.021068572998047,21.81966781616211,-79.78281081345045,40.45907161916253,266.555602922678,0.004755638074129821,-0.011438097804784777,-0.9683466553688048,0.24930189549922946,-0.05456246793818377,0.02503400877075384,0.16318768220626895,0.05657195299863815,0.023480387404561043,0.004628049209713936,0.2400227755866945,0.04393531146459281,-9.97679416537285
20.5,1.0,332.0,22.007295608520508,21.604969024658203,-79.78281060098601,40.459071540164686,266.5672955807448,0.006473985966295004,-0.012842996045947077,-0.9683349132537842,0.24924032390117645,-0.04160370188325211,0.027660623681771083,0.17856778873886048,0.11459829658269882,0.04229260981082916,0.0011218597646802664,0.06929172102827579,0.036496570506133134,-9.975648111104963
20.6,1.0,333.0,21.998531341552734,21.8355712890625,-79.78281054757467,40.45907154364402,266.5858888473511,0.010014507919549942,-0.015775052830576897,-0.9683367609977722,0.2489474713802337,-0.03909402510261538,0.02065186153186955,0.1948414077282498,0.010365643538534641,0.04452035203576088,-0.0631430372595787,0.1852011637017131,0.15167985294945538,-9.938544019460679
20.8,1.0,334.0,21.895862579345703,23.42592620849609,-79.78281031949605,40.459071484014935,266.6126690503359,0.011975477449595928,-0.013905180618166924,-0.9685376882553101,0.24818967282772064,-0.013885584423602043,0.012469964202816423,0.10197818189289927,0.02591627836227417,-0.03841440752148628,0.04867006465792656,0.18225665207952266,-0.029753001818899068,-9.003578914403914
20.9,1.0,332.0,21.82449531555176,24.55507850646973,-79.7828103041334,40.459071483412146,266.6152590658665,0.010009805671870708,-0.01132205780595541,-0.9687253832817078,0.2476745992898941,-0.009560617887392065,0.00647988022631846,-0.02862417070144205,-0.08625327795743942,-0.15400543808937073,0.04231749102473259,0.1963036192394793,-0.14819389829412102,-8.808187186717989
21.0,0.8999999761581421,325.0,21.81072425842285,25.382062911987305,-79.78281005429697,40.45907124551631,266.6390351649523,-0.0018954637926071878,-0.0070525044575333595,-0.9691134691238404,0.24650739133358,0.020592476438752186,0.02720138482813177,0.07940816222281552,-0.02931524254381657,0.0013990930747240786,-0.004939793609082699,0.10815135237760842,0.07834142471663655,-10.2570383477211
21.21,0.8999999761581421,319.0,21.695533752441406,28.26060485839844,-79.78280986883723,40.45907110339932,266.68869718873503,-0.0017973502399399874,-0.01033477857708931,-0.9690586924552916,0.24660766124725345,0.007055575428665737,0.05718166098993355,0.3902474966879413,0.003952363040298224,0.003408663906157017,-0.03323766589164734,0.19351404055953028,0.13600132076069713,-10.927656680345537
21.3,0.8999999761581421,314.0,21.526508331298828,31.66396331787109,-79.78280984497232,40.45907106497421,266.736634626627,-6.62186648696661e-05,-0.0122089684009552,-0.9689329862594604,0.2470221221446991,0.02221779007938724,0.05259973004858065,0.5708520845015539,0.24788133800029755,0.12079601734876633,0.1716015636920929,0.3075235629826784,-0.296925301887095,-11.651996891498563
21.5,0.8999999761581421,310.0,21.607891082763672,29.94638061523437,-79.78280980305688,40.45907098155767,266.79050326870384,0.0011281868210062385,-0.013426028192043304,-0.9687662124633788,0.2476096898317337,-0.005168599732125391,0.06707609267015155,0.772572383597845,-0.12047410756349565,-0.09990251064300536,-0.0976562649011612,0.28915950514376165,0.04014645276591182,-11.89959489941597
21.7,1.0,308.0,21.362489700317386,34.963951110839844,-79.78280974835812,40.459070918284716,266.9893248971701,0.0009356249356642363,-0.012069682590663431,-0.9687583446502686,0.2477111667394638,-0.011597075653282912,0.07214002535049538,1.2186208701071417,-0.13562129437923431,-0.06439050287008287,-0.1498120278120041,0.2593412086553872,0.2280622046068311,-12.033496137857435
21.8,1.100000023841858,306.0,21.18094253540039,38.94778823852539,-79.78280956331123,40.45907089375253,267.1117467131615,0.00026481307577341795,-0.011299118399620056,-0.9687818288803101,0.247657373547554,-0.012289402467224248,0.07006044906625529,1.4538945513456292,-0.10131839662790296,-0.103943333029747,-0.09553908556699753,0.2234892434254289,0.17888790668919682,-12.24082671046257
21.9,1.2000000476837158,303.0,21.36624526977539,34.85262680053711,-79.78280933875466,40.45907083037599,267.44018070364,0.0007777207647450267,-0.008783244527876377,-0.9688265919685364,0.24758280813694,-0.008123406863895156,0.07514064512873914,2.0394285853768808,0.0342186875641346,0.02522285282611847,-0.04368656501173973,0.3133446488901973,0.12148461204953492,-12.82857479453087
22.1,1.2999999523162842,301.0,21.473920822143555,32.093360900878906,-79.78280929265449,40.459070810271065,267.65739791059497,-0.000652981223538518,-0.008828964084386827,-0.9687880873680116,0.2477325052022934,-0.026864012227537842,0.08118686989746374,2.2898783532837097,-0.12098530679941175,-0.02492552064359188,-0.1479451209306717,0.24648217644542456,0.2137302039563656,-12.351641972064971
22.3,1.399999976158142,294.0,21.554052352905273,30.18493461608887,-79.78280900094019,40.4590707344533,268.1211056556702,-0.002572205616161227,-0.010501747019588949,-0.9688514471054076,0.2474066913127899,-0.01992487032509103,0.0959932704751832,2.6786857341422268,-0.03731262683868408,-0.056186988949775696,0.00810772180557251,0.2706064360588789,-0.10722943833097816,-11.954529490470884
22.4,1.5,294.0,21.660476684570312,27.89482307434082,-79.78280892402023,40.459070718819106,268.39968405628207,-0.003018430201336741,-0.01125524565577507,-0.9689645171165466,0.2469252496957779,-0.017491818057683267,0.10442884359920036,2.8798371823269258,0.0698183923959732,0.012263028882443905,0.05334160476922989,0.3261978156119585,-0.14013421501033008,-11.783479721546176
22.5,1.5,301.0,21.680509567260746,27.56879997253418,-79.78280850582381,40.45907062552739,269.00327180290225,-0.00408603111281991,-0.010054747574031351,-0.9692252874374392,0.24593624472618106,-0.04756808084282297,0.10950896535653057,3.0843894560201583,-0.04064332321286202,-0.09022285789251328,0.024623269215226173,0.2262769217602909,0.04121867679990828,-10.755095990896228
22.71,1.5,305.0,21.71807098388672,26.11362648010254,-79.78280784174206,40.459070414572246,269.6936094608307,-0.002843076363205909,-0.008440613746643066,-0.9693982601165771,0.2453319579362869,-0.05887498519103436,0.12121402620196267,3.1987793906411164,0.17601586878299713,-0.02742895856499672,0.060821637511253364,0.08375032760202886,0.2801556701213121,-10.411215391159056
22.8,1.5,313.0,21.72433280944824,25.89097595214844,-79.7828076859619,40.459070406350826,270.01479862594607,-0.0033769644796848297,-0.008080764673650266,-0.9693961143493652,0.24534572660923004,-0.08789174414582936,0.11786660871204475,3.2220383793619254,-0.04587317630648613,0.09065749496221542,-0.02532431855797768,0.12156084512360395,0.2062587048858404,-10.02709308385849
23.01,1.600000023841858,322.0,21.666736602783203,26.59868431091309,-79.78280694142795,40.45907004830229,270.4808344688416,-0.005568171851336956,-0.009201359003782272,-0.9691815972328186,0.24611257016658786,-0.11592938753714607,0.145915163350543,3.302241533636292,-0.1949376463890076,-0.07686906307935715,-0.07839170843362807,0.0753885488351807,0.17258283577859398,-9.890935989618304
23.2,1.7999999523162842,356.0,21.706802368164066,26.14543342590332,-79.78280654398618,40.45907002666166,271.1428041305542,-0.003063124604523182,-0.011885576881468296,-0.968913733959198,0.24709446728229525,-0.08370393860715554,0.14651748072830112,3.3076681098787617,0.17631681263446808,0.07848158478736877,-0.007753956131637094,0.19087917555123568,0.07311086190864444,-9.754811055064202
23.31,1.7999999523162842,23.0,21.76690101623535,23.8076114654541,-79.78280570692297,40.45906966178972,271.6264295425416,-0.0011411600280553102,-0.011130033060908321,-0.9686967134475708,0.2479952573776245,-0.1330834306681061,0.1787720145824548,3.353512529863885,0.0013538990169763565,-0.039983134716749184,-0.07999662309885025,0.158561212643981,0.23324915997684004,-9.686803259253502
23.4,1.7999999523162842,58.0,21.79444694519043,24.49941635131836,-79.78280471373526,40.4590694744744,272.3494453277588,0.0009080147719942033,-0.009411508217453957,-0.9681008458137512,0.25038257241249084,-0.16579989824935507,0.1706901369176774,3.3368530807475967,-0.044389169663190835,0.05226404964923858,-0.03540284931659698,0.1109077755175531,0.11133630333468318,-9.622349401116374
23.6,1.7000000476837158,61.0,21.746868133544922,24.904956817626953,-79.78280447329219,40.45906946891589,272.68225429916384,0.0020089868921786547,-0.009571698494255544,-0.9678653478622437,0.2512791156768799,-0.17030007058750798,0.1654502280222387,3.314770125012658,-0.05812978371977806,0.031975101679563515,-0.05981194227933884,0.11383270810358227,0.15964420834556226,-9.553272734284402
23.7,1.600000023841858,69.0,21.81072425842285,23.632671356201172,-79.78280423816521,40.45906946526989,273.01251600646975,0.002764052012935281,-0.009925281628966331,-0.9676631689071656,0.2520355582237244,-0.17816270336461762,0.16489475092057654,3.287555275793784,-0.1134168654680252,-0.04786492511630058,-0.06434095650911331,0.1415285840816796,0.1622460365854204,-9.5412917894125
23.9,1.5,75.0,21.72933959960937,24.83338928222656,-79.7828032206555,40.45906940529271,273.69747064971926,0.0034605881664901967,-0.010918430052697659,-0.9675405621528624,0.2524563670158386,-0.1736098264627984,0.15624337889166684,3.221615464742436,0.023974359035491943,0.08648939430713654,0.03385227173566818,0.17777428619563582,-0.03333639484131709,-9.557893788814544
24.1,1.7000000476837158,81.0,21.74060821533203,24.70616149902344,-79.78280246829951,40.459069300742,274.3268751945496,0.001223726780153811,-0.015067295171320437,-0.9678413271903992,0.2511070072650909,-0.16536466970611516,0.14557790675343704,3.1808285818642745,-0.11348631232976912,0.05782997608184815,-0.017176175490021706,0.15154413359239702,0.18559619793668392,-9.761683287620547
24.21,1.7999999523162842,86.0,21.789438247680664,23.40207099914551,-79.78280226873252,40.45906932564753,274.6450943794251,0.0020475664641708136,-0.017142372205853462,-0.9680121541023254,0.2503086030483246,-0.14649814355527635,0.14611612330408416,3.1814787786567016,-0.03905147314071655,0.10924737900495528,-0.01224830001592636,0.1287338712438941,0.1622638888657093,-9.771969124674797
24.3,2.0,88.0,21.829504013061523,23.147613525390625,-79.78280173039433,40.45906854072076,275.27218340301516,0.0025042206980288033,-0.01676721125841141,-0.9682722091674804,0.2493223845958709,-0.08310387055681355,0.17362442851723658,3.1053349151241574,0.10090194642543793,-0.04797302931547165,0.11302635073661806,0.17702430769801142,-0.13860370631329716,-9.566290975213054
24.5,2.0999999046325684,87.0,21.805715560913086,23.33050537109375,-79.78280162639803,40.45906826427742,275.9282560195923,-0.0015464868629351258,-0.006494136992841959,-0.9689819812774658,0.2470414340496063,-0.042481340042504034,0.09869034167968624,3.0590840658512106,0.031476933509111404,-0.1439039260149002,0.054032664746046066,0.09974758786149324,-0.04488019867334515,-9.536467836499217
24.7,2.0999999046325684,88.0,21.695533752441406,25.46953201293945,-79.78280155129214,40.45906827066028,276.23231123352053,-0.0030993202235549693,-0.00560083193704486,-0.9690502882003784,0.2467806041240692,-0.03993927491753725,0.05792622515338178,3.01889813096535,0.01049400307238102,-0.061970703303813934,0.008558694273233414,0.0358745272597298,0.010132183190435172,-9.448630378246307
24.8,2.0999999046325684,85.0,21.70805549621582,25.07194328308105,-79.78280151720152,40.45906815507453,276.6170749511719,-0.004736754111945629,-0.008422862738370895,-0.9690285921096802,0.2467597872018814,0.005071681135489161,0.030403473200529108,3.0211069526708467,0.050393015146255486,0.03175535053014755,0.017042137682437897,0.10775935138575732,-0.03198488631751389,-9.570449514985086
24.9,2.299999952316284,85.0,21.74060821533203,24.594837188720703,-79.78280100830611,40.45906781865831,277.30309484863284,-0.004546834155917168,-0.012960015796124935,-0.96909499168396,0.24630536139011386,0.03779511235292662,0.07346368075544751,3.0482658604118846,0.01992482878267765,0.0141211599111557,-0.04402883723378182,0.10507997444830837,0.25899616811424503,-9.6902490234375
25.1,2.4000000953674316,84.0,21.77316093444824,24.09387588500977,-79.78280099070847,40.459067815379186,277.6075715866089,-0.003400756046175957,-0.01270788349211216,-0.9690369367599488,0.2465654164552689,0.02297078856098632,0.07412003414441526,3.0398691343154955,-0.0846891701221466,-0.033058326691389084,-0.049793969839811325,0.12454187443479894,0.2819967025145889,-9.724370450377467
25.2,2.700000047683716,86.0,21.68927383422852,25.747844696044922,-79.78280097402295,40.45906782042656,277.91100595855715,-0.003679873188957572,-0.01130005903542042,-0.9689611196517944,0.2469274997711181,0.01790053800116526,0.06501125392254667,3.0240879326759886,-0.08078722655773163,0.020011605694890026,0.0008402054663747549,0.09729416926391424,0.1702927737683058,-9.65006520330906
25.41,2.799999952316284,89.0,21.75062561035156,24.483510971069336,-79.78280108713784,40.45906760594953,278.60886381530764,-0.005460068117827177,-0.009970799088478087,-0.9687333106994628,0.2478439658880233,0.05458262416074576,0.031090785643970387,3.0205884870896065,-0.12454669177532195,-0.019849242642521855,-0.06670820713043213,0.07530478747095913,0.2329343422316015,-9.679218835830687
25.6,3.0999999046325684,88.0,21.646705627441406,26.312419891357425,-79.78280091063995,40.45906735898184,279.2772245254517,-0.006061073858290911,-0.011840321123600006,-0.968473732471466,0.2487606406211853,0.09538657458178176,0.03912444990888162,2.9966126638898194,0.07724906504154205,0.03836772218346597,0.05163523927330972,0.16249359307810665,0.003647365216165781,-9.630112749338153
25.71,3.0999999046325684,87.0,21.6917781829834,25.1673641204834,-79.78280095723204,40.45906735964348,279.576240524292,-0.004816362634301186,-0.011085612699389458,-0.9685124158859252,0.24867188930511475,0.08656487566467877,0.03962260407330048,2.983626989409019,0.030550448223948482,-0.10253368318080902,0.03873765468597412,0.05171620133332908,0.08661523486487567,-9.648663625717164
25.9,3.0999999046325684,85.0,21.69303131103516,24.920860290527344,-79.78280080901744,40.45906719316196,280.2336759414673,-0.00550981005653739,-0.0104382261633873,-0.968598246574402,0.2483507543802261,0.09881954526477776,0.004861808188838118,3.0096201623969177,0.07532457262277603,0.1070309355854988,0.03471426293253898,0.10885346593335272,0.04194411526434124,-9.888791230916977
26.01,3.0999999046325684,85.0,21.637939453125,26.209047317504893,-79.78280050935709,40.45906691967957,280.8904380645752,-0.009102539159357548,-0.011051989160478115,-0.9684320092201232,0.2488664388656616,0.1178727454946996,0.025865070042969875,3.0292673340211675,0.007784408051520586,-0.005756638944149017,0.03723671659827232,0.08781974301673473,0.3985023647546768,-9.844664633274078
26.2,3.0999999046325684,84.0,21.65546989440918,25.76374816894531,-79.78280057889455,40.45906692158915,281.193840965271,-0.009811753407120705,-0.009599373675882816,-0.9683756232261658,0.2491190284490585,0.12037164304171782,0.0218737162591468,3.0363256122303808,0.02575461566448212,-0.07987888902425766,0.009557472541928291,0.06614232388325036,0.1021414470858872,-9.821862831115725
26.3,3.2000000476837163,83.0,21.70304679870605,25.04808807373047,-79.78280024216967,40.45906665625152,281.53778074646,-0.009783459827303886,-0.007917211391031742,-0.9682912826538086,0.2495066821575165,0.13546673602731785,0.01921741084709196,3.0365426319387185,0.09820477664470673,0.001765918219462037,0.022240744903683662,0.1464423831179738,-0.01412621520459652,-9.886869835853577
26.5,3.2000000476837163,80.0,21.622915267944336,26.14543342590332,-79.78280001519502,40.45906658294785,282.17690275573733,-0.009285571053624151,-0.008375276811420921,-0.9682804942131042,0.24955299496650696,0.09674595142082876,0.010370525539633748,3.041156669828321,-0.1489601880311966,-0.05602460354566574,-0.05254276841878891,0.08667631999589502,0.3187961542233825,-9.8567344558239
26.6,3.2000000476837163,80.0,21.624168395996094,26.5748291015625,-79.78280006909124,40.459066582808354,282.4814367141724,-0.008294117636978626,-0.007794524542987347,-0.9683421850204468,0.2493669390678405,0.10528692948680242,0.014631968713747869,3.049837078136844,0.009326661005616188,0.049091849476099014,0.023463193327188492,0.1449242358002812,0.11526206910610197,-9.903702800273896
26.7,3.2000000476837163,80.0,21.58284950256348,27.06783866882324,-79.782799914115,40.45906657653287,283.11905859375,-0.00822629500180483,-0.004051710478961468,-0.9685199856758118,0.2487671673297882,0.11914211927580687,-0.006399182214454706,3.0621792006704682,0.2397588789463043,0.012386683374643326,0.16036568582057953,0.1711088988929987,-0.1597358086332679,-10.009372512102127
26.9,3.2000000476837163,79.0,21.686769485473643,24.73796844482422,-79.78279964665916,40.45906650540272,283.7571868743897,-0.007937802001833916,-0.0016795467818155885,-0.9686564803123474,0.24827177822589874,0.09047172289991924,-0.005360011568221926,3.0547021771198737,-0.09465400874614716,0.01348048634827137,-0.006904531270265579,0.06865661290939898,0.4556194655969739,-9.907367835044859
27.0,3.2000000476837163,80.0,21.65797233581543,25.3900146484375,-79.7827996928001,40.45906648565784,284.06178663635256,-0.007592083420604467,-0.0021999466698616747,-0.9687244296073914,0.2480132430791855,0.09082064543518233,0.004254344636281021,3.0370494882497328,-0.048492878675460815,0.05678357928991318,0.011509854346513748,0.1219476110301912,0.1037984840478748,-9.705819573998454
27.2,3.2000000476837163,80.0,21.58785820007324,26.67820167541504,-79.7827997276117,40.459066458089815,284.3656234588624,-0.008770051412284374,-0.002986268373206258,-0.968852698802948,0.2474643886089325,0.08711452036426551,0.02207047866287236,3.0412000661650564,-0.0535743348300457,-0.04815715178847313,0.016687266528606415,0.06854319976642728,0.14982399238273506,-9.774187558293344
27.4,3.2000000476837163,78.0,21.654216766357425,25.636518478393555,-79.78279950221396,40.45906634946208,285.0076675262452,-0.007594188675284386,-0.004131448455154896,-0.9693620800971984,0.2454840540885925,0.1041225156618192,0.035690963161262225,3.067408102013029,0.035705920308828354,0.0929086059331894,0.02235706709325314,0.1106753852404654,0.2386046978831292,-9.889406358003617
27.52,3.299999952316284,77.0,21.662981033325195,24.92881202697754,-79.78279921579295,40.45906632703846,285.3377036895752,-0.006835108622908592,-0.004340028390288353,-0.9695110321044922,0.24491409957408905,0.08208551443243993,0.04275641677929532,3.070478199182116,-0.17009548842906952,-0.0627809539437294,-0.10555996745824814,0.08741550855338574,0.31127678107470275,-9.879731554985046
27.7,3.299999952316284,76.0,21.63167953491211,25.636518478393555,-79.78279926331827,40.45906624186418,285.9528617706299,-0.008425750769674778,-0.0050420998595654964,-0.9692008495330808,0.2460759580135345,0.09359236729160916,0.048434832178601735,3.0728580287132194,0.0646069198846817,0.10340584814548492,-0.04314085841178894,0.16052297176793218,0.10962853264063598,-9.802764070630074
27.8,3.299999952316284,77.0,21.652965545654297,25.23097801208496,-79.7827992644103,40.45906618699429,286.58304403686526,-0.009653838351368904,-0.007760797161608934,-0.9682740569114684,0.24958355724811554,0.08182144444990612,0.0386564662129909,3.0491988016631306,-0.1168765351176262,-0.026925135403871536,-0.09259894490242004,0.1395741887949407,0.2462973496131599,-9.819259650707243
28.01,3.2000000476837163,78.0,21.602882385253906,25.79555511474609,-79.78279902732484,40.459066180587094,286.91858099365237,-0.008371287956833841,-0.007061704993247986,-0.9680737853050232,0.2504260241985321,0.09558830987682307,0.03780784639230034,3.056864738002622,0.05087334290146829,0.03458848223090172,0.0265092384070158,0.13024072612635793,0.07257514731958509,-9.854575663805008
28.11,3.0999999046325684,78.0,21.68927383422852,23.88712882995605,-79.78279904388526,40.459066165090604,287.2254791107178,-0.006860876921564341,-0.005965936928987503,-0.968025267124176,0.25068801641464233,0.06952550682143592,0.04157399276563194,3.0803543223843097,-0.06659142673015593,-0.1308826208114624,-0.04595638811588288,0.09169503087177873,0.15529599951580167,-9.97867462992668
28.2,3.0999999046325684,77.0,21.632932662963867,25.342304229736328,-79.78279905289561,40.4590661497898,287.53369139099124,-0.005540391895920038,-0.004894602578133346,-0.9681541919708252,0.2502457201480865,0.07843336430398724,0.035093388532876614,3.0750101969328614,0.2041324228048325,0.03462167829275131,0.14203177392482758,0.16790425926446914,-0.2000055828318,-9.828784765005112
28.4,3.0999999046325684,77.0,21.765649795532227,22.288822174072266,-79.78279834567284,40.45906596840727,288.4904289093018,-0.006465054117143154,-0.004837797954678536,-0.9691307544708252,0.2464150339365005,0.038227582264945416,0.05204535668879549,3.054846178673804,-0.029067380353808406,0.03008117713034153,-0.012257877737283708,0.15951631877571346,0.09675780599936844,-9.832054527997974
28.5,3.0999999046325684,77.0,21.620410919189453,25.461580276489247,-79.78279832546106,40.45906593998551,288.79521177673337,-0.006847854238003492,-0.004402040969580412,-0.9693781137466432,0.2454380989074707,0.045118548380683285,0.0554816641743842,3.0423819295858814,0.01416674256324768,0.051955878734588616,0.02969780564308166,0.10799692193046212,0.08908227564767003,-9.74785871565342
28.7,3.0,77.0,21.626672744750977,25.44567680358887,-79.78279830142785,40.4590659075975,289.0999393310547,-0.0058618239127099505,-0.003907429985702039,-0.9694979786872864,0.2449982315301895,0.04186496503575639,0.06153649245165736,3.053986949125762,-0.019988222047686573,0.003256957279518247,-0.07720517367124557,0.07857549606822431,0.2620106635987759,-9.85393714785576
28.9,3.0,79.0,21.636688232421875,25.175315856933594,-79.78279800405417,40.459065777699095,289.73951910400393,-0.0027639546897262326,-0.0034459554590284824,-0.9692107439041138,0.2461930960416793,0.047599009262800265,0.06719023602310502,3.082412268791172,0.13144336640834808,0.02046302706003189,0.061655014753341675,0.12328909934498372,-0.0517792050819844,-9.938001397848133
29.0,2.9000000953674316,78.0,21.656721115112305,24.70616149902344,-79.78279776811976,40.45906570134175,290.0678863372803,-0.002752156695351005,-0.005127701908349991,-0.9690035581588744,0.2469782829284668,0.04168222786722287,0.06691192035823804,3.0848408265151117,0.039986200630664825,0.1073278859257698,0.008954750373959541,0.16530902741476894,0.03848910517059267,-9.845740520954132
29.2,2.9000000953674316,78.0,21.67424964904785,24.252910614013672,-79.7827977337045,40.45906559858318,290.68473432922366,-0.006319113075733185,-0.007574628572911023,-0.9686916470527648,0.2480711936950684,0.04171839769466655,0.09440284640393076,3.078216403893393,-0.1411801129579544,-0.03529597446322441,-0.046671461313962936,0.12912152336910368,0.2721380776539445,-9.726064388751984
29.3,2.799999952316284,77.0,21.590362548828125,25.60471153259277,-79.78279748523771,40.45906558452588,291.3190040435791,-0.007734971120953559,-0.007017420604825021,-0.9685125350952148,0.2487458437681198,0.06740517367493137,0.07667538013649157,3.0576308693742207,0.010835393331944942,0.052422262728214264,0.008408776484429836,0.11243336889892816,0.16823312859982253,-9.639066590666774
29.5,2.799999952316284,73.0,21.660476684570312,24.41989707946777,-79.7827971876813,40.45906549939545,291.64669989013674,-0.00801070686429739,-0.0066715963184833535,-0.9684092998504642,0.2491482794284821,0.06101048451613635,0.08400235691210044,3.067088549504791,-0.05605332925915718,-0.06034684181213379,-0.08876974880695343,0.1171915497723967,0.2631736747920513,-9.818838651180267
29.6,2.9000000953674316,74.0,21.746868133544922,22.71026611328125,-79.78279716653911,40.45906545318611,291.95363043212893,-0.007481865119189023,-0.005859099794179201,-0.9682915806770324,0.2496420741081237,0.06638056290459945,0.0824654928504314,3.068073165594724,0.014081391505897043,-0.05432848632335663,0.005836250260472298,0.09758350593969227,0.09449893523007633,-9.81089930176735
29.7,2.9000000953674316,72.0,21.711811065673828,23.219179153442386,-79.78279714409125,40.45906540534824,292.25956343078616,-0.006844867020845413,-0.006160514894872904,-0.9682766199111938,0.24971120059490204,0.06672053756402395,0.08092917652757947,3.0418847094031687,0.035290710628032684,0.034085121005773544,0.03636272251605988,0.09039015160873533,0.08175142038613559,-9.603817820549011
29.9,2.9000000953674316,71.0,21.68927383422852,23.46568489074707,-79.78279656035419,40.459065182838465,293.2127265777588,-0.006042931694537401,-0.009564829990267757,-0.9684802889823914,0.2488330900669098,0.06001863633937564,0.11631091086291552,3.0110584198366785,-0.03335194662213325,-0.09490553289651872,0.03792143985629082,0.1299578213877976,0.18429676389321686,-9.61598879992962
30.0,2.9000000953674316,71.0,21.56532096862793,26.20109558105469,-79.78279653383473,40.459065125522585,293.51379583740237,-0.007217409089207648,-0.008492377586662771,-0.9685574173927308,0.2485403269529343,0.06600529924020253,0.10995047378174028,3.0116503936191763,0.05612732097506523,-0.031185099855065342,0.06204215437173844,0.11166446917690337,-0.021430465634912254,-9.862322055101394
30.2,2.9000000953674316,71.0,21.550296783447266,26.50326156616211,-79.78279650576789,40.459065071646855,293.81609342956546,-0.008280293084681034,-0.008158709853887558,-0.9685907959938048,0.24838833510875705,0.07534342565791258,0.10004611886787217,3.0272257604840616,0.15845653414726255,0.059559945017099374,0.07859626412391663,0.13730371495708826,-0.012609452032484116,-9.940875889062882
30.4,3.0,72.0,21.636688232421875,24.65049934387207,-79.78279620151031,40.45906493287689,294.4514598693848,-0.007983311079442501,-0.009642042219638823,-0.9685248136520386,0.2486021667718888,0.06899055541589574,0.09218470505016832,3.0854688681428244,-0.02681797556579113,0.06500031799077988,-0.05219341069459915,0.15631308613345027,0.24505286112427715,-9.997162356376649
30.51,3.0,73.0,21.67800521850586,22.88520622253418,-79.78279594877516,40.459064807406136,294.7753009643555,-0.0073874806985259065,-0.010506180115044115,-0.9685176014900208,0.2486136257648468,0.07355843104077192,0.1067292581833566,3.0852282280306182,0.009422972798347471,0.08155614882707596,0.05561511218547821,0.12998566875234244,0.1133503402210772,-9.927987456321716
30.7,3.0,72.0,21.6279239654541,24.197248458862305,-79.7827959003377,40.45906470995272,295.39282797241214,-0.006457080133259296,-0.011486231349408628,-0.9685356020927428,0.2485260218381881,0.05143068512556656,0.1055764677870134,3.0763083102897726,-0.10505417734384537,-0.017284994944930077,-0.018287140876054764,0.11187069316394628,0.2643780915811658,-9.71988855957985
30.81,2.9000000953674316,71.0,21.57158088684082,25.23097801208496,-79.7827956455562,40.45906464732068,295.7147579040528,-0.008133109658956528,-0.012934313155710695,-0.9685407876968384,0.2483855336904525,0.0471642311050631,0.0972461764385668,3.065721913491882,-0.16383983194828033,0.007300804834812878,-0.013694260269403458,0.07275144087150694,0.24687180200591685,-9.765635420680047
30.9,2.9000000953674316,74.0,21.626672744750977,24.674354553222656,-79.78279539794953,40.459064560830896,296.344795211792,-0.010649695061147213,-0.01387915201485157,-0.968616247177124,0.24794477224349976,0.05643521743041269,0.09023526903661794,3.077623138866297,-0.163957417011261,-0.09693943709135057,-0.0655316561460495,0.09403532411903144,0.3068736815080047,-9.86790380716324
31.1,2.9000000953674316,76.0,21.637939453125,24.17339324951172,-79.78279537179269,40.459064560066274,296.65281484985354,-0.010780260898172857,-0.011666959151625632,-0.9688037037849426,0.2473199367523193,0.06649596582484231,0.07429302324110229,3.0788076370274515,0.06653815507888794,-0.04351198300719261,0.07790090143680573,0.09117245424538853,0.0087068878300488,-9.839728413820268
31.3,2.9000000953674316,78.0,21.65797233581543,23.64857482910156,-79.78279526731994,40.459064431693356,297.27831457519534,-0.007701202295720576,-0.005232400260865688,-0.969449520111084,0.24511419236660004,0.0720011617988781,0.03565482257195668,3.0748525484687765,0.13065551221370694,-0.08604950457811356,0.05350637808442117,-0.026233985270373524,0.044070747597143065,-9.788097499608996
31.4,2.9000000953674316,79.0,21.649208068847656,23.839418411254893,-79.78279526326239,40.45906443674019,297.5856876220704,-0.004754084162414074,-0.004699407145380974,-0.9696012139320374,0.24459929764270785,0.04759610425564263,0.014625809719701066,3.0686094890269713,0.07626938819885254,-0.034551046788692474,0.03598923608660698,0.005579873415408656,0.06454332510475069,-9.72361206650734
31.5,2.9000000953674316,82.0,21.590362548828125,25.262784957885746,-79.78279510774647,40.459064472438,298.2111968841553,-0.007093195803463459,-0.003915963228791952,-0.969451069831848,0.2451513707637787,0.030696709947808425,0.010116114626330304,2.9979661477542527,-0.013594071380794048,-0.01191092748194933,-0.04896952211856842,0.10150404576212167,0.12412615567445755,-9.508246250152588
31.71,3.0,83.0,21.57909393310547,24.674354553222656,-79.78279485237185,40.459064440480674,298.8330592956543,-0.008732298389077188,-0.005320454016327858,-0.9692215919494628,0.24597759544849399,0.05298488072480879,-0.0013684323303552704,2.972771829296424,0.01355894189327955,0.1060640811920166,-0.019888466224074364,0.06463931537233293,0.14907012183219195,-9.525355787873268
31.9,3.0,84.0,21.6817626953125,23.266889572143555,-79.78279484930938,40.45906445282661,299.12938497924813,-0.008578367531299591,-0.006908742245286703,-0.9691782593727112,0.2461145967245102,0.03601362480488768,0.005755819222934458,2.9560166968471067,-0.12257581949234007,-0.01756948232650757,-0.02258819714188576,-4.4562178663909443e-05,0.3108491303399205,-9.59562411725521
32.01,3.0999999046325684,86.0,21.576589584350586,27.099645614624023,-79.78279477370597,40.45906435473685,299.4525012817383,-0.008022977039217949,-0.00701805716380477,-0.9692836403846741,0.2457146644592285,0.053439702672286836,0.029237425959025044,2.953481843951158,-0.023373780772089958,-0.06640369445085527,0.007793258875608443,0.06568063595797867,0.14952070461586114,-9.551520908474922
32.2,3.0999999046325684,88.0,21.564069747924805,25.42182159423828,-79.78279477595049,40.45906436526288,300.03867529296883,-0.007279126439243555,-0.007414855528622866,-0.9692980647087096,0.2456693351268769,0.0539670887401011,0.014563165289652097,2.9228473273993796,0.0723952203989029,0.0760810524225235,-0.013594954274594784,0.0962836516276002,0.11075012910179796,-9.720107830166818
32.31,3.0999999046325684,90.0,21.495206832885746,26.98036956787109,-79.78279456664795,40.459064254303286,300.3551235046387,-0.008430249989032745,-0.008495609275996685,-0.9690926671028136,0.2464066296815872,0.05448301176459884,0.02082832816893703,2.9609898926727967,-0.17894619703292847,-0.0528651624917984,-0.03504814952611923,-0.002643571877852082,0.27840296722948554,-9.846817578077316
32.4,3.0999999046325684,93.0,21.577842712402344,25.652421951293945,-79.78279442139745,40.45906420307839,300.9654178466797,-0.010006306692957878,-0.00942401494830847,-0.9679059982299804,0.25093644857406616,0.07395028337627285,0.014541781608857596,3.0125184431889034,0.010232467204332352,-0.1599845439195633,-0.06151958554983139,0.0514710796577856,0.007627290822565557,-10.05979305267334
32.6,3.0999999046325684,97.0,21.630428314208984,23.720142364501953,-79.78279444201962,40.459064267429966,301.5730762329102,-0.0048993416130542755,-0.0007046254468150438,-0.9670421481132508,0.2545681297779083,0.04942670898961486,-0.01910289783214144,3.0493988719691747,0.2803824841976166,0.002396640833467245,0.10865797102451323,0.05450111137703061,0.13274257611483334,-10.104176927804946
32.71,3.0999999046325684,102.0,21.52525520324707,26.216999053955078,-79.78279420225537,40.45906431417821,301.88080786132815,-0.0018617066089063887,0.003908994607627392,-0.966935098171234,0.2549862265586853,0.02424342211811957,-0.03561649940756897,3.017582289841452,0.15511377155780792,-0.026407532393932343,0.07258149981498717,0.06852677274495364,-0.1829351118206978,-9.853100996017456
32.9,3.0999999046325684,103.0,21.619159698486328,24.44375228881836,-79.78279420462917,40.45906434281642,302.1824512329102,0.00024474808014929295,0.005245908163487911,-0.9671341180801392,0.25421252846717834,-0.014821386927928318,-0.04869456808262094,3.0111599329361045,-0.01850949227809906,-0.07318664342164992,-0.04353692382574082,-0.04679445373825729,0.16887248508632186,-9.696471045613288
33.11,2.9000000953674316,108.0,21.44512367248535,28.37988090515137,-79.78279411506121,40.45906445814304,302.7853641357422,-0.000355995143763721,0.0007985058473423122,-0.9678332209587096,0.2515914440155029,-0.01628387582131843,-0.03723636790339102,2.938109656707018,-0.10011063516139984,-0.07387980818748474,0.01089455746114254,0.06605158240534366,0.01983930577989668,-9.56881404876709
33.21,2.9000000953674316,112.0,21.534019470214844,26.75771903991699,-79.7827941198763,40.459064469712416,303.078889831543,-0.0027412811759859324,-0.00031611806480214,-0.96832275390625,0.24968662858009336,0.0172031804126708,-0.012586898461403637,2.936097393608169,0.1926784068346024,0.06372427940368652,0.1839839667081833,0.17840088844299318,-0.3239450296014548,-9.793118503689767
33.31,2.700000047683716,122.0,21.48268699645996,25.620615005493164,-79.78279395627199,40.45906447032152,303.69023321533206,-0.0014873991021886466,-0.0077655212953686705,-0.9695398807525636,0.2448059022426605,0.0345174396562952,0.003473566888998952,2.982772908944267,0.24338604509830475,0.20786067843437195,0.1779477447271347,0.091664607077837,-0.2435509855113924,-9.987160109281538
33.51,2.5999999046325684,127.0,21.513986587524414,26.216999053955078,-79.78279380210108,40.459064518291456,304.3057041015625,0.0008636219426989553,-0.01097950991243124,-0.9703914523124696,0.24128639698028564,-0.004793673095911329,0.04437573122298065,3.028914385129037,-0.014469039626419544,-0.042013902217149734,-0.02491051144897937,0.2060945077612996,0.08754499697126449,-10.012859791517258
33.7,2.5,135.0,21.55655670166016,25.127605438232425,-79.78279379926488,40.459064551942944,304.61027716064456,0.0019551650620996948,-0.00847452599555254,-0.9705382585525512,0.2407900989055633,-0.007320183839324147,0.0288569686631304,3.062005553891185,0.04808359593153,-0.09284096211194992,0.042915046215057366,0.16695507343858482,-0.19390653491020204,-10.163995113372804
33.81,2.5,139.0,21.554052352905273,25.23097801208496,-79.78279346329332,40.45906465862315,304.916650756836,0.0021792910993099213,-0.006970440503209829,-0.9705598950386048,0.2407496273517609,-0.02202468692376802,0.009528122079817188,3.066125919556142,0.14421676099300385,0.04280243441462517,0.0305250883102417,0.10964735336601734,-0.10241761839017273,-10.082355118989943
34.0,2.5,142.0,21.610395431518555,23.99845314025879,-79.78279344693105,40.45906476300385,305.534212097168,0.0005655339336954057,-0.0027957088313996788,-0.9701716303825378,0.2424024939537049,-0.026654169495789592,-0.018790494590008748,3.1102675463215146,0.02196439541876316,0.025734366849064827,0.0119386101141572,0.03084017051383853,-0.019913140581920744,-10.046469587087632
34.1,2.5,143.0,21.604135513305664,24.35628318786621,-79.78279329015726,40.45906484174203,305.84613989257815,0.0015502088936045766,-0.0011628102511167526,-0.9698058366775512,0.2438708394765854,-0.03297965208628318,-0.03616819107204458,3.0959495930254275,-0.12457872927188872,-0.09628042578697203,-0.08720336854457855,-0.03370566935045645,0.05809334831312299,-9.969519059658053
34.2,2.5,142.0,21.61415100097656,23.847370147705078,-79.78279329833697,40.459064893705786,306.15563009643563,0.0029757150914520025,0.00024605897488072515,-0.9694774746894836,0.2451625317335129,-0.011942781217934751,-0.04426678577706824,3.092206161637176,0.17976175248622894,0.023634826764464385,0.07370378077030182,-0.015469056830042975,-0.04985888809897007,-9.749533358216286
34.4,2.5,144.0,21.636688232421875,23.40207099914551,-79.78279309516222,40.45906489055911,306.77541540527346,0.0004200773546472192,0.004285102244466543,-0.969089150428772,0.2466733157634735,-0.015019261014042853,-0.05611248532764487,3.0387089577866573,0.04108342528343202,-0.05773026496171951,-0.01842417009174824,0.012719731433317066,-0.12553946424275636,-9.692452254295349
34.6,2.5,146.0,21.592866897583008,24.41989707946777,-79.78279301947028,40.45906492132213,307.394205078125,-0.0015143003547564149,0.002930920105427504,-0.9685490727424622,0.248801127076149,-0.009795015606543049,-0.0619010309306607,2.9971289730333965,-0.05953304097056389,-0.029649501666426662,-0.07392855733633041,-0.04457077589817345,0.008262123711174355,-9.625977013707162
34.71,2.4000000953674316,146.0,21.537776947021484,25.723989486694336,-79.78279303101462,40.45906494740277,307.69334982299813,-0.00011326633830321953,-0.00038150878390297294,-0.9681129455566406,0.25051382184028625,0.010894283735798543,-0.04923777494111668,2.987671527678532,0.15284383296966553,0.15887156128883362,0.07998273521661757,0.0019497586274519567,-0.17159153172746305,-9.727951869964599
34.8,2.4000000953674316,141.0,21.60538673400879,23.839418411254893,-79.78279301006359,40.459064978558565,308.32468984985354,0.0066087706945836535,-0.0038739764131605625,-0.9681746363639832,0.2501585781574249,0.002646599622862857,-0.005497673507057906,3.0221317621074384,0.11313627660274506,0.021438373252749443,0.06798075139522552,0.006563586364500225,-0.11061729680746794,-9.892788387537005
35.01,2.5,141.0,21.646705627441406,23.03628921508789,-79.78279287157609,40.459064914805616,308.9579639282227,0.003388483542948961,-0.001263165846467018,-0.9689053893089294,0.24740512669086456,0.0047383143157729395,-0.007603537362081227,3.054369177312997,0.03825407475233078,-0.021220799535512924,0.024389298632740967,0.060599830392748126,-0.21889541499316686,-9.989482623338699
35.2,2.4000000953674316,141.0,21.57158088684082,24.32447624206543,-79.78279292160029,40.459064925955374,309.2631015625,0.002033226657658816,0.002452750690281391,-0.969291925430298,0.2458924502134323,0.016868821797936542,-0.015775853797905814,3.04879619501418,0.01479479856789112,-0.1905093044042588,0.022895855829119682,0.011958976699970664,-0.0901448974572122,-9.788726660013198
35.3,2.4000000953674316,144.0,21.50397109985352,25.636518478393555,-79.7827926980648,40.45906486866526,309.5951938476564,8.389694994548336e-05,0.006972548086196184,-0.9694744348526,0.24509353935718536,0.013071353107963892,-0.02748584213693088,3.0672041360247815,0.02303386852145195,-0.05148328840732575,0.05173509567975998,0.030729247005656362,-0.19700033325701952,-9.951213766336444
35.5,2.299999952316284,147.0,21.632932662963867,22.90110969543457,-79.78279262991028,40.45906478130792,310.2311954345704,-0.004436440300196409,0.0019201001850888133,-0.9688601493835448,0.2475617229938507,0.033821603728079144,-0.03852507525149485,3.1142175310146247,-0.01747940294444561,0.04692017287015915,-0.013253829441964626,0.02353235693648457,-0.1046302047930658,-9.983210899829864
35.6,2.299999952316284,149.0,21.65546989440918,22.14569091796875,-79.78279264916074,40.45906476436335,310.54284094238284,-0.00041302305180579424,-0.0032072244212031364,-0.9682580828666688,0.2499318122863769,0.04402523020839556,-0.00044818901710704315,3.1131116007673056,0.05344799533486366,0.14119186997413635,-0.0934845805168152,0.11286311184056105,0.1410475135501474,-9.806278247237207
35.7,2.0999999046325684,160.0,21.640443801879886,22.36833953857422,-79.78279266036077,40.4590647380072,310.8533801879883,0.004956617020070553,-0.0060313320718705645,-0.9676276445388794,0.2522616982460022,0.030119172636898763,0.044086446837501056,3.09523504548076,0.09289904683828354,0.0273630041629076,-0.015788843855261803,0.19055419826880104,-0.15773998947814108,-9.63621022582054
35.9,2.0,163.0,21.62166404724121,22.92496490478516,-79.78279253883143,40.45906463367294,311.4946346130372,0.00759905483573675,-0.008555014617741108,-0.9674649238586426,0.2527463734149933,-0.006282168220361997,0.08636668991680252,3.0504274451623794,-0.10307104140520096,-0.03307834640145302,-0.012181786820292471,0.2352319508045912,0.005892645777203143,-9.575395089983939
36.1,2.0,175.0,21.527759552001953,24.82543754577637,-79.78279234302127,40.459064458134044,312.13626669311526,0.002212477382272482,-0.008571194484829903,-0.9687600135803224,0.2478421777486801,0.022501698772554483,0.09677142063980104,3.047879436954857,-0.06640449911355972,0.02216403000056744,0.06870537996292114,0.17971908839419484,-0.014317928503733129,-9.722975304722787
36.21,2.0,180.0,21.67174530029297,21.86737823486328,-79.78279235563518,40.45906441352953,312.44166754150393,-0.0008678089361637831,-0.010174306109547615,-0.969417154788971,0.24520635604858398,0.018580337455465917,0.09004315421550638,3.062349028620331,-0.1574992686510086,-0.02428826130926609,0.03353840485215187,0.11240307301282884,0.02004541099537164,-9.90431324958801
36.3,2.0,192.0,21.783178329467773,19.799917221069336,-79.78279210026619,40.45906420680061,313.09015844726565,0.0015038573183119295,-0.009733229875564577,-0.9699917435646056,0.24293845891952515,0.04177965069895905,0.10943963042710016,3.0204319135018682,0.11548131704330444,0.044137116521596916,0.03280234709382057,0.11808777261525392,-0.06730933676473796,-9.301534312963486
36.5,1.8999999761581416,197.0,21.85454559326172,17.978960037231445,-79.78279191486756,40.45906398864498,313.70649145507815,0.012483148835599422,-0.009331907145678995,-0.9701428413391112,0.2420332580804825,-0.017234916887301447,0.11061493397492696,2.7992347182220603,0.04529479146003723,-0.036105744540691376,0.03215784952044487,0.05013743026647717,-0.14267029861919586,-8.529629926085471
36.7,1.8999999761581416,204.0,21.791942596435547,19.12401580810547,-79.78279190451221,40.4590639450736,313.9792575683594,0.013909655623137951,-0.010666674003005028,-0.9701884984970092,0.24171707034111026,-0.031951710741460825,0.10764176773896796,2.6546591483378887,0.0044291270896792394,0.05614456534385681,0.045024029910564416,0.12589230716228486,-0.2404166951961816,-8.386718128323555
36.8,1.7999999523162842,211.0,21.821990966796875,18.18570709228516,-79.7827917508838,40.45906384319357,314.27404211425784,0.012607128359377384,-0.012835309840738772,-0.9701638221740724,0.24178197979927066,-0.029395615547332995,0.1085996701757199,2.542047444171378,-0.04458234831690788,0.046071331948041916,-0.02794202230870724,0.20331037430092694,-0.024746899001766,-8.464705951809883
37.0,1.7000000476837158,220.0,21.869569778442386,17.668842315673828,-79.78279156716471,40.45906369013025,314.792139038086,0.0077590206637978545,-0.014410861767828463,-0.9701480865478516,0.2419607788324356,0.008190987204282456,0.09960569722955598,2.274594447288376,-0.085001140832901,-0.0004160289536230266,-0.008356841281056404,0.19044452643021945,-0.021619824059307576,-8.33919605255127
37.1,1.7000000476837158,221.0,21.811975479125977,18.599199295043945,-79.78279160451737,40.45906365597593,315.0124187316895,0.005873753689229488,-0.015808455646038055,-0.9701237082481384,0.2420239895582199,0.028014570220846496,0.07792256248185943,2.12644455251234,-0.058374293148517616,0.06021195650100707,-0.00037336917011998594,0.1785704759694636,-0.009096705252304674,-8.380654565691946
37.2,1.7999999523162842,217.0,21.791942596435547,19.203533172607425,-79.78279165022543,40.459063630944534,315.2184924926758,0.004451390355825424,-0.01737445406615734,-0.970017910003662,0.24237072467803955,0.03461756377586088,0.06913015398674052,1.994825661111964,-0.06711490452289581,-0.02495884895324707,-0.06024293601512909,0.13924837097525594,0.09348446158692242,-8.435001511573791
37.41,1.7999999523162842,215.0,21.783178329467773,19.04449844360352,-79.78279149983237,40.45906350257284,315.6524753417969,-0.0004015120211988688,-0.019199725240468986,-0.9693554043769836,0.2449108511209488,0.03947229806403738,0.04931604913978448,1.8123520889884024,-0.04631074890494346,0.015791883692145348,-0.020228995010256767,0.20242265732958914,-0.0187896871729754,-8.812062721252444
37.6,1.7000000476837158,217.0,21.76439666748047,19.79196548461914,-79.78279131448998,40.459063383579824,316.0678005065918,-0.004196269437670708,-0.019139721989631653,-0.96822327375412,0.2493187785148621,0.019957065753559447,0.03876460376845173,1.7221777233300577,-0.03312978520989418,-0.07501830905675888,-0.13638164103031158,0.19320603847503665,0.10639841194264593,-8.99271654188633
37.7,1.7999999523162842,215.0,21.725584030151367,20.579191207885746,-79.78279132130359,40.459063414451535,316.23563192749026,-0.0036384854465723038,-0.018384348601102832,-0.967714250087738,0.2513522803783417,0.005846728135989285,0.021478929612163102,1.6380375679357402,0.027269525453448296,-0.041099682450294495,-0.10366456210613252,0.23948287658393386,0.12240161078050732,-9.030029963850977
37.8,1.600000023841858,207.0,21.690526962280273,21.223283767700195,-79.78279111335172,40.45906320626719,316.67233465576174,-0.0008127976325340567,-0.017412628978490833,-0.9674622416496276,0.25241443514823914,-0.022345522157229947,0.016491200159931173,1.5985052285054195,0.003767808200791478,-0.03740229457616806,-0.06505215167999268,0.1495853437576443,0.01849686272442341,-9.15355180978775
38.0,1.600000023841858,207.0,21.76064109802246,19.887386322021484,-79.78279098540793,40.45906278796048,316.9915408935547,0.0009027395281009377,-0.01571021042764187,-0.9676553606987,0.2517848610877991,-0.013503543641115976,0.043414626558722434,1.662447384972359,0.002675164258107543,-0.07833930104970932,0.012933539226651192,0.25426503974944353,0.07352274343371391,-9.255249508023262
38.1,1.5,207.0,21.76815414428711,19.529556274414066,-79.78279093559314,40.45906285067786,317.3115749206543,0.004515735432505608,-0.01085637416690588,-0.9683947563171388,0.24914541840553284,-0.04676977458249952,0.013263934965590512,1.5369764069229337,-0.007443361915647981,-0.045682378113269806,0.013652821071445942,0.20743096198886635,-0.009395963922142984,-9.219969747662542
38.3,1.399999976158142,206.0,21.7205753326416,19.27510070800781,-79.78279089431787,40.45906229166104,317.66533850097665,0.004916641395539045,-0.008436311967670921,-0.9688364267349244,0.24750906229019165,-0.02052825761226226,0.04478011441246786,1.579945290550412,0.002024131827056408,-0.08181434124708176,0.017602719366550446,0.22015386370942,-0.07466921797022222,-9.010770404934883
38.51,1.399999976158142,201.0,21.832008361816406,17.81992530822754,-79.78279102333964,40.459062023569004,318.0833949890137,0.001681978814303875,-0.00408402131870389,-0.9689165949821472,0.2473481446504593,-0.0009699383402416744,0.03495379273290543,1.3522063532173758,-0.050891879945993417,-0.03907953947782517,-0.1768798828125,0.14134341920726,-0.09097036899067462,-7.635032828450202
38.6,1.399999976158142,197.0,21.838268280029297,17.295108795166016,-79.78279100281584,40.45906201813529,318.2050876464844,0.0002405283448752016,-0.0027830302715301514,-0.9625282287597656,0.2711672484874725,-0.026814303001440627,0.025018954962929614,1.0968222020670484,0.04274750500917435,-0.04007406160235405,-0.7555182576179504,0.07134288316592574,-0.3740058933198453,-7.445694138407707
38.7,1.2999999523162842,201.0,21.83075523376465,18.066431045532227,-79.78279069853437,40.459062032319935,318.4299754943848,0.0008748009568080307,0.0010625842260196805,-0.930611789226532,0.36600521206855774,-0.059485249273184784,0.01888839276626974,0.8051142095491749,-0.007337224669754504,0.014576881192624569,-1.2696173191070557,-0.012048134176293388,-0.07686873950064183,-8.236850482821465
38.91,1.2999999523162842,203.0,21.80696678161621,20.30883026123047,-79.78279028063487,40.45906210007222,318.5918941345215,0.006185430567711593,-0.0004474582674447447,-0.8723490238189697,0.488844484090805,-0.05615885219722768,0.03548520231391949,0.6356036283376568,0.16008999943733215,0.08615609258413315,-1.5128581523895264,0.09909837333485484,-0.13006681714206936,-8.865510950088499
39.0,1.2000000476837158,194.0,21.759389877319336,19.61702537536621,-79.78279020260987,40.459062120479615,318.6523952331543,0.010620723478496076,0.0013511059805750847,-0.8327664136886597,0.5535210967063904,-0.05686115722110621,0.05015742042898602,0.5771548349064293,0.11239004135131836,-0.06520222127437593,-1.535359501838684,-0.004596487088128925,-0.0628462347155437,-9.110162546038627
39.2,1.2000000476837158,184.0,21.75563240051269,19.815820693969727,-79.78279012958828,40.45906213015514,318.7075595703125,0.014341020956635475,0.00579060846939683,-0.7876881957054138,0.615880012512207,-0.0364243774070732,0.059428442961207986,0.5275965530011616,0.0758591815829277,-0.0508871041238308,-1.5423645973205566,0.11965047754347324,-0.02378955219872296,-9.267129880785943
39.41,1.2000000476837158,189.0,21.67174530029297,21.55725860595703,-79.78278965264019,40.45906205863179,318.83314703369143,0.01461698953062296,0.011828393675386906,-0.7039533853530884,0.7099972367286682,0.05716976653699904,0.08078743369760638,0.4991573175949644,0.08158851414918901,0.07793445140123367,-0.9337284564971924,0.25105360273271804,-0.10396569614298642,-9.613823575973509
39.5,1.100000023841858,192.0,21.435108184814453,26.01025199890137,-79.78278920880446,40.45906172636077,318.9987468566895,0.01613497920334339,0.014989684335887432,-0.6543623805046082,0.7558603286743164,0.1613213291469054,0.07783450639522041,0.5894863895413084,-0.12581637501716614,0.09943556040525436,-0.5076512694358826,0.21747130734845999,-0.07213580215349794,-9.801243209838868
39.7,1.100000023841858,178.0,21.51774406433105,24.84134101867676,-79.7827890742663,40.459061538998476,319.05913732910165,0.018818536773324013,0.009651091881096365,-0.6444222927093506,0.7643774151802063,0.20427815765280016,0.10213795365209946,0.645982064088783,-0.20868924260139465,-0.024092329666018486,-0.3418178260326385,0.3451375683769584,0.331712324693799,-10.17800621151924
39.81,1.100000023841858,173.0,21.66798973083496,21.49364471435547,-79.78278859395354,40.45906136090994,319.11290548706063,-0.020849023014307026,0.034058410674333565,-0.6444470286369324,0.7636054754257202,0.28744543049123616,0.2269933291482341,0.7481064159738972,-0.09337178617715836,-0.5927340984344482,0.04005500674247742,0.6385535907000304,-0.05079243719112128,-10.450575338602066
40.0,1.100000023841858,177.0,21.640443801879886,22.17749786376953,-79.78278826128339,40.45906164917078,319.0422000732422,-0.04300951585173607,0.05400260910391808,-0.6497228145599365,0.7570299506187439,0.28639369472015874,0.29625573037274605,0.7597851821646295,-0.1113877296447754,-0.6165847778320312,0.07605510205030441,-7.901278557255866e-05,0.13971010001376272,-10.3834469640255
40.11,1.100000023841858,178.0,21.679258346557614,21.366416931152344,-79.78278769704836,40.459061424294255,319.11759375,-0.05843907967209816,0.06793853640556335,-0.6557892560958862,0.7496064305305481,0.32211439607985626,0.403869928796522,0.8499057862897399,0.18039368093013766,-0.20463566482067108,0.2714608311653137,0.025765097960829736,-0.20461786653846506,-10.45579807162285
40.3,1.100000023841858,161.0,21.62541961669922,22.41604995727539,-79.78278593097313,40.45906150951807,319.14627645874026,-0.06997260451316832,0.08076416701078415,-0.6689394116401672,0.7355957627296448,0.2797040222673214,0.7527664303061639,0.9270487288754315,-0.016902387142181396,-0.0746227502822876,0.16749992966651914,0.050235339151695375,-0.14428038426674902,-10.053289779424668
40.4,1.2000000476837158,155.0,21.59537124633789,22.86930084228516,-79.7827846771425,40.45906133455889,319.2205791320801,-0.07153768837451935,0.08339179307222366,-0.6739429235458374,0.7305676937103271,0.2896241671430686,0.9733076677309092,0.9694778990057256,0.15753546357154846,-0.029372144490480426,0.1876143962144852,0.13871261984109878,-0.26160980042070153,-9.974696184396743
40.5,1.2999999523162842,149.0,21.61540412902832,23.1953239440918,-79.78278146307083,40.45906155818581,319.2483692016602,-0.08037767559289932,0.090950608253479,-0.6770131587982178,0.7258930802345276,0.2425609045678325,1.423913140736606,1.0410006162498084,0.055503711104393005,-0.11033196747303008,-0.029453875496983525,0.18728070767596364,-0.2211795018799603,-10.046953736543657
40.7,1.399999976158142,146.0,21.54904556274414,23.99845314025879,-79.78277730673727,40.45906212124344,319.25319097900393,-0.09342707693576813,0.09582143276929857,-0.673262357711792,0.7271915674209595,0.1823929615889272,1.8781945327386875,1.1512570847075616,-0.12711110711097715,-0.23611252009868625,-0.10803059488534927,0.11494017074815928,-0.3775757646560669,-10.107295832633973
40.8,1.600000023841858,136.0,21.607891082763672,22.64665222167969,-79.78277465618945,40.45906208549332,319.31723974609383,-0.09935078024864197,0.09733805060386658,-0.6695920825004578,0.7295897006988525,0.2031729349719672,2.1172526844715835,1.2519748855515966,0.04019853100180626,-0.08602993190288544,0.03686624765396118,-0.16443282214924693,-0.3415648465231061,-10.17425346851349
41.0,1.7999999523162842,128.0,21.666736602783203,21.469789505004886,-79.78277226009851,40.459063297189886,319.2234554138184,-0.10509079694747923,0.09904317557811736,-0.6647329330444336,0.7329915165901184,0.1303867907230946,2.349970372120067,1.2753416443381491,-0.011306471191346644,-0.08600921183824539,-0.021631063893437386,-0.12148780974559488,-0.3889616091549397,-10.174258146286009
41.2,2.200000047683716,115.0,21.57533836364746,23.338457107543945,-79.7827654562726,40.459063540090014,319.33779714965823,-0.11299610137939453,0.10858568549156188,-0.656739354133606,0.7376546859741211,0.14820552919290694,2.8559681140416746,1.4725833927726644,-0.056815512478351586,-0.2467066496610641,-0.040080323815345764,-0.2672352421469987,-0.1090425137244165,-10.032934452295304
41.3,2.5,108.0,21.594118118286133,23.068096160888672,-79.78276252706047,40.45906551654951,319.2061214294434,-0.11454318463802338,0.11669318377971648,-0.654976487159729,0.737745463848114,0.04786054385083746,3.0883455852676565,1.5157582791105897,-0.014142956584692,-0.1610761135816574,-0.09360968321561812,-0.2649237098917365,-0.00535581199452281,-10.13643484711647
41.4,3.0,93.0,21.670494079589844,21.366416931152344,-79.78275482602297,40.45906807435018,319.13652990722665,-0.11267361789941788,0.1298903524875641,-0.657410204410553,0.7336518168449402,-0.09058567390815296,3.568680102782924,1.706318431034913,0.07494349032640457,0.014751307666301727,0.044259428977966316,-0.6592052985727788,-0.21383633092045784,-10.200263053178787
41.6,3.299999952316284,85.0,21.73434829711914,19.80786895751953,-79.78275007690965,40.459068531753225,319.17800711059573,-0.10465319454669952,0.12560267746448514,-0.6619281172752379,0.7315210103988647,-0.09888618320195937,3.80356324556232,1.7803809970186248,0.05526284500956535,0.4568504393100738,0.058756556361913674,-0.7512962407618762,-0.3518301817774773,-9.895563476085664
41.8,3.799999952316284,78.0,21.69428253173828,20.348588943481445,-79.78274109013219,40.45907201040349,319.081087097168,-0.07211904227733612,0.09462490677833556,-0.672624409198761,0.7303571105003357,-0.3125661123679461,4.2726526498003645,1.4767365694561283,-0.0818176418542862,0.348293274641037,0.10387919098138808,-0.7564945616573095,-0.2560264221020043,-9.390611965656284
41.9,4.099999904632568,75.0,21.83451271057129,17.692697525024414,-79.78273572126012,40.45907260875446,319.10293386840823,-0.05801786482334138,0.0815110057592392,-0.6780300140380859,0.7281931638717651,-0.31323968386683143,4.494785240913938,1.275254510353976,0.02405815757811069,0.33327922224998474,0.1675633192062378,-0.6032827107980848,-0.3618417844176293,-9.574874103069304
42.1,4.599999904632568,84.0,21.85204124450684,17.128120422363278,-79.78272616157038,40.459077228841366,318.97564123535165,-0.03944411873817444,0.05898424983024597,-0.6842535138130188,0.7257838249206543,-0.5546734785975735,4.696252851956813,0.8579320975971603,-0.12253309041261673,0.15227307379245758,0.07826495915651321,-0.7613002420216799,-0.22453099798411133,-9.551563593149185
42.2,4.900000095367432,88.0,21.832008361816406,17.493902206420902,-79.78271615824731,40.45908263936242,318.85327719116214,-0.02765453420579433,0.04316268488764763,-0.6837173700332642,0.7279442548751831,-0.7940913437098793,4.783870806659465,0.5463810801660791,-0.12193890661001205,0.11987857520580293,-0.17993201315402985,-0.6989529895037413,-0.0853601300250739,-9.427132505178452
42.4,5.400000095367432,84.0,21.70429992675781,19.65678596496582,-79.78271053789516,40.45908357186472,318.85146902465823,-0.019363481551408768,0.03932180255651474,-0.6831474900245667,0.7289639711380005,-0.7439036789835597,4.8077792076121,0.4373652880903352,0.004029554780572653,0.07490859925746918,0.029750805348157883,-0.9220007316023112,-0.20943385262042288,-9.466790075898171
42.5,5.599999904632568,83.0,21.80821990966797,18.14594841003418,-79.78270568400829,40.459088673525905,318.7483005371094,-0.01191819179803133,0.03352353349328041,-0.679205060005188,0.7330857515335083,-0.939204257705009,4.804593631271304,0.33794412148405995,0.07477278262376785,0.20047318935394287,-0.11326762288808825,-0.6962550842016936,-0.5350501260906458,-9.863036584854127
42.7,6.0,87.0,21.855796813964844,16.833906173706055,-79.78269453822256,40.45909091605488,318.7475643005372,-0.005422885995358229,0.02460031770169735,-0.6764598488807678,0.7360485792160034,-0.8481247660332216,4.791518493390966,0.21116404607921327,0.11656055599451065,0.03090725839138032,-0.16711290180683136,-0.7039957744628191,-0.294443853199482,-9.72394301891327
42.8,6.099999904632568,88.0,21.845781326293945,17.61318016052246,-79.78268920315439,40.45909574091525,318.6642703857422,-0.0055431099608540535,0.024214837700128555,-0.6719012856483461,0.7402240633964539,-1.0333045368803158,4.769422906356798,0.1396417962385257,0.12014733999967575,-0.0581534393131733,-0.03903777524828912,-0.8264764505624772,-0.4113606843352318,-9.614597747325895
42.9,6.300000190734862,88.0,21.803211212158203,17.95510482788086,-79.78267802185005,40.45910163010613,318.5855274047852,-0.002051084069535136,0.024204608052968986,-0.6663494706153871,0.7452438473701477,-1.1594150208137637,4.7465630025493635,0.09562974956558803,-0.2496827840805053,0.07851023226976395,0.1343499720096588,-0.8321995590627194,-0.11687257502228025,-9.667925523519516
43.1,6.4000000953674325,88.0,21.77316093444824,18.718475341796875,-79.78267260541195,40.459103080740405,318.579435333252,-0.0006215166649781168,0.01981317438185215,-0.6654291749000549,0.7461977601051331,-1.0830497750986745,4.7236610473660905,0.07239834093046943,0.024697775021195408,-0.11086895316839218,0.15534240007400513,-0.6853263457864524,-0.5718777175247669,-9.806202233433725
43.2,6.5,88.0,21.80696678161621,18.519681930541992,-79.78266724578774,40.45910452366454,318.57555578613284,0.002164649311453104,0.013505463488399979,-0.6643346548080444,0.7473101615905762,-1.0810865492375379,4.668615208259603,0.06631215226825092,-0.13604165613651276,0.08886908739805223,0.05648236721754074,-0.5588750448077917,-0.2481209682673216,-9.791563144326213
43.4,6.599999904632568,91.0,21.795698165893555,18.638957977294922,-79.7826559859131,40.45911028043891,318.4937496032715,0.013848154805600643,0.0010745434556156397,-0.6601949334144592,0.7509658932685852,-1.1635215555165053,4.586254564568167,-0.08927902309833853,-0.025760527700185776,0.20496338605880732,-0.3157924711704254,-0.6033640236407519,0.2794103693962097,-9.868187981843947
43.6,6.599999904632568,91.0,21.75438117980957,19.17172622680664,-79.78264523204567,40.45911456864019,318.4242954101564,0.024460900574922558,-0.01377885602414608,-0.6567875742912292,0.7535529136657715,-1.2269206066864708,4.405072757487517,-0.2529813796413056,-0.2618175446987152,0.20073142647743225,0.07902725785970688,-0.5323299648240208,-0.2939375574141741,-9.806876417398453
43.71,6.599999904632568,91.0,21.799455642700195,18.686668395996094,-79.78264033559053,40.45911617916924,318.4169063415528,0.02491966262459755,-0.02057408168911934,-0.6552466154098511,0.7547234892845154,-1.2245923437567996,4.2824523954416245,-0.3229489050123026,-0.2647680938243866,0.013089824467897415,0.021214501932263367,-0.7685704506933689,-0.2254562284983695,-9.734920581579207
43.8,6.5,96.0,21.74436378479004,19.259197235107425,-79.78262954365225,40.45911896258489,318.355257019043,0.01936267502605915,-0.01952713169157505,-0.6535918712615967,0.7563474774360657,-1.2099059139366726,4.140968573483851,-0.36501267287295786,0.09566803276538847,-0.1626211553812027,-0.19838248193264008,-0.2608059909939766,0.04436593148857355,-9.77845777988434
44.0,6.4000000953674325,98.0,21.76815414428711,18.78208923339844,-79.78261978796958,40.45912167699785,318.3085384216309,0.019207943230867386,-0.004460894502699375,-0.6554502248764038,0.7549808621406555,-1.1760981587288013,3.9734624551742415,-0.3085889390044293,0.2208505421876908,0.1757926493883133,0.04580247774720192,-0.6775166583806277,0.13660531986504793,-9.70229545712471
44.2,6.300000190734862,98.0,21.70805549621582,20.14979553222656,-79.78261539936562,40.459123272128096,318.29324148559573,0.015606964938342571,-0.003948982339352368,-0.6574434041976929,0.7533320188522339,-1.2571724642537518,3.887515192935746,-0.3246245963711345,-0.2789770066738129,-0.18894793093204496,-0.1353534311056137,-0.5915017041563988,-0.19878378884866835,-9.54643266141415
44.3,6.199999809265138,98.0,21.71431541442871,19.839675903320312,-79.78261059735678,40.45912446666149,318.236906036377,0.010736949741840364,-0.007019288372248411,-0.6586390733718872,0.7523496150970459,-1.2208308147841351,3.813776257931536,-0.3351176094518981,0.05424830690026283,0.11303529888391495,0.06157608330249785,-0.4052201211825013,-0.5647587324678898,-9.67216533958912
44.5,6.0,95.0,21.74812126159668,18.336790084838867,-79.78260194490791,40.45912723363483,318.1647434082032,0.018946615979075432,-0.010873883031308651,-0.6592973470687866,0.7515649795532227,-1.2556023222922952,3.644163209312088,-0.3273123283404914,-0.09302256256341934,-0.06129268929362298,0.04422563686966896,-0.7123810471594334,-0.3760151427984238,-9.77534647643566
44.61,6.0,95.0,21.725584030151367,20.78593635559082,-79.78259792111395,40.459128777475755,318.14434622192385,0.021799976006150246,-0.010708174668252468,-0.6591510772705078,0.7516182661056519,-1.2554761816869169,3.547622329041757,-0.3797733418728591,0.11782418936491013,-0.07100143283605576,0.21569012105464933,-0.4331374695897103,-0.4415050910040737,-9.636309043765069
44.7,5.800000190734862,95.0,21.6817626953125,20.849552154541016,-79.78259398774108,40.459130332412755,318.1213359680176,0.016677498817443848,-0.008517146110534668,-0.6586551070213318,0.7522120475769043,-1.2902021104088208,3.4755587867941724,-0.4147099699579758,-0.20231248438358307,0.0200651828199625,-0.1118052676320076,-0.3747217021510005,-0.02984633114654572,-9.677103313207628
44.9,5.699999809265138,95.0,21.61540412902832,21.533403396606445,-79.7825823074343,40.45913411330761,318.00139044189456,0.005352084524929524,-0.008273901417851448,-0.6555522084236145,0.7550856471061707,-1.2391098253967678,3.259182367391562,-0.3084472465840713,-0.07636438310146333,-0.08334290981292725,0.01854994893074036,-0.5359757037833334,-0.11230198013596238,-9.873114845752717
45.1,5.5,94.0,21.7205753326416,19.513652801513672,-79.78257871840808,40.45913562065685,317.97877691650393,0.00018879958952311424,-0.005376013461500406,-0.6546080112457275,0.7559494376182556,-1.2375368324458174,3.2122340617926066,-0.28834547698152196,-0.030516885221004486,-0.3449038863182068,-0.022866213694214814,-0.5995059576630593,-0.17402196345850826,-9.701164605617523
45.21,5.5,92.0,21.746868133544922,19.394376754760746,-79.78257519515694,40.45913713878871,317.9547901000977,-0.004747514147311449,0.0008504561264999211,-0.6542071104049683,0.756300151348114,-1.2358047975063111,3.1615184830518017,-0.2624923961909555,0.26738259196281433,-0.09038267284631728,-0.009156594052910805,-0.6536714936792851,-0.14945995752699673,-9.621532545089725
45.3,5.300000190734863,92.0,21.713064193725586,20.165699005126953,-79.78256800444419,40.459139545830816,317.8784923400879,-0.013527528382837772,0.013624975457787514,-0.6533206701278687,0.7568378448486328,-1.2172553497818377,3.1259423767882804,-0.2151628599170806,0.13936668634414673,-0.11154653877019882,0.18624654412269592,-0.5154640367254615,-0.4955978291854263,-9.632041161060334
45.51,5.300000190734863,92.0,21.683013916015625,20.889310836791992,-79.78256094404483,40.459141746169756,317.7939662780762,-0.020618455484509468,0.018026009202003482,-0.6527587175369263,0.757070779800415,-1.19404878313123,3.1160613452465395,-0.1773062321112619,-0.03725944459438324,-0.16787439584732056,-0.006975591648370028,-0.6115377367660404,-0.14409715628251435,-9.620807490348817
45.7,5.199999809265137,86.0,21.53151512145996,23.56110572814941,-79.782557527518,40.459143221072424,317.76176641845706,-0.02149404026567936,0.02077833563089371,-0.6524896621704102,0.7572077512741089,-1.1971960066569998,3.1180946919511365,-0.15433144884994515,0.09184102714061736,-0.07462359964847565,0.07851584255695343,-0.5134570895880461,-0.16447846697643398,-9.694677119851114
45.81,5.199999809265137,84.0,21.695533752441406,21.12786293029785,-79.78255406345319,40.45914393796337,317.71518133544924,-0.02032087184488773,0.02436289377510548,-0.6508980393409729,0.7585020661354065,-1.1349282426975835,3.1237782517024733,-0.11145948017622047,-0.06698315590620041,0.02526024542748928,-0.11499007046222688,-0.4352761983498931,-0.0046551328338682646,-9.901018928289414
46.0,5.099999904632568,82.0,21.602882385253906,22.583038330078125,-79.78254715005272,40.45914577847844,317.6393337097168,-0.0259729903191328,0.023764139041304592,-0.646022617816925,0.7625060677528381,-1.0044483614681774,3.137247980171051,-0.08178983495847544,0.08074811846017838,-0.027083069086074836,0.014128535985946657,-0.5474328477680683,-0.24227722439914945,-9.810511046648026
46.1,5.0,81.0,21.600378036499023,22.614845275878906,-79.78254368702234,40.45914712507193,317.6118564453125,-0.02970259264111519,0.02019489929080009,-0.6443057060241699,0.763924241065979,-1.0027642028422323,3.1615899853615166,-0.05209072230976225,-0.17234718799591064,-0.096011221408844,-0.06287696957588196,-0.5467811755836011,0.0141652727779001,-9.833328051567078
