time,wind_speed,wind_angle,battery_voltage,battery_current,position_x,position_y,position_z,orientation_x,orientation_y,orientation_z,orientation_w,velocity_x,velocity_y,velocity_z,angular_x,angular_y,angular_z,linear_acceleration_x,linear_acceleration_y,linear_acceleration_z
0.0,2.200000047683716,232.0,23.11661148071289,-0.02385532110929489,-79.78274819400094,40.45899354570035,284.10714414978025,-0.02293376438319683,-0.014265035279095171,-0.9921779036521912,0.12187568843364716,-0.012341455911727469,-0.00781676844544931,-0.002590944119317727,0.00579576613381505,0.004202365409582853,0.005004777107387781,0.19885464979335668,0.4603584146127105,-9.796749624609948
0.2,2.299999952316284,231.0,23.11911582946777,-0.015903547406196594,-79.78274818012356,40.45899355638795,284.1068209733963,-0.022959426045417786,-0.014280112460255625,-0.9921754002571106,0.12188933789730072,-0.016421184958677105,-0.009533857596267098,-0.0020708947678636023,-0.005452703684568404,-0.00412303488701582,-0.0038436176255345353,0.20032538898289204,0.4535381857305765,-9.799082078933717
0.3,2.299999952316284,229.0,23.112855911254893,-0.02385532110929489,-79.78274810459192,40.45899359199772,284.0897722568512,-0.022916128858923912,-0.014261804521083832,-0.992177426815033,0.12188303470611572,-0.012375232288558006,-0.010223061594603771,-0.0013918007751090359,0.0012454916723072527,-0.0019306424073874948,0.00543177081272006,0.2014979749917984,0.4518009414151311,-9.798517822623252
0.49,2.299999952316284,229.0,23.11786460876465,-0.03180709481239319,-79.78274802923454,40.45899360835949,284.07272246742247,-0.02290663681924343,-0.014249295927584171,-0.9921764135360718,0.12189467996358873,-0.007691851213973064,-0.0064232106116753965,-0.0010850632500094617,-0.004454870242625475,-0.0012274921173229814,-0.006856413558125496,0.20062800066545608,0.4608354377746582,-9.796711032986641
0.6,2.4000000953674316,231.0,23.10784721374512,-0.03180709481239319,-79.78274802226916,40.45899361585869,284.072565826416,-0.02289564348757267,-0.014235493727028368,-0.9921770691871644,0.12189296633005142,-0.00959944277453827,-0.008404708830802611,-0.0009096413141358693,0.0048184916377067575,0.0029121323022991428,0.006030982825905086,0.20514217905700208,0.44243980497121815,-9.799079740047457
0.8,2.4000000953674316,231.0,23.11160469055176,-0.03180709481239319,-79.78274793952755,40.458993619402975,284.0527085390092,-0.022895514965057373,-0.014238166622817516,-0.992172360420227,0.12193088233470915,-0.007450265921641565,-0.0039543518745806016,-0.003941729363177264,0.0071102892979979515,0.0037732692435383797,0.003912052139639853,0.19979042356833812,0.4558330351486802,-9.799272113442422
0.9,2.4000000953674316,229.0,23.11661148071289,-0.039758868515491486,-79.78274793180883,40.45899362445074,284.0522896375656,-0.022899750620126724,-0.014236876741051676,-0.992168664932251,0.12196001410484315,-0.010616779377063307,-0.005586432747074485,-0.003432360139916496,0.0012348791351541875,0.0021152731496840715,0.00481208972632885,0.2026212982088328,0.4422441059723496,-9.800157381892204
1.1,2.4000000953674316,228.0,23.11160469055176,-0.05566241592168808,-79.78274784309127,40.45899365571966,284.03269842529295,-0.022861916571855545,-0.014216349460184576,-0.9921664595603944,0.12198754400014875,-0.010783773133766451,-0.006807722099905366,-0.004745770976007987,0.004863320849835873,0.0018059434369206426,0.009084307588636877,0.20397576916962865,0.4425646795704961,-9.799607743620873
1.2,2.4000000953674316,228.0,23.11536026000977,-0.039758868515491486,-79.78274783095942,40.45899366508198,284.03217259311674,-0.02286325395107269,-0.014238210394978525,-0.9921668767929076,0.12198171764612198,-0.014652409925545718,-0.008622970727246142,-0.004159845155233885,-0.007960936054587364,-0.006441494449973106,-0.00571307772770524,0.1997494199685753,0.4571784429252148,-9.799190252423287
1.39,2.299999952316284,226.0,23.1103515625,-0.05566241592168808,-79.78274777276259,40.45899369330849,284.0139468040466,-0.022815050557255745,-0.014223454520106316,-0.992165505886078,0.12200330942869185,-0.010600107457079648,-0.009443120501196388,-0.003032793259082989,-0.0019344853935763238,-0.0001941067021107301,0.005704388953745365,0.2004276787117124,0.4423772397637368,-9.798738847374915
1.5,2.299999952316284,226.0,23.10659599304199,-0.015903547406196594,-79.78274770554276,40.458993722027756,283.994017991066,-0.02280354686081409,-0.01422723289579153,-0.992165982723236,0.12200133502483368,-0.00841913852910372,-0.009741535630574366,-0.005147282788681202,-0.002278933534398675,-0.0005452783079817891,-0.006234127096831799,0.2004665992408991,0.4598608896508813,-9.796437968015672
1.7,2.200000047683716,225.0,23.11786460876465,-0.03180709481239319,-79.78274768875609,40.45899374593543,283.9928729858398,-0.022793088108301163,-0.01421969570219517,-0.9921634793281556,0.12202446162700653,-0.014110038352524034,-0.013566648250012886,-0.004523139010481723,-0.004406305495649576,-0.0032365459483116865,-0.008145837113261223,0.19864681782200933,0.4581600077077746,-9.797450121045113
1.8,2.0999999046325684,229.0,23.12036895751953,-0.02385532110929489,-79.78274758346548,40.458993766970856,283.9722817268372,-0.022799739614129063,-0.0141952158883214,-0.9921656847000122,0.12200817465782166,-0.015756710774204888,-0.01122007436823007,-0.006452592109256954,0.0030740390066057444,0.00262026721611619,0.0010580095695331693,0.20208302546292545,0.4479322408139706,-9.797519118189813
1.99,2.0,229.0,23.11911582946777,-0.015903547406196594,-79.78274754020013,40.458993758252134,283.9513672914505,-0.02274952456355095,-0.01415204256772995,-0.9921671748161316,0.12201042473316193,-0.009419545519135866,-0.004872731708283603,-0.007818528217120478,-0.0004087114066351205,0.0013319574063643813,-0.0037025937344878908,0.1997519963979721,0.4578557697683573,-9.796080703139305
2.09,2.0,229.0,23.11536026000977,-0.02385532110929489,-79.78274753095228,40.45899376413779,283.95052901172636,-0.022756803780794144,-0.01415161695331335,-0.9921650886535645,0.12202589213848115,-0.011618547397451672,-0.006561931460207681,-0.007704048974029334,0.001744366716593504,0.0042929481714963896,0.00899070780724287,0.2038085388019681,0.4399695025384425,-9.799223581552504
2.29,2.0,229.0,23.11911582946777,0.0,-79.78274746559049,40.45899381272018,283.92724111938475,-0.022757655009627342,-0.014159199781715868,-0.9921641945838928,0.12203224003314972,-0.011863833391045691,-0.012054519871015338,-0.010724201973282187,0.0061409142799675465,0.0024122323375195265,0.005360562819987536,0.19861853191629053,0.4617006795108319,-9.796542048454283
2.4,1.8999999761581416,230.0,23.112855911254893,-0.007951773703098297,-79.78274745537286,40.45899382560477,283.9261031475067,-0.0227622389793396,-0.014153040945529938,-0.9921625256538392,0.12204587459564208,-0.01541438250168741,-0.013545816937475846,-0.010198892187340476,-0.004048848990350962,-0.005001866724342108,-0.003470171010121703,0.20046400453895333,0.4514829259738326,-9.79960306584835
2.59,1.8999999761581416,233.0,23.11911582946777,-0.015903547406196594,-79.78274743950816,40.45899380582646,283.90418711566923,-0.02274118363857269,-0.014115442521870138,-0.9921624660491944,0.1220548078417778,-0.0070846214573041764,-0.007793762716564347,-0.01064971078464096,0.0007141671958379447,-0.002725160680711269,0.010080820880830288,0.20208227628842,0.4415547923371196,-9.799331755042076
2.7,1.8999999761581416,232.0,23.11536026000977,-0.02385532110929489,-79.78274743305714,40.4589938148753,283.9030800189972,-0.02273033559322357,-0.014114782214164734,-0.9921631813049316,0.1220511794090271,-0.009912072264939164,-0.009607455098498384,-0.010260767022316855,-0.001198069308884442,-0.0027577863074839115,-0.008595164865255356,0.19932271940633656,0.4608333547040821,-9.795978376865387
2.9,1.8999999761581416,232.0,23.11786460876465,-0.02385532110929489,-79.78274732780025,40.45899384561873,283.88058939838413,-0.0227370634675026,-0.014106681570410728,-0.992163360118866,0.12204918265342712,-0.016094681367812648,-0.009768488712642685,-0.010042470233429851,-0.001856242655776441,-0.006269198842346668,-0.004058904014527798,0.2007591244764626,0.4512583928927779,-9.79863242805004
2.99,2.0,229.0,23.11786460876465,-0.02385532110929489,-79.78274730766299,40.45899385219414,283.85936525726316,-0.022717282176017758,-0.014097522012889385,-0.9921625256538392,0.1220606341958046,-0.0090953631017729,-0.008368853678186017,-0.010475634485707356,0.003104058094322681,0.00040420348523184657,-0.002695980714634061,0.2002787026204169,0.4550436975806952,-9.798593251705169
3.2,1.8999999761581416,229.0,23.11786460876465,-0.015903547406196594,-79.78274728856573,40.45899387303096,283.8571790781021,-0.02273694239556789,-0.014091619290411472,-0.9921621680259703,0.12206045538187027,-0.014702793395650018,-0.011661590613434235,-0.00980121366347794,-0.005550534464418888,-0.004634125158190727,-0.003355720080435276,0.19898809421807528,0.4591990944743157,-9.796951353549957
3.3,1.8999999761581416,228.0,23.11911582946777,-0.007951773703098297,-79.7827472940273,40.45899390233477,283.8343198623657,-0.022703517228364944,-0.014097879640758038,-0.9921635985374452,0.12205476313829422,-0.008026031967385813,-0.014499506874223148,-0.010193690687201143,0.000976141425780952,-0.0017006424022838473,0.0013998548965901134,0.20123735362663867,0.4468391038477421,-9.798809598684311
3.5,1.8999999761581416,228.0,23.109100341796875,-0.007951773703098297,-79.78274720970319,40.4589938812242,283.81508913898466,-0.02271254546940327,-0.01409083977341652,-0.9921635389328004,0.12205389887094498,-0.010912618436590587,-0.005431542724400506,-0.006242655752424567,-0.0015248770359903574,-0.0027893066871911287,-0.004099774640053511,0.20039177315309645,0.460012588351965,-9.796143853068351
3.61,2.0,230.0,23.109100341796875,-0.03180709481239319,-79.78274719895431,40.458993888303105,283.81440356636045,-0.022718437016010284,-0.014078841544687746,-0.992163360118866,0.12205550074577333,-0.01253708101547589,-0.007206958590844395,-0.006107718183634104,0.006579845678061247,0.002252743113785982,0.0038303497713059187,0.20398651342839005,0.4422096074000001,-9.799208378791807
3.8,2.0,230.0,23.11911582946777,-0.007951773703098297,-79.78274714557254,40.458993884902675,283.7935562458038,-0.022711079567670826,-0.01409492734819651,-0.9921652674674988,0.12203974276781082,-0.011509221794896609,-0.0042747137719837715,-0.0038668210771344454,0.001780437654815614,0.005287636071443558,0.0027848880272358656,0.1998572280071676,0.4574084577709437,-9.799794854521751
3.9,2.0,230.0,23.11160469055176,-0.007951773703098297,-79.782747133258,40.4589938912505,283.79311898612974,-0.02270609326660633,-0.01408361829817295,-0.99216490983963,0.12204505503177646,-0.0144501809189557,-0.00586965318429062,-0.0034860468771840624,-0.0012561519397422671,-0.00481654517352581,0.004561341833323239,0.20144971719011665,0.44305953674018383,-9.799359821677207
4.09,2.0,230.0,23.11661148071289,-0.007951773703098297,-79.78274709020067,40.45899390245017,283.7721574630737,-0.022684141993522644,-0.014061903581023216,-0.9921679496765136,0.1220272034406662,-0.013196133336678307,-0.006597855629636971,-0.0028082191925736127,0.0009297717479057608,0.003062079893425107,0.008618864230811596,0.20407413030043245,0.4418208771944046,-9.798626580834386
4.2,1.8999999761581416,228.0,23.11410903930664,0.0,-79.78274707548562,40.45899391204169,283.77180782222746,-0.02269308269023896,-0.014059826731681824,-0.9921684861183168,0.1220208927989006,-0.01659036866498998,-0.008173879154372397,-0.002441082601322845,-0.005491769406944513,-0.004416961688548327,-0.005221000872552396,0.19916544757783414,0.4570878476276994,-9.797654188871382
4.4,1.8999999761581416,228.0,23.11786460876465,-0.015903547406196594,-79.78274702183963,40.458993951755055,283.7488593187332,-0.02268416248261929,-0.014059827663004398,-0.9921690821647644,0.12201745808124542,-0.01790144531791991,-0.012453965847374177,-0.0043085556666167795,0.0004684992018155754,-0.0009626589016988873,0.005649800878018141,0.20284712864086032,0.4409460606426001,-9.798544135093687
4.51,1.8999999761581416,229.0,23.11536026000977,-0.015903547406196594,-79.78274702964548,40.45899394499284,283.7265345182418,-0.02265748381614685,-0.01404891163110733,-0.992170512676239,0.12201251089572905,-0.009469383605267315,-0.009281046821354213,-0.006499666540072792,-0.003615315770730376,-0.0026636323891580105,-0.006931436248123646,0.20021122209727765,0.460512488745153,-9.796587072014805
4.7,1.8999999761581416,229.0,23.11661148071289,-0.015903547406196594,-79.78274701151521,40.45899396792521,283.7251128282547,-0.022639231756329536,-0.014052087441086769,-0.9921672940254213,0.12204209715127945,-0.014087491377246922,-0.012610416323723624,-0.006025862921636013,-0.003079634392634034,-0.005548512097448111,-0.001644743955694139,0.20064135789871212,0.4490151816979051,-9.798534194827079
4.8,1.8999999761581416,227.0,23.11661148071289,-0.007951773703098297,-79.78274699068926,40.458993932206475,283.7022477712631,-0.02262561768293381,-0.014023416675627232,-0.9921679496765136,0.12204205244779588,-0.009551562224173036,-0.005081822206975035,-0.008228326002408422,0.0012908282224088907,0.0015868842601776125,-6.2740029534325e-05,0.19933119786903264,0.455327031724155,-9.797051340937617
5.0,1.8999999761581416,228.0,23.126628875732425,0.02385532110929489,-79.7827469786811,40.45899393761711,283.679636510849,-0.022593684494495392,-0.014005658216774464,-0.9921669363975524,0.12205827981233595,-0.007856758286724327,-0.00581755199149317,-0.00879608598445304,-0.0026343648787587877,-0.0057696145959198475,-0.0078829824924469,0.19882661970332266,0.4594662756845355,-9.796551988720894
5.1,1.8999999761581416,228.0,23.11786460876465,-0.007951773703098297,-79.78274697251679,40.45899394413832,283.6787065591812,-0.02259414829313755,-0.013999523594975471,-0.9921685457229614,0.12204605340957644,-0.00877950703702024,-0.0075196529036521045,-0.00874739658677385,0.006239268928766251,0.003769494593143463,0.00455089844763279,0.20161844590678807,0.4458774926885963,-9.797616766691206
5.3,1.8999999761581416,227.0,23.11786460876465,-0.02385532110929489,-79.7827469519101,40.45899395977492,283.65743604564665,-0.02255932427942753,-0.013994414359331131,-0.9921700954437256,0.12204033881425858,-0.008786534045387895,-0.009411582528222223,-0.006793859196823726,-0.002574691781774163,-0.0008672915864735843,-0.0044377269223332405,0.20091440459713344,0.4474983043223621,-9.798020224571227
5.4,1.8999999761581416,227.0,23.11410903930664,-0.02385532110929489,-79.78274694461302,40.45899396993272,283.6566998090744,-0.02256113663315773,-0.013996855355799198,-0.9921692609786988,0.12204635888338088,-0.010593583009840106,-0.010974313720530343,-0.0066346105930233795,0.002139431657269597,0.0007401567418128253,0.004527110606431961,0.20440409598872067,0.4404844960570336,-9.799121255278587
5.59,1.7999999523162842,227.0,23.11410903930664,-0.015903547406196594,-79.78274692099303,40.45899394952371,283.6365193452835,-0.02254982851445675,-0.013962483964860441,-0.9921711683273317,0.12203720957040788,-0.009445475429883336,-0.006017889241726986,-0.004283465248929833,0.007181944325566292,0.003430341137573123,0.0008805685210973023,0.2016569278948009,0.4462912197411061,-9.797417376637462
5.7,1.8999999761581416,227.0,23.10409164428711,0.12722837924957275,-79.78274691043252,40.45899395765522,283.6360375013351,-0.02254807576537133,-0.013955156318843365,-0.9921703934669496,0.12204443663358687,-0.012585503494763074,-0.007327501697978864,-0.00402968993107025,-0.003497958416119218,-0.002660040045157075,-0.0008683477644808589,0.2005208138935268,0.44749187238514426,-9.798088636994363
5.9,1.8999999761581416,227.0,23.10409164428711,-0.015903547406196594,-79.78274690407706,40.45899392603579,283.6178595151901,-0.02251667156815529,-0.01392308808863163,-0.9921712875366212,0.12204669415950775,-0.00820129745180832,-0.0033929104567158395,-0.000367620449771494,0.001058082445524633,0.003136494662612677,0.004367134068161249,0.20331841422244906,0.4405687690526247,-9.7996931129694
6.0,1.7999999523162842,228.0,23.11160469055176,-0.015903547406196594,-79.78274688989889,40.45899394984148,283.5962907400131,-0.02250136993825436,-0.013937079347670078,-0.9921684861183168,0.12207061052322388,-0.008318151470691176,-0.00853508679017825,-0.002659106506156061,0.00619813334196806,0.0014356644824147224,0.007702463772147894,0.19951863767579198,0.4615198909118772,-9.795318810939788
6.2,1.7999999523162842,229.0,23.11160469055176,0.08746951073408127,-79.78274688124975,40.45899396000143,283.5959792461395,-0.02250653505325317,-0.013943154364824295,-0.9921671748161316,0.12207960337400435,-0.01155956793910827,-0.00999321207728227,-0.0022197270461922288,-0.0076080779545009145,-0.004917427431792021,-0.005555457901209593,0.19847386814653875,0.4567279880493879,-9.798717212677005
6.31,1.7000000476837158,229.0,23.10158729553223,0.07951773703098297,-79.78274685943157,40.458993920663815,283.57651499176023,-0.02248937077820301,-0.01393271517008543,-0.9921694993972778,0.12206538766622545,-0.008083701115229634,-0.003046468972901205,-0.0020267571860095846,0.005479791667312385,0.0035355158615857367,0.004246371332556009,0.2003593576513231,0.4489983344078064,-9.798509051799773
6.49,1.7000000476837158,228.0,23.10784721374512,0.05566241592168808,-79.7827468545687,40.45899392034175,283.55676570796965,-0.02245091274380684,-0.013933048583567142,-0.9921686053276062,0.1220790445804596,-0.006729118572707547,-0.005433821527566953,-0.0015960548890430804,0.0003816653916146606,0.0028374413959681988,-0.004563854541629553,0.20094588819891213,0.4555234981700778,-9.798385090827944
6.6,1.600000023841858,228.0,23.10784721374512,0.08746951073408127,-79.78274684792937,40.458993926585435,283.556563290596,-0.022449372336268425,-0.013919129036366941,-0.9921661615371704,0.12210052460432053,-0.008733584417644944,-0.006712845765690906,-0.00149238003450169,0.001202995772473514,0.0012194860028102994,0.010418012738227844,0.20304810840636486,0.4399663231149316,-9.798741770982742
6.79,1.600000023841858,226.0,23.10784721374512,0.007951773703098297,-79.78274684833133,40.45899390541475,283.53684571647636,-0.02245098352432251,-0.013902526348829271,-0.9921646118164062,0.1221151128411293,-0.005806639952957124,-0.005184571247597775,-0.001446111909893529,0.0037564451340585947,0.00025200191885232925,0.01028671395033598,0.2010565102100373,0.4593680424615741,-9.796314591765404
6.9,1.5,227.0,23.10409164428711,0.05566241592168808,-79.78274686200633,40.45899386363215,283.5193066921234,-0.022401606664061543,-0.013876033946871758,-0.9921663999557496,0.12211312353610992,-0.0010409852620747618,-0.0007176361176904027,0.0005924975673166601,0.007454925216734409,0.0008584089227952062,0.002701308578252793,0.1978534237481654,0.4592190846428275,-9.796297634840009
7.09,1.5,227.0,23.105342864990234,0.08746951073408127,-79.78274686006121,40.45899386450332,283.51937213802336,-0.022390635684132576,-0.013895285315811634,-0.9921652674674988,0.12212174385786055,-0.003847967003465987,-0.0018705936673980004,0.0009615233556571961,-0.005675793159753084,-0.0047531733289361,-0.0034685886930674314,0.20072943158447745,0.4532089143991471,-9.798406140804287
7.2,1.399999976158142,226.0,23.109100341796875,0.07951773703098297,-79.78274685593199,40.458993867838274,283.5194478359222,-0.022371349856257442,-0.013916865922510624,-0.9921660423278807,0.12211645394563675,-0.0048657398528532325,-0.0035892948108971288,0.0011238193865986325,0.003086121054366231,0.004241008311510086,0.002257566899061203,0.20073431035503747,0.4510071088001133,-9.798440054655076
7.4,1.399999976158142,227.0,23.1103515625,0.0,-79.78274680845594,40.45899388077117,283.5005408849716,-0.02237699180841446,-0.013926520943641664,-0.9921647310256958,0.12212537229061128,-0.01144838227073223,-0.007779096331186992,0.001026312972096781,0.0010292881634086366,-0.0005766022368334234,-0.005828884430229664,0.2005748092755676,0.4598348329961301,-9.796496440172195
7.49,1.5,226.0,23.109100341796875,0.05566241592168808,-79.78274684430895,40.45899387291717,283.4816425170898,-0.022349271923303604,-0.01392314862459898,-0.9921619296073914,0.12215321511030194,-0.005507105101622897,-0.009819167681609592,0.0002703618290283059,-0.004843989852815866,-0.0031548868864774704,-0.012646140530705452,0.20247374737635251,0.4415957959368825,-9.79938554942608
7.7,1.5,226.0,23.10409164428711,0.04771064221858978,-79.78274684073065,40.45899388359242,283.48161962890623,-0.022343458607792854,-0.013927021995186806,-0.9921624660491944,0.1221495047211647,-0.0062107401699352475,-0.011634536959199944,0.0003690153784529906,0.007454992737621069,0.0038523313123732814,0.005156605504453182,0.20215611565858127,0.44724756840616464,-9.799313628673554
7.8,1.5,230.0,23.109100341796875,0.04771064221858978,-79.78274682203818,40.45899384103365,283.4627184000015,-0.022316623479127884,-0.013892010785639286,-0.9921616315841676,0.1221652403473854,-0.007500406600178719,-0.00663890014853395,7.072848165972292e-05,-9.878001947072336e-06,-0.0003945105418097228,-0.006278504617512226,0.20133944235742093,0.44430985417217017,-9.799225920438767
7.99,1.600000023841858,230.0,23.10784721374512,0.07156596332788467,-79.78274682518358,40.45899380147864,283.4460084762573,-0.02230964414775372,-0.013876485638320446,-0.9921611547470092,0.12217186391353607,-0.003808624626500079,-0.003041764014189928,0.001532864010275724,0.0056028254330158225,0.0044820806942880145,0.0038145561702549453,0.20436278175562625,0.4423929541558028,-9.79846168935299
8.1,1.600000023841858,230.0,23.109100341796875,0.07156596332788467,-79.78274682118929,40.45899380495099,283.4461465206146,-0.022297201678156853,-0.013870756141841413,-0.9921627640724182,0.12216196209192275,-0.006305234010444178,-0.0041995886895776855,0.001826061924555521,-0.007954723201692104,-0.005595443770289421,-0.008245333097875118,0.19925333853811025,0.4545660531520844,-9.79739515721798
8.3,1.600000023841858,230.0,23.10659599304199,0.10337305814027786,-79.78274682414636,40.45899377804976,283.42977491283415,-0.02227480709552765,-0.01386931352317333,-0.9921631813049316,0.12216296792030334,-0.003926253339852085,-0.0038407402069314213,0.0034969684111093623,0.0031288436148315672,0.0004418399767018856,0.00703002419322729,0.2008493177779019,0.4520936676487327,-9.797275289297104
8.4,1.7000000476837158,232.0,23.10784721374512,0.07951773703098297,-79.78274682049219,40.45899378249689,283.4301020231247,-0.02224910631775856,-0.01385746244341135,-0.9921635389328004,0.12216610461473465,-0.005804288206073581,-0.005273319519918486,0.003784803877179321,-0.006883079186081886,-0.0025625359266996392,-0.007315995171666145,0.19909458663314586,0.4612391149252653,-9.795671982765198
8.6,1.7000000476837158,232.0,23.105342864990234,0.06361418962478638,-79.78274680605261,40.458993742002534,283.41135826969145,-0.022241028025746342,-0.013847454451024529,-0.9921643137931824,0.122162364423275,-0.006453012270830711,-0.002458985136298699,0.002244492649901832,-0.006829835008829832,-0.00437488267198205,-0.005584638100117445,0.1999491389282048,0.4544432616233826,-9.798635936379434
8.7,1.7999999523162842,232.0,23.10784721374512,0.10337305814027786,-79.78274679925867,40.4589937463933,283.411549123764,-0.02224854566156864,-0.01384950801730156,-0.9921629428863524,0.12217175960540773,-0.006987683545128928,-0.004216796571923429,0.0023069410971585987,0.003847693558782339,0.00278741167858243,0.0049253301694989204,0.2000181726180017,0.45028556238859896,-9.797498652935026
8.89,1.7999999523162842,231.0,23.10784721374512,0.07156596332788467,-79.78274680918958,40.45899373224193,283.3928146686554,-0.02224668860435486,-0.013860242441296576,-0.9921628832817078,0.12217120081186295,-0.005820874805302584,-0.006485028376415561,0.0011538319906085144,-0.0007416234002448617,0.00015399657422676682,-0.0036612735129892826,0.2014247751608491,0.459101555608213,-9.795931014418603
9.01,1.7000000476837158,229.0,23.10409164428711,0.03180709481239319,-79.78274679596149,40.45899368193274,283.37630239391325,-0.022239243611693386,-0.013856046833097936,-0.9921629428863524,0.12217290699481965,-0.00433958567899568,-0.0015365120328180973,0.002766006456761768,0.0030710094142705198,0.003643108299002051,0.009052210487425327,0.2033981556259096,0.4402479030936957,-9.799111899733543
9.2,1.7000000476837158,232.0,23.1103515625,-0.02385532110929489,-79.78274678429064,40.45899368887371,283.3768197622299,-0.022250564768910408,-0.013869591057300571,-0.9921613335609436,0.12218210101127625,-0.00694379750186963,-0.00433238392676596,0.00304337995340071,0.004111515823751688,0.006446646992117167,0.0061614629812538615,0.20395146667957306,0.4429550908505917,-9.79906687617302
9.3,1.600000023841858,229.0,23.11160469055176,-0.015903547406196594,-79.78274679425526,40.45899363634178,283.3582672204971,-0.022255659103393555,-0.013853253796696665,-0.9921588301658628,0.12220390141010284,-0.003970634548855504,7.581792646220963e-05,0.0016882994830447007,-0.003249351168051362,-0.00657258415594697,-0.006010754965245725,0.1979289807379246,0.4551127678155899,-9.797899187207225
9.49,1.600000023841858,229.0,23.11661148071289,0.02385532110929489,-79.78274678165401,40.45899361535145,283.33959117794035,-0.022237520664930344,-0.013851446099579334,-0.9921540617942808,0.12224575132131575,-0.005093460349849239,-0.002012445761542619,0.0008249341556148581,-0.002815813757479191,-0.004367313347756864,0.0015326796565204859,0.20183075465261932,0.4458625822886825,-9.798700840473176
9.6,1.600000023841858,230.0,23.112855911254893,-0.04771064221858978,-79.78274677700479,40.45899361848778,283.3396487560272,-0.022223634645342827,-0.01384994853287935,-0.9921540021896362,0.1222488284111023,-0.006257569801078645,-0.003679981023702679,0.0010400506773998095,-0.0016053634462878108,0.00015013923984952268,-0.0023336743470281363,0.2005998426675797,0.4570597444474697,-9.796946091055867
9.79,1.600000023841858,230.0,23.11536026000977,-0.007951773703098297,-79.78274679173109,40.458993577939744,283.3208204832077,-0.022226091474294662,-0.013845582492649557,-0.9921503067016602,0.12227874249219894,-0.003709165569139525,-0.002410590386959781,0.00014562604668722626,-0.006523442920297384,-0.005711324047297239,-0.006261530797928572,0.2039489998854697,0.4406134637072683,-9.799496646523476
9.91,1.600000023841858,230.0,23.11536026000977,0.007951773703098297,-79.78274678847887,40.458993580974095,283.32081523799894,-0.022229798138141632,-0.013837092556059359,-0.9921472072601318,0.12230443209409715,-0.0041920275999030015,-0.00403731669199697,0.00024299604831363027,0.0043946909718215466,0.002271301345899701,0.003139951266348362,0.200750335380435,0.4500189293548465,-9.797721431851388
10.09,1.600000023841858,229.0,23.11536026000977,-0.007951773703098297,-79.78274677301894,40.458993521926324,283.302417429924,-0.022202940657734867,-0.013844044879078863,-0.9921397566795348,0.12236875295639038,-0.00498471180422056,0.000596187739097693,-8.723342244199585e-05,-0.002364447107538581,-0.0010387407382950187,-0.007457675412297249,0.20022523714229465,0.460920441672206,-9.796202325224876
10.21,1.600000023841858,229.0,23.11410903930664,-0.015903547406196594,-79.7827467670514,40.458993523288115,283.3023805942535,-0.02220904268324375,-0.013853548094630241,-0.9921383261680604,0.12237813323736192,-0.005388894602543472,-0.0010024140151378702,-0.00015703035336347526,0.005015787202864885,0.0025002192705869675,0.004842483438551426,0.2035118291527033,0.446064640134573,-9.79740626692772
10.4,1.5,227.0,23.11410903930664,-0.02385532110929489,-79.78274677423045,40.45899348617164,283.2840520467758,-0.02220277115702629,-0.013837892562150957,-0.9921368956565856,0.12239320576190947,-0.0044681571496051065,-0.0015411912383566885,-0.0004921987425075396,0.0015234235906973481,0.0018786508589982984,-0.00396003108471632,0.2012579833343625,0.4587288321554661,-9.795710574388504
10.5,1.5,227.0,23.112855911254893,-0.007951773703098297,-79.7827467668968,40.458993440652044,283.2677892770767,-0.02220078743994236,-0.013817908242344856,-0.9921354055404664,0.1224074885249138,-0.0034303624296958034,0.0006109153451947527,0.0019197206946851308,0.005079477559775114,0.0005549642373807728,0.011258860118687151,0.2047596249729395,0.44169508896768095,-9.798133660554887
10.7,1.5,226.0,23.11410903930664,0.007951773703098297,-79.78274675574599,40.458993443644,283.26816717052463,-0.022219151258468628,-0.013815106824040413,-0.9921307563781738,0.12244242429733275,-0.006248258890465754,-0.0021322992967398677,0.002271447156858965,3.8714159018127254e-05,0.004824703559279442,-6.894058606121689e-05,0.2011480191349984,0.4515054742991925,-9.797792767882347
10.8,1.5,226.0,23.11661148071289,0.007951773703098297,-79.78274672601509,40.45899341328651,283.24754861259464,-0.02223467268049717,-0.013836001046001913,-0.9921283721923828,0.12245675176382065,-0.009711481465563459,-0.002053727879432129,-0.001886092650126863,-0.0015362997073680162,-0.0020574943628162146,0.008401423692703247,0.20260271502658725,0.4418178439512849,-9.798301475644113
11.0,1.5,225.0,23.112855911254893,-0.015903547406196594,-79.78274676973862,40.45899334369232,283.22987166309355,-0.022191183641552925,-0.013837103731930256,-0.9921320676803588,0.12243380397558212,-4.6502208971278476e-07,0.0014621763862625384,-0.002266151929886693,0.007165926508605479,0.0026462632231414322,0.004509431775659323,0.2019339580088854,0.4468858815729618,-9.798195056319237
11.11,1.5,223.0,23.11536026000977,0.0,-79.78274676860863,40.45899334232732,283.2296548213958,-0.02219612896442413,-0.013834713026881218,-0.9921302199363708,0.1224488765001297,-0.002113119968849201,0.00047206264517859445,-0.002076974318770982,0.0005126132746227086,-0.0018585758516564965,-0.0014692443655803802,0.2012006075307727,0.4460754574835301,-9.797280551791193
11.29,1.399999976158142,222.0,23.112855911254893,-0.007951773703098297,-79.78274678372003,40.45899330973634,283.21202639007566,-0.022196687757968903,-0.013846672140061857,-0.9921287894248962,0.12245877832174301,-0.0007416418371094504,-0.002997347703520595,-0.0020247623998052365,0.004229346755892038,0.0002035951474681497,0.004480804782360792,0.20155215309932828,0.4598954978585244,-9.795799452066422
11.41,1.399999976158142,218.0,23.11410903930664,-0.02385532110929489,-79.7827467833265,40.458993312624685,283.21181562805174,-0.02219095453619957,-0.013833361677825451,-0.9921295046806335,0.1224558800458908,-0.002946194122308491,-0.004114202487877136,-0.0018680311938464626,-0.00257212040014565,-0.003632995765656233,0.0034988061524927607,0.20097949141636487,0.444666241966188,-9.797623783349989
11.6,1.2999999523162842,218.0,23.10784721374512,-0.03180709481239319,-79.78274682957421,40.45899325345508,283.1947526063919,-0.022168414667248733,-0.013806648552417757,-0.9921303987503052,0.12245498597621918,0.002422781693038712,-0.004025689529312617,-0.002097541079532071,0.005891518667340279,0.005159942898899317,0.005259051453322172,0.20201170770451427,0.4455744607374073,-9.797975201010702
11.7,1.2999999523162842,218.0,23.112855911254893,-0.015903547406196594,-79.78274683231764,40.458993257043375,283.1945497121812,-0.02218824252486229,-0.013800058513879776,-0.9921275973320008,0.12247489392757414,0.0002983215858350933,-0.005022771885618092,-0.0019490680621022372,3.682764145196416e-05,-0.0020593330264091487,0.0020364890806376934,0.20094607092440128,0.44405593883246186,-9.797972862124443
11.9,1.2999999523162842,219.0,23.1103515625,-0.06361418962478638,-79.78274685867824,40.458993186627396,283.17802003288267,-0.022158941254019737,-0.013771889731287956,-0.9921294450759888,0.12246831506490707,0.0017509041794844884,-0.0037106802716190095,-0.00206912826879228,0.0065293037332594395,0.003549190005287528,0.0016748596681281926,0.20246559781953694,0.4472722363471985,-9.798713704347607
12.0,1.2999999523162842,214.0,23.11911582946777,0.03180709481239319,-79.78274687977122,40.45899310056621,283.1627186861038,-0.02217043563723564,-0.013769231736660005,-0.9921261668205258,0.12249331176280975,0.003663473457101068,0.0009852385315489924,-0.0021266708865354533,0.0004112176538910717,0.0014712669653818011,0.0026066401042044163,0.20166041795164347,0.4426346634328365,-9.798254113197327
12.2,1.2999999523162842,215.0,23.11410903930664,-0.007951773703098297,-79.78274688648366,40.45899309907775,283.16232791805265,-0.022156940773129463,-0.013765222392976284,-0.9921271800994872,0.12248845398426055,0.0015254714488711367,-0.001550243136110479,-0.002052331679580451,0.005035919137299061,0.003229251597076655,0.0016114164609462025,0.20193666234612465,0.4503441807255149,-9.79691393136978
12.31,1.2999999523162842,213.0,23.11536026000977,0.007951773703098297,-79.78274688699804,40.4589930233236,283.147513302803,-0.02215844392776489,-0.013755770400166513,-0.9921277165412904,0.12248455733060835,5.084332252745478e-05,0.0009511586369722011,-0.0018192636799038086,0.0026148355100303893,0.0021359336096793413,0.005494907498359679,0.2032871864363552,0.4411327695474029,-9.799028284549713
12.5,1.2999999523162842,213.0,23.10659599304199,-0.02385532110929489,-79.78274689476173,40.45899291941862,283.13285520935057,-0.022151174023747444,-0.013730831444263458,-0.9921261668205258,0.12250129133462904,-0.00013973407130081348,0.005795703380677826,-0.0017454590766516989,0.006010712590068579,0.003006829647347331,0.002693521324545145,0.2016708150319755,0.4513709883391858,-9.797326744794846
12.61,1.2999999523162842,213.0,23.109100341796875,-0.02385532110929489,-79.78274689231624,40.45899291444814,283.13269129657743,-0.022153712809085846,-0.013716115616261959,-0.99212384223938,0.12252108007669447,-0.0015940000139793554,0.004833965093847693,-0.0016970481954579884,0.0031483073253184557,-0.0011123903095722196,0.007516741286963222,0.20418087853118772,0.44142304725945,-9.798885612487792
12.79,1.2999999523162842,212.0,23.11410903930664,0.0,-79.78274694812946,40.45899282304397,283.1185654726028,-0.0221445057541132,-0.013717984780669212,-0.9921249747276306,0.122513547539711,0.003384514791998288,0.0029526697260003013,-0.0019252713203621343,0.004238020628690721,0.0029214916285127397,-0.0010029025143012404,0.19911490570753806,0.4586455824226141,-9.79766705274582
12.9,1.2000000476837158,213.0,23.11536026000977,-0.007951773703098297,-79.78274695097689,40.4589928196693,283.1184020366668,-0.022142553701996803,-0.013700307346880436,-0.9921245574951172,0.122519351541996,0.002073102308652949,0.0020391260337690267,-0.0017580166665675564,0.004208254162222147,0.00266660051420331,0.006336671765893698,0.2035878977738321,0.4413253987580538,-9.799794269800184
13.1,1.2000000476837158,213.0,23.112855911254893,-0.015903547406196594,-79.78274693326823,40.45899272838429,283.10505095386503,-0.022171741351485245,-0.013699991628527641,-0.9921231269836426,0.12252578139305115,-0.003250149371527593,0.0033671589736364665,-0.001341528507309138,0.002213414991274476,-0.0002757592301350087,0.0001283045276068151,0.20194895977154376,0.4527587518841029,-9.79751327097416
13.2,1.2000000476837158,208.0,23.112855911254893,-0.02385532110929489,-79.78274692771672,40.45899272669561,283.1049120750427,-0.022191330790519714,-0.013683490455150604,-0.9921218156814576,0.12253453582525252,-0.004565875780747854,0.0023730061716858244,-0.0012861201726731516,0.0015565009089186788,0.0009633630397729576,0.0071649826131761065,0.20402121299877765,0.4414236685261129,-9.798638275265693
13.39,1.2999999523162842,210.0,23.11160469055176,-0.04771064221858978,-79.78274698271754,40.45899265044334,283.0918836917877,-0.02216261811554432,-0.013668993487954141,-0.9921201467514038,0.12255458533763885,-0.0009803353909362117,-0.0015868723770402608,-0.001351668206302914,0.0053343079052865505,0.005375680513679981,-0.003593581262975931,0.20042221521958709,0.4554612618684769,-9.79667068719864
13.5,1.2999999523162842,212.0,23.11160469055176,-0.007951773703098297,-79.78274701861835,40.45899253439504,283.081275853157,-0.02216116338968277,-0.013659837655723095,-0.9921159744262696,0.1225896254181862,0.0030093134534493146,0.00349242320924224,0.001145895309009084,0.007925966754555702,0.0015540702734142542,0.009154005907475948,0.20452467653900386,0.4433628975972533,-9.797876967787744
13.7,1.2999999523162842,212.0,23.11160469055176,-0.06361418962478638,-79.78274702057192,40.45899252896725,283.08156410121916,-0.02215711213648319,-0.013663819059729576,-0.9921141266822816,0.12260499596595766,-7.740489545292533e-05,0.0015246170054834965,0.0014650728959365116,0.0015751472674310207,0.0007151070167310536,-0.005881420336663723,0.19977956967428329,0.4598329326510429,-9.79596434354782
13.81,1.2000000476837158,213.0,23.1003360748291,-0.039758868515491486,-79.7827470863947,40.458992418633926,283.06927708053587,-0.02212098985910416,-0.013644976541399956,-0.9921128749847412,0.12262395024299624,0.0037761204354666506,0.00100971830398183,0.00027383275590856567,-0.0026723542250692844,-0.0025949683040380482,0.003853678237646818,0.20217055097222328,0.4451843052729965,-9.79747760295868
13.99,1.2000000476837158,211.0,23.1103515625,-0.039758868515491486,-79.78274711894774,40.458992329490606,283.05765626096724,-0.02211095578968525,-0.013648851774632927,-0.9921122193336488,0.12263056635856627,0.003772568604743454,-0.0004254062463235077,-0.00011726219599719946,-0.004494629800319672,-0.0048655238933861256,-0.007339130621403457,0.19883732741698626,0.4598778465762735,-9.795693617463114
14.09,1.2999999523162842,207.0,23.112855911254893,-0.03180709481239319,-79.782747123715,40.458992328911975,283.05765387678144,-0.02211987227201461,-0.013632566668093204,-0.9921109080314636,0.12264159321784973,0.003405462156460939,-0.0015726859002352124,-0.00020311347798366596,0.003385598538443446,0.006215920206159353,0.003369668731465936,0.2012369516305625,0.4491799269989133,-9.797909127473833
14.29,1.2999999523162842,210.0,23.11536026000977,-0.02385532110929489,-79.7827471393436,40.458992195724655,283.0485462274551,-0.022138416767120358,-0.013611580245196821,-0.9921083450317384,0.12266059219837187,0.0011458103664605964,0.004231759641153455,0.002806998435681804,-0.0044706137850880606,-0.002282836241647601,-0.003073547501116991,0.20349470777437093,0.4418315849080682,-9.799145813584328
14.39,1.5,209.0,23.112855911254893,-0.03180709481239319,-79.78274714013627,40.458992191745054,283.04883781337736,-0.02211860939860344,-0.01360686682164669,-0.9921107888221741,0.12264502048492433,0.0007027135429866992,0.003160619190622236,0.002785573407183099,-0.0012403572909533978,0.0012483348837122321,-0.0005109734483994544,0.20145662421360613,0.4525031920149923,-9.796788216233256
14.6,1.600000023841858,211.0,23.09657859802246,-0.07156596332788467,-79.78274713226575,40.45899209209853,283.03787395620344,-0.02209224924445153,-0.013615616597235205,-0.9921080470085144,0.12267110496759415,-0.005530200720740336,0.0016921087755657435,0.0018205424675133085,-0.0031717142555862665,-0.003659892128780484,-0.005454768892377615,0.2056977924518288,0.4421216068044305,-9.798215521574019
14.7,1.600000023841858,215.0,23.11160469055176,-0.02385532110929489,-79.7827471253144,40.45899209241254,283.03802958393095,-0.0220867283642292,-0.013631420210003851,-0.9921084642410278,0.12266679108142853,-0.006418239379200994,0.0005674338686108248,0.0018855990848507648,0.0018014012603089211,0.0021014572121202946,-0.006135314702987671,0.20042702089995146,0.4573727897554637,-9.795919319987297
14.9,1.7000000476837158,217.0,23.112855911254893,-0.03180709481239319,-79.78274717146374,40.45899199096944,283.02717146539686,-0.02207934856414795,-0.013624032028019428,-0.9921051859855652,0.12269562482833862,-0.004153056155005832,-0.0015536092185318294,0.001032401017182927,-0.0017769086407497523,-0.002640859223902225,0.0008828758727759123,0.19899200454354288,0.4476001555100084,-9.797924914956091
15.0,1.7000000476837158,211.0,23.11410903930664,-0.015903547406196594,-79.78274719109784,40.45899187470591,283.01824406051634,-0.022092191502451897,-0.013609769754111769,-0.9921034574508668,0.1227090135216713,-0.003396417230477143,0.0008459207670749255,0.003009778289857797,-0.003697225823998451,0.00020061382383573798,-0.007687350269407035,0.2009455410204828,0.4593535706028343,-9.797385216951367
15.2,1.7999999523162842,214.0,23.11410903930664,-0.015903547406196594,-79.78274718091397,40.45899187629206,283.0188141789436,-0.0220979955047369,-0.013608022592961788,-0.9921018481254578,0.12272148579359055,-0.006111984519264358,-0.0007167504331843228,0.003196776688524809,-0.003482606029137969,-0.002930224407464266,-0.0031130360439419746,0.20049314925447104,0.4493763203546405,-9.798324279785156
15.3,1.7999999523162842,213.0,23.109100341796875,0.0,-79.78274724477475,40.45899173985058,283.00990698003767,-0.02208174392580986,-0.013607569970190523,-0.992103099822998,0.1227140873670578,0.0017545746779733381,0.0029677693416016128,0.0043748317157114094,-0.002069720532745123,0.0037398443091660734,-0.003223487176001072,0.2009969051554799,0.4570767744630576,-9.79678763151169
15.5,1.7999999523162842,214.0,23.091571807861328,0.278312087059021,-79.7827472263437,40.45899165023331,282.99941519165037,-0.02208517678081989,-0.0136081175878644,-0.992098033428192,0.12275442481040955,-0.009340743768166024,8.11341433960308e-05,0.003329329351969893,-0.01636984944343567,-0.004403567872941494,-0.014453429728746412,0.198721442911774,0.4636483139544726,-9.796918609142304
15.59,1.7999999523162842,216.0,23.091571807861328,0.2862638533115387,-79.78274721871493,40.458991652009466,282.999704870224,-0.022097891196608543,-0.013593412935733795,-0.9921029806137084,0.12271390110254288,-0.008253558257999264,-0.0013482796207907515,0.0031684432903551075,-0.0009391129133291543,-0.0016890154220163822,0.003829891560599208,0.20387824857607484,0.4575119900330901,-9.799508925676346
15.8,1.7000000476837158,219.0,23.09407615661621,0.2862638533115387,-79.78274724779368,40.45899149916408,282.99127581977837,-0.022079546004533768,-0.013555647805333138,-0.9921017289161682,0.1227310374379158,-0.005299034585176664,0.005772213265040218,0.005120667867738456,-0.005444424226880074,-0.0031337973196059465,-0.0032011393923312426,0.2061205095984041,0.4521696814522148,-9.798667511343957
15.9,1.7000000476837158,218.0,23.09282302856445,0.2862638533115387,-79.78274727179311,40.458991376270106,282.98062965536116,-0.02204758860170841,-0.013520081527531149,-0.9921028017997742,0.12273238599300385,-0.00428058275116966,0.005443874774154268,0.003370601382619969,0.002450381638482213,-0.00040565288509242237,0.01320954691618681,0.20111573154106732,0.455607771165669,-9.796570699810983
16.1,1.600000023841858,220.0,23.09282302856445,0.3101191818714142,-79.78274726467873,40.4589913724773,282.980969461441,-0.022045735269784927,-0.013509721495211123,-0.9921023845672609,0.12273700535297395,-0.006039853737662282,0.004655238125668615,0.0035673021413000078,-0.0005448993761092423,-0.008146672509610653,0.002751870546489954,0.193289416115731,0.4525819101557136,-9.794447575807572
16.2,1.600000023841858,219.0,23.08656311035156,0.3419262766838074,-79.78274725611674,40.458991369928185,282.9812996711732,-0.022040482610464096,-0.01351099368184805,-0.9920987486839294,0.1227673962712288,-0.007059184049275944,0.004079924346741846,0.003617927729711026,-0.004414484370499849,0.002273387275636196,-0.004491626750677824,0.1979213793575764,0.4597191312164069,-9.796881771683694
16.4,1.5,219.0,23.08781433105469,0.40554046630859375,-79.7827473046216,40.45899124503582,282.97022572422026,-0.022039176896214485,-0.013505222275853157,-0.9920957684516908,0.12279236316680907,-0.0040482185472714115,0.00467854258933506,0.0020828363217355607,-0.005671075079590082,-0.004405371844768524,0.0024484649766236552,0.20439395472407346,0.450740219950676,-9.79897449016571
16.5,1.5,220.0,22.276485443115234,28.10951995849609,-79.78274735615098,40.45899113506884,282.96076217556,-0.022023700177669525,-0.01350715383887291,-0.9921005964279176,0.12275579571723938,-0.0003243902826926878,0.002554290825328763,0.003856356426052082,-0.003019185038283468,-0.0029492257162928573,-0.003743079025298357,0.2064123770222068,0.4619084018468857,-9.798227216005326
16.7,1.5,220.0,23.06402587890625,0.3975887000560761,-79.78274735325293,40.45899113408978,282.96160915756224,-0.021849006414413445,-0.01360370684415102,-0.9920981526374816,0.12279582023620605,-0.005592747181770261,0.0022410964256266014,0.003968863433682307,-0.03889761865139008,-0.007423150818794966,-0.01969501562416553,0.21801910009235145,0.4583990857377648,-9.784385102391244
16.79,1.5,223.0,23.08781433105469,0.22264966368675232,-79.78274737698815,40.458990994754856,282.9522500362396,-0.021895306184887886,-0.013562003150582314,-0.99209862947464,0.12278912216424942,-0.003948176117642927,0.004561924477498224,0.004864683182626214,-0.002543898299336433,-0.016686460003256798,0.01828119158744812,0.19201433937996626,0.4798406062647701,-9.790893638134003
17.0,1.5,222.0,22.96511459350586,1.304090976715088,-79.78274741037599,40.458990872276345,282.93999997043613,-0.021863758563995358,-0.01356973871588707,-0.9920990467071532,0.12279000878334045,-1.8046528051368788e-05,0.0035978332317908868,0.00314183882309048,-0.0017496183281764384,0.017768653109669685,0.013752172701060772,0.18263197023421526,0.4222058441117406,-9.793771637678146
17.09,1.5,221.0,23.067781448364247,0.4214440286159515,-79.78274740685114,40.45899086864161,282.94031313323967,-0.021849896758794785,-0.013598131015896795,-0.9920977950096128,0.12279939651489258,-0.0028926677573346323,0.006218021303527755,0.004080525025848044,-0.032851215451955795,0.0028808426577597857,-0.002368052722886205,0.201449223831296,0.4604585116356612,-9.793968688845633
17.29,1.399999976158142,222.0,23.09031867980957,0.2703603208065033,-79.78274740396995,40.458990761743344,282.9275830712318,-0.021897874772548682,-0.013595250435173513,-0.9921010136604308,0.12276538461446762,-0.007021377110950161,0.00231605991906617,0.001726570832554044,-0.0002060238912235945,-0.010296943597495556,-0.0030549876391887665,0.2170357263274491,0.4227815755829215,-9.808215429782868
17.4,1.399999976158142,221.0,23.026464462280273,1.7891491651535034,-79.78274739267576,40.45899076060136,282.92773989105217,-0.021948771551251408,-0.013577834703028202,-0.9921069741249084,0.12270999699831008,-0.008679397859190459,0.0019299989156324614,0.0017772763657862738,0.0064625213854014865,0.003314542816951871,0.004505729302763939,0.2037394685670733,0.4343622785434127,-9.799389642477037
17.6,1.399999976158142,221.0,22.84616851806641,4.7074503898620605,-79.78274747012726,40.45899063044921,282.91452768707273,-0.02193875983357429,-0.013570995070040226,-0.9920993447303772,0.12277396023273468,-0.001580270600033926,0.001955975378968189,0.0011935755432104398,-0.0015704062534496188,-0.0004632633354049176,-0.011462708935141563,0.18102634308859708,0.4642010220140219,-9.7895493632555
17.7,1.399999976158142,220.0,22.77980995178223,5.454916954040527,-79.78274746767053,40.45899062940814,282.91463700199125,-0.02187671139836312,-0.013623684644699095,-0.9921010136604308,0.1227659285068512,-0.0012794745422836774,0.0015061464703293864,0.0014694934594918331,0.015720339491963387,0.008540932089090347,0.01457422971725464,0.17688687985762955,0.4209456595033407,-9.788222045302392
17.89,1.399999976158142,219.0,22.645841598510746,7.363342761993407,-79.78274752750612,40.45899051326886,282.90152290725706,-0.021725023165345192,-0.013717061839997768,-0.992100715637207,0.12278498709201813,0.00045315582534664845,-0.0021883654342741343,-0.0004982588407307908,0.007100077345967294,0.0014544192235916849,-0.008427691645920277,0.20862326407805087,0.4547555760294199,-9.80120110988617
18.0,1.399999976158142,218.0,22.56946563720703,8.969600677490234,-79.78274755825734,40.458990368271024,282.89024022483824,-0.02166931703686714,-0.013703505508601664,-0.9920904636383056,0.12287874519824984,0.004419669682742681,0.002910393900048228,0.0014854767875809275,0.04575541242957115,0.03298339992761612,-0.033251095563173294,0.22155050771310927,0.4041661605611444,-9.822282661199573
18.2,1.399999976158142,216.0,22.40419578552246,11.24380874633789,-79.78274755479713,40.458990363384025,282.8906578745842,-0.021351037546992302,-0.013911642134189606,-0.9921028017997742,0.12281164526939392,-0.00518494625609649,0.0013952712402293668,0.0002328389712962209,0.009675006382167341,-0.11566678434610367,-0.03210824355483055,0.2060442217066884,0.36676287420094017,-9.808415404558184
18.3,1.399999976158142,217.0,22.31529998779297,12.460430145263672,-79.78274760853026,40.4589902438223,282.8779808607101,-0.021238720044493675,-0.013948277570307257,-0.9921087622642516,0.12277869880199432,0.001257473975159468,0.006674665525084727,0.0036517177793266094,0.0031527983956038948,0.02064937725663185,-0.03795153275132178,0.30979356173425915,0.4367503545060754,-9.842166702747344
18.49,1.5,217.0,22.12123107910156,15.664994239807127,-79.7827476484197,40.458990120396656,282.86440316104887,-0.0197937935590744,-0.013841538690030577,-0.9921309351921082,0.12285315245389936,-0.0017061949242962355,0.004760751532758061,0.0027724380511923914,0.008386229164898396,0.04011701047420502,-0.009620146825909616,0.2219956087321043,0.4514450652524829,-9.801123926639557
18.6,1.5,218.0,22.05612564086914,17.470046997070312,-79.78274764640148,40.45899011930084,282.8646381821632,-0.01894519105553627,-0.01377422083169222,-0.9921699166297911,0.12267979979515076,0.0018608298883482925,0.001596549268020584,0.005760663439320275,0.02366734854876995,-0.033743441104888916,0.05362217500805855,0.2553505022451282,0.2709057221375406,-9.849195055961607
18.79,1.600000023841858,222.0,21.819488525390625,20.380395889282227,-79.78274769260703,40.45898998045679,282.8508910861015,-0.01690414734184742,-0.013720301911234856,-0.992167592048645,0.12300239503383635,0.005809799722746389,-0.0024646723504779073,0.007358651168418791,0.07572656869888306,0.02793045528233052,0.073757104575634,0.07402697898913176,0.2669419494643808,-9.770970420241357
18.89,1.600000023841858,221.0,21.699291229248047,21.946895599365234,-79.78274776347537,40.458989830537725,282.8368764247894,-0.01949266344308853,-0.011034536175429821,-0.9921057820320128,0.12338711321353912,-0.03886829602679478,0.02629874785585169,0.014422228267003468,-0.11142498254776,-0.1849500089883805,-0.08277466893196106,0.2613179512694478,0.16282900398597122,-9.890437806844712
19.09,1.600000023841858,221.0,21.515239715576172,25.11170196533203,-79.78274771211187,40.45898982868749,282.8389361824989,-0.023850606754422188,-0.008495161309838295,-0.9919609427452089,0.1239861324429512,-0.05931090741141246,0.01073182884055025,0.03154910744805658,-0.05813489481806755,-0.07208327203989029,-0.04721561819314957,0.11576399775221945,0.3831398654356599,-9.914140080213548
19.2,1.600000023841858,220.0,21.40005111694336,27.34615135192871,-79.78274761114439,40.45898982998029,282.84342500829695,-0.024246666580438614,-0.0036022798158228397,-0.9923816919326782,0.12073802947998047,-0.10656516756601994,0.024327343414139703,0.06746683220149281,0.021788133308291442,-0.11471430957317352,0.09156376123428343,0.12714843526482586,0.030357592497020962,-10.131919627189637
19.39,1.600000023841858,217.0,21.163414001464844,28.610483169555664,-79.78274726924924,40.458989677613694,282.8509475317001,-0.01896403729915619,0.01718747615814209,-0.992687165737152,0.11797136813402175,-0.20284104024847185,0.08844248681745318,0.2003182495271544,0.11034613847732544,-0.26548877358436584,-0.06421098113059998,0.13526592375710608,-0.15628856437280775,-10.54901438355446
19.51,1.7000000476837158,218.0,21.594118118286133,24.07001876831055,-79.78274721048463,40.45898974700352,282.8365677323341,-0.013925887644290924,0.01975839026272297,-0.9925023913383484,0.1198110654950142,-0.2413341251285253,0.09349559452373266,0.2820299337973676,0.1204778179526329,0.0278480127453804,-0.08205192536115646,-0.09359174885787072,-0.07116774078458547,-10.783915747404098
19.7,1.7000000476837158,218.0,21.45263671875,25.27868843078613,-79.78274655598388,40.45898963231083,282.89872643613813,0.0028908494859933853,-0.001102372887544334,-0.9924007058143616,0.1230095624923706,-0.2725421686866001,0.1537390739904057,0.32511084096878184,0.1697913259267807,0.30264613032341003,0.024143707007169724,0.1629846495576203,-0.2344143090583384,-9.975522980690004
19.8,1.7999999523162842,217.0,21.524003982543945,24.36423492431641,-79.78274603585251,40.45898931609146,282.9019040789604,0.008277902379631996,-0.009406616911292076,-0.9922303557395936,0.12378235906362535,-0.3059572923703214,0.1661087542689666,0.28265986740777843,0.06561912596225739,0.028230555355548862,-0.03814911097288132,0.2448946573957801,-0.12843217318877578,-9.820208069086076
20.0,1.7999999523162842,223.0,21.425090789794922,26.12952995300293,-79.78274538019649,40.45898916368125,282.92890015506737,0.01841416396200657,-0.016957901418209076,-0.9920547604560852,0.12329114973545074,-0.2895128389773561,0.12493396927092396,0.19844631292726927,0.008312934078276156,-0.13726288080215454,-0.005529718939214946,0.1728957166336477,-0.026225675828754902,-9.54334474682808
20.1,1.7000000476837158,220.0,21.351221084594727,26.60663604736328,-79.78274504531174,40.45898913435651,282.94857755565636,0.02249682880938053,-0.016130631789565086,-0.9921489953994752,0.12195945531129836,-0.26387222702015645,0.09819508093906247,0.1753410896933301,0.062268298119306564,0.024057962000370026,0.057341981679201126,0.11751120060682298,-0.2270894837379456,-9.559062647223476
20.3,1.7000000476837158,219.0,21.33369255065918,26.72591209411621,-79.78274432525522,40.458988858291065,282.97984501981733,0.019756525754928592,-0.013524786569178104,-0.992634117603302,0.118761844933033,-0.2252158454694488,0.08528304062131713,0.17833663379384312,0.11357256770133972,-0.02397347427904606,0.11419901251792908,0.1568289932794869,-0.14521288725547493,-9.68291252195835
20.4,1.7000000476837158,219.0,21.242292404174805,27.62446212768555,-79.78274365426014,40.458988844361365,282.99966714048384,0.014543392695486547,-0.005756142549216747,-0.9929693341255188,0.11733435094356535,-0.2340764039156914,0.045757568153884855,0.22807489720087598,0.009481237269937992,-0.051058221608400345,-0.0007905025850050151,0.2159492222964764,-0.2060622749850154,-10.001180562973024
20.59,1.7999999523162842,219.0,21.24730110168457,27.76759529113769,-79.78274339334699,40.45898886162761,283.0250871505737,0.01261426880955696,-0.0037481598556041718,-0.9929934740066528,0.11743473261594772,-0.21216679924147355,0.02989189312792425,0.2628555298722566,0.04784238710999489,0.08691823482513428,-0.011107103899121284,0.14651132544502618,-0.07764685772359371,-10.13264117360115
20.7,1.7999999523162842,219.0,21.358732223510746,26.479406356811523,-79.78274315850206,40.45898888114424,283.0534935917854,0.01513528823852539,-0.004653723444789648,-0.9929134845733644,0.11778010427951813,-0.21121012785633853,0.0259779249700856,0.2921932011912076,-0.10508384555578232,0.00908556208014488,-0.18774156272411344,0.0658816065872088,0.22418025640770795,-10.069295947551726
20.89,1.7999999523162842,219.0,21.284862518310547,26.48735809326172,-79.78274242742124,40.458988585741096,283.0919267859459,0.01218157634139061,-0.00627598911523819,-0.9928844571113586,0.11829067021608353,-0.2282836549470416,0.06025459051625054,0.3116769362032043,-0.1947058141231537,-0.1476352959871292,-0.07267984002828598,0.1344370261207223,-0.13362218007445334,-10.038717348575592
21.0,1.7999999523162842,221.0,21.27985382080078,26.90085029602051,-79.78274251744304,40.45898850501378,283.111758026123,0.00891832634806633,-0.005948169156908989,-0.9929091930389404,0.1183907687664032,-0.16135750149805006,0.04828976232621556,0.3361683224198737,0.18065936863422394,0.07845954596996307,0.06848149746656418,0.07903468522243202,-0.2789301302656532,-10.040312469005583
21.1,1.7999999523162842,218.0,21.282358169555664,26.01820373535156,-79.78274231473513,40.45898850261242,283.14678278827665,0.008250800892710686,-0.0053124381229281425,-0.9928857088088988,0.11866628378629684,-0.1692394390746656,0.0451361542024829,0.35507052429787234,0.017786527052521706,-0.0844385176897049,0.035936564207077026,0.1218060901388526,-0.1951181145384908,-10.025932996273044
21.3,1.7999999523162842,218.0,21.94344139099121,11.800432205200195,-79.78274203166644,40.4589885760115,283.19870499038694,0.010292579419910908,-0.0032591212075203657,-0.9927982687950134,0.1193113699555397,-0.17635458944747945,0.0087422102922435,0.3439324721800075,0.020056288689374924,0.0075880810618400565,0.07189768552780151,0.18127426503226168,-0.3061567580513656,-9.878442828655244
21.49,1.7999999523162842,220.0,21.13461685180664,28.57072448730469,-79.78274165571167,40.45898849249755,283.2400188770294,0.012507371604442595,-0.004182571545243263,-0.9926887750625608,0.11997995525598525,-0.15984791220134606,0.011534532488724877,0.14579330471734114,0.0651874989271164,0.10691593587398528,-0.0016528308624401689,0.10456248672679068,-0.1194584056455642,-8.88939858019352
21.6,1.7999999523162842,224.0,21.067005157470703,30.18493461608887,-79.78274147775934,40.45898851473729,283.2527278985977,0.0155011098831892,-0.006089539267122746,-0.9925976395606996,0.12030258029699326,-0.13996709873726812,0.008311201632940792,0.1130881124284428,0.17210978269577026,0.1076260358095169,0.13869468867778778,0.08604696772992611,-0.37125393781811,-9.431338407397268
21.79,1.7999999523162842,226.0,20.831619262695312,33.54058074951172,-79.7827410098938,40.458988378856134,283.3032820549011,0.014823948033154009,-0.011938709765672684,-0.9924736618995668,0.1209702044725418,-0.15483898878674715,0.03245331842331325,0.27626430531975915,-0.2658223211765289,-0.09744055569171907,-0.078006312251091,0.16950243121013045,0.08461089156568051,-10.461936478614808
21.9,1.7999999523162842,229.0,20.69639778137207,35.9976806640625,-79.78274086519441,40.45898838604077,283.33636942768095,0.011774393729865551,-0.010771920904517174,-0.9925171732902528,0.12105859816074373,-0.12885718761936502,0.027595226122088475,0.3833353798930599,-0.03666248545050621,-0.08526191860437393,0.03448550775647164,0.25604814816266297,-0.15325954221189025,-10.843170261383056
22.0,1.7999999523162842,231.0,20.49106216430664,38.96369171142578,-79.7827412602914,40.45898831504085,283.35102704429625,0.01060631312429905,-0.008648994378745556,-0.9925345778465272,0.12119342386722565,-0.0727910107992605,0.02920295135554725,0.5113036430721104,-0.09388044476509094,-0.0993923768401146,-0.007077875547111034,0.1771138431876898,-0.12143181351944805,-11.168074307441714
22.2,1.7999999523162842,233.0,20.412181854248047,40.45862579345703,-79.78274113979101,40.45898833565699,283.49122432136534,0.01162272784858942,-0.010009625926613808,-0.9925801753997804,0.12062063813209535,-0.06840387058729805,0.010535061814392472,0.8935196218588153,-0.051297858357429504,0.0006985311047174038,-0.005616553127765656,0.08438992163166405,-0.21457574788481,-11.678015831708908
22.4,1.8999999761581416,235.0,20.41719055175781,39.59983444213867,-79.78274115591151,40.458988312034066,283.68400410079954,0.009211456403136252,-0.008169518783688545,-0.9924880862236024,0.12172020226716995,-0.07335719078111334,0.01026886720217035,1.310774754111197,-0.09810438007116318,-0.06847637891769409,-0.052563298493623734,0.19158659728243949,-0.16470201333984733,-11.965638030767446
22.49,1.8999999761581416,236.0,20.300750732421875,41.34922409057617,-79.78274113307297,40.458988279644046,283.79631236457817,0.008878626860678196,-0.005999889690428972,-0.992285430431366,0.12351080030202866,-0.07103878657052437,0.0037685031816396134,1.5136628478408447,-0.008734984323382378,-0.019270025193691254,-0.09359393268823624,0.2002332770638168,-0.12690502664074302,-12.029440509080887
22.59,1.8999999761581416,236.0,20.33831214904785,40.63356399536133,-79.78274108573183,40.45898831153535,283.9595208492279,0.008002467453479767,-0.004305604845285416,-0.991946280002594,0.1263328492641449,-0.06961414042073938,0.0009094376566258916,1.74908014524235,0.05906569585204125,0.015333184972405434,-0.0038709472864866257,0.08256026390008629,-0.3450276772677899,-12.139123749732974
22.8,2.0,236.0,20.344572067260746,40.39501190185547,-79.7827410308631,40.45898833904226,284.30240538978575,0.010107220150530338,-0.0061612059362232685,-0.9911747574806212,0.13203208148479462,-0.0789298720945655,0.0011704689537420064,2.1734886804762925,-0.0370231457054615,0.05168180912733078,-0.1520867645740509,0.14917935512959954,-0.02376629581209273,-12.025798863172536
22.99,2.0999999046325684,235.0,19.812450408935547,37.81863784790039,-79.78274101599345,40.45898843928721,284.68057564163206,0.012182638049125671,-0.01030227541923523,-0.990809977054596,0.13431718945503235,-0.08248492972237058,0.02236667225319421,2.4944724973959302,0.0033347909338772297,0.05811091139912605,0.077410027384758,0.18874048333615065,-0.23562141191214325,-11.591408042907714
23.1,2.200000047683716,236.0,19.799930572509766,38.3673095703125,-79.7827409955807,40.458988468983605,284.93705562019346,0.011873353272676468,-0.010499102994799614,-0.9909124374389648,0.1335713416337967,-0.08444866164964418,0.03671100530200457,2.632137837370012,-0.09277581423521042,0.0029392645228654146,0.03098333813250065,0.2409927007555961,-0.08863319121301175,-11.276238441467285
23.29,2.299999952316284,238.0,19.81495475769043,38.02538299560547,-79.7827409826028,40.458988494583174,285.2072136726378,0.01028195209801197,-0.00841375719755888,-0.9912867546081544,0.1310500204563141,-0.07113905449641451,0.046244407953556166,2.7680607791462157,0.0052684596739709395,-0.0258037056773901,0.0958835631608963,0.2668445750512183,-0.1672848746739328,-11.200295974016194
23.41,2.4000000953674316,241.0,19.882564544677734,36.97574996948242,-79.7827410940324,40.458988672809724,285.6275980796814,0.010983383283019066,0.003920267801731825,-0.9926510453224182,0.12044865638017654,-0.041938312721086335,0.0275001078746672,2.915593015340097,0.07398670166730881,-0.12659049034118652,0.11236361414194107,0.31809898339211945,-0.07623052504844964,-11.067775847911838
23.6,2.5,243.0,20.15676498413086,32.880584716796875,-79.782741397303,40.458988893702475,286.0090322818756,0.015368636697530746,0.011913488619029522,-0.9940528869628906,0.10714873671531676,-0.043653227230523166,-0.034440082488528014,2.9933007263691467,-0.05876007676124573,0.013464298099279405,0.08611459285020827,-0.04541750297416002,-0.1334818012174219,-10.827196837663653
23.7,2.5,246.0,20.06035614013672,33.795040130615234,-79.78274145298691,40.45898885887493,286.311392578125,0.015616705641150475,-0.0013219168176874518,-0.994508683681488,0.10347424447536467,-0.04971178470242363,-0.03098610027831778,3.0481884227468736,-0.12372276932001115,0.3387839198112488,-0.06855589896440506,-0.02079440734349192,-0.0570489076897502,-10.442198617458343
23.79,2.5999999046325684,247.0,20.22938346862793,30.924448013305664,-79.78274157838105,40.45898909804371,286.4005749549865,0.010817480273544788,-0.017551401630043983,-0.9944262504577636,0.10339904576539992,-0.026550689893773648,0.031380304591848165,2.953346041639198,0.007510122377425431,0.4282545447349548,0.11220983415842056,0.2329453240334988,-0.4292325162515045,-10.154346038103103
24.0,2.5999999046325684,252.0,20.266944885253906,30.62228202819824,-79.78274134304986,40.458988931955155,287.20264414215086,-0.007794297300279139,-0.02189666219055653,-0.9934502840042114,0.11187642812728882,0.01848776602348704,0.1406287001823212,2.8503055032185713,-0.186091423034668,-0.2255604267120361,-0.15578730404376984,0.3553534581139684,-0.03784307920373976,-9.642177309393883
24.2,2.700000047683716,251.0,20.844141006469727,29.65216445922852,-79.78274133265799,40.45898895352548,287.48663786315916,-0.009335871785879135,-0.014218141324818134,-0.9931344985961914,0.11573483049869535,0.05341630982299109,0.09190661895281628,2.829947089058292,0.29032769799232483,-0.03061792254447937,0.04092396050691605,0.2721918903104961,-0.2445697897486389,-9.668344768881802
24.31,2.700000047683716,256.0,20.855409622192386,30.733606338500977,-79.78274046980786,40.45898893961432,287.6403696861267,-0.006190462503582239,-0.007806528825312853,-0.9928284287452698,0.11913269758224487,-0.034840614403692516,0.0587137780312941,2.7571209695918117,0.0738704726099968,-0.033553089946508415,-0.07042509317398071,0.14117819881998006,-0.027344814632087943,-9.691371688842773
24.5,2.799999952316284,260.0,20.99438667297364,27.218921661376953,-79.78274000190297,40.45898979995025,287.7144220199585,0.0027910266071558,-0.00967575516551733,-0.9923439025878906,0.12309416383504868,-0.11065851468197804,-0.03498934986109913,2.472208308974034,0.2455454617738724,0.2265686243772507,-0.01945535838603973,0.17553215308114886,-0.15311219237744808,-9.440044326782226
24.6,2.799999952316284,267.0,20.8629207611084,29.26252746582031,-79.7827398648492,40.458989882711776,287.9579875793457,0.005441579502075911,-0.015421150252223015,-0.9921249747276306,0.12418054044246675,-0.14731612546499073,-0.014938394172305509,2.39730711764683,-0.0029019871726632127,0.10288458317518234,0.004820444621145725,0.2550781864486635,-0.05607515898998827,-9.19770530462265
24.79,2.9000000953674316,277.0,20.81909942626953,30.10541534423828,-79.78273972758743,40.4589899660832,288.1942870941162,0.005234986543655396,-0.020794933661818504,-0.9919248223304749,0.1250019073486328,-0.16174437716476087,0.010839079900896569,2.33179104567016,-0.15148219466209412,0.13402986526489258,-0.12726379930973053,0.23602494288235906,0.16495134226977826,-9.148324398994447
24.9,2.799999952316284,288.0,20.78529357910156,31.81504821777344,-79.78273931142554,40.45899011051126,288.8840196456909,0.000729687511920929,-0.02411084808409214,-0.9919142723083496,0.12459627538919447,-0.1361030440240064,0.01048230207873243,2.3122441901487765,-0.05877829343080521,-0.1449640840291977,-0.06786236912012099,0.33306591857224704,0.15134731996804476,-9.287896851897239
25.09,2.799999952316284,295.0,20.7802848815918,30.892641067504893,-79.78273891822589,40.4589899242335,289.51835754776,0.002808149438351393,-0.021045573055744168,-0.9920876026153564,0.12373921275138855,-0.1322917286815033,-0.01605126818190411,2.3104333208215566,-0.04362806677818298,-0.08869043737649918,0.06683079898357391,0.2522686176002026,-0.044309907853603364,-9.457625150084496
25.19,2.799999952316284,309.0,20.686382293701172,32.18878173828125,-79.78273880322925,40.458990067752005,289.7473504867553,0.0037503519561141725,-0.021117329597473145,-0.992157816886902,0.12313760817050935,-0.1341236159296001,-0.0445925951666572,2.27802737705143,0.03378703445196152,-0.019073011353611943,-0.05353624373674394,0.1893962485715747,0.1661581893078983,-9.50808018922806
25.29,2.799999952316284,320.0,20.74648094177246,31.75143241882324,-79.782738816373,40.45898973606779,290.0913417663574,0.004756616894155741,-0.023558596149086952,-0.9921852350234984,0.1224374771118164,-0.10544699553543242,-0.04666122335373672,2.3052883860636992,0.10778439044952393,0.1473727524280548,0.19978350400924685,0.2150702761486173,-0.17911165405064822,-9.609484941959382
25.5,2.700000047683716,337.0,20.697650909423828,33.166847229003906,-79.78273876472556,40.45898953011358,290.6909501876832,0.0018236925825476649,-0.026600705459713936,-0.9921947121620178,0.12181472033262253,-0.09526502262788754,-0.05016369446581244,2.3319495932878547,-0.08910170197486877,-0.11453025788068773,-0.06713081896305084,0.3413212003558874,0.2519590075314045,-9.647494767308237
25.59,2.700000047683716,343.0,20.72644805908203,31.66396331787109,-79.78273872447912,40.45898970657424,290.92277696990965,0.00022837522556073964,-0.02552696503698826,-0.9921673536300659,0.12227984517812727,-0.06155412789316071,-0.06625407573055665,2.3219490744850684,0.08729979395866394,0.13113464415073395,0.008097764104604721,0.3198929456993937,0.12610777705907822,-9.703980039954184
25.8,2.700000047683716,354.0,20.85791206359864,28.817228317260746,-79.78273879106929,40.45898936415721,291.57615068817137,-0.004474715795367956,-0.024183116853237152,-0.9920812249183656,0.12316694110631946,-0.0536167998162216,-0.08776134518471693,2.4024621804204123,-0.2357317954301834,-0.101019948720932,-0.09899843484163284,0.1937393228150905,0.3617218434065581,-9.849793810844425
26.0,2.700000047683716,358.0,20.825359344482425,29.80324935913086,-79.7827387820913,40.45898890926059,292.2719543304443,-0.004732857458293438,-0.02396433800458908,-0.9919915795326232,0.12391937524080275,-0.007353849870646791,-0.07325585522329105,2.4267315056534176,0.06270141154527664,0.096395343542099,0.08782131969928741,0.3797535966709256,-0.007273735273629426,-9.470315362215043
26.1,2.700000047683716,1.0,20.628787994384766,33.6837158203125,-79.782738776239,40.45898908967495,292.51160410308836,-0.0050748162902891645,-0.022591542452573776,-0.9919791221618652,0.1242637187242508,-0.0176381716676524,-0.08695430292466702,2.3804138466817517,-0.035256221890449524,-0.11616584658622744,-0.031719107180833817,0.3799359932541848,0.08953069313429296,-9.39514121890068
26.2,2.700000047683716,4.0,20.63755226135254,33.36564254760742,-79.78273877574429,40.45898928083153,292.7477405395508,-0.004791692830622196,-0.0230132695287466,-0.9919999837875366,0.12403035908937456,-0.021558706294884617,-0.1123485446500575,2.362906713405997,0.014766539447009562,0.08306766301393509,-0.06999940425157547,0.2731246491149068,0.3867332718148828,-9.590268652439118
26.4,2.799999952316284,6.0,20.75274085998535,31.26637458801269,-79.7827385874872,40.458988182438816,293.8753507461548,-0.0021944164764136076,-0.024038681760430336,-0.9920885562896729,0.12319742143154146,-0.02334244600477909,-0.040768500702373485,2.478265240114128,-0.05750158801674843,-0.10052721202373503,-0.03577446565032005,0.3769436806440354,-0.03374128483235836,-9.619981863498687
26.6,2.799999952316284,6.0,20.536136627197266,34.081302642822266,-79.78273857700255,40.458988340345066,294.12193087005613,-0.0035050285514444113,-0.023077843710780144,-0.992046058177948,0.12369247525930405,-0.04494485827653654,-0.05830139271743288,2.4652567437454502,-0.21846237778663635,-0.11963220685720445,-0.05530332401394844,0.2509205237589777,0.2844898639060557,-9.633024662733078
26.7,3.0,4.0,20.56493377685547,32.944198608398445,-79.7827385698685,40.45898851154438,294.3672559585571,-0.005093932617455721,-0.02437112666666508,-0.9919157028198242,0.12443210184574127,-0.0116133491204791,-0.08309339349176689,2.459138558286745,0.15674905478954315,0.17284731566905975,0.0128922201693058,0.2950162956118584,0.13705728222616018,-9.744380791783334
26.9,3.0,4.0,20.661340713500977,31.86275863647461,-79.78273856988534,40.458987945527326,295.11126688385013,-0.008069085888564587,-0.02505323477089405,-0.9917230606079102,0.12566912174224856,0.008740408049060363,-0.034921250331665286,2.5618540796981435,0.08207695186138153,0.04917335510253906,0.10190971940755844,0.3086575573682785,0.04599415720906109,-9.781668485999107
27.01,3.0999999046325684,2.0,20.574949264526367,34.184677124023445,-79.78273884790845,40.45898720900454,295.5969579544067,-0.008317673578858377,-0.022424275055527687,-0.9917240142822266,0.1261405646800995,0.048608749915689885,-0.01193462872513125,2.660141172899723,0.16448938846588135,0.10023053735494614,0.09852231293916702,0.35622125800698995,0.02704175984021276,-9.798383336663246
27.11,3.0999999046325684,359.0,20.642560958862305,31.870710372924805,-79.78273886473731,40.458987336891106,295.86270025634764,-0.007396345492452383,-0.02079732157289982,-0.9916976094245912,0.12668365240097046,0.03784598507932772,-0.033827923693671484,2.6671680426598563,-0.05447967350482941,-0.08533290773630142,0.09137631952762604,0.3020918833650649,0.030734244547784333,-9.876928399801255
27.29,3.299999952316284,0.0,20.708919525146484,31.43336296081543,-79.78273963354322,40.45898736604891,296.56376722717283,-0.00777972862124443,-0.018356621265411373,-0.9920911192893982,0.12392663210630415,0.044956918889742806,-0.03625892977943003,2.755098068514871,-0.015589004382491112,-0.07317157834768295,-0.06625039130449295,0.3755673191696405,0.2863655227795243,-9.838706320524217
27.39,3.2000000476837163,0.0,20.602495193481445,33.142993927001946,-79.78273967253037,40.458987483579065,296.83869245910637,-0.008107352070510387,-0.016481595113873482,-0.99236661195755,0.12194789201021194,0.06535259970510965,-0.04083833324856246,2.7545447099464995,0.12890887260437012,0.18780481815338126,0.10000835359096527,0.3670236600190401,0.1936909188330173,-9.837633941173557
27.6,3.299999952316284,359.0,20.57369804382324,33.65190887451172,-79.78274035688565,40.45898743010572,297.487791809082,-0.004087741952389479,-0.021191664040088654,-0.9925468564033508,0.11993789672851562,0.08199966479822904,-0.03598716926606402,2.8666038447774045,-0.08562307804822923,-0.03323530405759812,-0.07464190572500229,0.4387592019885779,0.3297756537795067,-10.069528666734696
27.8,3.299999952316284,0.0,20.678869247436523,30.83697891235352,-79.78274081627352,40.45898771992453,298.04213217163084,-0.006799959111958742,-0.019496433436870568,-0.9923972487449646,0.12133189290761948,0.09481543845275664,-0.008583904911422774,2.9185799745426584,0.06627508997917175,0.09929121285676956,0.07506991177797318,0.4117121385410428,-0.07640131856314837,-10.003623529672623
27.9,3.299999952316284,359.0,20.622528076171875,31.50492858886719,-79.78274090141281,40.45898782397485,298.3340690460205,-0.009886988438665869,-0.014176095835864544,-0.9923731684684752,0.1220524162054062,0.09728022866985107,-0.020498330288801304,2.9227695521040675,0.03230950981378555,-0.1136685237288475,0.07442764937877655,0.4117649096623063,-0.06778220292180777,-9.941809104681017
28.1,3.4000000953674316,359.0,20.685129165649414,30.35192108154297,-79.78274097541251,40.45898798596879,298.87502935791014,-0.010381961241364479,-0.008439991623163223,-0.9926039576530457,0.12065804749727248,0.0809487286525623,-0.03425946399684168,2.907887361694755,0.2255433946847916,0.10885529220104218,0.16243097186088562,0.3213695503771305,-0.1332713745441288,-9.75513732969761
28.2,3.5,355.0,20.72644805908203,30.224693298339844,-79.78274098851973,40.45898805206409,299.1648242797852,-0.010888608172535895,-0.010253953747451305,-0.9926360249519348,0.120208241045475,0.038625140590184834,-0.023025417662219855,2.8863438848014265,-0.19380682706832889,-0.023287730291485783,-0.09565658122301103,0.2139918120391667,0.23771988624706866,-9.570894488096238
28.39,3.5,353.0,20.57745361328125,32.252395629882805,-79.78274162664698,40.458988256910686,299.6995876159668,-0.002718482399359345,-0.020443616434931755,-0.9923939108848572,0.12136287987232207,0.06780523922124429,0.014288888987532932,2.837242119513174,0.00624765595421195,0.09314220398664473,-0.18704067170619965,0.3144643906876445,0.4659915125370026,-9.5698940294981
28.5,3.5999999046325684,351.0,20.64381217956543,31.353843688964844,-79.78274180413551,40.45898844230412,299.97951773071287,0.00017462107643950733,-0.024662725627422333,-0.9921061396598816,0.1229523941874504,0.04510352073011118,0.04985213819418107,2.8603530493826312,0.16090242564678192,0.0710405483841896,0.07917120307683945,0.5010441451147198,-0.2674975811317563,-9.717597620487213
28.6,3.5999999046325684,350.0,20.556167602539066,32.626129150390625,-79.78274182114143,40.45898849385913,300.26538160705564,-0.0007548046996816992,-0.023465387523174286,-0.9919270873069764,0.12461816519498825,0.002198600057734684,0.0861490815689432,2.858259681125696,-0.2389568388462067,-0.20533311367034912,-0.03528178483247757,0.5098264437541365,0.2902643365412951,-9.730246317386626
28.8,3.5999999046325684,353.0,20.607501983642575,31.60034942626953,-79.78274208377489,40.4589887081295,301.1224105682373,-0.006477475166320801,-0.014616003260016441,-0.9918203353881836,0.12663708627223969,0.04165504435197767,0.04963615010991411,2.959968700868551,-0.1313515603542328,-0.1150866150856018,-0.013015223667025566,0.4323013542965055,-0.0876300648227334,-10.10496279358864
29.0,3.5999999046325684,349.0,20.733959197998047,29.34999847412109,-79.78274199228859,40.458988715634405,301.37848738098137,-0.007534250151365995,-0.016252972185611725,-0.9918222427368164,0.12636424601078033,0.034472743163993146,0.06322482245776576,2.9888126827782453,0.0692940205335617,0.08971104770898819,0.18209579586982727,0.3813836542144418,0.008215840486809612,-10.103776978254318
29.1,3.5999999046325684,348.0,20.777782440185547,28.880842208862305,-79.78274197232841,40.45898873532475,301.67796400451664,-0.006180699914693832,-0.01801889948546886,-0.9918614029884338,0.12589001655578613,0.03414272141627485,0.08572444133422391,2.9901112080255063,0.06254860758781433,-0.01619095541536808,0.0629827082157135,0.5101207779720426,0.12481419023126365,-9.891146489381793
29.3,3.5999999046325684,347.0,20.728952407836914,29.739633560180664,-79.78274204721636,40.45898887507501,302.23204496765135,-0.00029595353407785296,-0.016141129657626152,-0.991915225982666,0.1258719563484192,0.017230822005547628,0.1120010152123147,2.9448481727839355,0.012419351376593113,-0.032849062234163284,0.06069319695234299,0.4976635773852468,0.2673254902660847,-9.660950379967687
29.4,3.700000047683716,348.0,20.72644805908203,29.461322784423828,-79.78274202775931,40.45898885749382,302.5256278839111,0.0020255292765796185,-0.01981695555150509,-0.9917395114898682,0.12671253085136416,0.01321175538228839,0.11593153318845588,2.924198751064564,0.0965324193239212,0.09450620412826538,-0.037893135100603104,0.466378561668098,0.047821809528395536,-9.635170006155967
29.49,3.700000047683716,350.0,20.63755226135254,30.38372802734375,-79.7827422757508,40.45898905846736,302.79197576904295,0.0020952019840478893,-0.02450048364698887,-0.9914366602897644,0.12825313210487366,0.0210818493987922,0.1396181984699501,2.9132911840726163,0.07031900435686111,0.13367703557014465,0.06684314459562303,0.4771211759001017,0.08441571333445609,-9.587122850418089
29.7,3.700000047683716,351.0,20.54364776611328,32.888538360595696,-79.78274232342362,40.458988991495815,303.3696029510498,-0.003936681430786848,-0.03039857186377048,-0.9910849332809448,0.12965793907642365,0.0765038781912,0.18081960695839214,2.843380463033483,-0.07110366970300674,0.15032409131526947,-0.0877993032336235,0.4800149994716049,0.2845969227701426,-9.37648801624775
29.79,3.700000047683716,350.0,20.668853759765625,30.44734191894531,-79.78274248592162,40.45898911403767,303.6337573852539,-0.005840809550136328,-0.034799132496118546,-0.9910002350807192,0.12912628054618835,0.09527579665357903,0.18821780338694788,2.8403619674761815,-0.033064644783735275,-0.0014847449492663145,-0.008853695355355741,0.5700726820528508,0.1747705532424152,-9.497439426183703
30.01,3.700000047683716,350.0,20.54364776611328,31.94227600097656,-79.78274245361318,40.45898908938738,304.18669775390623,-0.009920528158545494,-0.038477905094623566,-0.9909858107566832,0.12793833017349246,0.10173570452793616,0.20714880232406832,2.811011265986565,-0.13954128324985504,-0.0981779545545578,0.061649102717638016,0.4605639442428946,0.05856198437511921,-9.52125688970089
30.2,3.700000047683716,349.0,20.63003921508789,30.91649627685547,-79.78274251679655,40.458989129800685,304.7497947540283,-0.00396116031333804,-0.03254202380776405,-0.9915533065795898,0.12548866868019104,0.07414509582518627,0.15205085376013047,2.8133720598397547,-0.0015954355476424098,-0.24286600947380066,-0.008315293118357658,0.4917646504193545,0.2779170453362167,-9.822127125263217
30.29,3.5999999046325684,348.0,20.539892196655273,32.31600952148437,-79.78274293690492,40.458989157933395,305.00473287963865,0.0005880899843759835,-0.02467631548643112,-0.9919359087944032,0.12431444972753525,0.056505485177859714,0.13794897840046413,2.847878320701439,0.13533763587474826,-0.05116318538784982,-0.04678918421268463,0.4195719292759896,0.2377870013192296,-9.833488265275957
30.5,3.5999999046325684,348.0,20.661340713500977,30.654088973999023,-79.7827431548985,40.45898934124765,305.53856352233885,-0.0024405482690781355,-0.012867831625044346,-0.992357850074768,0.12269627302885056,0.016348000295499356,0.06060460967338481,2.8860775539115338,-0.18908321857452395,-0.09334435313940047,-0.15676560997962952,0.2540663440525532,0.39473756186664105,-9.812630077600481
30.6,3.5,349.0,20.740219116210934,28.745662689208984,-79.78274318441011,40.458989373032274,305.82728269958494,-0.005319936200976372,-0.01199802290648222,-0.9923933148384094,0.1224062368273735,0.05139722938182506,0.035158702076733835,2.8858347040403336,0.04420623555779457,0.01583162136375904,0.012833929620683191,0.3418055690824986,-0.05630761778913439,-9.837173180580141
30.79,3.5,346.0,20.606250762939453,30.868785858154297,-79.78274332431413,40.458989541796605,306.35320166015623,-0.005453084129840136,-0.020162986591458317,-0.9923262000083924,0.12187100201845168,0.03999121735946992,0.07756266164554525,2.8442913114174133,-0.09811265766620636,0.061344001442193985,-0.008314068429172039,0.3053415830992162,0.2839708321541548,-9.608313744664194
30.9,3.5,344.0,20.561176300048828,31.58444595336914,-79.78274332595569,40.45898954807708,306.63702276611326,-0.0035603861324489117,-0.024472076445817947,-0.9922735691070556,0.12158025801181792,0.054232646523494916,0.10697869062948147,2.830647509534128,0.1835726797580719,0.127101868391037,0.07477091252803802,0.4819285007938743,-0.08101099843159318,-9.684234577417373
31.0,3.4000000953674316,342.0,20.59748649597168,31.409507751464844,-79.78274351934266,40.45898977367313,306.8754375305176,-0.0011791897704824805,-0.02615979500114917,-0.9922019839286804,0.12185879051685332,0.023220248266732885,0.12393331989793753,2.844905044590214,-0.04788924008607864,-0.0011123945005238056,-0.07362380623817444,0.5100334351882339,0.17988995499908925,-9.834083511829377
31.2,3.299999952316284,342.0,20.687633514404297,30.66204071044922,-79.78274350440275,40.458989807391724,307.4472987976074,0.0014323869254440071,-0.023726798593997955,-0.9921505451202391,0.12276987731456755,-0.0032022067888349704,0.12126513227516025,2.8539570461568253,-0.01830240711569786,0.0273707676678896,-0.07332595437765121,0.4678807844594121,0.12009329449385404,-9.794529436826707
31.29,3.299999952316284,342.0,20.45850944519043,33.071426391601555,-79.78274363829144,40.458989989193775,307.6831558074951,0.002134842798113823,-0.022931696847081184,-0.9920775890350342,0.12349814176559447,-0.005526939404372586,0.11837607349157865,2.8393683659300786,-0.038076240569353104,-0.029789891093969345,0.020328288897871968,0.39398012816905975,0.05371953964233399,-9.669899543523787
31.49,3.299999952316284,340.0,20.67636489868164,29.95433235168457,-79.78274370792019,40.45899023198065,308.20071295166014,0.0011901498073711991,-0.0231134332716465,-0.9919072985649108,0.12483694404363632,-0.030650597053586005,0.1153183887572244,2.8533962615082986,-0.10270146280527116,0.06135290116071701,-0.17214268445968628,0.4525447437912226,0.27007141582667826,-9.793064124584195
31.7,3.2000000476837163,340.0,20.532379150390625,32.40348052978516,-79.78274365704013,40.458990267264056,308.7688281860352,0.0018999371677637105,-0.02341914363205433,-0.991745948791504,0.1260475516319275,-0.0075983483041555016,0.11956483516803235,2.8156066039251337,0.08761008083820343,0.03233934938907623,-0.0484144501388073,0.5236306601017714,0.06795262184925377,-9.59586794614792
31.81,3.2000000476837163,338.0,20.579957962036133,30.375776290893555,-79.78274378390437,40.458990460933656,309.28004148864744,0.00613584415987134,-0.02570528350770473,-0.9916050434112548,0.12657420337200165,-0.0309954127074416,0.12488150415525145,2.828082253961462,-0.07709372788667679,-0.0005033784545958042,-0.0686793178319931,0.4240869664773345,0.056980467857792975,-9.827389619350434
31.99,3.2000000476837163,337.0,20.602495193481445,31.329988479614247,-79.78274390396065,40.458990697079365,309.50866201782225,0.006382709834724665,-0.02580157853662968,-0.9915015697479248,0.12735074758529666,-0.01925751789328016,0.1286222400973045,2.823240059679674,0.14393070340156555,0.07147255539894104,0.03325827792286873,0.4516866283491254,-0.2441609049215913,-9.872789740562439
32.09,3.299999952316284,336.0,20.57745361328125,31.67191505432129,-79.78274389442329,40.458990717608884,309.7919795837402,0.005877651274204254,-0.02540289610624313,-0.9914292693138124,0.12801654636859894,-0.046994370739166534,0.12543255195329178,2.8390571502273683,-0.187747985124588,-0.09223666787147522,-0.14033786952495575,0.4800701460242272,0.3354683567583561,-9.940832619667054
32.3,3.299999952316284,336.0,20.5411434173584,30.67794418334961,-79.7827441418863,40.45899095992528,310.30787351989744,0.003814204595983029,-0.02269664965569973,-0.9915687441825868,0.12752176821231842,-0.000937289307943158,0.10736694542339004,2.8958732869673787,0.06057742238044739,0.04028308391571045,0.12737226486206055,0.3978695498406887,-0.05119610977359116,-10.012900722026826
32.4,3.299999952316284,336.0,20.615015029907227,30.685895919799805,-79.78274416064059,40.458990984414,310.5995414581298,0.001763516222126782,-0.021779386326670647,-0.9916576147079468,0.12703467905521393,-0.009200701960409428,0.10801359132465918,2.92671781199512,-0.24474939703941345,-0.2064962387084961,0.02953190542757511,0.4209160214290023,0.1622871498204768,-10.099782160520554
32.5,3.4000000953674316,337.0,20.598737716674805,31.44926643371582,-79.78274421140544,40.45899118878301,310.82414892578123,0.0019165470730513328,-0.020774150267243385,-0.991747796535492,0.12649582326412198,0.03076423109337721,0.10529516698624834,2.901040979091918,0.24791814386844635,0.11410901695489885,0.055856268852949136,0.4935864600911737,-0.02664077332243324,-9.898980588912963
32.7,3.4000000953674316,338.0,20.74272346496582,28.16518402099609,-79.78274426243166,40.45899122477254,311.40569189453123,0.003405733732506633,-0.02375949360430241,-0.9917283654212952,0.12609060108661652,0.021389661582553697,0.1043429505565458,2.901100430486397,-0.012064802460372448,-0.003740611020475626,-0.004111167509108782,0.40271056931465865,0.06560001290403307,-9.698868988752368
32.79,3.4000000953674316,339.0,20.655080795288086,30.200838088989247,-79.78274452534058,40.45899144109619,311.63613775634764,0.002133551985025406,-0.024872217327356345,-0.9916755557060242,0.12631919980049133,0.03276330090249873,0.11057980877378136,2.8375245750074485,0.03688416630029678,-0.0035830321721732616,-0.032405976206064224,0.5004738954082132,0.05007539039477706,-9.422551211714746
32.99,3.4000000953674316,341.0,20.40842628479004,32.896488189697266,-79.78274478029185,40.45899166608381,312.1563327636718,-0.003639082191511989,-0.02565371245145797,-0.991642951965332,0.1263839155435562,0.03996242544967378,0.10911331803270208,2.8032515615792986,-0.2662845551967621,-0.09671419858932497,0.08146662265062332,0.3964938827231527,0.01319307267665863,-9.720098474621773
33.09,3.4000000953674316,340.0,20.57745361328125,30.82902717590332,-79.78274482463655,40.458991691025844,312.43781355285637,-0.006716184318065643,-0.026868194341659542,-0.9916327595710754,0.1260852962732315,0.07266051037826791,0.0987390778418168,2.8213952824772184,0.12422406673431395,0.09502310305833817,0.024860253557562828,0.37002108894288543,0.060022399574518215,-9.907181893587113
33.3,3.5,341.0,20.574949264526367,30.43939018249512,-79.78274503293534,40.45899187056608,312.96050146484373,-0.006613827310502529,-0.0248507522046566,-0.9917613863945008,0.12549135088920593,0.07206163846607473,0.11705619935904947,2.821604356055589,0.025740627199411392,-0.1399792730808258,0.010751299560070038,0.5426669284701348,0.08381061787717045,-9.787386478185654
33.5,3.5,341.0,20.442232131958008,33.127090454101555,-79.78274532336295,40.45899206252043,313.4874141540527,-0.001355104148387909,-0.02375109679996968,-0.9919503927230836,0.124372698366642,0.05034997835161284,0.09576695268370804,2.8479225031520063,0.07896624505519867,0.07895154505968094,-0.003965109121054411,0.4713663828000426,-0.1097575368359685,-9.999054515361786
33.6,3.5999999046325684,339.0,20.529874801635746,31.94227600097656,-79.78274532911965,40.45899208717663,313.7737891998292,0.0011234185658395286,-0.026056326925754547,-0.9919208884239196,0.1241481825709343,0.012402610320154085,0.10864127041449503,2.8755856237697084,-0.06878654658794403,0.005198504310101271,-0.09418143332004547,0.4966029290109873,0.2259976623952389,-10.03953946709633
33.7,3.5999999046325684,341.0,20.60499763488769,30.137222290039066,-79.78274532838321,40.458992110265186,314.0621078338623,0.0019632619805634017,-0.02546877972781658,-0.9919036626815796,0.12439752370119095,0.017751882569483075,0.12981828431976436,2.883591413322832,0.1653556376695633,0.02382658421993256,-0.04421539232134819,0.5560674676671624,-0.03226603232324123,-9.909527796506882
33.91,3.5,339.0,20.81909942626953,28.4912052154541,-79.7827455006463,40.45899234182555,314.58904150390623,0.0013347008498385544,-0.021668707951903343,-0.9919115900993348,0.12506020069122314,-0.01689238625191756,0.10064637168859944,2.8203187543989063,-0.1649414449930191,-0.08161691576242447,-0.1325531154870987,0.3612541757896543,0.2346096060611308,-9.361348405480383
34.1,3.5,337.0,20.5849666595459,30.582523345947266,-79.78274570661483,40.45899263924849,315.1092517700195,0.004516506567597389,-0.02306446433067321,-0.9918727278709412,0.1250450313091278,-0.01889547645172762,0.0864400311024713,2.7261584145800395,0.047491218894720084,0.01735495775938034,0.10092691332101822,0.3580472338199616,-0.19845965210348368,-9.32167446255684
34.2,3.5,337.0,20.627534866333008,30.375776290893555,-79.78274569485123,40.458992676539424,315.38046530151365,0.004175992216914892,-0.02320758812129497,-0.9917298555374146,0.12615832686424255,-0.02425830568203937,0.08744944566828984,2.6991759150071792,0.006828652694821358,-0.05229825899004936,-0.08907777070999147,0.4967374149709939,-0.03536608216585592,-9.5149945217371
34.29,3.4000000953674316,334.0,20.442232131958008,33.54058074951172,-79.78274586076165,40.45899285163547,315.631403717041,0.004682527855038643,-0.0226278156042099,-0.9915271997451782,0.12782816588878632,-0.01675080620029036,0.0902229682580924,2.7188636797256773,0.07955728471279144,0.030731352046132088,-0.07529409229755403,0.37666531663388014,0.1149171290639788,-9.607060686349868
34.5,3.4000000953674316,334.0,20.457256317138672,32.4432373046875,-79.78274601995687,40.458993058592505,316.1535327758789,0.0036028758622705936,-0.021989516913890842,-0.991120994091034,0.13108325004577634,-0.00397754427409476,0.08454416010338134,2.7717898359737525,-0.06503532081842422,-0.11735279858112335,-0.08965477347373962,0.4808366429060698,-0.0190449935104698,-9.998821796178818
34.7,3.4000000953674316,333.0,20.412181854248047,33.127090454101555,-79.78274607234077,40.458993126888274,316.7123020019531,0.0005558252451010048,-0.01746394298970699,-0.9913994073867798,0.1296997368335724,0.011295414822047049,0.07157932213496948,2.8042875333930377,-0.07991506159305573,-0.14503400027751925,-0.0383552648127079,0.4243014862015844,0.1618021963723004,-9.910813014507292
34.79,3.4000000953674316,331.0,20.65633201599121,29.15915489196777,-79.78274616498516,40.45899325158122,316.9558322753906,-0.0019966557156294584,-0.016496986150741574,-0.9916654229164124,0.12776412069797516,0.0038072348187674,0.06066014175782085,2.8129763014098814,0.049317386001348495,0.14012451469898224,-0.020315917208790786,0.3182432268932462,0.21787743302062154,-9.86143093943596
34.9,3.4000000953674316,330.0,20.6337947845459,29.206865310668945,-79.782746163709,40.45899328105572,317.23634603881834,-0.003544995561242104,-0.016862396150827408,-0.9918285608291626,0.12640899419784546,0.015963132971811737,0.05780761444331375,2.790879342814645,-0.036230552941560745,0.021987054497003555,0.1313132345676422,0.2834281374514103,-0.1476779911480844,-9.64021089076996
35.1,3.4000000953674316,328.0,20.56868934631348,31.186857223510746,-79.78274635373134,40.458993513255905,317.7506206359863,-0.0016153209144249554,-0.01809283532202244,-0.9922106862068176,0.12323949486017227,0.007035845155501478,0.06541855146216248,2.6949191313088185,0.08566641062498093,0.14790447056293488,0.032024908810853965,0.3704174205288291,0.0065652354620397094,-9.33850099503994
35.21,3.299999952316284,328.0,20.433467864990234,32.70564651489258,-79.78274632711775,40.45899353640298,318.0180461730957,-0.0006586186354979872,-0.019821379333734512,-0.9923310279846193,0.1220073699951172,-0.02461723842007473,0.07688999704541596,2.6561452315067715,-0.1508951038122177,-0.06659077852964401,-0.023443728685379032,0.2989045478403569,0.08840969966724516,-9.402128056883813
35.4,3.299999952316284,329.0,20.5311279296875,30.93239974975586,-79.78274644109969,40.458993747181815,318.5258663024902,0.004961633589118719,-0.023391438648104668,-0.9921541213989258,0.12271270155906674,-0.0400621805295117,0.0987609545639692,2.6562350132326005,-0.12468650192022325,-0.03386067971587181,-0.100523442029953,0.4455204836279154,0.20064720511436465,-9.702748616337775
35.5,3.299999952316284,333.0,20.503582000732425,32.69769287109375,-79.78274672194773,40.45899394185114,318.77081182861326,0.007347465958446264,-0.024368379265069958,-0.9919583201408386,0.12397978454828262,-0.023532763781427508,0.10295964453495488,2.681326673585891,0.10886611044406892,0.024984044954180717,-0.14074060320854187,0.4088676143065095,0.0777346938662231,-9.760610323548317
35.7,3.299999952316284,333.0,20.548656463623047,30.192886352539066,-79.7827467138158,40.45899400557255,319.3091686096191,0.0054478682577610025,-0.02425278350710869,-0.9915985465049744,0.12694309651851654,-0.02418703002967748,0.09428116214521462,2.7054443950128824,-0.01822664402425289,-0.060961846262216575,0.04401551932096481,0.4123495946824551,-0.2451322370767593,-9.994924042224882
35.89,3.299999952316284,333.0,20.57870483398437,29.89071846008301,-79.78274667375489,40.45899409560796,319.8266132202148,-0.0006325192516669631,-0.017950749024748802,-0.9916056394577026,0.1280456930398941,0.0027591981053705023,0.11520312754337668,2.695382225874964,0.14293675124645233,0.0030481882859021425,-0.0672306939959526,0.4417626973986626,0.025527573097497227,-9.660408927798274
36.01,3.4000000953674316,332.0,20.56493377685547,29.866863250732425,-79.78274682406203,40.458994283589156,320.0621936645508,-0.0006524785421788692,-0.01667236164212227,-0.991548717021942,0.12865780293941498,0.005691410958669074,0.08479062622955713,2.66871777727827,0.11696770042181015,0.06871143728494644,0.06112798675894737,0.3789002320915461,-0.06323861486278473,-9.586566195487976
36.2,3.4000000953674316,330.0,20.41969490051269,32.33986282348633,-79.78274680093395,40.458994298374975,320.59035757446287,0.004468111786991358,-0.021794874221086502,-0.9913650751113892,0.12922997772693634,0.0019745615979160696,0.09179088991759177,2.6134120215758188,0.05079575255513191,0.12132707983255385,0.14764831960201266,0.3462535460293293,-0.2423167479224503,-9.603102706074717
36.3,3.4000000953674316,331.0,20.466020584106445,31.79119300842285,-79.78274697483019,40.45899446273836,320.82662084960936,0.0048990068025887,-0.025186454877257347,-0.9913346767425536,0.12883029878139496,-0.02475114168350712,0.11159646739717027,2.6237690440661288,-0.0779418796300888,-0.06555288285017014,0.024247357621788986,0.4548956899344922,0.07416321454569698,-9.757527671456335
36.49,3.4000000953674316,332.0,20.26193618774414,34.383468627929695,-79.78274717677914,40.458994648807575,321.32321432495115,0.001066503580659628,-0.02511750161647797,-0.9915733337402344,0.12708407640457153,0.02652314115490627,0.1168507980022156,2.6551366333556765,0.16113312542438507,0.09237585961818696,0.1868585050106049,0.44411653060466055,-0.2737951237522066,-10.029470561742784
36.59,3.4000000953674316,337.0,20.31577491760254,34.319854736328125,-79.7827471998285,40.45899466470613,321.59075048828123,0.000931954535190016,-0.023966798558831208,-0.9916415214538574,0.12677493691444394,0.02077918353038879,0.11001558373461634,2.688797727732229,-0.16634118556976318,-0.13135471940040588,-0.017179004848003387,0.4393591263145208,0.1261702143587172,-10.065847259759904
36.7,3.4000000953674316,338.0,20.23439216613769,35.09117889404297,-79.7827472311391,40.45899468360897,321.86115530395506,0.0004910138086415827,-0.022475633770227432,-0.9917057752609252,0.12654785811901093,0.02291046674711308,0.1025234672320626,2.718666940249375,-0.1730567365884781,-0.062075208872556686,-0.09794272482395172,0.3874111102893949,0.3107815949991345,-10.067566341161728
36.9,3.5,340.0,20.43471908569336,32.013843536376946,-79.78274731453563,40.45899479484997,322.3595722045898,-1.065404558175942e-05,-0.01938064210116864,-0.9916714429855348,0.12732678651809692,0.03867996465477853,0.08914700023245603,2.764588695790205,0.01252692099660635,-0.05558227375149727,-0.10131963342428207,0.3928057879954577,0.19729137841612104,-10.139236832857133
37.1,3.5999999046325684,340.0,20.68888664245605,28.499156951904297,-79.782747648237,40.45899502843073,322.8531711425781,-0.0043889679946005344,-0.02131253480911255,-0.9915018677711488,0.12825973331928253,0.05698501724889461,0.07070433648619473,2.6948542537759206,0.19423842430114746,0.1050916463136673,0.1677689403295517,0.4028808694705368,-0.2236113040521741,-9.569655463099481
37.2,3.5999999046325684,341.0,20.546152114868164,31.31408500671387,-79.78274767437273,40.45899505372486,323.11972692871086,-0.0059503461234271535,-0.019790459424257282,-0.9914708137512208,0.12868064641952515,0.03869689894645412,0.07594087321595144,2.631130151010501,-0.18206281960010529,-0.09770885109901427,-0.12138770520687105,0.40618472903966907,0.33329370416700843,-9.230181325078009
37.3,3.5999999046325684,342.0,20.244407653808594,35.62394714355469,-79.78274796602027,40.4589953138746,323.342097076416,-0.006050620693713428,-0.017911886796355247,-0.9914910197257996,0.1287950575351715,0.04955511630105616,0.046782103116177004,2.568146275031602,0.025266584008932117,-0.01437296811491251,0.011462675407528877,0.20856824543327093,0.08595024199225007,-9.294362118244173
37.5,3.5999999046325684,346.0,20.37462043762207,32.626129150390625,-79.78274809851756,40.45899549324066,323.8356464233398,-0.00393159594386816,-0.01933286339044571,-0.9914159178733826,0.12924933433532715,0.03103829017249153,0.0525751044608358,2.5946166871270258,-0.07380816340446472,-0.08926044404506682,0.10589167475700376,0.3879603831097484,-0.023940730132162573,-9.896103758811954
37.59,3.5999999046325684,347.0,20.22938346862793,35.75117492675781,-79.78274810553356,40.4589955311333,324.09575537109373,-0.003364200703799725,-0.01825186051428318,-0.9913907647132874,0.1296146959066391,0.02395854706108441,0.05776797010450501,2.604765765412864,-0.09059792757034303,-0.04156022891402245,-0.04167502745985985,0.4467054218798876,0.1235754484590143,-9.87070111513138
37.81,3.5999999046325684,349.0,20.43096351623535,31.878662109375,-79.78274829555308,40.45899573239361,324.59113577270506,-0.005927177146077156,-0.012441120110452177,-0.9915900826454164,0.12868277728557587,0.014399415802552868,0.05026158117774722,2.638332296024372,-0.23833468556404114,-0.1415816694498062,-0.03418154641985893,0.4529454607889056,0.020113161038607358,-9.929183796644214
38.0,3.5,348.0,20.304506301879886,33.71552276611328,-79.78274850004028,40.45899594983105,325.0862491455078,-0.00927059818059206,-0.013514995574951172,-0.9917338490486144,0.12726181745529175,0.03556890223947255,0.03912373857824957,2.6210932118217123,-0.05185608193278314,0.003724776906892657,0.0066636265255510824,0.2177404254488647,0.2749720951728523,-9.730637496113776
38.1,3.5999999046325684,348.0,20.54364776611328,29.56469535827637,-79.78274848791689,40.45899596796149,325.3483264770508,-0.007809376344084739,-0.015916142612695694,-0.991763472557068,0.12684987485408786,0.05214493930054838,0.045566357001612906,2.6209085554900144,0.26386868953704834,0.2176886349916458,0.07591324299573897,0.2889579589292407,0.0058979767933487895,-9.81751484155655
38.3,3.5,348.0,20.721439361572266,27.62446212768555,-79.7827486464937,40.458996177249176,325.8324001159668,-0.004239873494952917,-0.016350703313946724,-0.9918662309646606,0.12615898251533508,0.0022399632446467857,0.07805453856058442,2.528367223080973,-0.0237262062728405,-0.11630130559206008,-0.041533004492521286,0.4097065801173449,0.12712395004928112,-9.263562494516373
38.4,3.5,349.0,20.668853759765625,27.7039794921875,-79.78274861069973,40.45899618873064,326.0814426269531,-0.0020475054625421762,-0.016175637021660805,-0.9919105172157288,0.12588752806186676,0.0007754196322731378,0.07206545058524391,2.449979245347944,0.11547128856182096,0.06869981437921524,0.08507964760065079,0.3160656506940723,0.03374751577153802,-9.119654331207276
38.49,3.4000000953674316,350.0,20.652576446533203,28.67409706115723,-79.78274867441996,40.45899633353686,326.312369140625,-5.511177732842043e-06,-0.018172934651374817,-0.9918580651283264,0.12604545056819916,-0.027175008363017814,0.07623745408534159,2.409194104281831,-0.0430634506046772,0.06234438344836235,-0.13907788693904874,0.30058483662083746,0.2759498044475913,-9.00462264239788
38.7,3.4000000953674316,351.0,20.653827667236328,29.62035751342773,-79.78274859131858,40.45899636357336,326.77878073120115,0.002244173549115658,-0.02412283979356289,-0.9916514754295348,0.12665106356143951,-0.01421843162175605,0.08530495229166664,2.256828009336377,0.12418841570615767,0.06152992323040962,0.061880886554718025,0.3810410804674029,-0.10242397723719478,-9.061220181584359
38.9,3.299999952316284,351.0,20.69013786315918,28.18903923034668,-79.78274875787271,40.458996546709145,327.2046535339355,0.0010943682864308355,-0.02260980755090713,-0.9914318323135376,0.12864889204502106,-0.028978088495895574,0.0815729347352033,2.157131291206741,-0.04835798591375351,0.07214312255382538,-0.009324564598500729,0.3290977422147989,0.08319056633859873,-9.182965643405916
39.0,3.299999952316284,351.0,21.81072425842285,6.925994873046875,-79.78274884900485,40.458996631890564,327.41032675170896,-0.001122292596846819,-0.021699037402868267,-0.991354763507843,0.12939724326133728,-0.02274539523641801,0.07447942015127668,2.1124646999632644,-0.12034834921360014,-0.07876890152692795,-0.08035798370838165,0.2649165835976601,0.2092853516153992,-8.921627848148347
39.1,3.2000000476837163,348.0,21.576589584350586,14.249578475952148,-79.7827488355013,40.458996659524466,327.61015966796873,0.00047481563524343084,-0.020810866728425026,-0.9913787841796876,0.12936344742774966,0.007208552034966311,0.05175473101416292,1.842100804817476,0.13317878544330594,-0.020231872797012333,0.054200269281864166,0.23778981529176235,0.0874574166443199,-7.371195933222772
39.3,3.0999999046325684,344.0,21.527759552001953,15.728609085083008,-79.7827490383385,40.4589968454536,327.8901470031738,0.010962100699543951,-0.02109868824481964,-0.9914795160293579,0.12807506322860718,-0.004687377164830087,0.012980297738137676,1.1332692080259332,0.08767934143543242,0.0030226686503738165,0.05136983096599579,0.2304583753086627,-0.05542286553885789,-6.2693857920169815
39.49,3.0,343.0,21.00189781188965,22.7977352142334,-79.78274927486152,40.45899704894794,328.03383139038084,0.01662525720894337,-0.02484950609505176,-0.9914432168006896,0.1270691156387329,0.022326657698150502,-0.02220946392699204,0.5399536392138152,0.09074339270591736,0.07113391906023027,-0.016860481351614,0.3021853657253087,0.02933778326958418,-7.045533503293991
39.6,2.799999952316284,345.0,20.84288787841797,26.479406356811523,-79.7827493392873,40.458997083510475,328.077822479248,0.019957778975367543,-0.025227153673768044,-0.991381287574768,0.12699821591377258,0.04260482187292066,-0.03794604523381667,0.3565842661476347,0.02812473475933075,0.0023373316507786512,0.01630769483745098,0.3225363622605801,0.022301486064679923,-7.752140278816223
39.79,2.700000047683716,344.0,20.655080795288086,29.222768783569336,-79.78274975655667,40.45899728532258,328.1215274658203,0.02377913147211075,-0.0258534885942936,-0.9911421537399292,0.12807586789131165,0.11302908467869215,-0.07884860649510934,0.2219638866590677,0.019337575882673264,0.062422286719083786,0.04494024068117142,0.2880744811892509,-0.1254732627980411,-8.494833145737648
39.9,2.5999999046325684,341.0,20.526119232177734,32.04565048217773,-79.7827498937538,40.458997323258174,328.14589956665037,0.024570686742663383,-0.028467679396271706,-0.9909447431564332,0.12889710068702698,0.1455779946379609,-0.09745886381412104,0.22066255850334388,0.010809719562530521,0.06407948583364488,0.1483045518398285,0.28125790681689977,-0.18757410999387505,-9.5777731525898
39.99,2.5,339.0,20.44097900390625,32.634078979492195,-79.78275030140989,40.45899742770904,328.1903789367676,0.024611350148916245,-0.03158325329422952,-0.9907420873641968,0.12971918284893036,0.18315552367099444,-0.10898600036097073,0.2912864181006109,-0.024420188739895817,-0.01536723505705595,-0.08599165081977844,0.4032259282842279,-0.01770476828562096,-9.967343895435334
40.2,2.4000000953674316,339.0,20.40216636657715,31.838903427124023,-79.78275090472418,40.45899760774337,328.2567890014648,0.01605698652565479,-0.03664949908852577,-0.9906984567642212,0.1300601065158844,0.2185718322115555,-0.1634429777340855,0.4206108056305174,-0.3132150173187256,-0.14894050359725952,-0.004129956942051649,0.3947596716508269,0.09381080931052566,-10.420415400266648
40.4,2.4000000953674316,334.0,20.492313385009766,31.822999954223643,-79.78275170792983,40.45899765546746,328.4391544189453,0.011256502009928226,-0.03059787862002849,-0.990874171257019,0.13078810274600985,0.2838807758624964,-0.17345922039666528,0.6154216525641758,0.020148858428001404,-0.03395107761025429,-0.034353915601968765,0.4974919981509448,0.01965770862065256,-10.341612474918367
40.51,2.299999952316284,330.0,20.59748649597168,29.039878845214844,-79.78275201648775,40.4589968639571,328.70366552734373,0.011258901096880436,-0.02451849170029164,-0.9910316467285156,0.13087540864944458,0.2806386707687871,-0.08925183830485252,0.798349554893965,-0.16289860010147095,-0.2909521758556366,-0.03660337254405022,0.42685639053583146,0.04141707099974155,-10.275203307867052
40.6,2.299999952316284,328.0,21.22225952148437,21.15171813964844,-79.7827524072925,40.45899691908322,328.78423193359373,0.008522329851984978,-0.018156204372644424,-0.9910880327224731,0.13169007003307345,0.2967039831897741,-0.09952228259302837,0.8205186603575584,0.0886550024151802,-0.0875953957438469,-0.08689238876104355,0.4871059909835458,-0.350206519626081,-9.965837652683259
40.79,2.299999952316284,325.0,20.731454849243164,27.29048728942871,-79.78275342372447,40.45899731955339,328.7813403930664,-0.009782720357179642,-0.005669667385518551,-0.9818698167800904,0.18921899795532227,0.2504598139217761,-0.14433835770104406,0.5697533189372475,-0.08222559839487076,-0.019380416721105576,-0.9716552495956421,0.20540325723588468,-0.1252372728288174,-8.997420042157174
40.99,2.299999952316284,316.0,20.76901626586914,27.131452560424805,-79.7827540368516,40.45899742747715,328.8967922058105,-0.011433735489845276,-0.00355654931627214,-0.9553224444389344,0.29532307386398315,0.1856877926992127,-0.13323942057535287,0.4839093832185532,-0.03108722157776356,0.04242051765322685,-1.2684712409973145,0.2580029089003801,0.10342116504907607,-9.235061995983122
41.1,2.299999952316284,319.0,20.78904914855957,27.22687339782715,-79.78275430571118,40.45899747093072,328.94384268188475,-0.007569066248834133,-0.0007607642328366637,-0.9343761205673218,0.3562069237232208,0.1679824330198045,-0.1302136270639832,0.4460409832422358,0.21003520488739014,-0.01808876171708107,-1.4199645519256592,0.2258441729843617,0.01293982885312289,-9.411365488171578
41.29,2.299999952316284,321.0,20.748985290527344,27.664220809936523,-79.78275470379056,40.45899763593553,328.99456671142576,0.006025879178196192,0.00012380798580124974,-0.8729963302612305,0.4876897037029266,0.13144492329483926,-0.11618589875824767,0.4282052562571588,0.1556842476129532,0.10188718885183334,-1.5445843935012815,0.2098945401236415,0.22852550508454444,-9.580370485782623
41.4,2.4000000953674316,300.0,20.732707977294922,27.05988693237305,-79.78275490131236,40.45899760699404,329.0370891418457,0.009898539632558823,-0.003247939515858889,-0.8329276442527771,0.5532838702201843,0.11810928205302568,-0.11650686763702732,0.4265371273288363,-0.08903137594461441,0.09313948452472688,-1.594602108001709,0.15756027895957234,0.16119160087779166,-9.731473647952079
41.5,2.4000000953674316,295.0,20.638803482055664,28.276508331298828,-79.78275501204487,40.4589981136789,329.00810507202146,0.010372142307460308,-0.004705950617790222,-0.7871492505073547,0.616657555103302,0.11513105140696832,-0.1283753905110941,0.4127560517893062,0.08653517067432404,-0.008737638592720032,-1.5322469472885132,0.2712719771079719,0.07259208597242832,-9.840501415729523
41.71,2.299999952316284,305.0,20.717683792114254,27.354103088378906,-79.78275541670175,40.45899793665154,329.0937183227539,0.008761635981500149,0.0006937911384738983,-0.6863135695457458,0.727252721786499,0.16547224143362185,-0.14981765866032806,0.450973186752029,0.17233692109584808,-0.05283919721841812,-1.3183865547180176,0.2390977277979255,0.23057131793349986,-10.020876324176788
41.79,2.299999952316284,311.0,20.72769927978516,27.33819961547852,-79.78275551223292,40.45899825532999,329.0573604431152,0.008382773026823997,0.00430158618837595,-0.6425196528434753,0.7662113904953003,0.15291147110416514,-0.15035415046846504,0.43113835991345795,0.03356262668967247,-0.12798987329006195,-1.0548843145370483,0.17626321949064733,0.43104442220181227,-9.965751113891605
41.99,2.299999952316284,302.0,20.33205223083496,33.135040283203125,-79.78275567516663,40.45899823322478,329.0758846130371,0.00847239326685667,0.006634927354753017,-0.5837424993515015,0.8118675351142883,0.2246309230229644,-0.137979585610447,0.4109502619071111,0.1420145332813263,0.12053203582763672,-0.4179342389106751,0.23314928222447634,0.18526868076995007,-9.95609385251999
42.2,2.200000047683716,306.0,20.586217880249023,30.033849716186523,-79.78275567670981,40.45899772012661,329.16457632446287,-0.01664276048541069,0.027184952050447464,-0.5630761384963989,0.8257901072502136,0.3113742217435317,-0.02787078236640477,0.4796950783605169,0.01179505605250597,-0.6938697695732117,-0.06125379726290703,0.6267169989645481,0.4194508188217879,-10.127866337299348
42.3,2.200000047683716,323.0,20.69013786315918,28.841083526611328,-79.78275577262045,40.45899781545671,329.1298969116212,-0.044371433556079865,0.04663896933197975,-0.5633370876312256,0.8237155675888062,0.33975139494346746,0.04550647673031938,0.4698610722113658,-0.05888397619128227,-0.6795232892036438,0.003806936787441373,0.253979951441288,0.28203403333202004,-10.176965407133103
42.49,2.200000047683716,331.0,20.44473648071289,31.50492858886719,-79.78275531011249,40.45899762887273,329.15114859008787,-0.08734583109617232,0.070201575756073,-0.5734977126121521,0.8115065097808838,0.4180903446873245,0.3061007620179783,0.5486670653766983,0.052795082330703735,-0.2076708227396012,0.16924361884593964,-0.17080361941829325,0.26315638896077875,-10.29581240415573
42.6,2.200000047683716,328.0,20.522363662719727,30.81312370300293,-79.78275455083553,40.45899741898332,329.2006709899902,-0.09785448759794237,0.07190892100334167,-0.5813005566596985,0.804576575756073,0.44660089243418266,0.5116258462466263,0.6570715883039226,-0.003018233925104141,0.045382093638181686,0.3585151433944702,-0.09335682783275843,0.11244917465373874,-10.493572254180911
42.79,2.200000047683716,332.0,20.562429428100586,29.78734588623047,-79.78275261836566,40.458997537322546,329.2359073486328,-0.1063707172870636,0.07076878100633621,-0.5976743102073669,0.791493833065033,0.43034074302239134,0.9835119997705708,0.8070235095534557,-0.11403188854455948,0.02198345959186554,0.028639828786253933,-0.12178221705369653,0.1580291342921555,-10.474534889459608
42.9,2.299999952316284,345.0,20.56743621826172,30.47914886474609,-79.78275102759976,40.45899750326888,329.290095123291,-0.10914800316095352,0.0675690770149231,-0.6033926606178284,0.7870442271232605,0.4164208638284503,1.229684235482442,0.8757799969731427,-0.05473882704973222,0.007414757739752531,0.15798652172088626,-0.07080340443179013,0.13413163701072334,-10.192536542415619
42.99,2.299999952316284,350.0,20.5849666595459,29.25457572937012,-79.78274972066994,40.4589980680686,329.2590625610352,-0.1109379231929779,0.06314467638731003,-0.6072539687156677,0.7841862440109253,0.36328649937375584,1.4571840569508372,0.8933569416069042,0.0200884323567152,-0.0021337554790079594,0.056071873754262924,-0.040746409068815416,0.09310386266559363,-10.113249467611313
43.2,2.4000000953674316,2.0,20.63003921508789,28.093616485595703,-79.78274523915125,40.45899840041745,329.35839346313475,-0.11629211902618407,0.058919835835695274,-0.6081902384757996,0.7830129265785217,0.2970105462505156,1.9525477003023604,0.9902850743574286,-0.02328487113118172,-0.02983391471207142,-0.06524726003408432,-0.054032758539542564,0.3221407981216908,-9.946084588766098
43.29,2.5,8.0,20.53863906860352,30.15312576293945,-79.78274348996035,40.458999456626685,329.298151763916,-0.12119853496551515,0.060806833207607276,-0.6059226393699646,0.7838822007179259,0.21984052877413227,2.153790544413323,0.9890132321053988,0.008258900605142117,-0.10461528599262238,0.035784579813480384,-0.07149120144546033,0.049444475825876,-9.908464772701263
43.5,2.700000047683716,15.0,20.489809036254886,31.409507751464844,-79.78273876198773,40.45900120712997,329.272761138916,-0.13215430080890656,0.06899736076593399,-0.5989434123039246,0.7867918610572815,0.11537148957487,2.5751416379280867,1.0886214998742905,0.1044727936387062,-0.033015619963407516,-0.06667014956474304,-0.24211383126676084,0.11857280828990042,-9.880317445993423
43.59,2.9000000953674316,18.0,20.357091903686523,32.84082794189453,-79.78273543220922,40.4590018399007,329.30592230224613,-0.13745759427547455,0.07440537214279175,-0.595145583152771,0.7882710099220276,0.10129334342288654,2.8217806812945634,1.1945034059514636,0.03828455880284309,-0.018540021032094955,-0.05473406612873077,-0.21987687014043333,0.12446390546858313,-10.038902120590212
43.8,3.2000000476837163,20.0,20.24941635131836,34.50274658203125,-79.78272873307473,40.459004356105474,329.28024938964836,-0.14218811690807345,0.08071468770503998,-0.5888156890869141,0.7915579080581665,0.001834971590633977,3.2914814977739466,1.4485627570255368,-0.13027985394001007,-0.03776341676712036,-0.02741808071732521,-0.4089969839528203,0.14230761593207716,-10.365223531723023
43.89,3.299999952316284,22.0,20.33580780029297,33.05552291870117,-79.78272452881458,40.45900533113702,329.3152644958496,-0.14151744544506073,0.08099569380283356,-0.5870814919471741,0.7929363250732422,0.017120555850940446,3.5505926740941316,1.5902222184543118,0.00366381648927927,0.022753288969397545,-0.006963626947253943,-0.5057407018169761,0.17114624798297884,-10.51315925717354
44.09,3.700000047683716,27.0,20.626283645629886,28.56277275085449,-79.78271609669402,40.459008669983675,329.30136755371086,-0.13420896232128146,0.0784946009516716,-0.584320604801178,0.7964898943901062,-0.06691679349979868,4.041703182154678,1.7447633711253794,-0.0018064678879454728,0.14752107858657834,-0.000162276322953403,-0.5210263833403588,0.3120456533879042,-10.17072408914566
44.2,3.9000000953674316,29.0,20.442232131958008,32.22058868408203,-79.78271106427025,40.459009971647504,329.33779409790037,-0.13166293501853946,0.07595747709274292,-0.5835037231445312,0.7977586388587952,-0.06882593658932594,4.3025670650884615,1.7433366355340807,0.06972093880176544,0.10959774255752563,0.03898436948657037,-0.5276716342940927,0.2727405601367355,-9.807625445723534
44.4,4.300000190734863,33.0,20.466020584106445,30.892641067504893,-79.7827011455332,40.45901410699433,329.3016116943358,-0.13455764949321747,0.0817498192191124,-0.5809763073921204,0.7985473275184631,-0.14720859063078845,4.767098346107463,1.8194956091596004,-0.02053021267056465,-0.12351316213607788,-0.002495594555512071,-0.6631564814597368,0.2092042763158679,-10.0171528172493
44.6,4.5,35.0,20.592477798461914,28.45939826965332,-79.78268998966371,40.45901842099706,329.2850025024414,-0.12712889909744265,0.08203767985105515,-0.5812601447105408,0.7995277643203735,-0.2115574543330948,5.175692470043923,1.9623735658486656,0.05113645642995834,0.09714151918888092,0.048528056591749184,-0.9050199788063764,-0.018993985690176487,-9.849040689468383
44.7,5.0,38.0,20.687633514404297,27.807353973388672,-79.78268375868987,40.459020208299066,329.3104999389648,-0.12619118392467502,0.07845745980739594,-0.581722617149353,0.7996994256973267,-0.2373409048316543,5.4114530935970695,1.943395069671914,-0.02071403339505196,0.04685185849666596,0.08903186023235321,-0.7666327565163374,0.06867814254015685,-9.664320130348207
44.79,5.199999809265137,40.0,20.63003921508789,28.268556594848643,-79.78267804977853,40.45902334681293,329.26687124633787,-0.12984937429428098,0.07268872857093811,-0.579671323299408,0.8011471033096313,-0.34108524305001275,5.613708196364625,1.9056757954739527,-0.0192837156355381,0.06811496615409851,0.03411497920751572,-0.649307058826089,-0.0027331439126282928,-9.501887403130533
45.0,5.699999809265138,42.0,20.5311279296875,30.16903114318848,-79.78265801811631,40.459030902986,329.25111273193363,-0.13447585701942444,0.07162734121084212,-0.5790712237358093,0.8009134531021118,-0.41447581081199697,6.205549416302693,1.9828959054073882,0.00326754548586905,-0.03405234217643738,-0.01422672066837549,-0.912258685603738,0.4896342904865742,-9.536587119698526
45.2,5.9000000953674325,45.0,20.554916381835934,30.20878982543945,-79.78265081083894,40.45903318493528,329.2530048217773,-0.13385464251041412,0.07305847853422165,-0.5801469087600708,0.8001092672348022,-0.4630383670273383,6.378474253812492,2.0109406392260096,-0.00928610097616911,0.0904429405927658,-0.034179769456386566,-1.0776633332669736,0.2751091758348048,-9.457224031090737
45.3,6.300000190734862,47.0,20.45475196838379,31.16300201416016,-79.78264364244187,40.45903693038628,329.22880819702146,-0.13136343657970428,0.07306050509214401,-0.5797780752182007,0.8007892370223999,-0.5772306280444753,6.555822080254187,2.05722475227952,0.08528899401426315,0.04583299905061722,0.16783948242664334,-1.1342270316928629,0.008911229744553566,-9.547534276843072
45.49,6.599999904632568,48.0,20.566184997558594,29.29433441162109,-79.78262849823419,40.45904320881392,329.2081897583008,-0.12862199544906616,0.0791463702917099,-0.5794890522956848,0.8008650541305542,-0.6912280476128936,6.915105963333576,2.1322750550025096,-0.03103216551244259,-0.03200108930468558,-0.09827686846256256,-1.1407141520082948,0.3584161931276322,-9.683907718062402
45.61,7.0,48.0,20.685129165649414,27.64831733703613,-79.78262056390116,40.45904587819418,329.2043559875488,-0.13033252954483032,0.08160518854856491,-0.5792904496192932,0.8004853129386902,-0.6880503077121539,7.083533941320512,2.171546008330786,0.032502375543117516,-0.02080026641488076,0.009040205739438534,-1.1895033925026657,-0.09014339910820128,-9.753820536732674
45.7,7.300000190734862,47.0,20.40592193603516,32.29215240478516,-79.78261244555551,40.459048599520784,329.1971996154785,-0.13279002904891968,0.08233059197664261,-0.5790210962295532,0.8002020120620728,-0.6945982677013451,7.241157766631888,2.2193041090094754,-0.034002069383859634,0.024931589141488075,-0.15161319077014926,-1.3581751719117163,0.33872595023363833,-9.480891805887225
45.92,7.699999809265138,47.0,20.41719055175781,31.616252899169922,-79.78259602294017,40.459055823468425,329.1713321533203,-0.1329919695854187,0.0832294449210167,-0.577892541885376,0.8008909225463867,-0.7468155913239743,7.567064243417188,2.3552386177389257,0.07867288589477539,0.023053258657455444,0.0798148587346077,-1.3074106688797476,0.13383280774578452,-9.661845588684082
46.09,7.900000095367432,47.0,20.413434982299805,31.56854248046875,-79.78257865197283,40.45906327765545,329.14340475463865,-0.13474547863006592,0.08251293748617172,-0.5752912759780884,0.8025429844856262,-0.8071641480859603,7.895817631564173,2.4938342159466766,-0.014862250536680222,0.009131848812103271,-0.09538987278938292,-1.447728641778231,0.4706866074353457,-9.738992582559586
46.2,8.300000190734862,48.0,20.43722343444824,31.89456558227539,-79.7825696204901,40.459066390715755,329.133169921875,-0.13790428638458252,0.08155351132154465,-0.5739855170249939,0.8030393123626709,-0.7901271603159452,8.061464930991761,2.5445289147154044,-0.14898960292339325,-0.04234274104237557,-0.14996106922626495,-1.4350165025889874,0.23534330371767284,-9.732011591792109
46.29,8.5,48.0,20.33205223083496,33.190704345703125,-79.782560622963,40.45907143479463,329.11130026245115,-0.14320291578769684,0.0794236958026886,-0.5708802342414856,0.8045375347137451,-0.8721915973284259,8.213157772539732,2.665061224172148,-0.06336475163698196,-0.018145287409424785,0.030727971345186237,-1.573281079530716,0.2613230675831437,-9.780081551671026
