time,wind_speed,wind_angle,battery_voltage,battery_current,position_x,position_y,position_z,orientation_x,orientation_y,orientation_z,orientation_w,velocity_x,velocity_y,velocity_z,angular_x,angular_y,angular_z,linear_acceleration_x,linear_acceleration_y,linear_acceleration_z
0.0,0.5,316.0,25.466711044311523,-0.09542128443717957,-79.78276138235162,40.45906216388287,276.03987027502063,0.008234260603785515,0.017227178439497948,-0.6912773251533508,0.7223373055458069,-0.00928940401985226,-0.018124165743162685,0.008895644051464655,-0.0021079112775623803,-0.001425770577043295,-0.00406776601448655,-0.13695558635517954,-0.3664093734696508,-9.801965340971947
0.2,0.5,316.0,25.45794677734375,-0.11927660554647446,-79.78276129887772,40.45906214692421,276.04798660969743,0.008235827088356018,0.017222346737980843,-0.6912800669670105,0.7223347425460815,-0.0057907832008784145,-0.016963164673904713,0.009679867215860716,0.010275639593601229,0.0027523101307451725,0.0059616691432893285,-0.13060349103994667,-0.3854798480495811,-9.80394169986248
0.3,0.4000000059604645,317.0,25.46796417236328,-0.09542128443717957,-79.78276134145302,40.45906215970253,276.05006070232395,0.008259379304945469,0.017219532281160355,-0.6912701725959778,0.7223440408706665,-0.011586880517719464,-0.019776835052541512,0.009952082608276906,-0.007165943738073111,-0.003472057171165943,-0.008781873621046543,-0.13643778800033032,-0.3659334832057357,-9.800880097746848
0.5,0.4000000059604645,315.0,25.46420669555664,-0.07951773703098297,-79.78276124810091,40.459062133371866,276.0582191178799,0.008264757692813873,0.017232894897460938,-0.6912670135498047,0.7223466634750366,-0.0063592498016121065,-0.01786096803382673,0.010560463808395884,0.0058867246843874454,0.003549879882484674,0.006760283373296261,-0.13051585589535536,-0.3819262758269906,-9.804442806243896
0.6,0.4000000059604645,322.0,25.46921539306641,-0.04771064221858978,-79.7827611583861,40.45906209475889,276.06790356135366,0.008273395709693432,0.01726808212697506,-0.6912582516670227,0.7223540544509888,-0.002262001974393788,-0.013719047533998557,0.011457470015738859,-0.004587460774928331,-0.0016060295747593045,-0.008722490631043911,-0.1367088978085667,-0.3649745032936335,-9.800447403788567
0.8,0.4000000059604645,328.0,25.46796417236328,-0.07156596332788467,-79.78276117466613,40.45906209542448,276.06907795166967,0.00827196054160595,0.017270633950829506,-0.6912476420402527,0.7223642468452454,-0.0031031283182747023,-0.015513255270237697,0.011471547296268954,0.006072456482797861,0.0024803702253848314,0.00644971476867795,-0.13189547901973128,-0.38229172680526974,-9.804538115859033
0.9,0.5,332.0,25.466711044311523,-0.07951773703098297,-79.7827611038743,40.4590620866569,276.07889763808254,0.008279883302748203,0.017269367352128032,-0.6912432909011841,0.7223682999610901,-0.006972513078194011,-0.01528055691582112,0.011943176131325868,-0.008334711194038391,-0.003477198071777821,-0.008399280719459057,-0.13721695689484478,-0.36514809250831604,-9.801834363341332
1.1,0.5,332.0,25.47297096252441,-0.07156596332788467,-79.78276112203059,40.45906209177875,276.0801402757168,0.008279470726847649,0.017282599583268166,-0.6912298202514648,0.7223808765411377,-0.007863850087489034,-0.017050785334240003,0.01191779288142378,0.006732650566846132,0.0063561019487679005,0.005944880191236734,-0.13164997818879784,-0.38336958792060616,-9.804232306480408
1.21,0.5,325.0,25.470468521118164,-0.07951773703098297,-79.78276106440363,40.459062075108854,276.0914773175717,0.008284959010779858,0.01728556677699089,-0.6912055611610413,0.7224039435386658,-0.008787610085344535,-0.017627005341850573,0.014682861328606831,-0.0005890405736863612,-0.000833352271001786,-0.0053247581236064425,-0.13718249486759307,-0.3660987035930157,-9.80040004134178
1.4,0.5,323.0,25.46796417236328,-0.07156596332788467,-79.78276108631741,40.459062082382076,276.09299970960615,0.008277187123894691,0.017269805073738098,-0.6912112236022949,0.7223990559577942,-0.009839510264198431,-0.019366378395317446,0.0146110050944677,0.011344811879098415,0.0030796180944889784,0.008366142399609089,-0.13158437060192227,-0.3847880493476987,-9.803763944506644
1.5,0.5,322.0,25.46170234680176,-0.07156596332788467,-79.78276105244605,40.459062042959644,276.1053210625649,0.008297120220959188,0.017288021743297573,-0.6912240386009216,0.7223860621452332,-0.0064318229345439355,-0.022374393015135524,0.017311065788407222,-0.002816098742187023,-0.00015811558114364743,-0.0042587663047015676,-0.13632678226567804,-0.3672739573940635,-9.800449157953263
1.7,0.6000000238418579,322.0,25.4654598236084,-0.07156596332788467,-79.78276098821556,40.459062020989705,276.11365882849697,0.008290299214422703,0.01729164831340313,-0.6912325024604797,0.7223780155181885,-0.002776764986717757,-0.02262018213200843,0.01570396663180595,0.0065878313034772856,0.004227682948112489,0.002112060086801648,-0.13165177803486586,-0.38368131760507823,-9.805338599681855
1.8,0.699999988079071,322.0,25.46796417236328,-0.07156596332788467,-79.78276104388264,40.45906202757801,276.11693961715696,0.008289487101137638,0.017272312194108963,-0.6912175416946411,0.722392737865448,-0.00828898213026639,-0.02546374929915484,0.016049444249777275,-0.008078223094344139,-0.0005458802916109562,-0.009495561942458151,-0.13714964082464576,-0.3656632322072983,-9.800436294078828
2.0,0.699999988079071,318.0,25.45794677734375,-0.08746951073408127,-79.78276088948618,40.45906198597736,276.1253825554848,0.008268585428595543,0.01729329489171505,-0.6912131905555725,0.722396731376648,-0.0010139062808558377,-0.01301761133928295,0.0152932031705582,0.008152960799634457,0.001888507627882064,0.007193564437329769,-0.13102732281200588,-0.3830513532087207,-9.804032916426658
2.1,0.699999988079071,312.0,25.4654598236084,-0.07951773703098297,-79.78276087198131,40.459061992381024,276.13527732884893,0.008283973671495914,0.017287826165556908,-0.6912053823471069,0.7224040627479553,-0.008208978812155323,-0.018854679963629186,0.014679886031045537,-0.0063980878330767155,-0.0021649501286447053,-0.00706642121076584,-0.13830587290227414,-0.3657651199400425,-9.80211502969265
2.3,0.699999988079071,308.0,25.460451126098643,-0.07156596332788467,-79.78276089423099,40.459061997834574,276.13680003380784,0.008281027898192406,0.01729812100529671,-0.6911956667900085,0.722413182258606,-0.009050694964493412,-0.020514436459033083,0.014659772299347137,0.006702495273202658,0.0012261894298717382,0.007718749344348907,-0.13185624785721306,-0.3819333655759693,-9.80473282814026
2.4,0.699999988079071,299.0,25.470468521118164,-0.07951773703098297,-79.78276080221687,40.459061966859814,276.1462486366034,0.008290978148579597,0.017306547611951828,-0.6911821961402893,0.7224257588386536,-0.004550444395771623,-0.01329826707926272,0.014386095684110548,-0.0019872561097145076,-0.001414251048117876,-0.005776423495262861,-0.13676891399547458,-0.3644675862416625,-9.80183085501194
2.6,0.6000000238418579,295.0,25.475475311279297,-0.07156596332788467,-79.78276081797054,40.45906196993013,276.1477275023461,0.008297380059957504,0.01730793155729771,-0.6911904215812683,0.7224178314208984,-0.005607270404531146,-0.015010529404172534,0.014388443109451119,0.006938363891094923,0.0008857964421622455,0.005587924271821976,-0.13213382614776492,-0.3832498661801219,-9.80440304517746
2.71,0.6000000238418579,300.0,25.45794677734375,-0.07156596332788467,-79.78276077632354,40.45906197403319,276.1571829149724,0.008318687789142132,0.017305100336670876,-0.6911768913269043,0.7224305272102356,-0.009196487042335796,-0.01552331783866521,0.014161110871937025,-0.006853241007775068,-0.003416825318709016,-0.007003272883594036,-0.1369066250603646,-0.3665635937824845,-9.801989899277688
2.9,0.6000000238418579,303.0,25.46921539306641,-0.07156596332788467,-79.78276079594995,40.459061981565135,276.1586500535012,0.008295193314552305,0.017295297235250473,-0.6911807656288147,0.7224273681640625,-0.010169687815504204,-0.01746126236902741,0.014128482748752147,0.008884691633284092,0.0049676145426929,0.00624496815726161,-0.13258005092851818,-0.38124876625835896,-9.804707685112954
3.0,0.6000000238418579,303.0,25.46921539306641,-0.07951773703098297,-79.78276081312104,40.45906198584103,276.1682304272652,0.008296209387481213,0.01729346439242363,-0.6911556720733643,0.7224513292312622,-0.012943026809794395,-0.02421671686352636,0.013764958340020034,-0.0071062506176531315,-0.0035515150520950564,-0.007770359981805086,-0.13918433482758702,-0.3674253637343645,-9.801088258624075
3.2,0.5,302.0,25.466711044311523,-0.07951773703098297,-79.78276073286351,40.45906197691349,276.17786551809314,0.008282667957246305,0.017321279272437096,-0.6911523342132568,0.7224540114402771,-0.008753135794225297,-0.01749738886841138,0.015907074292769646,0.00466547068208456,0.0012465071631595492,0.006052864715456964,-0.13287248480133712,-0.3789402124285698,-9.803973859548568
3.3,0.4000000059604645,304.0,25.46796417236328,-0.07156596332788467,-79.78276077640717,40.459061994275814,276.18123227155206,0.00828858744353056,0.017324646934866902,-0.691140353679657,0.7224653959274292,-0.014180359388982187,-0.02003934036729165,0.016493564846944954,-0.005829831585288048,-0.00488309608772397,-0.00975249893963337,-0.13767653890885415,-0.3672391299158335,-9.801912716031074
3.5,0.4000000059604645,301.0,25.460451126098643,-0.07156596332788467,-79.78276075076613,40.45906198356728,276.1885676810742,0.008269350044429302,0.017319705337285995,-0.6911405324935913,0.7224655151367188,-0.00852834948267759,-0.021699098693288413,0.015051794255713047,0.005302603356540203,0.002808280987665057,0.004336161073297261,-0.13216934798285365,-0.3791320741921663,-9.804557996392253
3.61,0.4000000059604645,308.0,25.46921539306641,-0.07156596332788467,-79.7827607135744,40.459061996569964,276.19763508236406,0.00825178436934948,0.01733507215976715,-0.6911400556564331,0.7224658131599426,-0.01077626358992926,-0.016591753841994225,0.014496989397454628,-0.004855194129049778,-0.006519631948322058,-0.008770862594246864,-0.13720616695471108,-0.3676250096037984,-9.801591703891754
3.8,0.4000000059604645,310.0,25.474224090576172,-0.07156596332788467,-79.78276073365477,40.4590620045356,276.1991465518475,0.008260143920779228,0.017344040796160698,-0.6911508440971375,0.7224552035331726,-0.011501383521460276,-0.018346862641263454,0.014437160875065115,0.011750013567507269,0.003970059100538492,0.004460417665541172,-0.13176363344304265,-0.3803200091421604,-9.804111269116405
3.9,0.4000000059604645,314.0,25.4654598236084,-0.06361418962478638,-79.78276074145785,40.45906200235525,276.2103736827374,0.008257126435637474,0.01734587363898754,-0.6911361813545227,0.7224692702293396,-0.009709424799629678,-0.02109491299071197,0.017377567511538322,-0.009130719117820265,-0.00384579855017364,-0.008736739866435528,-0.1362637419719249,-0.3672796218842268,-9.801473590135577
4.1,0.4000000059604645,318.0,25.4654598236084,-0.07951773703098297,-79.78276076652052,40.45906200940409,276.21217338538173,0.008250975981354712,0.017348220571875572,-0.6911411285400391,0.7224645018577576,-0.010594886815604287,-0.02275004422531651,0.017372804762025768,0.003703232854604721,0.0022094903979450464,0.00569315394386649,-0.1320310065150261,-0.3782033170759678,-9.804504786729813
4.2,0.30000001192092896,324.0,25.46420669555664,-0.07951773703098297,-79.78276074490681,40.45906201504446,276.2212512025833,0.008246045559644699,0.017366351559758186,-0.6911182403564453,0.7224860191345215,-0.010803209592642605,-0.019105892763697084,0.016549174818549187,-0.007567896973341703,-0.0041733388788998136,-0.008917229250073433,-0.1379783557355404,-0.3696611197292805,-9.803090929985046
4.4,0.30000001192092896,328.0,25.46170234680176,-0.07951773703098297,-79.78276076876222,40.45906202371112,276.2229671308994,0.008246378973126411,0.01736113801598549,-0.6911170482635498,0.7224873304367065,-0.01175351879632138,-0.020983086654794748,0.01654740573356526,0.005732355173677206,0.003943787887692452,0.0037951262202113867,-0.133079567598179,-0.3765436945483089,-9.804272652268413
4.5,0.30000001192092896,330.0,25.466711044311523,-0.07156596332788467,-79.78276076517831,40.4590620410305,276.2344598451853,0.008257174864411354,0.017376357689499855,-0.6910969614982605,0.7225060462951659,-0.014027652596650038,-0.019801083964013484,0.01858899446469339,-0.00875113531947136,-0.0017609470523893829,-0.0068459948524832726,-0.1386582133267075,-0.3691793091595173,-9.801143222451213
4.7,0.30000001192092896,333.0,25.4654598236084,-0.07951773703098297,-79.78276072441183,40.459062038561356,276.24184472656253,0.0082544619217515,0.01739300973713398,-0.6911059021949768,0.7224971055984497,-0.007770184112131808,-0.01481799468220314,0.01648161289418665,0.005465906113386154,0.0021810911130160093,0.004881034605205059,-0.13252439274452624,-0.3762727491930127,-9.80290849685669
4.8,0.30000001192092896,336.0,25.45794677734375,-0.07156596332788467,-79.78276076154101,40.45906205376373,276.2452888617516,0.008235286921262741,0.017379226163029667,-0.6911156177520752,0.7224883437156677,-0.01291216033630763,-0.016944039621031297,0.01683371010380982,-0.009299837052822113,-0.002625067485496402,-0.009880760684609413,-0.13723675520159306,-0.3690489893406629,-9.800675445199014
5.0,0.30000001192092896,333.0,25.466711044311523,-0.07951773703098297,-79.78276076732796,40.45906204699829,276.25470072573427,0.008235939778387547,0.017367690801620483,-0.691114068031311,0.722490131855011,-0.007415509395863767,-0.01985396648700256,0.018420101123811226,0.004717553500086069,0.0039484454318881035,0.002912601921707392,-0.132065112227574,-0.3755098337307573,-9.802759977579116
5.1,0.30000001192092896,331.0,25.46295547485352,-0.06361418962478638,-79.78276079739615,40.459062071970905,276.26390896534923,0.008247628808021545,0.017381688579916954,-0.6911118030548096,0.7224918007850647,-0.010442109371681527,-0.021920558338517863,0.01707106112790259,-0.007514292839914558,-0.0034202877432107925,-0.010349122807383536,-0.13824680688790975,-0.3686922726407647,-9.801161933541296
5.3,0.5,333.0,25.46295547485352,-0.09542128443717957,-79.7827608235748,40.459062079115306,276.26567946171764,0.008239981718361378,0.01739063672721386,-0.6911196112632751,0.7224841713905334,-0.011199570375200942,-0.023553168437724144,0.017100710070962144,0.004972294438630343,0.003445915877819061,0.001759144477546215,-0.13214657125063242,-0.3768583112955093,-9.804569690823556
5.4,0.6000000238418579,327.0,25.45544242858887,-0.09542128443717957,-79.78276078530085,40.45906207743414,276.27648300474885,0.008229169063270092,0.017405131831765175,-0.691109836101532,0.7224932909011841,-0.007423004681372419,-0.013599991548740005,0.019129572203239853,-0.003409112337976694,0.0013686928432434795,-0.007237224839627744,-0.1386044189427048,-0.3691695516183973,-9.801659531593325
5.6,0.6000000238418579,327.0,25.452938079833984,-0.11132483184337616,-79.78276080118455,40.45906208243146,276.27844445204744,0.008235858753323555,0.01740640588104725,-0.6911125779151917,0.7224906086921692,-0.00824598501712291,-0.015164021299145874,0.01914474052304175,0.004452030174434185,0.0015400962438434362,0.006086048670113087,-0.13218738298863172,-0.3782137324288488,-9.803531225323676
5.7,0.699999988079071,318.0,25.454191207885746,-0.08746951073408127,-79.78276084316815,40.45906213442716,276.2864383066297,0.008247396908700466,0.017405036836862564,-0.6911041736602783,0.7224985957145691,-0.01482149131762481,-0.018977722353020747,0.0167706906534757,-0.007826120592653751,-0.0019703400321304802,-0.00680701807141304,-0.13774021874181927,-0.3675100387260318,-9.801320977807043
5.9,0.8000000119209291,314.0,25.46170234680176,-0.08746951073408127,-79.78276086697859,40.45906214669125,276.28819890862707,0.008268950507044792,0.017398901283740997,-0.6910942792892456,0.7225078344345093,-0.015595019399125628,-0.020670645238416184,0.016820208573228742,0.007556419353932142,0.00389352161437273,0.006103836931288242,-0.1315048576053232,-0.3807717796415091,-9.804376732707023
6.0,0.8000000119209291,306.0,25.46170234680176,-0.07156596332788467,-79.78276088577017,40.45906216097465,276.29837913608554,0.00827585905790329,0.017412632703781128,-0.6910725235939026,0.7225282788276672,-0.013299846246239982,-0.01970409176176596,0.018988948851119264,-0.00934320967644453,-0.0019277350511401887,-0.008603121154010296,-0.13681332542560995,-0.3667798311263323,-9.801914470195769
6.2,0.8000000119209291,304.0,25.45794677734375,-0.11927660554647446,-79.7827608928143,40.45906218108416,276.3039445782304,0.008279912173748016,0.017433403059840202,-0.691074550151825,0.7225258350372314,-0.008445695195976695,-0.01887573569198581,0.016910510793584906,0.005011944565922022,0.0028453925624489784,0.0059342561289668075,-0.13317330577410758,-0.3785322595015169,-9.803513683676721
6.3,0.8999999761581421,299.0,25.45168685913086,-0.09542128443717957,-79.78276093933822,40.45906219756295,276.3074982891083,0.008265391923487186,0.017432613298296932,-0.6910525560379028,0.7225469946861267,-0.013550586183688342,-0.021074163347222584,0.017317115654154253,-0.0037276609800755978,-0.004164382349699736,-0.006941903382539749,-0.13793298499658704,-0.3675255338475109,-9.801148484945298
6.5,0.8999999761581421,298.0,25.46295547485352,-0.09542128443717957,-79.78276094023137,40.45906223443788,276.3120840916634,0.008268178440630436,0.01743251644074917,-0.6910581588745117,0.7225416898727417,-0.010678294757241007,-0.019053667267548882,0.014927697217039085,0.006083841435611248,0.0038069193251430993,0.005097028333693743,-0.13412378895096486,-0.3793155305832625,-9.804028823375702
6.6,0.8999999761581421,306.0,25.4654598236084,-0.10337305814027786,-79.78276094899226,40.45906227725485,276.3182992989421,0.008270635269582272,0.017458299174904823,-0.691040575504303,0.7225577235221863,-0.009175954504686824,-0.015151600954160812,0.014302456405890469,-0.008780690841376781,-0.003543812083080411,-0.007346040569245815,-0.13869924433529374,-0.37011694673448803,-9.801903360486033
6.8,1.0,304.0,25.4654598236084,-0.07156596332788467,-79.78276096739803,40.45906228403315,276.31978102198246,0.008244886994361876,0.017457226291298866,-0.6910380721092224,0.722560465335846,-0.009988183428539264,-0.016789520236236054,0.014316411300165244,0.008091509342193605,0.003949266858398914,0.004896650090813637,-0.1346257541421801,-0.37734012186527255,-9.803725937604904
6.9,0.8000000119209291,309.0,25.46796417236328,-0.07156596332788467,-79.78276099778458,40.45906232688983,276.3278851079047,0.008240981958806516,0.017474664375185966,-0.6910088062286377,0.7225881218910217,-0.00912569558197589,-0.016801337345545085,0.01695424912920249,-0.008312977850437164,-0.0061851353384554395,-0.006679199170321226,-0.13888893166556954,-0.3715039428323508,-9.801298758387565
7.1,0.8000000119209291,311.0,25.460451126098643,-0.07951773703098297,-79.78276101791555,40.459062333567225,276.32963516733054,0.008234812878072262,0.01747596077620983,-0.6909934282302856,0.7226029038429259,-0.009927367509407382,-0.018351398819048008,0.016943236979811427,0.0076224333606660375,0.002505754819139839,0.003427945775911212,-0.13402862551622094,-0.3737257020547986,-9.802567604184151
7.2,0.8000000119209291,314.0,25.46295547485352,-0.08746951073408127,-79.78276102051211,40.4590623720836,276.33704582399133,0.008241179399192333,0.017496010288596153,-0.6909964084625244,0.722599446773529,-0.008479400975713038,-0.0140314734646802,0.018459931445009604,-0.008634408004581928,-0.007020238321274519,-0.011333626694977285,-0.13789421978406607,-0.3714356765896082,-9.801143222451213
7.4,0.8000000119209291,318.0,25.460451126098643,-0.07156596332788467,-79.78276103810272,40.459062378809314,276.33894230967763,0.00824423599988222,0.017496466636657715,-0.6909929513931274,0.7226027846336365,-0.009487348448429859,-0.015666430329934006,0.018547594310107458,0.0064778011292219145,-6.825561285950243e-05,0.0032870136201381683,-0.13198111332021653,-0.373942012488842,-9.803850483298305
7.5,0.8999999761581421,320.0,25.45919990539551,-0.07156596332788467,-79.78276109367494,40.45906244935144,276.34429624474046,0.008213505148887634,0.017507364973425858,-0.6909902095794678,0.7226054668426514,-0.012786853496276946,-0.01910238905448116,0.016565401106052455,-0.0035435939207673077,-0.005010382737964393,-0.007774042896926403,-0.13853755054995415,-0.3724527632072568,-9.802126724123957
7.7,0.8999999761581421,323.0,25.46170234680176,-0.07951773703098297,-79.7827611256714,40.45906250195689,276.3475632721782,0.008219382725656033,0.017510863021016114,-0.6909978985786438,0.7225979566574097,-0.008058331613781562,-0.02107717985103108,0.014759371297490581,0.0026876702904701233,0.00041870688437484216,0.0026338950265198946,-0.1338239821046591,-0.3728341113030911,-9.803110225796699
7.8,0.8000000119209291,321.0,25.45794677734375,-0.07156596332788467,-79.78276117744821,40.45906251693168,276.35067638924716,0.008229929022490978,0.017518581822514534,-0.6909841299057007,0.7226107716560364,-0.012685289774613384,-0.022969299336312945,0.015206090629986046,-0.007836041040718555,-0.003807789413258433,-0.00908407848328352,-0.13730736946687105,-0.3745734386891127,-9.802560002803805
8.0,0.8000000119209291,321.0,25.46170234680176,-0.07156596332788467,-79.78276118531943,40.45906259177117,276.3533615207524,0.008239725604653358,0.017525594681501392,-0.6909917593002319,0.7226032018661499,-0.011438169730256836,-0.0204019411363355,0.013589501497781473,0.003900815499946475,0.004440160002559424,0.0014440416125580668,-0.13548149415291846,-0.3709447297453881,-9.801961832642556
8.1,0.8000000119209291,319.0,25.466711044311523,-0.07156596332788467,-79.78276120660709,40.459062666841476,276.3570053519905,0.008216925896704197,0.017547158524394042,-0.6909618377685547,0.7226315140724182,-0.010535897675194259,-0.016784930733536287,0.013163196650550444,-0.0058308616280555725,-0.004110740963369608,-0.007641509175300598,-0.13920019540004433,-0.3757480346783996,-9.80140049993992
8.31,0.8000000119209291,318.0,25.45919990539551,-0.09542128443717957,-79.78276124915499,40.459062684594564,276.35977876728776,0.00822780467569828,0.017549153417348858,-0.6909517049789429,0.722641110420227,-0.013076501170597584,-0.019031126487543668,0.013360126328508573,0.003982740454375744,0.0033717050682753325,0.0058962153270840645,-0.13404950190335513,-0.3731686816737056,-9.801749578714373
8.4,0.8000000119209291,317.0,25.46420669555664,-0.08746951073408127,-79.78276126594028,40.4590627680245,276.3613304345161,0.008227785117924212,0.01756148971617222,-0.6909586191177368,0.7226341962814331,-0.013352024753967795,-0.017325485991486658,0.012601675314796593,-0.0057063866406679145,-0.0017572713550180195,-0.006717486772686243,-0.1384503904916346,-0.375359962284565,-9.80181857585907
8.6,0.8000000119209291,314.0,25.46796417236328,-0.10337305814027786,-79.78276128682529,40.45906277847431,276.3626598006338,0.008219517767429352,0.017572496086359024,-0.6909613013267517,0.7226314544677734,-0.014362856232454747,-0.018715825805209068,0.012609290704112387,0.0007257135584950447,0.002743437187746167,-0.002360811922699213,-0.13445799387060106,-0.3702211733534933,-9.80210391998291
8.7,0.699999988079071,313.0,25.46796417236328,-0.06361418962478638,-79.78276132466983,40.459062856067426,276.36239084957543,0.008208549581468105,0.01757872849702835,-0.6909525394439697,0.7226397395133972,-0.011097319752579198,-0.01750749812556975,0.008585879853119748,-0.008477715775370598,-0.006099827587604523,-0.005557707045227289,-0.1382645129878074,-0.3766536587476729,-9.801938443779946
8.9,0.699999988079071,315.0,25.46170234680176,-0.07951773703098297,-79.78276134662156,40.45906286532885,276.3633072095216,0.008213949389755726,0.017566204071044922,-0.6909569501876831,0.7226358652114868,-0.012375182079929426,-0.018927280986160158,0.008524748052059331,0.0007430917466990652,0.004491132218390703,0.00032779574394226074,-0.1342751039285213,-0.3703459748625755,-9.801598720550537
9.0,0.699999988079071,314.0,25.466711044311523,-0.07156596332788467,-79.78276138288149,40.45906296893162,276.36554123351726,0.008212472312152386,0.017560455948114395,-0.6909444332122803,0.7226479053497314,-0.01481092989541181,-0.01797560678662929,0.009353041198032269,-0.005068115890026093,-0.0026693525724112988,-0.007236027624458075,-0.1377184835448861,-0.3778893581405282,-9.801853659152986
9.2,0.699999988079071,314.0,25.460451126098643,-0.07951773703098297,-79.78276140045244,40.45906304864927,276.3663941014782,0.0082224290817976,0.017578557133674618,-0.6909440159797668,0.7226478457450867,-0.011476991851474454,-0.017610426933436563,0.00962218349881637,-0.0003595122252590955,0.002507275203242898,-0.0018228174885734922,-0.13510174490511415,-0.3697558080777526,-9.80219396710396
9.3,0.699999988079071,316.0,25.45794677734375,-0.06361418962478638,-79.78276144428209,40.459063069702395,276.36850074103484,0.008216384798288345,0.01757744327187538,-0.6909284591674805,0.7226626873016357,-0.015555323627982018,-0.019261858153875745,0.01010108256185952,-0.006902858149260282,-0.0017174636013805866,-0.0066014048643410215,-0.13626397951506078,-0.3794673754647374,-9.803242372870448
9.5,0.699999988079071,315.0,25.46420669555664,-0.07156596332788467,-79.78276143425491,40.45906314248607,276.36675449816886,0.008228320628404617,0.01759118214249611,-0.6909381747245789,0.7226530313491821,-0.010336697041974012,-0.014743983922771096,0.007098658797153267,0.0001407463278155774,-0.00020360272901598364,-0.004230977967381477,-0.1358817086555064,-0.3668752869218588,-9.801848396658896
9.6,0.699999988079071,314.0,25.46796417236328,-0.07156596332788467,-79.78276146310459,40.45906322074586,276.36764529517296,0.00823319423943758,0.017623143270611763,-0.690918505191803,0.7226709723472595,-0.007808130533822214,-0.014786589809729191,0.00841974107741247,-0.003217248246073723,-0.004670357331633568,0.0018114310223609207,-0.13542232763953507,-0.3848041657358408,-9.803858669400217
9.8,0.699999988079071,313.0,25.460451126098643,-0.07951773703098297,-79.78276148122927,40.459063226555855,276.3685360288472,0.008247481659054756,0.017638910561800003,-0.6909204125404358,0.7226685285568237,-0.009534613483347784,-0.015990503582667882,0.008559473159848967,-0.00471019558608532,-0.003152006072923541,-0.004280911758542061,-0.13604767821729186,-0.3667499006912112,-9.801714495420457
9.91,0.699999988079071,314.0,25.46295547485352,-0.06361418962478638,-79.78276153730043,40.459063315239675,276.36886251515153,0.00824856199324131,0.017610931769013405,-0.6909089684486389,0.7226801514625549,-0.00863136388513748,-0.019135013136666275,0.009093683542282642,-0.00274983374401927,-0.005122577305883169,-0.0015840580454096198,-0.13553357091732324,-0.3856573110446334,-9.802523165345193
10.1,0.699999988079071,317.0,25.466711044311523,-0.07156596332788467,-79.78276156040249,40.45906332170452,276.3698240610064,0.008247648365795612,0.017617026343941692,-0.690911054611206,0.7226781249046326,-0.010420373766394013,-0.02031266445939306,0.009190663174471165,-0.0030875327065587052,-0.0014564843149855733,-0.006780353374779224,-0.13696112293750048,-0.3655495769530535,-9.801242625117304
10.2,0.699999988079071,318.0,25.46295547485352,-0.08746951073408127,-79.78276159713606,40.459063422670695,276.36946470832834,0.008248309604823591,0.017609355971217155,-0.6908915042877197,0.7226969599723816,-0.012525635247657064,-0.01965863336191152,0.00967478378604418,-0.0017622661544010047,-0.0006335651851259173,0.00046681438107043516,-0.13590578273870052,-0.3859235420823097,-9.804348081350328
10.4,0.699999988079071,318.0,25.45794677734375,-0.07951773703098297,-79.78276162173005,40.45906343332555,276.37050261378664,0.008250299841165544,0.01761864684522152,-0.6908978223800659,0.7226907014846802,-0.014401506325082188,-0.02097055812117006,0.009773920400834324,-0.005532266572117806,-0.0030864707659929986,-0.004828787874430418,-0.13722792042419316,-0.3653794960677624,-9.801798695325852
10.5,0.699999988079071,315.0,25.460451126098643,-0.07951773703098297,-79.78276167338245,40.45906353676514,276.36743444001684,0.008253339678049088,0.017618460580706596,-0.6908808946609497,0.7227067947387695,-0.015627125791951774,-0.02252589454929801,0.007198382165492981,-0.0014339342014864087,-0.0022317864932119846,-0.0016749657224863768,-0.13532165503129365,-0.3828367238491774,-9.80220741569996
10.7,0.6000000238418579,313.0,25.45919990539551,-0.06361418962478638,-79.78276164643435,40.45906360049461,276.3625398462862,0.008269965648651123,0.01765732280910015,-0.6908926367759705,0.7226944565773009,-0.008771438280680815,-0.015290795766554472,0.004466490597992541,3.948498488171026e-05,0.0007978188805282116,-0.0017542850691825151,-0.13579622053541246,-0.3669275829568506,-9.802606195807456
10.8,0.6000000238418579,308.0,25.45794677734375,-0.07156596332788467,-79.78276168495984,40.45906361678768,276.3635805182383,0.00825979746878147,0.017649982124567032,-0.6908721327781677,0.7227143049240112,-0.012481275167753835,-0.016914928802502113,0.004886477837750651,-0.007147543597966433,-0.0005416168714873493,-0.0053913011215627185,-0.13666596645489335,-0.3799575183168054,-9.80281143307686
11.0,0.6000000238418579,307.0,25.46796417236328,-0.06361418962478638,-79.78276166086832,40.45906368878124,276.36048192700747,0.008273747749626638,0.017661934718489647,-0.6908782720565796,0.722707986831665,-0.00805423483749164,-0.012869934365174548,0.006407755393224095,-0.00039409505552612245,0.004241217859089375,0.0018317077774554489,-0.1347708381805569,-0.3698620446771384,-9.802171162962914
11.1,0.6000000238418579,309.0,25.474224090576172,-0.04771064221858978,-79.782761693375,40.459063704199366,276.36188768765334,0.008279268629848957,0.01765468157827854,-0.6908597946166992,0.7227257490158081,-0.01199331429291167,-0.014359365377919412,0.006800549365670093,-0.0067814309149980545,-0.003972394857555628,-0.007146029267460108,-0.13684754990972578,-0.3735518570244312,-9.802713199853898
11.3,0.6000000238418579,311.0,25.452938079833984,-0.07156596332788467,-79.7827617175677,40.45906381415213,276.35547666794065,0.00829602126032114,0.01766206882894039,-0.6908548474311829,0.7227301597595215,-0.014258337648086691,-0.017441691159235013,0.00415425328201065,-0.00037214302574284375,-0.0015558189479634164,0.0029505589045584197,-0.13240085204131902,-0.3729218195378781,-9.80325406730175
11.41,0.6000000238418579,313.0,25.456695556640625,-0.06361418962478638,-79.78276172122047,40.45906389478121,276.3513801543266,0.008317815139889717,0.0176724623888731,-0.6908494830131531,0.7227347493171692,-0.012796560696194269,-0.014556732104991466,0.005714694130213431,-0.006245637312531471,-0.004699922632426024,-0.0074321930296719066,-0.13900659774430096,-0.3687596983462572,-9.801761273145676
11.6,0.6000000238418579,311.0,25.46170234680176,-0.04771064221858978,-79.78276173892773,40.459063905132254,276.35201762600246,0.008316852152347566,0.017682993784546852,-0.6908456683158875,0.7227382063865662,-0.013189611509489435,-0.01590382438742981,0.005686411224501754,0.003261568723246455,0.004332626238465309,0.005205237306654453,-0.13246684335172176,-0.3784072387218476,-9.803796104192736
11.71,0.5,309.0,25.4654598236084,-0.07951773703098297,-79.78276172950909,40.45906397594921,276.3472761212141,0.008327433839440346,0.017692768946290016,-0.6908292770385742,0.7227534651756287,-0.010079124923052437,-0.012350791055701242,0.007327523274262992,-0.005387965124100447,-0.005379782523959875,-0.008471731096506119,-0.13829886537976566,-0.3674079317227006,-9.801627371907237
11.9,0.6000000238418579,307.0,25.46295547485352,-0.05566241592168808,-79.78276174519044,40.45906398434963,276.3480620326698,0.008324027992784977,0.017677664756774902,-0.6908164024353027,0.7227662801742554,-0.010334399444164087,-0.013744226770755838,0.007290377909954885,0.007763240020722152,0.004366970155388117,0.007350326515734196,-0.1315636860765517,-0.38035224191844463,-9.804545132517816
12.0,0.6000000238418579,308.0,25.449182510375977,-0.04771064221858978,-79.78276179014726,40.459064061903035,276.3402705880106,0.008332178927958013,0.017692316323518753,-0.6907984018325806,0.7227829098701477,-0.01050599588846059,-0.017513675012032062,0.005040461331575193,-0.0071129584684968,-0.0009692517924122511,-0.010621554218232632,-0.13808239049278198,-0.3667066678404808,-9.800213515162467
12.2,0.6000000238418579,305.0,25.452938079833984,-0.06361418962478638,-79.78276181197953,40.45906407063089,276.34083630314467,0.008319940418004991,0.0176934152841568,-0.6908102035522461,0.7227717638015747,-0.01081898864225518,-0.018899933908150045,0.004992320582198552,0.004820886068046093,0.004807812161743641,0.0066463262774050244,-0.1307792181428522,-0.3806922940537334,-9.804442806243896
12.3,0.6000000238418579,308.0,25.454191207885746,-0.015903547406196594,-79.78276185734396,40.45906414509787,276.33454888483885,0.008331465534865856,0.017688149586319923,-0.6908009052276611,0.7227806448936462,-0.010542992738765336,-0.02143315983367314,0.006287332955918324,-0.005083562340587378,-0.0018288847059011466,-0.008023629896342754,-0.13729167334735395,-0.3658637917041779,-9.800305901169775
12.5,0.699999988079071,310.0,25.440418243408203,0.0,-79.78276183986577,40.45906419774306,276.32653816586736,0.008330077864229679,0.01770142465829849,-0.6908063888549805,0.7227751612663269,-0.00414194002846112,-0.017524926002383687,0.006836499538188046,0.008334549143910408,0.007639885414391756,0.0068225059658288964,-0.13173978776670994,-0.3817828728631139,-9.80419780790806
12.6,0.699999988079071,314.0,25.440418243408203,0.0,-79.78276188374183,40.45906426875969,276.3185467960537,0.008348297327756882,0.017697418108582497,-0.6907963752746582,0.7227845191955566,-0.004552135397335132,-0.02004495077575666,0.007478353942915875,-0.012405605986714365,-0.004726971499621868,-0.008930547162890434,-0.13692391089163722,-0.3656375775486231,-9.801480022072793
12.8,0.699999988079071,315.0,25.43540954589844,-0.015903547406196594,-79.78276190761271,40.4590642714854,276.3193411099017,0.008353639394044876,0.017700495198369026,-0.6907990574836731,0.7227818369865417,-0.004886717136314192,-0.021284808128722663,0.007490505570516483,0.004900576546788216,0.0026865757536143064,0.008766774088144302,-0.13112570221535866,-0.3840481572970748,-9.80553097307682
12.91,0.699999988079071,315.0,25.427898406982425,0.07156596332788467,-79.78276190854663,40.459064344380714,276.3083777779937,0.008353271521627903,0.017711549997329712,-0.6907967925071716,0.7227838039398193,-0.0046956310844001965,-0.01600832602391929,0.004631480572508439,-0.004635557066649199,-0.0022039045579731464,-0.007843470200896263,-0.13618493246845906,-0.36490473870188,-9.800394778847696
13.1,0.699999988079071,318.0,25.44667816162109,0.007951773703098297,-79.7827619276959,40.45906434773231,276.30888024514917,0.008343444205820559,0.017719220370054245,-0.6907819509506226,0.7227978110313416,-0.004989191611704858,-0.017264967593446142,0.004534602482779993,0.0075380802154541016,0.0024912210647016764,0.004528115969151258,-0.13021180068142713,-0.3842860293388367,-9.803824170827866
13.2,0.699999988079071,322.0,25.44542694091797,-0.007951773703098297,-79.78276202118222,40.4590644587017,276.2966086695194,0.008350720629096031,0.01772176846861839,-0.6907607913017273,0.7228179574012756,-0.012286042424309423,-0.02599194978740594,0.0021093640641640828,-0.006433438975363971,-0.0019961942452937365,-0.005720984656363726,-0.13734512055292727,-0.3663011268898845,-9.800555577278137
13.4,0.8000000119209291,320.0,25.44793128967285,0.015903547406196594,-79.78276205303183,40.45906446883804,276.29690567946443,0.00835283752530813,0.017707180231809616,-0.6907720565795898,0.7228074669837952,-0.012557967985046848,-0.027247362766708715,0.0021603037030073088,0.007928183302283287,0.004187040496617557,0.007106940262019634,-0.13080307295545934,-0.3848019364848733,-9.804380825757981
13.5,0.699999988079071,325.0,25.45168685913086,-0.007951773703098297,-79.78276203670049,40.45906450105488,276.28465895897153,0.008361479267477991,0.01773446425795555,-0.6907666325569153,0.7228119373321533,-0.005174839636832786,-0.01910044376687368,0.0014876956267581164,-0.004733193200081587,-0.0026599320117384195,-0.004934644792228937,-0.1365346964634955,-0.3666586841270328,-9.800808176994323
13.7,0.699999988079071,324.0,25.44667816162109,-0.039758868515491486,-79.78276204490129,40.45906454915901,276.27301403677467,0.008354650810360909,0.017747648060321808,-0.6907538771629333,0.7228239178657532,0.0011810085045251848,-0.017564617195205315,0.0035998744338801383,0.00758476834744215,0.0045576337724924105,0.0032305021304637194,-0.1304698090720922,-0.3871181647852063,-9.805343277454378
13.81,0.699999988079071,326.0,25.440418243408203,0.007951773703098297,-79.7827620878561,40.459064548834796,276.27381662076715,0.008348935283720493,0.017730293795466427,-0.6907555460929871,0.7228228449821472,-0.002676226274584911,-0.01953477594110269,0.0038347068469656007,0.00033179123420268297,3.2061197998700663e-05,-0.004928481299430132,-0.13698863225989044,-0.3668011003732681,-9.800780695080755
14.0,0.699999988079071,326.0,25.439167022705078,0.007951773703098297,-79.78276209506042,40.459064616866996,276.25929324871305,0.00830832775682211,0.01774393394589424,-0.6907531023025513,0.7228252291679382,-0.0005453491579447921,-0.01782305703597916,0.0017091360877851064,0.0051047466695308685,0.0043744901195168495,0.006525642238557339,-0.1306651791650802,-0.38626604273915294,-9.805460806488991
14.1,0.699999988079071,329.0,25.45043563842773,0.0,-79.78276216592954,40.45906468947891,276.24407696521286,0.008359922096133232,0.017778025940060616,-0.6907432079315186,0.7228332161903381,-0.002127615223148872,-0.023216448594988816,7.820706918643156e-05,-0.002679905388504267,0.001817846205085516,-0.0004241275601089001,-0.1355606782436371,-0.36721749521791935,-9.800950849056244
14.3,0.699999988079071,330.0,25.44167137145996,0.02385532110929489,-79.78276219330773,40.45906469052453,276.24413455820087,0.008349712938070297,0.017781376838684082,-0.6907365918159485,0.7228396534919739,-0.002671348561896038,-0.024272222272040195,0.00020871410632188829,0.009285513311624529,0.003128968877717853,0.007458233740180731,-0.13125768483616412,-0.3896251219511032,-9.805336845517159
14.4,0.699999988079071,331.0,25.449182510375977,0.0,-79.7827622119405,40.45906475802104,276.23051647639284,0.00834006816148758,0.017780685797333717,-0.6907482743263245,0.7228286266326904,-0.002987493979054298,-0.019552938969572692,0.0022066533388808394,0.004039601422846317,0.0009756507934071123,-0.00023286225041374564,-0.13447704300284385,-0.3712052232027054,-9.801135621070863
14.6,0.699999988079071,333.0,25.436662673950195,-0.007951773703098297,-79.78276223492523,40.45906476018314,276.2307842800617,0.00833712052553892,0.017793886363506317,-0.690741240978241,0.7228350639343262,-0.0040299728612071374,-0.020345278265981454,0.0022619609115355844,0.003918451722711325,0.003874651622027159,0.004321034997701645,-0.13032486207783225,-0.3920680521056056,-9.804454500675202
14.7,0.699999988079071,334.0,25.44167137145996,0.007951773703098297,-79.78276223043831,40.45906482850626,276.21640507674215,0.008350760675966741,0.01783372089266777,-0.6907338500022888,0.7228409051895142,-0.0033481605406056386,-0.013493698706358446,0.0038750313592318467,0.004570549819618464,0.004324748646467924,0.0014375739265233278,-0.1337908082921058,-0.37230212431401016,-9.80361951828003
14.9,0.699999988079071,334.0,25.44542694091797,0.015903547406196594,-79.7827622467816,40.45906483165388,276.21683546698097,0.008341273292899132,0.017830289900302887,-0.6907232999801636,0.7228512763977051,-0.004486411920769401,-0.01419371589110579,0.004038501352503064,0.005057327449321747,0.0044460659846663475,0.0017512928461655974,-0.13056747584603728,-0.39130528282374144,-9.804876084923745
15.0,0.6000000238418579,335.0,25.45043563842773,-0.06361418962478638,-79.78276228838574,40.45906490038279,276.19934047555927,0.008344939909875393,0.0178489051759243,-0.6907180547714233,0.7228557467460632,-0.0038643141541130897,-0.01510805961797772,0.0016302524282016994,0.0047512720339000225,0.003659057430922985,0.001915834262035787,-0.13270936575718226,-0.3737835894897581,-9.803154664635661
15.2,0.6000000238418579,334.0,25.439167022705078,-0.12722837924957275,-79.7827623144189,40.45906494591581,276.1809085438252,0.008361437357962132,0.017856284976005554,-0.6907123923301697,0.7228608131408691,0.0023762686122631395,-0.014561450668463715,-0.0001449764187112045,0.006326276808977127,0.005769964307546616,0.006588538177311421,-0.13157632154412569,-0.3921180823445321,-9.803869779109958
15.3,0.6000000238418579,341.0,25.44292259216309,-0.15108370780944824,-79.78276235022064,40.45906494295284,276.18092487549785,0.008388848043978214,0.017860505729913708,-0.6906948685646057,0.7228770852088928,-0.00028311806328209545,-0.0164389215448656,-8.456219486297146e-05,0.0031802761368453503,0.0025076160673052073,0.0007070052088238299,-0.13172935414128004,-0.3719365637004376,-9.802120292186736
15.5,0.6000000238418579,345.0,25.439167022705078,-0.15903547406196594,-79.78276239645714,40.45906500664258,276.16466276144985,0.008394431322813034,0.017849715426564217,-0.6906867027282715,0.7228851318359375,-5.448884644504214e-05,-0.018424116091809085,0.0014171327431805227,0.003788089146837592,0.003417847910895944,0.008172839879989624,-0.13054799730889502,-0.391741996742785,-9.804473796486855
15.61,0.6000000238418579,347.0,25.454191207885746,-0.07156596332788467,-79.78276242916127,40.459065066446115,276.14762434160707,0.008385623805224895,0.017874205484986302,-0.6906794309616089,0.7228915095329285,-0.00025476940092389344,-0.01489621871545858,0.002859534858368637,0.004177658353000879,-5.5914948461577296e-05,0.0003002583980560304,-0.1330098304152489,-0.3735879270359874,-9.802179933786393
15.8,0.5,347.0,25.46170234680176,-0.07951773703098297,-79.78276244644759,40.45906506651696,276.14794926142696,0.008379270322620869,0.017869077622890472,-0.6906598210334778,0.722910463809967,-0.001297438425571848,-0.0154479207021839,0.0030719433628098127,0.0038495634216815225,-0.0006440998404286803,0.005072806961834432,-0.13067638023756445,-0.3909272237867117,-9.804141674637798
15.9,0.5,347.0,25.456695556640625,-0.04771064221858978,-79.78276246330176,40.45906510278322,276.1283223906756,0.008375291712582111,0.01790015399456024,-0.6906520128250122,0.7229171395301819,0.003855826512564696,-0.012015393486024744,0.0007412357316550702,0.005132978782057762,0.002504623029381037,0.0029049753211438656,-0.13139756119810045,-0.3769610395655037,-9.802292785048484
16.1,0.5,348.0,25.460451126098643,-0.07156596332788467,-79.78276247707447,40.45906509937903,276.128417638898,0.008376672863960266,0.017885712906718254,-0.6906372308731079,0.7229316830635071,0.002422568807735544,-0.012389685571528369,0.0009431952239609274,0.0009192914003506305,0.0008478533709421754,0.005069364327937365,-0.1302830544859171,-0.3903923497349024,-9.803532979488374
16.2,0.4000000059604645,352.0,25.460451126098643,-0.07951773703098297,-79.78276249788145,40.4590651781541,276.1079171428681,0.008381986990571022,0.017886051908135414,-0.6906216740608215,0.7229465246200562,-0.00124280626127149,-0.009933612871762143,-0.0008209609639799984,0.008691017515957355,0.0043377485126256925,0.0037917285226285453,-0.13177647904492915,-0.38067877236753705,-9.804394274353982
16.4,0.4000000059604645,353.0,25.460451126098643,-0.07951773703098297,-79.78276250995499,40.45906518001347,276.10787041282657,0.008369372226297855,0.01788700930774212,-0.6905995607376099,0.7229677438735962,-0.0031133340718721017,-0.010459181263095377,-0.0006089005800001051,-0.0014406084083020687,0.00212597381323576,0.0014706929214298725,-0.13246349947527053,-0.3879490541294217,-9.8031792229414
16.5,0.30000001192092896,356.0,25.454191207885746,-0.07951773703098297,-79.78276256744843,40.45906524192543,276.0891512463093,0.00840049982070923,0.017889291048049927,-0.6906145215034485,0.7229529619216919,-0.0024813417869750483,-0.012888545921542972,0.0009608716226047806,0.008417661301791668,0.0038036366458982225,0.006299210246652365,-0.13140199229121208,-0.3811314930394292,-9.803654601573943
16.7,0.30000001192092896,357.0,25.45794677734375,-0.06361418962478638,-79.78276261514522,40.459065290169114,276.06962348318103,0.008413298055529594,0.017881035804748542,-0.6906023621559143,0.7229646444320679,0.0016304867803485074,-0.013189807203997234,0.002834900797627932,-0.003997510764747858,-0.0009462889283895493,-8.82390231708996e-05,-0.13329351173713805,-0.3870862243697048,-9.802660574913023
16.8,0.30000001192092896,357.0,25.45168685913086,-0.06361418962478638,-79.78276264833072,40.459065287204005,276.07021133399013,0.008427475579082966,0.017867786809802055,-0.6906012892723083,0.7229658365249634,0.00021665474513522042,-0.015451880458228925,0.0027471805759967504,0.0063188299536705034,0.007521111518144607,0.0059352987445890895,-0.13026524788700045,-0.3851179784908891,-9.804494846463204
17.0,0.20000000298023224,358.0,25.45544242858887,-0.06361418962478638,-79.78276269358973,40.45906538503653,276.0479155311585,0.008424111641943455,0.017867224290966988,-0.6905966997146606,0.7229702472686768,-0.006931396823970161,-0.014367482526806863,0.0003536049404628264,-0.0052120103500783435,-0.002310760784894228,-0.0036710333079099655,-0.13478835241869092,-0.38426600262522703,-9.802223787903786
17.1,0.20000000298023224,2.0,25.45919990539551,-0.05566241592168808,-79.78276274107287,40.4590654291181,276.02770496702203,0.008437177166342734,0.017910534515976906,-0.6905862092971802,0.7229790687561035,0.00029603396723349747,-0.012025884271393894,0.0021639353499191077,0.008580656722187996,0.0016752224182710054,0.007898209616541862,-0.130545018883422,-0.3881432547792793,-9.804657399058343
17.3,0.20000000298023224,3.0,25.452938079833984,-0.039758868515491486,-79.78276275517656,40.45906542919753,276.02795095539096,0.008436120115220547,0.017923804000020027,-0.6905884742736816,0.7229766249656677,-0.0018380380203207765,-0.012543199138916446,0.002399580586346841,-0.006041003856807947,-0.0057310881093144425,-0.002711280714720488,-0.1365304024145007,-0.38242814965546135,-9.801968264579774
17.4,0.20000000298023224,3.0,25.45794677734375,-0.07951773703098297,-79.78276282273445,40.45906548763232,276.00797797536853,0.008447546511888504,0.017933806404471397,-0.6905797123908997,0.7229845523834229,-0.0007594449864301567,-0.01438363807379655,0.0029328765816037977,0.009559030644595623,0.0010676167439669366,0.008968796581029892,-0.12991429617628455,-0.3877787539735437,-9.804799486398696
17.6,0.20000000298023224,7.0,25.456695556640625,-0.07156596332788467,-79.78276283975094,40.45906548815407,276.0083015391827,0.008463990874588491,0.01793699339032173,-0.6905857920646667,0.7229784727096558,-0.002956689238615471,-0.014996002912776309,0.0030861087020489448,-0.004586130846291781,-0.0010008875979110599,-0.0012352719204500318,-0.1361597711686045,-0.3808721690252424,-9.801346705555916
17.7,0.20000000298023224,10.0,25.456695556640625,-0.07951773703098297,-79.78276286566042,40.45906552713527,275.9883818457127,0.008487340062856674,0.017969395965337753,-0.6905815005302429,0.7229815125465393,0.002259044469130912,-0.010371785539688243,0.0038605139577331405,0.0066273328848183155,0.002670949092134833,0.0075110355392098435,-0.13079749069176616,-0.3881628064066172,-9.805238027572633
17.9,0.20000000298023224,7.0,25.460451126098643,-0.07951773703098297,-79.78276287827222,40.459065525548574,275.98878563737867,0.008483448997139929,0.017966218292713162,-0.6905588507652283,0.7230033278465271,0.00023222906714682242,-0.01106338499495014,0.004008802043143024,-0.005650694947689772,-0.0061232210136950025,-0.004041424486786127,-0.13650822867639364,-0.3801565429195762,-9.801165441870687
18.0,0.20000000298023224,2.0,25.45919990539551,-0.07951773703098297,-79.78276296875934,40.4590655753446,275.966289503336,0.008501973003149033,0.01794743537902832,-0.6905704736709595,0.722992479801178,0.0012026322837712404,-0.01672910542790975,0.0010004308129901015,0.0045225019566714755,0.0051484587602317325,0.006801201496273279,-0.1304136118479073,-0.3853964886814356,-9.804929879307748
18.2,0.20000000298023224,2.0,25.456695556640625,-0.07951773703098297,-79.78276299189515,40.45906564130488,275.945522112608,0.008481297641992569,0.01795346476137638,-0.6905651092529297,0.7229977250099182,-0.0018216888005125414,-0.012060410051634246,0.0023107508857600732,-0.0032833288423717018,-0.00034440404851920903,-0.000871853088028729,-0.13499730815179647,-0.3820366785675288,-9.802048956155778
18.3,0.20000000298023224,359.0,25.45794677734375,-0.07156596332788467,-79.78276302288674,40.45906564390821,275.94600458240507,0.00848533120006323,0.017939656972885132,-0.6905561685562134,0.7230064868927002,-0.0027183365371466982,-0.014349688334531525,0.001954172550415004,0.006317350547760725,0.004463947843760252,0.00582249416038394,-0.1306807016953826,-0.38666336104273796,-9.803575664162636
18.5,0.20000000298023224,358.0,25.45168685913086,-0.07951773703098297,-79.78276309208901,40.45906565733816,275.9244613180161,0.008501804433763027,0.017940955236554146,-0.6905381083488464,0.7230234742164612,0.0033662936668250733,-0.017240454667849132,0.0005720240313023162,-0.00415457459166646,-0.006176994647830725,0.0005518692778423429,-0.1354020451102406,-0.3822096465155482,-9.802002178430556
18.61,0.30000001192092896,354.0,25.456695556640625,-0.07951773703098297,-79.78276318916978,40.45906572452441,275.90241499042514,0.008512705564498901,0.017933832481503487,-0.6905257701873779,0.7230353951454163,-0.0019494406441588254,-0.02278071138371373,-0.00158072325018677,0.00846512895077467,0.002466855337843299,0.005866317544132471,-0.1300178741198033,-0.3857285739853977,-9.804521743655208
18.8,0.30000001192092896,352.0,25.456695556640625,-0.07951773703098297,-79.78276321618183,40.459065726318286,275.90230919218067,0.008488155901432037,0.017943838611245155,-0.6905226707458496,0.723038375377655,-0.003859555213849818,-0.023356825233718667,-0.0014180521545025927,-0.007241056300699711,-0.005067643243819475,-0.0013733733212575314,-0.13525231984443964,-0.3850357154756784,-9.801816821694377
18.9,0.30000001192092896,348.0,25.45919990539551,-0.07156596332788467,-79.78276323917572,40.45906574802628,275.88204021549234,0.008487313985824585,0.017952499911189083,-0.6905051469802856,0.7230549454689026,0.002541432113443525,-0.01487377199267136,0.0009071680148692156,0.005568731110543014,0.003596852067857981,0.005274183116853237,-0.12939789567142726,-0.3835007848218084,-9.803982630372047
19.1,0.30000001192092896,347.0,25.456695556640625,-0.09542128443717957,-79.78276325658712,40.45906574567631,275.8821512589455,0.008489761501550673,0.0179598405957222,-0.6905068159103394,0.7230530977249146,0.0008745020281126527,-0.0154712450199166,0.0010327433062710645,-0.0009350865148007868,0.00044364877976477146,0.0014177096309140325,-0.1344332254305482,-0.3857592718675733,-9.802512640357016
19.2,0.30000001192092896,339.0,25.46170234680176,-0.07951773703098297,-79.78276331348258,40.45906577803164,275.8593118915558,0.008506372570991516,0.017957117408514026,-0.6905050277709961,0.7230546474456787,0.002314767349536287,-0.016166175369391918,-0.001386906976591996,0.00557848671451211,0.005828556139022112,0.003565469523891806,-0.13080045998096468,-0.380757563598454,-9.803798443078994
19.4,0.30000001192092896,339.0,25.45794677734375,-0.07156596332788467,-79.78276333284758,40.45906577625172,275.85920198059085,0.008518780581653118,0.017956705763936043,-0.6904916763305664,0.7230672240257263,0.0008048417806083937,-0.016895606745861227,-0.001204379584558637,-0.0008650748059153558,0.0017921689432114363,0.002850982593372464,-0.13298519901931286,-0.38913231130689385,-9.803054092526436
19.5,0.30000001192092896,340.0,25.45794677734375,-0.07951773703098297,-79.78276335094415,40.45906580683464,275.83778561449054,0.008550966158509254,0.017957257106900215,-0.690494179725647,0.7230644822120667,0.0012009143753294097,-0.013313418291029005,-0.00245367554000609,0.005490002222359181,0.003362320829182863,0.0049408567138016215,-0.13186904777772726,-0.37837507903575895,-9.802534859776495
19.7,0.30000001192092896,338.0,25.44542694091797,-0.08746951073408127,-79.78276338449928,40.45906583141758,275.818381978035,0.008555857464671135,0.017957298085093498,-0.6904870271682739,0.7230712771415709,0.002209988876764804,-0.013561105740244337,6.836015416644345e-05,0.0022170122247189283,0.0044682580046355716,0.006900244392454624,-0.1320798033569008,-0.3893409838154912,-9.804604774117472
19.8,0.30000001192092896,333.0,25.45043563842773,-0.08746951073408127,-79.78276341862292,40.45906582777936,275.81841172075275,0.008595897816121578,0.017963150516152382,-0.6904874444007874,0.7230702042579651,0.0007383555817431407,-0.016072503762948297,-6.412162295312923e-05,0.0066092833876609785,0.003254983108490705,0.002636807272210717,-0.1337776611931622,-0.3762386891618371,-9.803447610139846
20.0,0.30000001192092896,337.0,25.44793128967285,-0.11927660554647446,-79.78276347402506,40.45906582884538,275.7991981039048,0.008607147261500359,0.01796920970082283,-0.6904780864715576,0.7230788469314575,0.005286562929402485,-0.019094269733280867,0.0019939405342334444,0.003368243109434843,-0.0005054777720943093,0.0036833561025559907,-0.1307259810715914,-0.39058242078870536,-9.805115820765497
20.1,0.30000001192092896,336.0,25.45043563842773,-0.11132483184337616,-79.78276348611054,40.459065881900656,275.7779908308983,0.008599716238677502,0.0179983451962471,-0.6904727816581726,0.7230832576751709,-0.002792274051420141,-0.013081748142642477,-0.0006740765828343393,0.0033905385062098503,0.0009339767275378107,-0.0009237248450517654,-0.13319502269849182,-0.3717600143328309,-9.801423304080963
20.3,0.30000001192092896,336.0,25.449182510375977,-0.09542128443717957,-79.78276350156627,40.45906588425923,275.77796299552915,0.00858394056558609,0.01799645647406578,-0.6904683709144592,0.7230877876281738,-0.0030800819775201552,-0.013967833541030216,-0.0006978881899756883,0.0038092602044343953,0.004637476522475481,0.006742015480995178,-0.1306222843565047,-0.3908040302619338,-9.803539411425591
20.41,0.30000001192092896,336.0,25.452938079833984,-0.08746951073408127,-79.78276355998663,40.45906591087865,275.75925673341754,0.008601323701441288,0.018022654578089714,-0.6904603242874146,0.7230945825576782,-0.005008234254881963,-0.017657971779147758,0.00030221752925684616,-0.00244493642821908,-0.00037724897265434265,-0.002965894993394613,-0.13609764450229705,-0.3696114183962345,-9.80075204372406
20.5,0.30000001192092896,338.0,25.45168685913086,-0.09542128443717957,-79.7827635808702,40.45906591475412,275.75933272933963,0.008611134253442287,0.018036914989352226,-0.6904614567756653,0.7230930328369141,-0.004988090809207196,-0.018542381869163748,0.000280726799705539,0.008997314609587194,0.0017064452404156327,0.0060582300648093215,-0.13028733026236294,-0.3892309830710292,-9.804304811954498
20.71,0.30000001192092896,341.0,25.45544242858887,-0.08746951073408127,-79.78276360046219,40.45906590498493,275.74121506309507,0.008649668656289576,0.018065506592392918,-0.6904573440551758,0.7230958342552185,0.0004902738111992443,-0.015553604323177213,0.0019386711345123781,-0.00013718252012040466,0.002152461325749755,4.6066317736404023e-05,-0.13535922339186074,-0.3689024434983729,-9.800531603693964
20.9,0.4000000059604645,342.0,25.45919990539551,-0.08746951073408127,-79.78276361917085,40.459065904023035,275.7414269576073,0.008648510091006756,0.018081653863191605,-0.6904399991035461,0.7231119275093079,0.0005869140487337881,-0.016590628707358834,0.0018388808101542288,0.004739231429994106,0.004770234227180481,0.002738729352131486,-0.1306780887208879,-0.389006998166442,-9.803581511378287
21.0,0.4000000059604645,344.0,25.45168685913086,-0.07951773703098297,-79.78276359851705,40.459065918160455,275.7232723960877,0.008618643507361412,0.018093612045049667,-0.6904282569885254,0.7231231927871704,-0.0015876106955523895,-0.009976669510918941,0.0028189335814565,-0.00489436648786068,-0.0025008597876876593,-0.002713714027777314,-0.13680137517862026,-0.38028693582862616,-9.801191754341128
21.1,0.4000000059604645,348.0,25.44542694091797,-0.07951773703098297,-79.78276362929711,40.459065906191576,275.70570327138904,0.008630791679024695,0.01809501275420189,-0.6904168725013733,0.72313392162323,0.0019778670781081032,-0.012111713363814152,0.0035616232821647728,0.006956420373171568,0.0015679349889978766,0.004226069897413254,-0.1304242099262774,-0.3884174526482821,-9.8041264718771
21.3,0.4000000059604645,357.0,25.45168685913086,-0.07951773703098297,-79.78276364351956,40.45906590452224,275.70607544279096,0.008633812889456749,0.01808055117726326,-0.6904159188270569,0.7231351137161255,0.00028295334966088836,-0.012779473640871545,0.003691413212520968,-0.006696241442114115,-0.0070669068954885015,-0.007112148217856884,-0.13702977290377022,-0.3783284840360284,-9.801665378808977
21.4,0.5,1.0,25.456695556640625,-0.06361418962478638,-79.78276365225163,40.459065894986,275.6877417097092,0.008650439791381359,0.018087064847350117,-0.6904076337814331,0.7231427431106567,0.002791885148953947,-0.01157832890975804,0.0014564204224310402,0.004514218773692846,0.0027573832776397467,0.005612740758806467,-0.13003124048933387,-0.3892166939377785,-9.803418374061584
21.6,0.4000000059604645,13.0,25.376564025878906,0.6997560858726501,-79.7827636931123,40.45906587612932,275.67143268680576,0.00868402421474457,0.01808435097336769,-0.6903372406959534,0.7232095003128052,0.001936302160069636,-0.016476775199265548,0.0025343102787199184,-0.0009495483827777207,0.006503271870315075,-0.01819966360926628,-0.13694131549447774,-0.3742230077460408,-9.797390479445458
21.8,0.5,15.0,25.392841339111328,0.2306014448404312,-79.78276371127562,40.45906587263711,275.67170126533506,0.0086479801684618,0.018081681802868843,-0.6902840733528137,0.7232608199119568,0.0027685775123848164,-0.01645585133954916,0.0025787762815986702,0.00043568469118326897,-0.0027137072756886482,-0.0009747862932272255,-0.1441248574666679,-0.3489400858059526,-9.815400488376618
21.9,0.4000000059604645,22.0,25.39784812927246,0.2306014448404312,-79.78276373273405,40.45906586903968,275.67199791765216,0.008664309978485106,0.01811964996159077,-0.6903457641601562,0.7232008576393127,0.004097399171628308,-0.018358139584147358,0.0036118065887099744,0.00016017754387576133,-0.0037353327497839928,0.02678325772285461,-0.1390216908697039,-0.345089657753706,-9.8134171128273
22.0,0.4000000059604645,30.0,25.410369873046875,0.2306014448404312,-79.78276370380988,40.45906588994575,275.65927447175983,0.008662816137075424,0.01816891133785248,-0.6904537677764893,0.7230964303016663,-0.007731770704603183,-0.010322854184346014,0.00688069249839935,0.004315112251788378,-0.0015351854963228106,-0.015821278095245358,-0.10897680563852193,-0.42187712095677854,-9.798981506824497
22.2,0.4000000059604645,34.0,25.406612396240234,0.21469789743423465,-79.7827637308388,40.459065809912474,275.6434448490143,0.00870883371680975,0.018184231594204903,-0.6903911232948303,0.7231553196907043,0.008365285092436428,-0.017505052385654026,0.0081154156235313,0.005059986840933561,0.002181571675464511,0.013377447612583636,-0.1367795486189425,-0.33442017026245596,-9.800919858813288
22.31,0.4000000059604645,37.0,25.40410804748535,0.2544567584991455,-79.78276375168231,40.459065802390214,275.64419550991056,0.008719461038708687,0.01822750456631184,-0.6904814839363098,0.7230678200721741,0.007296267682455347,-0.01869507898795337,0.008327588921943851,0.008888164535164833,0.001045974437147379,0.013841700740158558,-0.1287661314290017,-0.3972904927656055,-9.812901388406754
22.5,0.4000000059604645,37.0,25.38532829284668,0.3180709481239319,-79.7827637285725,40.45906577551635,275.628712726593,0.008707241155207155,0.01819881051778793,-0.6904750466346741,0.7230747938156128,0.0067745431891151064,-0.01460063477308238,0.00648340513323906,-0.003910024184733629,-0.006630115211009979,-0.01547963824123144,-0.13158032323233784,-0.38231661401689054,-9.797830774784089
22.7,0.5,40.0,25.247602462768555,15.657042503356935,-79.78276370429406,40.45906573553138,275.6157356629372,0.008693431504070759,0.01823737472295761,-0.6903811097145081,0.7231637239456177,0.009116520942380408,-0.00997376019495169,0.009815841097664776,0.003979070112109184,0.0011911228066310287,0.017557518556714058,-0.1287833533063531,-0.37560594733804464,-9.814323431253433
22.8,0.5,35.0,24.45004653930664,4.119019031524658,-79.78276371568944,40.45906572860492,275.6166603097916,0.008694213815033436,0.01825086213648319,-0.6905235052108765,0.7230274677276611,0.006799571946222984,-0.010632485417003932,0.010382086257380551,-0.003201086306944489,-0.0053036599420011035,0.00027065089670941234,-0.12874299838207662,-0.3473747130855918,-9.82244755268097
22.9,0.5,32.0,25.163715362548828,0.6440936923027039,-79.78276371701126,40.4590656916323,275.6019878516197,0.008767574094235897,0.018419062718749046,-0.6905142664909363,0.7230311036109924,0.003092355813285675,-0.01566165529678054,0.008458844257214666,-0.010518038645386696,0.01703139767050743,0.011736785061657429,-0.16319070909172298,-0.3991528674960136,-9.816893867254258
23.1,0.5,33.0,25.31145668029785,21.25509262084961,-79.7827637130746,40.45906565288404,275.58562548255924,0.0087903356179595,0.018402671441435814,-0.6905345916748047,0.72301185131073,0.0035246621644150515,-0.018092874896397985,0.004015263111977323,-0.007525702472776174,0.007742075249552727,-8.416454733151113e-08,-0.08940787419676781,-0.3937500402331353,-9.855484321117402
23.2,0.6000000238418579,28.0,24.78183937072754,2.6320371627807617,-79.78276372560208,40.45906564521147,275.5860794911385,0.008757006376981735,0.018816560506820682,-0.6906811594963074,0.7228615880012512,0.008057115469976613,-0.010393598956373436,0.0024834876750392328,-0.02139490470290184,0.002978400560095907,-0.011802924796938896,-0.17915295001119375,-0.378686625994742,-9.770034281015397
23.41,0.6000000238418579,31.0,25.34401130676269,0.17493902146816254,-79.7827637454892,40.45906564227321,275.58640773391727,0.008813171647489071,0.018466779962182045,-0.6906458139419556,0.7229036688804626,0.007247861018176047,-0.016466047093266278,0.005757012493044725,0.03362894430756569,-0.022920146584510803,0.0031472300179302692,-0.1640165552124381,-0.4758759016916156,-9.804776682257652
23.6,0.699999988079071,25.0,25.28516387939453,1.439271092414856,-79.78276371685806,40.4590655910816,275.57124461030963,0.008851758204400541,0.018485546112060547,-0.6906018257141113,0.7229447364807129,0.009561005865386921,-0.015199564562367632,0.0014577311391415985,0.0253299530595541,-0.04130006209015846,0.0008158771088346839,-0.17269634485244753,-0.47828060567379,-9.767256853580475
23.7,0.699999988079071,16.0,24.94084930419922,3.45902156829834,-79.78276368106336,40.45906553957543,275.5568173656464,0.008804776705801487,0.01831277459859848,-0.6906557083129883,0.7228982448577881,0.006284689649659946,-0.014982842804724547,0.003885384862699621,-0.011193114332854748,0.015624536201357841,0.00018628468387760225,-0.14006798615679145,-0.4316025754809379,-9.821074626445775
23.8,0.699999988079071,11.0,24.76931953430176,4.771064281463623,-79.7827636966463,40.459065534234576,275.55724073743824,0.008792481385171412,0.017729539424180984,-0.6907038688659668,0.7228668928146362,0.004760936142326828,-0.01256313672155132,0.0043129844326387536,-0.010706230998039246,0.0021666574757546178,-0.007247650995850562,-0.14324167208746078,-0.370929234623909,-9.803599637746812
24.0,0.8000000119209291,5.0,24.44002914428711,7.116837501525879,-79.78276372324022,40.45906547412078,275.5445675978661,0.008836280554533005,0.017553629353642464,-0.6908597350120544,0.7227216958999634,0.009074832739430369,-0.02139947197855615,0.004665285653237934,0.011854131706058979,0.044045303016901016,0.022124458104372025,-0.13793399912305174,-0.3908596153557301,-9.816435445547103
24.2,0.8000000119209291,1.0,24.16082191467285,9.343334197998047,-79.78276364770291,40.45906545039454,275.53081621027,0.008800157345831394,0.017583947628736496,-0.6909027099609375,0.722680389881134,0.0039980041435299365,-0.00701765384221059,0.004428722800992143,-0.016589205712080002,-0.04157980531454086,-0.058248080313205726,-0.05448657099623233,-0.34185194481164216,-9.851615803241732
24.3,0.8000000119209291,358.0,23.984283447265625,10.750798225402832,-79.78276365810463,40.459065443328534,275.5312379131317,0.008879639208316803,0.017585443332791332,-0.6909716129302979,0.7226133942604065,0.009445327844522056,-0.0166093133912571,0.003919319745401058,0.0005598292918875813,0.10886900871992113,-0.07553872466087341,-0.23441052664071324,-0.4459200311824679,-9.75063029587269
24.5,0.8000000119209291,357.0,23.6612548828125,13.65319538116455,-79.78276369217767,40.45906537696675,275.51992721652994,0.009434289298951626,0.015244626440107822,-0.6903178691864014,0.7232841253280641,0.004157657645099971,-0.03441555540932373,0.0022821380618896136,-0.04646208882331848,-0.04774068668484688,0.02647848054766655,-0.24970046566799284,-0.2574761478602886,-9.732951824069023
24.6,0.8000000119209291,359.0,23.459674835205078,15.124274253845215,-79.7827636750417,40.45906533801881,275.509963406086,0.010493963025510313,0.0102247791364789,-0.690428614616394,0.7232521772384644,-0.0023799833256690204,-0.03667055934696314,0.014061358543686307,0.028709238395094868,-0.012112796306610107,-0.047781091183424,-0.1712043546885252,-0.2577390532940626,-9.84362265944481
24.7,0.8000000119209291,353.0,23.28313446044922,16.881616592407227,-79.78276371822207,40.45906533893992,275.51207871532444,0.012181011959910393,0.006301369052380322,-0.6902371644973755,0.7234532833099365,8.969497848875061e-05,-0.03430052622469352,0.02400250772491553,0.02519809827208519,0.018601033836603158,-0.055255047976970666,0.01934371770825237,-0.227556164637208,-9.87720555782318
24.91,0.699999988079071,352.0,22.98514747619629,19.982807159423828,-79.78276376390552,40.459065282291505,275.50095797872547,0.01624765805900097,-0.0030008712783455853,-0.6887691020965576,0.7247925996780396,0.0032626664752796533,-0.05199191748325194,0.03387661702398634,-0.08890075236558914,0.0919150859117508,0.009142909198999405,0.053276060312055055,-0.21603327602148056,-9.957566181421278
25.1,0.699999988079071,352.0,22.62580871582031,23.8076114654541,-79.78276382314736,40.45906527352607,275.5063549408913,0.012460286729037762,-0.008078264072537422,-0.6862592697143555,0.7272054553031921,0.010156266081932042,-0.05304590000502967,0.0878129849431887,-0.14357990026474,-0.03536965698003769,-0.136106476187706,0.317651196308434,-0.09809317301027476,-10.282920463085173
25.2,0.699999988079071,345.0,22.93381309509277,20.01461410522461,-79.78276387786858,40.45906510365814,275.49222184514997,0.00556197902187705,-0.012741681188344955,-0.6831187605857849,0.7301749587059021,0.005623049364965532,-0.06300262034885565,0.1497446204420667,-0.10561791062355044,0.004161996766924858,-0.02053046226501465,0.22719246782362465,-0.11856470441445707,-10.617543751001355
25.4,0.699999988079071,347.0,23.19674301147461,16.873664855957028,-79.78276403205702,40.45906509167424,275.54414953088764,-0.002286221133545041,-0.010669839568436146,-0.6789308786392212,0.7341212034225464,0.0019947387443651323,-0.05001390622487889,0.3168296019723489,0.04742302745580673,-0.2561562657356262,-0.0514662005007267,0.284091832973063,0.13691758858971298,-10.285977387428284
25.5,0.699999988079071,351.0,23.09031867980957,18.26522445678711,-79.78276441251244,40.45906504374295,275.56989963150033,-0.002879102015867829,0.0023561723064631232,-0.6783831715583801,0.7346989512443542,-0.006387009493378594,-0.04672053221954712,0.23663538769779244,0.05533050373196602,-0.045469269156455994,0.009511993266642094,0.03540788747370243,-0.03057242742273957,-9.42359610915184
25.7,0.699999988079071,348.0,22.987651824951172,18.83775329589844,-79.78276460774566,40.45906507299684,275.5500293502808,-0.002425902523100376,0.002601365325972438,-0.6789525747299194,0.7341735363006592,-0.002931116937564404,-0.052204347235627405,0.12215032506602568,-0.010208644904196262,-0.012355061247944832,0.0283454991877079,0.14287706164643169,0.0801513115502894,-9.263996942639352
25.8,0.8000000119209291,351.0,23.0177001953125,19.60112190246582,-79.78276467701116,40.45906506965492,275.5597232708932,-0.0011655405396595595,0.001062351162545383,-0.6798962950706482,0.7333065867424011,0.004702531826679284,-0.040050827799174835,0.07130402048724227,0.021086016669869426,0.010185953229665756,0.05004577711224556,0.087266267510131,0.11052922312170267,-9.295414032340053
26.0,0.8000000119209291,354.0,22.672134399414066,21.398223876953125,-79.78276451909757,40.45906492509347,275.5672681460381,0.0020653316751122475,6.190151179907843e-05,-0.6820791959762573,0.7312754392623901,0.02056525793148899,0.013656579811561244,0.006501448615489525,0.04865411296486855,0.058096002787351615,0.05274272337555885,0.15963337272405625,0.05367986993864179,-9.566796759366987
26.1,0.8999999761581421,351.0,22.82238006591797,20.61894989013672,-79.78276449895324,40.459064913586225,275.56873787736896,0.0023580954875797033,-0.002915242686867714,-0.6830586791038513,0.7303538918495178,0.025683974479517167,0.028520675648682943,0.025215220610218667,0.007504076696932316,0.03917324542999268,0.069577656686306,0.20907028371468184,-0.05262988816481084,-9.890233154296878
26.2,0.8999999761581421,355.0,22.8323974609375,20.15774726867676,-79.78276427580006,40.45906477757874,275.5874425897598,-0.0012659864732995634,-0.005721574183553457,-0.6843581795692444,0.7291224598884583,0.030884654432291176,0.04954661944376874,0.07620215447604653,0.04059244319796562,0.023053733631968498,0.06570585072040558,0.13268289797008034,0.0530770768225193,-9.835255293846133
26.4,0.8999999761581421,9.0,22.62330436706543,22.24906349182129,-79.78276420563293,40.45906476143596,275.5947874913216,-0.001708131516352296,-0.005999403074383736,-0.6844863295555115,0.7289990782737732,0.027764455143699386,0.05901810179800258,0.06822438967338285,0.04436332359910011,0.07008455693721771,-0.027320438995957368,0.182728010751307,0.09174618487246336,-9.723734273314475
26.6,0.8999999761581421,5.0,22.728477478027344,20.571239471435547,-79.78276390042745,40.45906464242256,275.61644698476795,0.0015237113693729045,-0.01105959340929985,-0.6838409304618835,0.7295457720756531,0.012931595788218037,0.07530878348574896,0.11913971338634324,0.05317224562168121,0.032982081174850464,0.02977045439183712,0.2024270427413285,-0.014384040869772437,-10.037119889259339
26.7,0.8999999761581421,7.0,22.79233169555664,20.92906951904297,-79.78276370400452,40.45906456557447,275.6271289119721,0.0018557705916464329,-0.010194876231253149,-0.6831350326538086,0.7302185893058777,0.00012281478800537662,0.0879297505954685,0.15903926003767752,0.0661483183503151,-0.0006998914759606122,0.03447399288415909,0.2582189269736409,-0.006021522064693272,-10.08314800143242
26.9,0.8999999761581421,8.0,22.5932559967041,22.31267738342285,-79.78276349493395,40.45906459604039,275.66029043292997,0.0016238887328654528,-0.007734106387943029,-0.6820791959762573,0.7312356233596802,-0.01344548381979797,0.09285502149456057,0.16754318607187588,0.025088096037507057,0.06209367513656616,0.021665604785084724,0.17188895400613546,-0.03936676310375333,-9.859999541044237
27.0,1.0,11.0,22.603271484375,21.86737823486328,-79.78276312874527,40.45906458443974,275.69430692291263,0.001180782332085073,-0.009969341568648815,-0.68245530128479,0.7308583855628967,-0.03745146499748462,0.10953846765620144,0.24201934126495234,-0.05718487873673439,-0.050502944737672806,-0.025665348395705227,0.13065733110532166,0.16822722656652336,-10.163699244260787
27.2,1.0,1.0,22.71846008300781,21.0483455657959,-79.78276296585076,40.45906445661796,275.6984235773087,0.0026301811449229717,-0.011146502569317821,-0.6829018592834473,0.7304203510284424,-0.03802103265338788,0.09458758881363516,0.2639766090948569,-0.06204263865947724,-0.009142963215708731,-0.04035913944244385,0.13293121277354658,0.17711651097983122,-10.261857622861863
27.3,0.8999999761581421,5.0,22.677143096923828,21.024490356445312,-79.78276286801103,40.45906449504737,275.7276438007355,0.005465585272759199,-0.012791539542376995,-0.683272659778595,0.73003089427948,-0.04169523628608325,0.08887857361921739,0.3103633431870374,-0.04683897644281386,0.04401685297489166,0.04659781977534293,0.11632791602052747,0.07359284606762231,-10.20543900847435
27.5,1.0,355.0,22.71345138549805,20.32473373413086,-79.78276232467448,40.45906464030876,275.7626426348686,0.010174721479415894,-0.013106657192111015,-0.6837596893310547,0.7295185923576355,-0.05787286169886455,0.09533992870541676,0.3038119941200625,0.008356996811926365,0.008312260732054709,-0.017006009817123413,0.2475197283178568,0.08859949663281441,-9.962634547948838
27.6,0.8999999761581421,352.0,22.78982734680176,19.887386322021484,-79.78276213108914,40.459064694975424,275.8108796606064,0.011402425356209278,-0.014511289075016975,-0.6838623881340027,0.7293775677680969,-0.07312034443552752,0.051590604990794015,0.2823222069419864,0.002523144707083702,0.007912649773061275,-0.033482484519481666,0.17870306158438326,0.112067716922611,-9.764406920671464
27.7,0.8999999761581421,347.0,22.64709281921387,21.024490356445312,-79.78276209037676,40.45906476323413,275.83845121955875,0.013142126612365246,-0.015216126106679441,-0.6837418079376221,0.729447066783905,-0.07099056681472685,0.03932226415499589,0.2677792516763097,0.02222028560936451,0.022469425573945045,-0.034921057522296906,0.2364763479307294,0.08031820387579501,-9.665376722216607
27.9,0.8999999761581421,320.0,23.29315185546875,9.271768569946287,-79.78276191315017,40.459064778682325,275.896219385624,0.01188761740922928,-0.015146880410611631,-0.6836498975753784,0.7295560836791992,-0.07406239589600898,0.006808927800828028,0.26626293447709604,-0.03667541220784186,-0.0006923576584085822,-0.0220927931368351,0.2561046468839049,-0.013350079553201796,-9.65594750225544
28.0,0.8999999761581421,301.0,22.97137451171875,19.903289794921875,-79.78276193374072,40.45906484367535,275.91645358300207,0.010545057244598866,-0.01404866948723793,-0.6837087869644165,0.7295435667037964,-0.07208754079047218,-0.001507758475715451,0.12564088408624166,0.022128814831376083,-0.16519682109355927,-0.036446277052164085,0.3370061744749546,0.1597608237527311,-8.674968903064729
28.2,0.8000000119209291,282.0,22.253950119018555,26.12157821655273,-79.7827615232614,40.459064836308734,275.95321811532983,0.005834951531141996,-0.00515891658142209,-0.6839422583580017,0.7294945716857909,-0.07748990481372192,0.014102519507383669,0.09213757596915008,0.07372570782899858,-0.2626076936721802,0.02031560055911541,0.35282596260309224,0.059583885809406635,-9.100250930786133
28.4,0.8000000119209291,269.0,21.922155380249023,29.54084014892578,-79.78276151758968,40.4590649744107,275.9824450740814,0.0009116268483921883,0.0025518659967929125,-0.6836689114570618,0.7297873497009277,-0.07541210315330578,0.017433082229737013,0.24058725629545405,-0.09013701975345613,0.05660200491547585,-0.08953247219324112,0.09017882958054543,0.12940263739787042,-10.619410182237628
28.51,0.8000000119209291,262.0,21.89210700988769,29.81120109558105,-79.78276132458902,40.45906484943058,276.03333072161684,0.002849868033081293,-0.002615270670503378,-0.6832094788551331,0.7302122116088867,-0.05482815367570289,0.024768323250294967,0.4112587433245256,-0.07898339629173279,0.10900060087442398,-0.055369019508361816,0.1576886984333396,0.04199491295032203,-11.10373856306076
28.6,0.8000000119209291,272.0,21.779422760009766,31.03577423095703,-79.78276087796853,40.45906493076927,276.13146248257164,0.00814176630228758,-0.01055781077593565,-0.6826337575912476,0.7306390404701233,-0.04729813215443315,0.06445897114234504,0.7533859780386934,0.10899009555578232,0.1078607589006424,0.036834485828876495,0.2971779016032815,0.07761615984141827,-11.639173947572708
28.8,0.8999999761581421,259.0,21.61164665222168,31.822999954223643,-79.78276076994209,40.45906504418847,276.3268409202099,0.008740591816604137,-0.008289133198559284,-0.6821543574333191,0.7311090230941772,-0.06444219575561443,0.07699919222352032,1.2112487578431914,-0.05767599120736123,-0.02286619693040848,-0.10278290510177612,0.23151509508490564,0.2181216090917588,-12.090314701795581
29.0,1.100000023841858,286.0,21.584102630615234,31.73552894592285,-79.78276055804095,40.45906502994264,276.4457419494391,0.00920324306935072,-0.005000119097530842,-0.6820116639137268,0.7312663793563843,-0.056313044916079226,0.07319411209038677,1.4240637214246383,0.026606108993291855,-0.07407096028327942,0.005439429078251122,0.25290684118866924,-0.09833427015691996,-12.180495139360428
29.1,1.600000023841858,310.0,21.358732223510746,35.09912872314453,-79.78276051510865,40.459065079266296,276.6002133617401,0.010172965005040169,-0.002929499140009284,-0.6818566918373108,0.7314093112945557,-0.05146188158806857,0.07143357478999042,1.6589895772373917,0.07637303322553635,-0.0270120408385992,0.03662528470158577,0.18235073743388056,-0.1188837979361415,-12.119501663446426
29.2,1.600000023841858,317.0,21.38126945495605,34.14491653442383,-79.78276021359456,40.459065070214244,276.9546964893341,0.011087926104664804,-0.00368921528570354,-0.6820160150527954,0.7312439680099487,-0.047948097002945785,0.07028035199652262,2.086300174290752,-0.09929219633340836,0.0458507277071476,-0.028258204460144043,0.11163270235061648,0.03793575300369412,-12.071902989149097
29.4,1.8999999761581416,12.0,21.336196899414066,34.68563842773437,-79.78275994348951,40.45906502038386,277.38495357131956,0.007167052943259479,-0.007333350367844105,-0.6819210648536682,0.7313539981842041,0.005963029224715054,0.07859247038904113,2.473788119482624,0.027620503678917885,0.027728447690606117,0.06392006576061249,0.2097359343990684,0.09454164731316267,-11.926310827732086
29.5,2.0999999046325684,24.0,21.441368103027344,32.37166976928711,-79.78275991684919,40.459065008169155,277.642508936882,0.005225755274295807,-0.005087748635560274,-0.6819667220115662,0.7313468456268309,0.017462794558828983,0.0736412867242463,2.678736800273252,-0.06243342533707619,-0.056158918887376785,-0.05862201750278472,0.12951841226778926,0.13746246686205268,-11.855876437425616
29.7,2.4000000953674316,28.0,21.652965545654297,30.55866622924805,-79.78275966672541,40.4590650043742,277.87645597553256,0.003627553349360824,-0.0016164653934538364,-0.6821042895317078,0.7312441468238831,0.03326559145257875,0.06724277800143053,2.8102727781707943,0.02323394082486629,0.03167052939534186,0.019238127395510674,0.1017833599448204,0.07945576697587968,-11.586456620693207
29.9,2.5999999046325684,30.0,21.96722984313965,27.56879997253418,-79.78275956015571,40.459064922603936,278.46485788917545,0.0019981833174824715,0.0009136846638284623,-0.683599591255188,0.7298539280891418,0.061661906728150036,0.05673490113076338,3.049817724199763,0.09928353130817412,0.05024479702115059,0.08393938094377518,0.1253718866966665,0.029259645282290882,-10.89428311228752
30.0,2.9000000953674316,29.0,21.92340850830078,27.67217254638672,-79.78275926689022,40.45906484270487,278.73087198829654,0.000820743094664067,-0.0012738039949908853,-0.6851372718811035,0.7284124493598938,0.06535905475929997,0.07910353809604452,3.0573718261519414,-0.04628555849194527,0.1322169303894043,0.10765417665243147,0.13849680276587606,0.04144519245252013,-10.387727125883103
30.1,3.0999999046325684,28.0,21.910886764526367,27.60060691833496,-79.78275878897388,40.45906469270919,279.316099477768,-0.0006876196712255478,-0.0036384030245244494,-0.6882597804069519,0.7254549264907837,0.11625663661002696,0.12544321204744352,3.0797192917662386,0.06499160826206207,0.08839061111211778,0.02456316351890564,0.1289558735769242,0.2278889808431268,-10.031106612682343
30.3,3.2000000476837163,10.0,21.982254028320312,27.24277687072754,-79.78275847000694,40.45906453465873,279.9356392154694,0.002517880406230688,-0.0072850179858505735,-0.6885521411895752,0.7251459360122681,0.11192904871609156,0.1666077622123852,3.108863629377165,-0.052333995699882514,-0.043581902980804436,-0.0820990651845932,0.2588480142876506,0.24301857825368645,-9.954620354175571
30.5,3.299999952316284,4.0,22.078662872314453,25.24688148498535,-79.78275799406943,40.45906448467164,280.1909452209473,0.004830730613321066,-0.007442728616297245,-0.6874347329139711,0.7261919975280762,0.12651998240101153,0.2092180382551153,3.080775967702562,0.026545362547039986,0.1110030710697174,-0.028009245172142986,0.2171185740642249,0.15154550403356554,-9.938667980432507
30.6,3.0999999046325684,359.0,22.137508392333984,24.10977935791016,-79.78275782336765,40.459064428402186,280.4936686286926,0.00735969003289938,-0.007681056857109071,-0.6857213973999023,0.7277864217758179,0.12096910848550108,0.21928941202481267,3.0833457475205224,-0.02121078595519066,-0.07175174355506897,-0.00585994916036725,0.24887752488255505,-0.010466004386544228,-9.96973072886467
30.7,2.9000000953674316,358.0,22.07740974426269,25.262784957885746,-79.78275703837866,40.4590642959116,281.05823810195926,0.009916173294186592,-0.008974051102995872,-0.6825231909751892,0.7307415604591371,0.12064977301028715,0.2489101078406652,3.0170256629279706,-0.07362314313650131,-0.04485483467578888,-0.0901418998837471,0.2542798953317106,0.1860171243734658,-9.618362184762956
30.9,3.0999999046325684,1.0,22.14251708984375,24.809534072875977,-79.78275630598161,40.45906414776346,281.6175986061096,0.010573191568255423,-0.015392688103020191,-0.6813408732414246,0.7317280769348145,0.12714584242357993,0.2277472382078748,2.891945547940046,-0.20249979197978973,-0.0447080060839653,-0.0718475803732872,0.07476888102013618,0.27188894972205163,-9.269976890087127
31.0,3.0999999046325684,4.0,22.103702545166016,24.865196228027344,-79.78275614519526,40.459064038350704,281.90379340744016,0.009273897856473923,-0.01808273419737816,-0.6819376349449158,0.7311280369758606,0.15175368263100342,0.2254437619872023,2.8191085396651534,-0.054325059056282037,0.022762784734368324,0.004830907098948956,0.05181786979548633,0.15225307194516066,-9.07353324830532
31.2,3.299999952316284,8.0,22.053621292114254,25.501338958740234,-79.7827561295231,40.45906381603511,282.3344674835205,0.006971894297748804,-0.0167404655367136,-0.6821804046630859,0.7309590578079224,0.15098537544500934,0.19098914659192884,2.7792152255591867,-0.09820638597011566,-0.146910160779953,-0.042422499507665634,0.16451972639188173,0.1295669532939792,-8.979217659831047
31.4,3.4000000953674316,10.0,21.84703254699707,27.10759735107422,-79.78275596498982,40.45906359618865,282.8773828277588,0.003433024976402521,-0.007956779561936855,-0.6829871535301208,0.7303790450096129,0.1743446658104293,0.1038716038638122,2.6573026307970897,0.20782588422298431,0.06506297737359999,0.11327704042196275,0.09383631778880956,0.018558971118181944,-9.335863316059113
31.5,3.5,16.0,21.89210700988769,26.5748291015625,-79.7827553696748,40.459063152402344,283.33271081542966,-0.0006343038403429091,-0.009199798107147215,-0.6837970018386841,0.7296140193939209,0.1476527481891513,0.10364870723062727,2.714798985105141,-0.3343728184700012,-0.13264919817447662,-0.08739370107650757,-0.028219044178258632,0.3908892899751664,-9.477994510531426
31.6,3.5,18.0,21.78818702697754,28.642290115356445,-79.7827547463632,40.45906277044533,284.02467258071897,-0.006676077377051115,-0.014903999865055084,-0.6868472099304199,0.7266183495521545,0.2029648793380589,0.1030889477681957,2.7222544011056264,-0.15024495124816895,0.04986361786723137,0.027736620977520943,0.035935297189280395,0.2124202449247241,-9.627861571311954
31.8,3.5999999046325684,25.0,21.743112564086914,28.92855262756348,-79.78275465371027,40.459062644874756,284.2975345382692,-0.007737200707197189,-0.020284399390220642,-0.6877820491790771,0.7255926132202148,0.2257942998654777,0.09628304225974846,2.7278307610523607,-0.049538545310497284,0.050650015473365784,-0.004051952157169581,0.05831028001382948,0.31438212767243384,-9.84016227722168
31.9,3.700000047683716,29.0,21.89335823059082,26.360130310058594,-79.78275441013027,40.459062157692856,284.9467349777222,-0.004502799827605486,-0.030985694378614426,-0.6880609393119812,0.7249771952629089,0.2345841852239976,0.110013290026857,2.7950428835092613,-0.19665741920471191,0.06083527207374573,-0.07952511310577393,0.04781335847452283,0.5502518269792199,-9.94136939406395
32.1,3.799999952316284,36.0,21.90713119506836,27.32229423522949,-79.7827543666358,40.45906206216737,285.2273813018798,-0.0021630667615681887,-0.03426831588149072,-0.6879245638847351,0.7249696254730225,0.2548039146757625,0.12274866606815805,2.79507030724614,0.15486180782318115,0.09040571749210358,-0.0326472632586956,0.22155896790325644,0.3116905081272125,-9.879393585920337
32.3,3.9000000953674316,38.0,21.756885528564453,27.61651039123535,-79.78275416489464,40.45906174555442,285.85653932189945,-0.003596991067752242,-0.031985484063625336,-0.6874000430107117,0.725565493106842,0.19251385085444586,0.1044894577336549,2.8242558365393378,-0.12428925186395645,-0.18083247542381287,-0.04913546144962312,0.1930914330482483,0.43099329560995103,-9.769719116091727
32.4,4.0,35.0,21.848285675048828,27.10759735107422,-79.78275420318755,40.459061698443314,286.13944871521,-0.00823460053652525,-0.02689305134117604,-0.6868772506713867,0.7262290716171265,0.2054012582194288,0.06406810515264817,2.8215350484174504,0.22283829748630524,-0.010706675238907335,0.01805974543094635,0.2225117716938257,0.2470557152107358,-9.852929087877277
32.5,4.0,33.0,21.888351440429688,26.5748291015625,-79.78275411782049,40.45906154242454,286.76782281494144,-0.013711368665099144,-0.017818117514252663,-0.6853247284889221,0.7278904914855957,0.14063045999539708,-0.029285963128430105,2.8457848280570968,0.06693390011787415,0.09858153015375136,0.0017377344192937016,0.09063374295830727,0.2391878480091691,-9.744820502400401
32.7,3.9000000953674316,25.0,21.713064193725586,27.98229217529297,-79.78275404465414,40.45906119612561,287.39279706573484,-0.012835993431508541,-0.020189842209219933,-0.6835262775421143,0.7295337915420532,0.15679713867610806,-0.05048719375890606,2.8772619479584773,0.15754206478595734,0.19342179596424106,0.12464672327041625,0.0920398704148829,0.13049296952784062,-9.95229900956154
32.8,3.9000000953674316,25.0,21.71431541442871,28.14132881164551,-79.78275411527943,40.45906119038326,287.68214757537845,-0.009705719538033009,-0.02599476277828217,-0.6826915740966797,0.7301797270774841,0.11625081196229407,-0.037126819325043234,2.9012808996882766,-0.2762284874916077,0.0071160499937832355,-0.08833973854780197,-0.009608561602653935,0.4199494401365519,-9.988682724237444
33.0,3.799999952316284,22.0,21.883342742919922,26.622539520263672,-79.78275392223802,40.45906098003117,288.0081773529053,-0.006064017303287983,-0.03247177973389625,-0.6825243830680847,0.7301159501075745,0.15021881023069256,-0.006972645693654935,2.905856430163285,0.08395756036043167,0.2316847145557404,-0.021475078538060192,0.08105509009212256,0.4262247450649739,-9.781293679475787
33.2,3.799999952316284,22.0,21.733097076416016,28.125423431396484,-79.78275399546902,40.459060723777306,288.63189370727537,-0.00999104045331478,-0.03595861792564392,-0.6830242276191711,0.7294416427612305,0.14205783730604687,0.013802517223898214,2.8711543572545843,-0.06283292919397354,-0.06573518365621568,0.00047870419803075487,0.11274174557067455,0.5292034220695496,-9.59288118839264
33.3,3.9000000953674316,25.0,21.68927383422852,27.79940223693848,-79.78275428156952,40.459060810012936,289.20465715026864,-0.016444601118564606,-0.03022410348057747,-0.6838688850402832,0.7287931442260742,0.09594178569616847,-0.05125662486397861,2.8729194679070282,-0.1565299779176712,-0.15979351103305814,-0.08760018646717073,0.07566117526497693,0.6482395034283399,-9.828357918262483
33.4,3.9000000953674316,23.0,21.620410919189453,29.18301010131836,-79.78275405881406,40.459060789427326,289.54272992706296,-0.01761120930314064,-0.027362583205103874,-0.6843322515487671,0.72844398021698,0.0892615977655527,-0.06232514696063138,2.904656404050692,0.2462131977081299,0.0918671190738678,0.044363025575876236,0.19309877861291166,0.2815112739801407,-9.964605059623716
33.61,3.9000000953674316,21.0,21.74812126159668,27.7039794921875,-79.78275398682267,40.45906099206445,290.16298158264163,-0.01306619867682457,-0.021652162075042725,-0.684913694858551,0.7281852960586548,-0.0005696108795203089,-0.07237424466186569,2.9546158240064084,0.030242821201682087,-0.006561560556292535,-0.030906157568097118,0.08081222964450717,0.4771709868684411,-9.967825706005096
33.8,3.9000000953674316,20.0,21.751876831054688,26.964466094970703,-79.78275411515013,40.459061143564156,290.4585290679932,-0.010210413485765455,-0.02106696367263794,-0.6848700642585754,0.7282891273498535,-0.024712435965734247,-0.06729408406788615,2.969806786003857,0.1404290646314621,0.11093361675739287,0.17653533816337585,0.1746532617509365,0.09089540585875512,-10.060547343492509
33.9,3.9000000953674316,18.0,21.664234161376953,28.41168785095215,-79.78275424146499,40.45906130371658,290.75576837158206,-0.008367578499019146,-0.021265987306833267,-0.6848640441894531,0.7283124923706055,-0.06937308901359429,-0.05082735485867222,2.9866879651555482,-0.16763153672218326,-0.04226677119731903,-0.1366109997034073,0.13424658961594105,0.6142796789109707,-9.873475034236911
34.1,3.9000000953674316,19.0,21.69803810119629,28.316267013549805,-79.78275384301138,40.45906187988613,291.3898387680053,-0.009498496539890766,-0.0219777300953865,-0.6843170523643494,0.7287914752960205,-0.1081269857626771,-0.01929227516951834,3.01645671314285,-0.10887707024812696,-0.01121276058256626,-0.01587375998497009,0.18054460560902955,0.3657355915009976,-9.93358908891678
34.21,3.9000000953674316,18.0,21.72433280944824,27.218921661376953,-79.78275418025622,40.45906187501334,291.7696109542847,-0.01093344483524561,-0.0225976649671793,-0.6839222908020021,0.7291228175163269,-0.08141026156138434,-0.06731604188978405,3.0623326474426507,-0.04286554455757141,-0.04655116051435471,-0.08497509360313417,0.15501741623505952,0.5289397857338191,-9.86596136212349
34.31,3.9000000953674316,18.0,21.660476684570312,27.012176513671875,-79.78275448952276,40.459062263250544,292.3820729980468,-0.011939767748117449,-0.0230425987392664,-0.6839438080787659,0.7290729284286499,-0.07259132472145284,-0.07597037089861397,3.0793398352287498,-0.024055531248450283,-0.06125326454639435,-0.057664070278406136,0.1303046526387334,0.5428453416377306,-9.915922311544419
34.51,3.799999952316284,17.0,21.646705627441406,29.00012016296387,-79.78275501913859,40.459062599675626,293.0670991668701,-0.008777763694524765,-0.01970179565250874,-0.6842382550239563,0.7289395332336426,-0.09061562324377513,-0.11406927510378835,3.1304327573876765,0.11703760176897048,0.027314772829413414,0.08925231546163559,0.25672277066856625,0.1909127056784928,-10.003036469221117
34.6,3.799999952316284,16.0,21.75438117980957,26.98036956787109,-79.7827548515007,40.45906301323328,293.42996080017093,-0.008483958430588245,-0.0181726198643446,-0.684311032295227,0.7289143204689026,-0.14440715430013698,-0.09675167999080883,3.1606468198749518,-0.11410894989967345,-0.1378629058599472,-0.061788856983184814,0.04684647568501532,0.5699756913632155,-9.85293844342232
34.8,3.799999952316284,15.0,21.725584030151367,26.59073257446289,-79.7827550424227,40.45906324093373,293.7452455291748,-0.009552179835736752,-0.01816173642873764,-0.684341311454773,0.7288730144500732,-0.1261392944897676,-0.10716319374556103,3.1612115476373708,0.17589551210403442,0.0678238645195961,0.19919033348560333,0.20025958953425288,0.09384457698091864,-9.881619036197662
35.0,3.9000000953674316,15.0,21.65171241760254,27.32229423522949,-79.78275507070741,40.45906409770657,294.4256158599854,-0.010626714676618576,-0.015631569549441338,-0.6848251819610596,0.7284622192382812,-0.1476851657823194,-0.08985304168539729,3.177118271185043,0.2356525510549545,0.07721003144979477,0.10456764698028563,0.21950674138963225,0.22617070343345405,-9.811251304149627
35.11,3.799999952316284,14.0,21.679258346557614,27.218921661376953,-79.78275522320297,40.45906434762388,294.7422242889405,-0.0110909016802907,-0.013381651602685452,-0.6847608685493469,0.7285606265068054,-0.17421365849394355,-0.08356385926177093,3.1723570050898227,-0.14501461386680606,-0.15169590711593628,-0.1128472313284874,0.1348161541018635,0.6100525805354119,-9.695542507767676
35.2,3.799999952316284,14.0,21.706802368164066,26.996273040771484,-79.78275489269024,40.45906588660598,295.45073564147947,-0.009760129265487194,-0.009309589862823486,-0.6844145059585571,0.7289683818817139,-0.2583215299218561,-0.059049769887701276,3.2107908724613683,-0.06536462903022766,0.010758603923022749,-0.020829608663916588,0.09418927034363153,0.41760397575795655,-9.765987423062326
35.41,3.799999952316284,15.0,21.706802368164066,26.853139877319336,-79.78275487784165,40.45906670390056,296.1953073272705,-0.0066526741720736035,-0.012290611863136292,-0.6854206323623657,0.7280132174491882,-0.235162693037292,-0.0371114281275399,3.247503634665612,0.0627753809094429,0.0847872942686081,-0.0024733610916882753,0.2272242255136371,0.3457996924594045,-9.773056706786155
35.6,3.799999952316284,16.0,21.642948150634766,28.363977432250977,-79.78275494362234,40.45906699006907,296.5190454254152,-0.005032532848417759,-0.0137293366715312,-0.686199426651001,0.7272665500640869,-0.2309461773021977,-0.007072884710401961,3.241081803485641,-0.05814491957426071,0.05788753926753998,-0.1290426105260849,0.10115002426318824,0.6670950928330421,-9.606432695388797
35.7,3.9000000953674316,16.0,21.64795684814453,28.01409912109375,-79.78275468134002,40.45906720709321,296.9380212554932,-0.00493513559922576,-0.014431430026888847,-0.6869668364524841,0.7265287637710571,-0.17802979161429888,0.004359471594773193,3.2888016058378686,0.010798979550600052,0.044136106967926025,-0.001951281912624836,0.2286609960347414,0.35839452188462023,-9.791059114336962
35.9,3.9000000953674316,16.0,21.74812126159668,26.5748291015625,-79.78275478086559,40.459067674814015,297.5940900573732,-0.007371327839791775,-0.016645705327391624,-0.6872254014015198,0.7262160778045654,-0.14703688763973896,0.008858543119497922,3.2780792314787184,-0.0273178480565548,0.0020376683678478003,-0.03521348908543587,0.1923368133231997,0.4382168361917138,-9.777467261552813
36.0,3.9000000953674316,16.0,21.70429992675781,26.43964767456055,-79.78275475408472,40.45906776425362,298.3427110443116,-0.00982597842812538,-0.017701635137200356,-0.6873038411140442,0.7260878086090088,-0.07322945701258865,-0.009505002211466744,3.291334931031348,-0.02343055233359337,-0.10503428429365158,0.09604723751544952,0.16637013260275127,0.3416651628166437,-9.678146456480027
36.2,3.9000000953674316,17.0,21.676753997802734,27.401813507080078,-79.78275433321278,40.45906753877861,298.7398458251953,-0.010231965221464634,-0.017502035945653915,-0.6873787045478821,0.7260162234306335,-0.004295693477732752,-0.0023169367477996537,3.2988808285739686,0.03320200368762016,0.10426469892263412,0.050491806119680405,0.023308783164247872,0.3728750418126584,-9.583199368715288
36.3,3.9000000953674316,19.0,21.62541961669922,27.81530570983887,-79.78275438092501,40.45906765715004,299.06848199462894,-0.009496303275227548,-0.017039112746715546,-0.6873372197151184,0.7260764837265015,-0.005715454916602726,-0.00022494852591514042,3.2837600078775293,-0.03848832100629807,-0.09519479423761368,-0.032175470143556595,0.06216903121210635,0.4096022073179484,-9.692800748348237
36.5,3.9000000953674316,20.0,21.759389877319336,26.12952995300293,-79.78275430185155,40.45906795114678,299.7815595397949,-0.008016401901841164,-0.017506953328847885,-0.6869380474090576,0.7264609336853027,-0.007910732243835011,-0.009679564533010587,3.3055941220317413,-0.10510357469320296,-0.08117790520191193,-0.06596715748310089,0.009860324207693337,0.4466109893471003,-9.798561092019082
36.6,3.9000000953674316,20.0,21.709306716918945,27.02012825012207,-79.78275417999761,40.459068233618034,300.4765954742432,-0.00822770968079567,-0.02007674425840377,-0.68665611743927,0.7266585230827332,0.01744862578762516,0.002863814366352073,3.2977365296628887,-0.07134850323200226,0.006244859658181667,-0.12600716948509216,0.07164728555828333,0.5411610877141356,-9.687811319231988
36.7,3.9000000953674316,20.0,21.679258346557614,27.218921661376953,-79.78275424626601,40.45906832649725,300.80582864379886,-0.008735332638025284,-0.020548813045024872,-0.6865317821502686,0.7267569303512573,0.030999290467760805,0.0008062248651080593,3.2912945968685983,0.022345997393131256,-0.053043007850646966,-0.02520069479942321,0.2825966999307275,0.4139789578691125,-9.820943648815156
36.9,3.9000000953674316,18.0,21.68802261352539,26.43169593811035,-79.78275407764849,40.45906851193685,301.49451882934574,-0.011493577621877192,-0.01994025520980358,-0.6865601539611816,0.7267086505889893,0.04742827193216904,0.0032494068815780604,3.30999930343288,-0.01444263942539692,-0.07222015410661697,0.040071334689855576,0.23717728290706874,0.3825867553800345,-9.948203619718553
37.0,3.9000000953674316,17.0,21.676753997802734,26.59073257446289,-79.78275412734803,40.459068596679714,301.82591111755374,-0.012031431309878826,-0.019974811002612114,-0.6861445307731628,0.7270914912223816,0.05286202807189242,-0.0036862510205493,3.3200613009669047,0.01814619079232216,0.061697054654359824,0.05382672697305679,0.07949274147860706,0.3693659084290266,-9.893708739280699
37.2,3.9000000953674316,16.0,21.644201278686523,27.083742141723643,-79.7827536506024,40.459069129875566,302.1794133911133,-0.011256164871156216,-0.02062375843524933,-0.6856361627578735,0.7275651693344116,0.016559622460491766,0.0417398153681984,3.3162015580244617,-0.024638965725898743,-0.01721908338367939,-0.020882003009319302,0.05205631285440177,0.4903759732469917,-9.834609761238099
37.4,3.9000000953674316,16.0,21.67550277709961,26.1772403717041,-79.78275364619913,40.4590693692357,302.84246690368656,-0.00924105104058981,-0.020075403153896332,-0.6857990026473999,0.7274553179740906,0.005403824843985472,0.06703977475551352,3.3226879769807254,-0.07176574319601059,-0.001565741142258048,-0.11549533158540724,0.11560410381294788,0.6220595455169678,-9.763375471830367
37.5,3.9000000953674316,14.0,21.64795684814453,27.12350082397461,-79.78275350509614,40.459069396556146,303.17984063720706,-0.009228724986314774,-0.01965383067727089,-0.6860641241073608,0.7272170186042786,0.027768365412599152,0.05059252162868815,3.2898354383484576,0.0406850315630436,-0.023319980129599568,0.06181908398866653,0.2615131386369467,0.3253792419657111,-9.8362013733387
37.6,3.9000000953674316,14.0,21.626672744750977,27.33819961547852,-79.78275329449502,40.45906947784224,303.846932006836,-0.007948213256895542,-0.021696563810110092,-0.6865884065628052,0.7266790866851807,0.03548124236245115,0.05683387361222835,3.2830148351813566,-0.09952062368392944,-0.08401060104370117,-0.0670626163482666,0.17700881257653234,0.4983647681772709,-9.912754290103912
37.8,3.9000000953674316,13.0,21.683013916015625,25.97049331665039,-79.78275330736895,40.45906963787443,304.5052133331298,-0.007657746784389019,-0.021763470023870468,-0.6865705251693726,0.7266971468925476,0.0338056584094946,0.06459702099334294,3.299101798089241,-0.2158646285533905,-0.08203435689210893,-0.09585080295801164,0.09981672205030916,0.6787694243341684,-9.753676110506056
37.9,3.9000000953674316,13.0,21.654216766357425,26.61458778381348,-79.78275317661709,40.45906968335376,304.8422227630616,-0.00859004445374012,-0.022834137082099915,-0.6869257092475891,0.7263180613517761,0.06765730904253052,0.03873269546513405,3.2685521720359265,0.0810740739107132,0.020071206614375114,0.09569891542196274,0.14261068442836405,0.2545249119400978,-9.789545270204544
38.11,4.0,15.0,21.656721115112305,26.137481689453125,-79.78275320763538,40.45906975387764,305.16882760620115,-0.00879038590937853,-0.023968035355210304,-0.6873421669006348,0.7258850336074829,0.06813404194161221,0.03581491160584844,3.259970736940737,-0.0004730085202027112,0.06686577200889587,-0.10593578964471816,0.038177603892982005,0.6383074960112572,-9.597346122264863
38.3,4.0,15.0,21.561565399169922,27.457475662231445,-79.78275301420044,40.45906979719594,305.82070024108884,-0.008391576819121838,-0.020081808790564537,-0.687917947769165,0.7254620790481567,0.09757668369119804,0.03657787398147453,3.2036404843548305,0.24442991614341736,0.05526303127408028,0.08446595817804338,0.23986353032290936,0.3139310880750418,-9.69559864103794
38.41,4.099999904632568,15.0,21.58785820007324,27.71988296508789,-79.78275271414522,40.4590697567515,306.4764104614258,-0.007122321985661984,-0.012347380630671978,-0.6885789036750793,0.7250213027000427,0.083332902886509,0.029089871833806038,3.2032475272944287,0.049325797706842416,0.02051238901913166,0.05096076801419258,0.1789947097375989,0.3532689622789621,-10.00622904896736
38.52,4.099999904632568,15.0,21.634183883666992,26.39988899230957,-79.78275271126826,40.459069769168025,306.7980390319825,-0.008101443760097027,-0.01471796352416277,-0.6885948777198792,0.7249516844749451,0.08133095403549008,0.0267941744104199,3.22767739815669,-0.14076471328735352,0.14100229740142822,-0.12707434594631195,0.005162282860837877,0.5961270344629884,-9.92809621453285
38.7,4.099999904632568,13.0,21.700542449951172,25.914831161499023,-79.78275232199786,40.45906964556096,307.42995698547367,-0.010868174955248831,-0.023991774767637253,-0.6873905062675476,0.7258102893829346,0.16259565454553565,0.06655683357360029,3.1967717182766453,-0.005310725886374712,0.1514088362455368,0.040726836770772934,0.1042237867601216,0.4852404368296266,-9.71886997461319
38.9,4.099999904632568,14.0,21.733097076416016,25.86712074279785,-79.78275228779623,40.45906962340853,307.7497831115723,-0.01141262985765934,-0.02656596340239048,-0.6870558857917786,0.7260291576385498,0.1797819430273645,0.08760560846817246,3.188175760160412,-0.17023466527462006,-0.04806380346417427,-0.1516372710466385,0.11794837133958935,0.7380174332857132,-9.639384679198264
39.0,4.099999904632568,14.0,21.68927383422852,25.779651641845703,-79.78275170711755,40.45906950000971,308.04095132446287,-0.012326098047196863,-0.028613401576876637,-0.6873384118080139,0.7256688475608826,0.21183727658155585,0.1119032787187174,3.121458306934299,0.006096894387155771,0.06430798768997192,0.019880138337612152,0.2546037397161126,0.4742907946184278,-9.648970019817352
39.1,4.099999904632568,13.0,21.597875595092773,27.06783866882324,-79.78275135531365,40.45906941382614,308.6497617492676,-0.013434501364827156,-0.029841212555766106,-0.6891664862632751,0.7238637208938599,0.19426843412057496,0.12681080850866108,3.049503977094016,-0.04692281782627106,-0.13380955159664154,-0.06441483646631241,0.14655136059969665,0.5625565614178777,-9.486547817587851
39.3,4.099999904632568,13.0,21.473920822143555,28.47530174255371,-79.78275129736411,40.45906940844129,308.9550100097657,-0.013120942749083042,-0.027621956542134285,-0.6893404722213745,0.7237918972969055,0.18923222585739047,0.11007211822934987,3.038557971724835,0.12166287750005722,0.030811384320259094,-0.05624185130000114,0.243204702436924,0.37065434239804745,-9.74135661184788
39.4,4.099999904632568,12.0,21.388782501220703,28.91264915466309,-79.78275106321047,40.459069379153036,309.55688531494144,-0.008934597484767437,-0.02486199326813221,-0.6872848868370056,0.7259075045585632,0.14814145905662554,0.09409298645426144,3.05291619078295,0.1374097466468811,-0.014351097866892816,0.04705478623509407,0.2453302018716932,0.20544130068272354,-10.022465597391127
39.6,4.099999904632568,12.0,21.51899528503418,27.354103088378906,-79.78275093370807,40.45906938100597,310.16402871704105,-0.006024482659995556,-0.025162678211927414,-0.6858531832695007,0.7272799015045166,0.11664664894682605,0.08798047422104767,3.099427351637315,0.2124692350625992,0.1513483226299286,0.11175736039876938,0.21093139763921495,0.17800519639626147,-10.132892603874206
39.8,4.099999904632568,12.0,21.57158088684082,27.25072860717773,-79.78275092078495,40.459069418216906,310.47525079345706,-0.006374272517859936,-0.02634522132575512,-0.6857953071594238,0.7272895574569702,0.08396270685214392,0.09282602054505804,3.1157253384788963,-0.2313886433839798,-0.1177120879292488,-0.13023819029331207,0.14699350146576762,0.5737857370823622,-9.927783973217007
39.9,4.0,13.0,21.554052352905273,27.57675170898437,-79.78275091724039,40.45906945648637,310.7869001159668,-0.006634380668401718,-0.02706338465213776,-0.6865488886833191,0.7265495657920837,0.1088491939146345,0.08229471302817892,3.1118243746961607,0.07632870227098465,0.08732254058122635,-0.05635794997215271,0.21103436345234514,0.5384389164671302,-9.823904678821565
40.0,3.9000000953674316,14.0,21.43260383605957,29.15915489196777,-79.78275071892291,40.45906958838759,311.3864713439942,-0.006201023701578379,-0.02630338817834854,-0.6884685158729553,0.7247626185417175,0.0919667069078313,0.0680799104755946,3.078570678493148,0.0452326163649559,-0.015749212354421616,-0.0503891259431839,0.2252989932149649,0.5423823883384467,-9.799037640094758
40.2,3.9000000953674316,14.0,21.577842712402344,26.686153411865234,-79.78275061257389,40.45906964779928,311.99557168579105,-0.007139103952795267,-0.02381441555917263,-0.6896889805793762,0.7236788272857666,0.06367158940935956,0.04500210679573705,3.0805814233226068,-0.071120485663414,-0.09402350336313248,-0.07769469916820526,0.1632670700736344,0.5303255758434534,-9.828249160051346
40.3,3.799999952316284,14.0,21.47266960144043,27.234825134277344,-79.7827506555877,40.45906971002257,312.3031430969238,-0.007716504856944084,-0.02312879450619221,-0.6899761557579039,0.7234213948249817,0.07232271207799845,0.033330945471668205,3.0737827199876744,0.05450454726815224,0.0718119665980339,0.0489923320710659,0.1035752117726952,0.3491946589574218,-9.744021772742274
40.5,3.799999952316284,12.0,21.49896240234375,27.3620548248291,-79.78275056774847,40.45906968935268,312.6082273254395,-0.007937824353575706,-0.021728331223130226,-0.6899527311325073,0.7234846949577332,0.05814876287469292,0.018687098035456547,3.0609857738364914,-0.01573890820145607,-0.05311426147818565,-0.0739765614271164,0.1401524966955185,0.5330498301610351,-9.776850965023039
40.7,3.799999952316284,13.0,21.48894691467285,27.51313781738281,-79.78275051645375,40.45906971332477,313.22050912475584,-0.005602380726486445,-0.020900091156363487,-0.6889631748199463,0.7244733572006226,0.04726110966191096,0.00028404278759837717,3.0527008443512362,-0.010817370377480984,0.00478813610970974,-0.033287391066551215,0.07842630984261632,0.3870813638716936,-9.854213136434556
40.81,3.9000000953674316,14.0,21.4238395690918,29.326141357421875,-79.78275065749912,40.45906983296511,313.83111245727537,-0.004855981096625328,-0.022052435204386708,-0.6883084774017334,0.7250666618347168,0.060295873989074565,0.004073933417231886,3.0449104753523635,0.14513137936592102,0.05868455767631533,0.13840864598751068,0.2335691123083234,0.1457571808062494,-9.805142717957498
40.9,3.9000000953674316,15.0,21.5452880859375,27.234825134277344,-79.78275067539894,40.45906986012668,314.1425672302246,-0.0055826185271143905,-0.0204585213214159,-0.6882204413414001,0.7251916527748108,0.02639934634010124,0.005791474402765083,3.0495387731397634,-0.17956438660621646,-0.17039485275745392,-0.08950290828943253,0.08454514693468809,0.5662002903968096,-9.759563671946527
41.1,3.9000000953674316,15.0,21.515239715576172,27.27458381652832,-79.78275076603362,40.45906992429308,314.4468770751953,-0.006550614256411791,-0.019041884690523148,-0.6882723569869995,0.7251728773117065,0.05286920621782988,-0.017481476253995556,3.038901278205701,0.21709033846855166,0.12881770730018616,0.12147077918052672,0.1691676963865757,0.1587206771783531,-9.750935520529747
41.3,3.9000000953674316,15.0,21.32367515563965,28.936504364013672,-79.78275076759647,40.459069889589905,315.0613942871093,-0.007091658189892769,-0.020115606486797333,-0.6885799765586853,0.7248467206954956,0.0656631407541421,-0.02726879284610479,3.023151823536331,0.17931079864501953,0.10372965037822723,0.10000106692314148,0.17365389950573445,0.2271386368945241,-9.727948946356774
41.4,3.9000000953674316,15.0,21.470165252685547,28.061809539794922,-79.78275085983759,40.459069940575404,315.36426599121086,-0.007508780341595411,-0.021047504618763924,-0.6884552240371704,0.7249345183372498,0.04941341272524122,-0.018614330439257785,3.0352662799113497,-0.1410951316356659,-0.14930567145347595,-0.03857343271374703,0.11039336672052742,0.3533664645999671,-9.875926187038422
41.5,3.799999952316284,15.0,21.574085235595703,25.97049331665039,-79.78275090197863,40.45906995233279,315.9843183288574,-0.00830336194485426,-0.020303601399064064,-0.6883090138435364,0.7250859141349792,0.06745517000985353,-0.023921638205475482,3.0582135682315257,0.11879199743270875,0.03522295504808426,0.15843196213245392,0.13360848479904236,0.10978024961426856,-9.885561228990557
41.7,3.799999952316284,14.0,21.410066604614254,28.10951995849609,-79.7827509910392,40.45906993136769,316.60168893432615,-0.009105170145630836,-0.02126078307628632,-0.688412606716156,0.7249504327774048,0.06001625012948171,-0.030173885076624232,3.07341177265576,0.07289198786020279,0.06261689960956572,0.06489522010087967,0.07092204809188843,0.25052486825734377,-9.890541887283325
41.8,3.799999952316284,15.0,21.493953704833984,27.34615135192871,-79.78275108696539,40.45906999731079,316.9092794189453,-0.009612953290343285,-0.021292168647050858,-0.6883060932159424,0.7250441908836365,0.057638772555773585,-0.03309865530235888,3.0769676834961057,0.06917435675859451,0.03027420118451118,0.03071461245417595,0.21155164103955032,0.3025103612802923,-9.88915141940117
42.0,3.799999952316284,16.0,21.467660903930664,27.187114715576172,-79.7827510559991,40.45906992319914,317.22033746337894,-0.008795712143182755,-0.01998141035437584,-0.6883413791656494,0.7250583171844482,0.0410942328159925,-0.022826148602591283,3.079439134695821,-0.16218017041683194,-0.12659616768360138,-0.11526895314455032,0.053763686120510114,0.5610795912891626,-9.776932241320608
42.2,3.799999952316284,17.0,21.36749649047852,28.419639587402344,-79.78275116532204,40.45907000333118,317.83825738525394,-0.008454888127744198,-0.017541902139782906,-0.6888585686683655,0.7246342301368713,0.003683393977282748,-0.031089797395736817,3.0761088034914925,-0.1953248381614685,-0.15589970350265506,-0.06690490990877151,0.03284388341009617,0.4142650694400072,-9.77326545238495
42.3,3.799999952316284,14.0,21.415075302124023,28.23674964904785,-79.78275134189019,40.45907016714006,318.4516950378418,-0.006746767554432154,-0.01712520606815815,-0.6888145804405212,0.7247039079666138,0.0254422875942264,-0.028230964422221318,3.0604912048373984,0.006667438428848982,-0.005233923438936472,0.00866274256259203,0.16230489246547222,0.3079661972075701,-9.757376228570939
42.4,3.9000000953674316,14.0,21.490198135375977,27.15530776977539,-79.78275126023634,40.45907013091677,318.7658544311524,-0.005889867432415485,-0.015496295876801012,-0.6886147856712341,0.7249379158020021,0.017089760561210192,-0.010106783967864984,3.0546587399564236,-0.025360763072967533,-0.06520014256238937,-0.09693276137113573,0.14920533869415525,0.4926784240454435,-9.647214100956916
42.6,3.9000000953674316,14.0,21.507726669311523,26.54302215576172,-79.7827512877382,40.45907013293288,319.3827825317383,-0.008243822492659092,-0.016592787578701973,-0.6884536743164062,0.7250437140464783,0.026574501338892997,-0.012640382887573685,3.0262781049734966,-0.025409197434782985,-0.06246258690953255,0.023181812837719917,0.1937916371226311,0.4116538856551051,-9.6487992811203
42.8,3.799999952316284,14.0,21.5064754486084,27.25868034362793,-79.78275134158945,40.459070189257076,319.6844182739258,-0.00871335156261921,-0.018171511590480804,-0.6887485384941101,0.7247201204299927,0.04498334943124262,-0.007749698107057746,3.0103228249119067,-0.021691882982850075,0.07270339876413345,0.07763455808162689,0.14392292752861974,0.34805061466991905,-9.638148577809334
42.9,3.9000000953674316,12.0,21.49896240234375,27.218921661376953,-79.78275139774982,40.45907018234565,320.2987714538574,-0.005685911979526281,-0.020692933350801468,-0.6892600059509277,0.7241962552070618,0.06034778877586509,0.004890835238147893,3.0040145590251344,0.0931195467710495,0.08779586851596832,0.042972125113010406,0.2313657352700829,0.2824884716235101,-9.687324830889702
43.1,3.799999952316284,12.0,21.46640968322754,27.43362045288086,-79.78275144609309,40.459070234823365,320.5991140136718,-0.005915586836636066,-0.02101641334593296,-0.6894736886024475,0.7239816784858704,0.04397129129632359,0.029760971527805002,3.0088668107563947,-0.16105414927005768,-0.13352902233600614,-0.07619272172451019,0.12108819823712112,0.5305753615871072,-9.712439206838608
43.2,3.9000000953674316,11.0,21.46265411376953,27.425668716430664,-79.7827513054314,40.45907012046053,320.91316659545896,-0.007493937388062476,-0.02095537818968296,-0.6895653009414673,0.7238814830780029,0.07473584971735811,0.03195868339546782,3.01646039950432,0.12746888399124146,0.03473585471510887,0.1532907336950302,0.20681963559240105,0.1366723070293665,-9.811308606863022
43.3,3.9000000953674316,11.0,21.542783737182614,25.86712074279785,-79.78275137194153,40.45907021289422,321.5162549743652,-0.00865135248750448,-0.02196148037910461,-0.689550518989563,0.7238528728485107,0.09146839733452727,0.027130358166771576,3.00307168954704,0.17697276175022125,0.02043554931879044,0.19649192690849304,0.24474781919270755,0.12328368153423072,-9.753870822787283
43.5,4.0,11.0,21.437612533569336,27.56879997253418,-79.78275131014105,40.459070221645696,322.1306501159668,-0.006826480384916067,-0.021381255239248283,-0.6897299289703369,0.7237187623977661,0.07236829461299432,0.02964429469837465,2.9933077911311816,0.03621993586421013,-0.004280252382159233,0.03658869117498398,0.1747118983604014,0.29063263803720474,-9.701324819326402
43.6,4.0,10.0,21.521499633789066,27.218921661376953,-79.78275114803361,40.45907003195812,322.4347844848633,-0.005239303223788738,-0.021134892478585243,-0.6897209882736206,0.7237478494644165,0.08621411820985231,0.05225185866251833,2.984984875797596,0.050575841218233115,0.033108357340097434,-0.11507108062505722,0.2432114267349243,0.6193258991092444,-9.672821397185324
43.8,4.0,10.0,21.34746551513672,27.74374008178711,-79.78275115698634,40.45907006308211,322.732674194336,-0.005653542932122946,-0.021003808826208115,-0.6895573735237122,0.7239043712615967,0.07640387106745875,0.060532189195176375,2.9675321641399517,-0.11220509558916092,0.006962642073631287,-0.12955114245414734,0.20407016515731813,0.5062065421789885,-9.57120789885521
44.0,4.0,9.0,21.301137924194336,28.841083526611328,-79.78275077373691,40.45906976048204,323.3278737792968,-0.006232304032891989,-0.02170964516699314,-0.6893298029899597,0.7240955233573914,0.10575370213149826,0.0985232025054345,2.9535409783401105,-0.1377096027135849,-0.04372051358222962,-0.027732746675610542,0.12527331543155015,0.5158598201349378,-9.793807305693626
44.1,4.0,9.0,21.40756225585937,27.99819564819336,-79.78275073049541,40.4590697587676,323.623730255127,-0.0060269883833825606,-0.022058868780732155,-0.6893692016601562,0.7240492105484009,0.12974222659117074,0.0970258692088941,2.9587587731600777,0.07500840723514557,0.03532224893569946,0.00882565975189209,0.1488009854592383,0.44632005382329226,-9.861869480609895
44.2,4.0,8.0,21.415075302124023,27.5369930267334,-79.7827503528748,40.459069578642016,324.2177701721192,-0.007912393659353256,-0.024206345900893208,-0.688757598400116,0.7245442867279053,0.14014052576755792,0.11942644006601395,2.9844528814333025,-0.102447047829628,-0.07760563492774962,0.020641438663005832,0.15130085287615658,0.4997211394831538,-9.90874310016632
44.41,4.0,8.0,21.475173950195312,26.42374420166016,-79.7827501674509,40.459069497128354,324.80977304077146,-0.009095177054405212,-0.025034472346305847,-0.688788652420044,0.7244728207588196,0.1320709682010832,0.11733749581150152,2.9826535080204635,-0.1685337871313095,-0.1649678647518158,0.0032506550196558237,0.10064526337198912,0.4922246801108122,-9.829707455635072
44.6,4.0,8.0,21.31616401672364,29.09554100036621,-79.78275010777969,40.45906949912728,325.10812814331064,-0.009487940929830073,-0.024280549958348274,-0.6890613436698914,0.7242341041564941,0.15740752252173154,0.11029817747596957,2.9751790543169614,0.21441324055194846,0.09745830297470093,0.13175739347934726,0.2355904216691852,0.2777660775370896,-9.82220898628235
44.7,4.0,8.0,21.50271797180176,25.453628540039066,-79.7827500769638,40.4590694030371,325.3999372253418,-0.00896059162914753,-0.023258468136191368,-0.6891350746154785,0.7242041826248169,0.11935727088433985,0.09660599691537868,2.9726319718819516,-0.15274357795715332,-0.05014709755778314,-0.1324898600578308,0.2329172573983669,0.6860067424178123,-9.81284408569336
44.8,4.0,8.0,21.421335220336914,26.69410514831543,-79.78275000466742,40.4590694331144,325.9954572448732,-0.007033145055174829,-0.024377470836043358,-0.6898893713951111,0.723470151424408,0.10236219573377213,0.09231890112059714,2.9703068049646864,-0.1610976904630661,-0.05374102294445038,-0.022874124348163605,0.13930163545534016,0.5859343143180012,-9.72638598561287
45.0,4.0,9.0,21.4138240814209,27.9266300201416,-79.78275002426784,40.45906937740211,326.5846410522461,-0.0060116457752883426,-0.02492392435669899,-0.690765380859375,0.7226243019104004,0.09856036340344852,0.07601722931328855,2.9384865019280366,-0.05376042798161506,-0.09293383359909058,-0.019949888810515404,0.2208114744722844,0.4849369297921658,-9.676608638763428
45.11,4.0,9.0,21.3700008392334,27.83916091918945,-79.7827499713667,40.45906933022445,326.88330133056644,-0.006969474256038666,-0.02521322481334209,-0.6909400224685669,0.7224387526512146,0.09596671971033884,0.06988896659734242,2.944970076775728,0.001824241946451366,0.07303296774625777,0.05750630795955657,0.25300140162929896,0.30237432215362786,-9.780651070475578
45.3,4.0,10.0,21.45263671875,26.932659149169922,-79.78274998623918,40.459069364630224,327.1782575378418,-0.007384906522929668,-0.025217438116669655,-0.691028356552124,0.7223498821258545,0.09039763919522127,0.05827252669358201,2.953061125364665,-0.04381398484110832,-0.05933063849806785,-0.07156277447938919,0.2722429438121617,0.5537172158807516,-9.875780006647108
45.5,4.0,11.0,21.390033721923828,27.25868034362793,-79.78274998914563,40.459069409115465,327.7644925842285,-0.0043825353495776645,-0.024243948981165886,-0.6905437707901001,0.722870945930481,0.08390093086648329,0.03958839185334506,2.9596870043995898,-0.00981700886040926,-0.06921176612377168,-0.014452886767685413,0.20309737119823693,0.4067629455775023,-9.805824503302574
45.6,3.9000000953674316,11.0,21.375009536743164,27.7039794921875,-79.78275003678057,40.45906944759319,328.06071908569334,-0.0029936321079730988,-0.02271406538784504,-0.6904627680778503,0.7230051159858704,0.0771341440662412,0.03880002525170687,2.9652894876529308,0.03814179077744484,0.08656163513660431,-0.029160581529140483,0.09455146880820392,0.5192100919783116,-9.822124786376953
45.7,3.9000000953674316,10.0,21.408815383911133,27.529041290283203,-79.78275007073482,40.459069437134794,328.6569600830078,-0.0069213714450597754,-0.02076931297779084,-0.6891266703605652,0.7243101596832275,0.07514334638503745,0.02273800160842436,2.9863974481150253,-0.02127797715365887,0.03108853101730347,-0.13814029097557068,0.07623555913567544,0.6055930553376675,-9.820312149524687
45.91,3.9000000953674316,9.0,21.46515655517578,26.61458778381348,-79.78275014307478,40.45906935987446,329.2551122436524,-0.009793520905077456,-0.02233785018324852,-0.6878857612609863,0.7254090905189514,0.09550266631912864,0.004606506443970732,3.0067198095103995,-0.02818684093654156,-0.08219387382268906,-0.006763269193470478,0.14873704981058836,0.4737403158098459,-9.940499328374864
46.0,3.799999952316284,9.0,21.4238395690918,26.837236404418945,-79.78275019876995,40.45906938763292,329.5565038452149,-0.009203149005770685,-0.022905953228473663,-0.6877183318138123,0.7255578637123108,0.11803542989964624,0.0019688186322800484,3.017415811355588,0.1726834923028946,0.14469140768051147,0.08413726091384888,0.2426182267069817,0.28879420034587383,-9.981787687540054
46.21,3.799999952316284,8.0,21.421335220336914,27.12350082397461,-79.78275016688451,40.459069301958216,329.8534627685546,-0.008134737610816956,-0.0230713039636612,-0.6876116991043091,0.7256664037704468,0.08490979277339998,0.01851152977932011,3.0154811920177997,-0.21365101635456085,-0.09470785409212112,-0.0797976553440094,0.17117228636518125,0.6890391084551811,-9.814863713979722
