time,wind_speed,wind_angle,battery_voltage,battery_current,position_x,position_y,position_z,orientation_x,orientation_y,orientation_z,orientation_w,velocity_x,velocity_y,velocity_z,angular_x,angular_y,angular_z,linear_acceleration_x,linear_acceleration_y,linear_acceleration_z
0.0,1.7000000476837158,138.0,23.950477600097656,-0.10337305814027786,-79.78277318696355,40.45903272931829,275.0099937438965,-0.00230101658962667,-0.0007299228454940021,-0.9919925332069396,0.1262741982936859,-0.0022218303109811928,-0.010813377954850179,0.004355265223186918,0.0033332339953631163,0.006482372060418129,0.0008568924968130888,0.007944868293707259,0.039343415354378526,-9.807165269851684
0.11,1.7999999523162842,151.0,23.96299934387207,-0.06361418962478638,-79.78277301548323,40.459032805425636,274.99672479629515,-0.002308581257238984,-0.0007482870132662357,-0.991990864276886,0.12628652155399325,0.0002995015142943043,-0.014870926343582778,0.00166154938730666,0.0005060196854174137,0.0019886090885847807,0.004713851492851973,0.0061881442990852535,0.029660947001539168,-9.807449444532397
0.3,2.200000047683716,155.0,23.95924186706543,-0.05566241592168808,-79.782773021793,40.45903283196992,274.9969069480896,-0.002311296993866563,-0.0007378861191682518,-0.991993248462677,0.12626788020133972,-0.0017143565096078015,-0.015045557355963182,9.807809818587724e-05,0.005300333723425865,0.003142056753858924,0.008115692064166069,0.00893333096348215,0.04917813515290618,-9.804320014715197
0.4,2.4000000953674316,157.0,23.96174621582031,-0.06361418962478638,-79.78277281434652,40.45903284992697,274.9820448875427,-0.0023060990497469893,-0.0007135472842492162,-0.9919916987419128,0.12627992033958435,-0.00307065915914862,-0.006135113455553657,-0.0047828094286893425,-0.005249985959380865,0.0001444045192329213,-0.0009360175463370981,0.003654403288091999,0.03425239315023646,-9.808079774379733
0.6,2.4000000953674316,176.0,23.955486297607425,-0.08746951073408127,-79.78277258444443,40.459032880278,274.9674870491029,-0.0023075006902217865,-0.0006960582686588168,-0.9919936060905457,0.1262652426958084,-0.006759996902238893,0.0013834582799410009,-0.00847864495067977,0.0011436913628131153,0.0006627296679653227,0.007137274835258722,0.008461936317617075,0.04382976922206582,-9.805629206299782
0.7,2.4000000953674316,173.0,23.95173072814941,-0.08746951073408127,-79.782772575458,40.459032880750364,274.96660776138305,-0.0023071712348610163,-0.0007129840669222176,-0.9919943809509276,0.12625910341739655,-0.008386755463538474,0.0012295610419264884,-0.009038442523812392,-0.005021273158490658,-0.004910971038043499,-0.011485366150736807,0.004504809713107534,0.05232538984157145,-9.80479305446148
0.9,2.5,176.0,23.95924186706543,-0.06361418962478638,-79.78277237870276,40.45903292406115,274.9558913230896,-0.0023286191280931234,-0.0007209657342173159,-0.991993010044098,0.12626934051513672,-0.005297153444395688,0.00015001664814187578,-0.004010836077052181,-0.007466129958629608,-0.0028807914350181822,-0.0077889394015073785,0.008095724173472263,0.026189834224060186,-9.808325357437132
1.0,2.5999999046325684,176.0,23.96299934387207,-0.05566241592168808,-79.78277237299945,40.459032925379454,274.9554426193237,-0.002313968725502491,-0.0007182093686424196,-0.9919955730438232,0.12624992430210116,-0.004880381455038355,-0.00043988848791491847,-0.004868666184974819,0.0070764017291367045,0.002280431101098657,0.006049000658094883,0.006907374665024691,0.03388271436095238,-9.80690506875515
1.2,2.700000047683716,182.0,23.96550178527832,-0.039758868515491486,-79.78277215267411,40.4590329460676,274.9433924674988,-0.002315735444426537,-0.0007250354974530637,-0.9919937252998352,0.1262643188238144,-0.006048936631686096,0.003989594724536971,-0.0046039473116784605,0.00031798801501281565,-0.00404793955385685,-0.007692211773246527,0.008188183841994033,0.0299140766216442,-9.808216014504431
1.31,2.700000047683716,183.0,23.955486297607425,-0.03180709481239319,-79.7827721444951,40.45903294413308,274.9428860664368,-0.002319033024832607,-0.0007280919235199691,-0.9919946193695068,0.1262568086385727,-0.0061179016093803286,0.003531128110194561,-0.0054603334988930175,0.007729258853942156,6.564184332091828e-06,0.005229399539530277,0.007974686238449071,0.024391091361176225,-9.808452242016793
1.5,2.799999952316284,185.0,23.96550178527832,-0.06361418962478638,-79.78277192436232,40.45903298226297,274.9290172576904,-0.002340908395126462,-0.0007170056924223901,-0.99199378490448,0.12626318633556366,-0.008012776213406346,0.0024292351214092664,-0.00860800833229987,-7.219620601972565e-05,-0.0006092817056924107,-0.003428540425375104,0.005635753154056147,0.03408514222595841,-9.807940025925637
1.6,2.799999952316284,190.0,23.96550178527832,-0.039758868515491486,-79.78277172478144,40.45903300522593,274.9150936126709,-0.002343309810385108,-0.0007146121351979673,-0.9919929504394532,0.12626981735229492,-0.0035877393330384405,0.0036573469553006633,-0.013144072123876482,0.006600964814424515,-0.0002449145540595054,0.008243760094046594,0.009044749543536457,0.02526694488013164,-9.809055674672127
1.8,2.799999952316284,199.0,23.95924186706543,-0.02385532110929489,-79.78277171098412,40.459033001134685,274.91233320236205,-0.002365699736401439,-0.0007158082444220781,-0.9919966459274292,0.12624043226242065,-0.005793669396759915,0.003362134128251732,-0.01448136841045794,8.602421439718455e-05,0.0018617631867527962,0.004545885603874922,0.005690418910235167,0.04049453111831098,-9.806564176082613
1.91,2.799999952316284,200.0,23.966754913330078,-0.039758868515491486,-79.78277150986287,40.45903303649377,274.8998915672302,-0.002357601188123226,-0.000720094598364085,-0.9919947981834412,0.12625494599342346,-0.0039106985942098105,0.0019026158463738485,-0.014638616022466603,0.0012872540391981602,-0.001437170198187232,0.007548020686954259,0.010972260200651365,0.028237118013203145,-9.808791965246199
2.11,2.5999999046325684,206.0,23.96550178527832,-0.04771064221858978,-79.78277128616656,40.45903304458179,274.8868643760681,-0.002369687194004655,-0.0007239559199661016,-0.9919987916946412,0.12622381746768951,-0.0029499454247397805,0.005389240020664217,-0.014208235964728125,0.0035417750477790846,0.005267220549285412,0.007575503550469875,0.0071713661734247565,0.047988898283801984,-9.805136870741844
2.2,2.700000047683716,206.0,23.95924186706543,-0.04771064221858978,-79.7827712796495,40.45903304082335,274.88541717529296,-0.002360333455726505,-0.0007242457941174508,-0.991998255252838,0.12622793018817902,-0.005579803413396115,0.005520325049467393,-0.014721715195441932,-0.0058945375494658964,-0.0048380657099187365,-0.006870997603982687,0.005870042063179426,0.04539271626155824,-9.806045528054238
2.41,3.0,213.0,23.968006134033203,-0.04771064221858978,-79.78277105682456,40.45903303490816,274.8724591255188,-0.002369109774008393,-0.0006970098474994303,-0.9919976592063904,0.12623244524002075,-0.005311024847848937,0.009889278474077534,-0.014970389727874943,-0.0086691128090024,-0.0035607300233095884,-0.003964350093156099,0.009783656018553305,0.02614468960789964,-9.808504282236099
2.51,3.0,214.0,23.950477600097656,-0.06361418962478638,-79.78277104799342,40.45903302743097,274.8709151268005,-0.002363303443416953,-0.0007067153346724807,-0.9919988512992859,0.12622298300266266,-0.005232138179430573,0.009774865227415379,-0.015797970870039063,0.008953728713095188,0.0015418129041790962,0.004460674244910479,0.00706860250036698,0.03337767938151956,-9.80624491810799
2.7,3.0999999046325684,213.0,23.964250564575195,-0.039758868515491486,-79.78277086427725,40.45903303646157,274.86196012496947,-0.002340642036870122,-0.0007251208298839629,-0.9919999241828918,0.12621530890464785,0.000641997768506922,0.008058814758289137,-0.009139952567410221,0.002042330801486969,0.00039918776019476354,-0.0009959320304915313,0.008417642517015338,0.03135362457018346,-9.808486155867577
2.8,3.0,212.0,23.94922637939453,-0.14313192665576935,-79.78277086128926,40.459033029349385,274.86101455688475,-0.0023400075733661647,-0.0007175542996264994,-0.9919981956481934,0.12622836232185364,-0.0013811502641880619,0.00840867353858495,-0.009756088892235584,-0.006137356162071228,-0.004078992642462254,0.0020447014831006527,0.009626383048016579,0.029916991093195976,-9.809871361255649
3.0,3.2000000476837163,212.0,23.93670463562012,-0.14313192665576935,-79.78277058366938,40.45903299964246,274.8520338058472,-0.002342435996979475,-0.0006943313055671751,-0.9920000433921814,0.12621405720710754,-0.008002308164529142,0.016477337568107788,-0.005349082023619112,9.075529669644311e-05,-0.0042483205907046795,0.0038767787627875814,0.008339758061338217,0.04423599996138365,-9.803979706764222
3.1,3.0999999046325684,212.0,23.950477600097656,-0.11927660554647446,-79.7827703424197,40.45903304721626,274.8436371803284,-0.002341791754588485,-0.0007052923319861293,-0.9920020103454592,0.12619876861572266,-0.012124668484118457,0.008221687810438017,-0.0009797750403022782,0.0012984249042347074,0.00259130634367466,-0.00911471527069807,0.008457958041108214,0.04598526304587722,-9.805453205108645
3.3,3.0,211.0,23.94296646118164,-0.12722837924957275,-79.78277030798618,40.45903303898545,274.84330530166625,-0.0023455251939594746,-0.0007024628575891256,-0.9920047521591188,0.12617699801921844,-0.014539919745008088,0.00822178516408193,-0.0021821196907043303,-0.008245178498327732,-0.002124367281794548,-0.011399979703128338,0.011966250316472724,0.023337119319476192,-9.80847972393036
3.42,3.0,210.0,23.964250564575195,-0.039758868515491486,-79.78277012431359,40.45903304622431,274.8332139968872,-0.002334899036213756,-0.0007027378887869418,-0.9920059442520142,0.12616808712482452,-0.006031083409889614,0.007320467383580893,-0.002978019950197273,0.00825301930308342,0.0024305435363203287,0.006356716621667147,0.011541941174073143,0.02169737047282979,-9.806829639673234
3.61,3.0,208.0,23.964250564575195,-0.04771064221858978,-79.78276989736436,40.459033074226454,274.8214089393616,-0.002308888593688607,-0.0006971935508772732,-0.992007315158844,0.1261579990386963,-0.00715724238116346,0.0013088469651612253,-0.00712328665538191,0.008328682743012905,0.0028620839584618807,0.01001004409044981,0.003941789083764889,0.04797709878534079,-9.805961912870409
3.71,3.0,207.0,23.964250564575195,-0.04771064221858978,-79.78276988752202,40.45903307479328,274.8206679344177,-0.002308758441358805,-0.0006965221837162971,-0.9920076727867126,0.12615463137626648,-0.009700004034461777,0.0014990064818105778,-0.007645612433204589,-0.0037902416661381717,-0.004701873753219843,-0.010389537550508976,0.0031165057004545822,0.04382424177601934,-9.804515896439552
3.91,3.2000000476837163,202.0,23.957990646362305,-0.04771064221858978,-79.78276970185998,40.45903305103161,274.8088991165161,-0.002297883620485664,-0.000665046158246696,-0.9920071363449096,0.1261591762304306,-0.00010266853737477154,0.006951364594200965,-0.010269643926662858,-0.008869016543030739,-0.0060480167157948034,-0.008008143864572048,0.007928747908445076,0.025512827150523658,-9.808344653248787
4.01,3.0999999046325684,200.0,23.96550178527832,-0.06361418962478638,-79.78276970008629,40.45903304516044,274.80782289505004,-0.0022960347123444076,-0.000654820294585079,-0.9920050501823424,0.1261759251356125,0.0004032488649128499,0.0069182533985149295,-0.011157953666709844,0.007649494800716638,0.0033945376053452487,0.004177649505436421,0.014370834385044872,0.023371300406288358,-9.808780270814896
4.2,3.299999952316284,198.0,23.968006134033203,-0.039758868515491486,-79.78276946200663,40.45903305820606,274.79622383117675,-0.002302664332091809,-0.0006775286747142673,-0.992003321647644,0.1261889636516571,-0.002940240843888323,0.003940878635703449,-0.0125872866667408,0.007975956425070763,0.005041955038905144,0.008210950531065464,0.007690167234395631,0.04629993461072445,-9.805209376215931
4.3,3.299999952316284,197.0,23.97426605224609,0.007951773703098297,-79.78276945612059,40.45903305532791,274.79493827819823,-0.002312052296474576,-0.000672316353302449,-0.9920021891593932,0.126198410987854,-0.0053824939380105324,0.004444614177496054,-0.013051231185720432,-0.007520761340856551,-0.00017035387281794098,-0.01008454617112875,0.0022815170240937733,0.041664257473312316,-9.807400327920917
4.5,3.4000000953674316,195.0,23.96299934387207,-0.05566241592168808,-79.78276925040002,40.45903306133435,274.7835266113281,-0.0023190092761069536,-0.0006591685232706367,-0.9919995069503784,0.12621872127056122,-0.003706902041149441,0.0030313216345672664,-0.014326021808509126,-0.00757922325283289,-0.004557949025183915,-0.01013152301311493,0.0077562099363422034,0.027900487412698568,-9.808594329357149
4.61,3.5,195.0,23.96299934387207,-0.05566241592168808,-79.78276901940731,40.45903304971225,274.7740132331848,-0.002313094446435571,-0.0006632084841839969,-0.9919989109039308,0.12622372806072235,-0.0020186348523371016,0.005363117982451675,-0.013886559887340435,0.009430174715816976,0.0018801705446094275,0.006385346408933401,0.0129198192700278,0.020737435820046814,-9.808492587804793
4.8,3.5999999046325684,191.0,23.96550178527832,-0.039758868515491486,-79.78276900777652,40.45903304142238,274.7710844993591,-0.0023379973135888572,-0.0006410674541257322,-0.9919999837875366,0.12621526420116425,-0.003695298762633589,0.005939627527205487,-0.015529876835900297,0.0075641474686563015,0.000257489795330912,0.0073069222271442405,0.007703338887076825,0.05152039726730436,-9.805032205581666
4.9,3.700000047683716,192.0,23.95924186706543,-0.039758868515491486,-79.7827687725253,40.459033059734786,274.76175756454467,-0.0023470295127481213,-0.0006660642684437335,-0.9919959902763368,0.12624645233154294,-0.007517668318648536,0.0011384867856631018,-0.014724538918334753,-0.007954414933919907,0.00011402394738979642,-0.011641133576631546,0.0046018526508123615,0.05196011245250702,-9.80512634575367
5.1,3.799999952316284,187.0,23.95673751831055,0.039758868515491486,-79.78276855383943,40.459033041923725,274.74960441589354,-0.002328292233869433,-0.0006355112418532373,-0.9919927716255188,0.126272052526474,-0.0033306380018293404,0.003590366174192996,-0.018148086902216358,-0.005766788963228464,-0.005743489600718021,-0.008301411755383016,0.008269894112600014,0.01376673934981227,-9.807531890273095
5.2,3.9000000953674316,184.0,23.95924186706543,-0.039758868515491486,-79.7827685488775,40.45903303886307,274.74774570465087,-0.0023409936111420393,-0.000632429146207869,-0.9919954538345336,0.12625056505203247,-0.002848257566960854,0.004429489742129383,-0.019075584705817925,0.004490512888878585,0.0013087191618978975,0.006857928819954395,0.010273250694153831,0.02308384351897985,-9.807691519260407
5.4,4.0,180.0,23.95298194885254,0.0,-79.78276830884144,40.45903300285771,274.737446975708,-0.002344928914681077,-0.0006190330022946,-0.991990864276886,0.12628664076328278,-0.0030841786846696273,0.009181508639827448,-0.017944796547965963,0.0068394192494452,0.0014920368557795882,0.0067820847034454354,0.010366267104400322,0.052009736127220096,-9.805164352655412
5.5,3.9000000953674316,180.0,23.955486297607425,0.015903547406196594,-79.78276830097302,40.45903299540521,274.7356216430664,-0.002322182524949312,-0.0006228382117114961,-0.9919875264167786,0.1263131946325302,-0.004776464897557928,0.010028480375779254,-0.01870572833925891,-0.00468562263995409,-0.002027712296694517,-0.008237752132117748,0.010235638936283068,0.05860828244592995,-9.80286171913147
5.7,4.0,178.0,23.96049499511719,0.039758868515491486,-79.78276807051792,40.45903298353404,274.725185585022,-0.0023206262849271297,-0.000608899281360209,-0.9919888973236084,0.1263028085231781,-0.004419983838027526,0.006453009521293181,-0.018226465424775816,-0.0029864558018743988,-7.603814447065815e-05,-0.0053405482321977615,0.017078693658113483,0.023279103976674386,-9.807705552577973
5.8,4.0,174.0,23.95673751831055,0.03180709481239319,-79.78276806265583,40.45903297834026,274.72332258224486,-0.0023093500640243288,-0.0006086312350817027,-0.9919917583465576,0.12628069519996646,-0.006074683254022286,0.006923646299965524,-0.01893311325770991,0.0030162234324961896,-0.003918301779776812,0.0017288659000769258,0.004107814034214244,0.02236661856528372,-9.809140459299087
6.0,4.099999904632568,170.0,23.957990646362305,0.015903547406196594,-79.78276782052144,40.45903294566824,274.714045715332,-0.002311851130798459,-0.0006039182771928607,-0.9919913411140442,0.12628324329853058,-0.00559893853992523,0.009428538414516128,-0.017225458471515083,0.005594759248197079,-0.00010783629841171204,0.007474019657820462,0.015591472629457712,0.042724531260319054,-9.804481397867203
6.11,4.0,166.0,23.954235076904297,0.007951773703098297,-79.78276761725544,40.45903293666877,274.70620794296264,-0.0022807286586612463,-0.0005940634873695673,-0.9919877052307128,0.1263127624988556,0.00017973534658538218,0.005651200816085888,-0.01607918821189927,0.001819967059418559,0.00045930925989523535,-0.010699398815631866,0.011169578604167328,0.047946227313950665,-9.805359649658204
6.3,3.799999952316284,160.0,23.950477600097656,-0.007951773703098297,-79.78276761495052,40.459032931651066,274.7045509338379,-0.0022952810395509005,-0.0006008080090396106,-0.991987645626068,0.12631303071975708,-0.0005439696527111292,0.0053340784668298,-0.017150614235477916,0.004489936865866184,-0.0007774565601721406,0.007201258558779955,0.005220129753579386,0.02579946405719966,-9.807326653003694
6.41,3.799999952316284,157.0,23.955486297607425,0.039758868515491486,-79.78276739086559,40.459032876095506,274.69525117874144,-0.002277146792039275,-0.0005647806683555245,-0.9919874668121338,0.12631487846374512,0.0027395033484301353,0.011599917262533548,-0.01612893698449982,0.003365366254001856,-0.0018514771945774555,0.00987104419618845,0.017273337417282163,0.02949439500225708,-9.80858029603958
6.6,3.9000000953674316,153.0,23.95173072814941,0.015903547406196594,-79.78276715409194,40.45903285372514,274.68420667648314,-0.002273272955790162,-0.0005968594923615456,-0.9919900298118592,0.1262950450181961,-0.0007763911464658982,0.008106308356090304,-0.01879438580581503,0.00655937846750021,0.0022155335173010826,0.004383427556604147,0.01911143135628663,0.0527445940906182,-9.804864975214006
6.71,3.9000000953674316,151.0,23.95924186706543,0.039758868515491486,-79.78276714955129,40.4590328465625,274.6822988510132,-0.002278359606862068,-0.0006069383234716952,-0.9919856786727904,0.12632887065410614,-0.003608646911022817,0.008540475661027247,-0.01940253336553617,-0.0050257411785423756,-0.005076706875115633,-0.005453824065625668,0.00240670967992628,0.03834964450914413,-9.806329702734947
6.9,3.9000000953674316,152.0,23.950477600097656,-0.007951773703098297,-79.78276691205029,40.45903280726245,274.67335624694823,-0.0022964447271078825,-0.0005856603966094552,-0.9919893741607666,0.1262994110584259,-0.003220365169324268,0.009711476564577288,-0.01710779457896749,-0.00713252741843462,-0.004545479081571102,-0.003433040576055646,0.0033566800833796148,0.019989462734665724,-9.80783886909485
7.0,3.9000000953674316,150.0,23.95298194885254,0.0,-79.78276690541483,40.45903279935478,274.6715905189514,-0.002277968218550086,-0.0005805201362818482,-0.9919931888580322,0.12626945972442627,-0.0033608911275014373,0.010846172894885334,-0.0180938341255346,0.004168752115219832,0.0012312588514760134,9.556403529131784e-05,0.013254063018830494,0.035070832036435615,-9.806300466656683
7.2,3.9000000953674316,147.0,23.95298194885254,0.03180709481239319,-79.78276670518393,40.459032762353175,274.6624218940735,-0.0022688880562782288,-0.0005795765318907797,-0.9919942021369934,0.12626199424266815,0.001538897835563772,0.008822818925852445,-0.017205608996035116,0.003583584912121296,0.003204514039680361,-0.004947022534906864,0.015874400208704176,0.029268288197927175,-9.808017209172247
7.31,3.9000000953674316,144.0,23.95673751831055,0.039758868515491486,-79.78276670310807,40.45903275404936,274.66066761016845,-0.0022967259865254164,-0.0005579307908192277,-0.9919914603233336,0.1262832134962082,1.0819093874286034e-05,0.009035464924731298,-0.017921371018684396,-0.0029959355015307665,0.0005493867211043835,0.004964147694408894,0.005004748364444822,0.03416494073113427,-9.808436454534533
7.5,4.0,142.0,23.95673751831055,0.02385532110929489,-79.7827664591269,40.45903273820395,274.6521460533142,-0.00233514653518796,-0.000522411079145968,-0.99199116230011,0.126285120844841,-0.004304785532741593,0.006234499893712863,-0.016259619002618058,-0.005420812871307136,-0.002715049311518669,0.0017408658750355244,-0.0027432634786237037,0.031752984831109644,-9.807031953334807
7.61,4.099999904632568,141.0,23.955486297607425,0.05566241592168808,-79.78276624416408,40.45903271866128,274.6444704055786,-0.002319639548659325,-0.0005344905657693744,-0.9919951558113098,0.1262539029121399,-0.0009048855971160527,0.005089286891723153,-0.016002090789143643,0.00500195473432541,0.0013609572779387233,0.005041349679231644,0.008541363661643118,0.038331874455325314,-9.805132192969324
7.8,4.300000190734863,138.0,23.95298194885254,0.04771064221858978,-79.7827662402506,40.45903271495221,274.642850112915,-0.002324248896911741,-0.0005437086219899356,-0.9919912219047546,0.12628452479839325,-0.003847822868363808,0.005776363669367331,-0.01656072578754992,-0.00810780469328165,-0.006828137207776308,-0.001984348287805915,0.010804071666207164,0.03300878402777016,-9.806236732006074
7.9,4.300000190734863,136.0,23.95924186706543,0.07156596332788467,-79.78276602351058,40.459032690745026,274.6321799278259,-0.002308462280780077,-0.000541319721378386,-0.9919950366020204,0.1262550950050354,-0.002273558759784076,0.003716345720421962,-0.018923855646591232,-0.0069578588008880615,-0.0015831633936613796,-0.010768935084342957,0.00626025234523695,0.05407118114177138,-9.806668841242793
8.1,4.400000095367432,137.0,23.957990646362305,-0.007951773703098297,-79.7827658065144,40.459032679733745,274.6229121208191,-0.002299491548910737,-0.0005244594649411738,-0.9919972419738772,0.1262379288673401,-0.003113606912252972,-0.00025307116430429576,-0.017668190719798683,-0.004419711418449879,-0.0016957406187430026,-0.010099966078996658,0.007033964599831961,0.027104882360436025,-9.809532807469367
8.2,4.300000190734863,138.0,23.957990646362305,-0.03180709481239319,-79.7827658035229,40.45903268034029,274.6210977554321,-0.0023128900211304426,-0.0005299673066474497,-0.9919969439506532,0.12623946368694305,-0.003240371344776314,0.0003302296682052452,-0.018519785655982,0.0011004551779478786,0.002005273476243019,0.010283290408551693,0.011984504592837768,0.022242872295901186,-9.807482188940048
8.4,4.300000190734863,137.0,23.95924186706543,-0.03180709481239319,-79.78276562048416,40.45903263860439,274.6121890068054,-0.002308531897142529,-0.0005495006334967911,-0.9919960498809814,0.1262471228837967,0.0024813265371470107,0.0029789208890953194,-0.016989659736922742,-0.0068934825249016285,-0.005408317316323519,-0.0007000456680543723,0.008255953870830127,0.04268731007818133,-9.806196970939636
8.5,4.300000190734863,136.0,23.96550178527832,-0.04771064221858978,-79.78276562279649,40.459032635229185,274.6104437828064,-0.002295941114425659,-0.0005749989650212227,-0.9919968843460084,0.1262400895357132,0.002934802286636868,0.0032603090180459656,-0.0179767683363275,0.005977446213364601,0.004057155456393957,0.002039536600932479,0.011142025884473696,0.0242912866990082,-9.805689432621003
8.7,4.199999809265137,133.0,23.96299934387207,-0.10337305814027786,-79.78276539508866,40.459032610937186,274.5992075920105,-0.0023077160585671663,-0.0005486410809680822,-0.9919962286949158,0.12624508142471313,-0.0009876595393476103,0.002522373491124516,-0.0205167229589328,0.007880114018917084,0.00542405154556036,0.009866988286376,0.007340852058841846,0.0490098860906437,-9.805376021862033
8.81,4.199999809265137,132.0,23.964250564575195,-0.039758868515491486,-79.7827653915557,40.45903260876865,274.5971209526062,-0.0022755032405257225,-0.0005535728996619582,-0.9919975996017456,0.1262354552745819,-0.003270125917390646,0.0031094252604277352,-0.021200969300882284,-0.001337095513008535,0.0010498864576220512,-0.006662184372544289,0.0043523789680330075,0.05102338393684477,-9.803318971395493
9.0,4.099999904632568,131.0,23.95673751831055,-0.05566241592168808,-79.78276519871503,40.459032596947395,274.5855571746826,-0.002267382340505719,-0.0005453372723422947,-0.991997480392456,0.12623614072799685,-0.00022347907544217806,-0.0009455972341521338,-0.0228745434712263,0.0034848579671233892,0.001389737706631422,0.002490862971171737,0.011574979084543885,0.02376396834617481,-9.80739448070526
9.1,4.099999904632568,130.0,23.95924186706543,-0.039758868515491486,-79.78276497604925,40.459032571588295,274.5762550354004,-0.002270687371492386,-0.0005676560685969889,-0.99199640750885,0.12624478340148926,-0.0035308799394083617,0.0007495200775089987,-0.02270996801833679,-0.009292487986385822,-0.004278062842786312,-0.0064966785721480855,0.003159145264362451,0.04012428816407919,-9.806205741763117
9.3,4.099999904632568,132.0,23.96550178527832,-0.03180709481239319,-79.78276497215404,40.45903257165325,274.57393951416014,-0.0022909105755388732,-0.0005648262449540197,-0.991997480392456,0.12623584270477295,-0.00305964397080077,0.0008462663746929293,-0.02371227808997397,0.005686690099537373,0.0025464992504566912,0.006567375734448433,0.00997215106501244,0.022617450412362808,-9.805985301733015
9.4,4.0,135.0,23.95924186706543,-0.03180709481239319,-79.7827647727309,40.45903252692325,274.56197090148925,-0.002285131718963385,-0.0005662357434630394,-0.9919952750205994,0.1262534111738205,-0.00018114868712392545,0.00442035831994079,-0.024170791280684296,0.006190064363181591,0.0013754968531429768,0.004981929436326027,0.01516835120273754,0.02118707528337836,-9.807041308879851
9.6,3.9000000953674316,135.0,23.96049499511719,-0.04771064221858978,-79.78276457289722,40.45903249848847,274.5497886657715,-0.002251394558697939,-0.000544544484000653,-0.9919962286949158,0.12624675035476685,-0.00034600188683035755,0.0025511852126107746,-0.024545324595849998,-0.0015259667998179793,-5.3221570851746947e-05,0.009780765511095524,0.007240427272045055,0.05420838057529182,-9.802895632982256
9.7,3.799999952316284,134.0,23.96049499511719,-0.03180709481239319,-79.78276457119574,40.45903249582288,274.54729051589965,-0.002236166736111045,-0.0005388633580878377,-0.991996705532074,0.1262432187795639,-0.0015903757385287384,0.0032657413086033572,-0.02533510877228345,0.003647536505013704,0.0020698136650025845,-0.0014713641721755266,0.004047902628954036,0.04318086076062173,-9.804836323857307
9.9,3.5,137.0,23.95924186706543,-0.03180709481239319,-79.78276456829755,40.45903249336179,274.54471464157103,-0.002223121700808406,-0.0005621611489914359,-0.9919955134391784,0.12625299394130707,-0.002214862580514484,0.003761986385450071,-0.026282696944432242,-0.0001389160315738991,-0.0033712959848344326,0.005267063621431589,0.012780510499142113,0.026542421327903867,-9.806698077321052
10.01,3.4000000953674316,139.0,23.96174621582031,-0.04771064221858978,-79.78276438779949,40.459032466389715,274.53395290374755,-0.0022383732721209526,-0.000560932036023587,-0.9919946193695068,0.12625977396965027,0.0013086011248859006,0.002263890801103128,-0.023920469030694787,0.006708814296871425,-0.00038898951606824983,0.007371187675744295,0.014294702952029184,0.020592625869903715,-9.807182226777078
10.2,3.4000000953674316,146.0,23.96049499511719,-0.03180709481239319,-79.78276413947866,40.45903241515139,274.5243737220764,-0.002235633321106434,-0.0005422368994913995,-0.9919943809509276,0.12626145780086515,-0.004956576743747609,0.007068690998232272,-0.01964844745672752,0.006935125682502985,0.003595344023779034,0.006652840878814461,0.0045323972648475324,0.04081433726940304,-9.805366666316988
10.3,3.4000000953674316,148.0,23.957990646362305,-0.02385532110929489,-79.78276413050959,40.459032409639846,274.52236528396605,-0.002240663394331932,-0.0005377689376473427,-0.991997003555298,0.12624089419841766,-0.006854437456411581,0.0078079124127950405,-0.02048974184188922,-0.004405655432492496,-0.000485313474200666,0.007044746540486813,0.005897871726192535,0.02471058916300536,-9.806967633962632
10.5,3.299999952316284,153.0,23.957990646362305,-0.06361418962478638,-79.78276395065718,40.459032335732715,274.51256341934203,-0.0022298393305391073,-0.0005656019202433528,-0.99199777841568,0.12623484432697296,0.0005641765822188737,0.012736855705076823,-0.018233544984585872,0.008922943845391273,0.002671448281034827,0.005342028569430114,0.008577052233740688,0.04539114939048886,-9.803573325276377
10.6,3.2000000476837163,154.0,23.950477600097656,-0.04771064221858978,-79.78276374254557,40.45903231047668,274.50355358123784,-0.0022232558112591505,-0.0005767339025624096,-0.991995930671692,0.12624886631965634,-0.0026845765054605807,0.010406796003994141,-0.016989836256567626,-0.009660635143518448,-0.003461675252765417,-0.009561759419739243,0.0018833105033263567,0.04717866148799658,-9.805280127525329
10.81,3.0,156.0,23.964250564575195,-0.039758868515491486,-79.78276372959839,40.459032293137454,274.4999620437622,-0.0022251545451581482,-0.0005680660833604634,-0.9919947981834412,0.12625853717327118,-0.004453350465947019,0.011191965772504066,-0.01876723840488842,-0.0058169024996459475,-0.002389650326222181,0.0006967235822230577,0.011602632303256541,0.02872142278589308,-9.80583619773388
10.9,2.9000000953674316,156.0,23.957990646362305,-0.05566241592168808,-79.78276354179218,40.45903225590557,274.4928457260132,-0.0022271769121289253,-0.0005820043734274805,-0.9919987916946412,0.12622636556625366,-0.000301500403375122,0.009725031709193643,-0.013739986253011913,0.002868437673896551,-0.0020712323021143675,-0.003320179879665375,0.0028662742779124533,0.04433424688875676,-9.803724768161775
11.1,2.700000047683716,154.0,23.96299934387207,-0.04771064221858978,-79.78276333266072,40.45903219193778,274.48233766555785,-0.0022302279248833656,-0.0005760085768997669,-0.9920010566711426,0.1262088268995285,-0.00042349278928305415,0.015048758256951731,-0.013802699703160056,-0.0005215632845647633,-0.00022774688841309398,-0.011309243738651277,0.008645441816188395,0.0223114080587402,-9.807572820782662
11.21,2.700000047683716,154.0,23.950477600097656,-0.039758868515491486,-79.78276332773109,40.45903217889485,274.4809076309204,-0.0022395476698875427,-0.0005868151201866567,-0.9920012354850768,0.126207172870636,-0.0006931921127627609,0.01500579283739749,-0.014812653945128047,0.0014861003728583455,-0.001883876626379788,0.009030213579535484,0.009782282151281834,0.023180532711558045,-9.806503365039823
11.4,2.799999952316284,153.0,23.96299934387207,-0.039758868515491486,-79.78276316940307,40.459032141829354,274.4700047492981,-0.0022213214542716733,-0.0006033316603861749,-0.9920021891593932,0.1261998862028122,0.0059317756146963045,0.009337361807544266,-0.015470465087195047,0.0023498160298913717,0.006251659244298935,0.0084290886297822,0.006334101422689854,0.04918232870288194,-9.802946503758431
11.5,2.799999952316284,153.0,23.96299934387207,-0.007951773703098297,-79.78276317241318,40.45903213270644,274.4684268951416,-0.0022146981209516525,-0.0006124531500972807,-0.9920031428337096,0.1261923760175705,0.003909512230655421,0.008898879752844178,-0.01612828138328996,-0.003271166468039155,0.0006610165582969785,-0.01110130362212658,0.0029044661892112344,0.04786281769629568,-9.803730030655863
11.7,2.700000047683716,154.0,23.95924186706543,-0.04771064221858978,-79.7827629461913,40.45903208724482,274.45757789611815,-0.002219606889411807,-0.0006170842098072171,-0.9920033812522888,0.12619037926197052,-0.002098794076746605,0.010999601544262529,-0.01624199298290684,-0.0038886014372110367,-0.0027253592852503053,-0.011240229941904543,0.00880870704073459,0.023320082451682538,-9.80639577627182
11.8,2.5999999046325684,156.0,23.96299934387207,-0.039758868515491486,-79.78276294053259,40.45903207815089,274.4558979988098,-0.002231369726359844,-0.0006261774688027799,-0.9920040965080258,0.1261843740940094,-0.0018886228244385558,0.01050650406305752,-0.017363755382034742,0.00400426983833313,0.003178433515131473,0.007837073877453804,0.0063372557214461285,0.02364850867772475,-9.80664545238018
12.0,2.4000000953674316,160.0,23.95298194885254,-0.06361418962478638,-79.78276275756393,40.45903204640425,274.4448601722717,-0.0022304588928818703,-0.0006302948459051548,-0.9920054078102112,0.12617462873458862,-0.0002498114624381791,0.006901892150229496,-0.01711650292222331,0.007671589963138102,0.0010731910588219762,0.012385120615363121,0.005559050132869743,0.04524938181973994,-9.803921234607698
12.1,2.4000000953674316,163.0,23.957990646362305,-0.04771064221858978,-79.78276255682674,40.45903202170109,274.4356448173523,-0.0022161384113132954,-0.0006279086810536683,-0.9920074343681335,0.1261584758758545,-0.00334799890692777,0.004250736869770807,-0.014962312180479309,-0.007380289025604725,-0.005183625966310501,-0.01406916044652462,0.0003073371350183152,0.04730971220880747,-9.804270898103717
12.31,2.299999952316284,174.0,23.966754913330078,-0.039758868515491486,-79.78276254631581,40.45903201545095,274.4324466705322,-0.002245802665129304,-0.0006213287706486881,-0.9920052886009216,0.12617504596710205,-0.005291951226614639,0.0048746021762916605,-0.016734875842338747,-0.003982341382652521,-0.003554350463673473,-0.003856853349134326,0.009431460632476957,0.023072208473458887,-9.806357184648514
12.41,2.200000047683716,181.0,23.964250564575195,-0.039758868515491486,-79.78276239601978,40.45903195132482,274.42292804718016,-0.0022405621130019426,-0.000606824120040983,-0.9920052289962769,0.12617628276348114,0.004878525978551444,0.008266655028453761,-0.015727396587458656,0.004168265964835882,0.003385381307452917,0.0019755966495722532,0.002935276561765932,0.039935541870072484,-9.804518820047381
12.6,2.0,195.0,23.957990646362305,-0.04771064221858978,-79.78276220490973,40.45903190199471,274.41151256561284,-0.0022410070523619647,-0.0005905295838601887,-0.992003321647644,0.12619076669216156,0.0010451501474053066,0.009992281527105542,-0.015576962322623482,-0.000956328643951565,0.0011605304898694158,-0.012397600337862968,0.008596233841963112,0.026801626570522787,-9.806641944050787
12.71,2.0,202.0,23.96550178527832,-0.039758868515491486,-79.78276220306337,40.459031893231966,274.40990896224974,-0.0022511198185384274,-0.0005774255841970444,-0.9920018315315248,0.1262025386095047,0.0011415383025030624,0.00952977259699987,-0.01655834152674245,0.0035385347437113523,0.0007739317370578648,0.00542458426207304,0.007625975770060905,0.025299522550776603,-9.807236021161081
12.9,1.7000000476837158,215.0,23.96174621582031,-0.05566241592168808,-79.78276219997728,40.459031884447754,274.4082228660584,-0.002258336404338479,-0.0005834127659909428,-0.9920018911361694,0.12620224058628082,-0.0012835973480030654,0.010141742946836594,-0.017176060719532427,-0.007673431187868119,-0.0005777031183242798,-0.005606332793831825,0.003367948250379413,0.038887469577603036,-9.806001673936844
13.0,1.600000023841858,217.0,23.954235076904297,-0.06361418962478638,-79.78276200719884,40.45903183364099,274.3968493461609,-0.0022614470217376947,-0.0005916416412219405,-0.991997480392456,0.12623631954193115,-0.0020203000349058703,0.010473840654471605,-0.016505498618727375,-0.001897389185614884,-0.0005108013283461332,0.004018224310129881,0.01090841248864308,0.02666952061001212,-9.807812556624413
13.2,1.5,213.0,23.95173072814941,-0.09542128443717957,-79.78276183299971,40.4590317976426,274.38326663970946,-0.002277334686368704,-0.0005871005705557764,-0.9919971227645874,0.12623843550682068,-0.0009546850838563748,0.007792024652348014,-0.01966622207832492,0.00726920971646905,0.0015829766634851696,0.0037354524247348313,0.0027147740052896555,0.04995230650529266,-9.803866270780565
13.4,1.399999976158142,213.0,23.95924186706543,-0.07156596332788467,-79.78276182853543,40.45903179135597,274.38127012252806,-0.002267529023811221,-0.0005881941178813577,-0.9919953942298888,0.12625260651111606,-0.0032883520311637678,0.008016053023647144,-0.02033651905659684,-0.006101752165704966,-0.0026405369862914085,-0.0048882211558520785,0.006285659182467498,0.03792151411995292,-9.80510295689106
13.5,1.2999999523162842,204.0,23.95673751831055,-0.09542128443717957,-79.78276169058344,40.459031739120334,274.36952753067015,-0.002275891602039337,-0.0005759072955697775,-0.9919958710670472,0.1262485384941101,0.0021533399157191795,0.00784989070084097,-0.019234686854621614,-0.0013409008970484138,-0.003302393015474081,0.0035863367374986406,0.003157688599603717,0.03598852055612952,-9.805581843852996
13.6,1.2999999523162842,197.0,23.95173072814941,-0.07156596332788467,-79.7827614954568,40.45903169554117,274.35943241119384,-0.002274580532684923,-0.0005668053054250778,-0.9919989705085754,0.1262248307466507,-0.0022015409790766376,0.009885367217284434,-0.017123041373599296,0.00039220336475409573,0.002655132208019495,-0.006960009690374136,0.010324790702434257,0.04362355437129736,-9.803654601573943
13.8,1.2000000476837158,172.0,23.957990646362305,-0.04771064221858978,-79.78276148223009,40.45903167942308,274.35582275390624,-0.0022731553763151173,-0.0005755242891609669,-0.9919959902763368,0.12624789774417874,-0.0046844912764758394,0.01043445993092202,-0.01878858001695578,-0.005208790302276611,-0.0017181839793920515,-0.011844645254313946,0.008719028796767817,0.02650010667275637,-9.806681705117226
13.9,1.2000000476837158,164.0,23.95924186706543,-0.07156596332788467,-79.78276132831931,40.459031637104246,274.34531564712523,-0.002255949191749096,-0.0005626799538731575,-0.991997480392456,0.12623657286167145,-0.0007346364986608673,0.009959312399433658,-0.017687023480645127,0.008543976582586765,0.002357659628614784,0.00966110359877348,0.012330051055178046,0.022725153383798897,-9.807056511640551
14.1,1.399999976158142,153.0,23.954235076904297,-0.08746951073408127,-79.78276116104213,40.45903160287129,274.3331729888916,-0.0022512446157634267,-0.0005683219060301782,-0.9920000433921814,0.12621627748012546,-0.0018065195909738989,0.00642319232403394,-0.016409367333888283,0.003820541780442,0.002768541919067502,0.0064941025339066965,0.003410335995722562,0.0422581335855648,-9.804956191778183
14.21,1.5,147.0,23.957990646362305,-0.07951773703098297,-79.7827611555697,40.459031597719395,274.3314992904663,-0.0022583610843867072,-0.0005736621096730232,-0.9919992089271544,0.12622259557247162,-0.004130545717495921,0.007048983408209975,-0.017167885309395184,-0.005181560292840004,-0.001735387835651636,0.003078930312767625,0.008642200722824782,0.031304014599882066,-9.806004012823106
14.4,1.7000000476837158,140.0,23.95173072814941,-0.039758868515491486,-79.78276114901877,40.459031592612035,274.329732131958,-0.002256224863231182,-0.0005635082488879561,-0.991999626159668,0.12621983885765076,-0.004791093111245579,0.007144790379684973,-0.01804291948247973,0.0005387994460761547,0.002481731120496989,-0.003472540527582169,0.009620514133712278,0.04339053825940937,-9.80385808467865
14.51,1.7999999523162842,136.0,23.93294906616211,0.44529932737350464,-79.78276102576964,40.45903154163727,274.31720848083495,-0.0022342801094055176,-0.0005444889538921416,-0.9920018315315248,0.12620261311531067,0.0006578584950671758,0.007648392376988127,-0.01785666537925639,-0.006222204305231571,-0.002318296814337373,-0.006364783737808466,0.0053643726836890004,0.04939975833054632,-9.804056890010834
14.7,2.0999999046325684,136.0,23.937957763671875,0.2465049922466278,-79.78276086650838,40.4590314726872,274.3049451828004,-0.0022332891821861267,-0.0005136836552992463,-0.9919931292533876,0.12627142667770386,0.0002614423163165438,0.012501472573000594,-0.017290885140643097,-0.0043216715566813954,-0.0002044895518338308,0.004838900174945593,0.010366062680259348,0.001532735663931817,-9.811620848178864
14.8,2.299999952316284,137.0,23.939208984375,0.2624085247516632,-79.78276086213445,40.45903146179723,274.3031813621521,-0.0022325352765619755,-0.0005244837957434356,-0.9919991493225098,0.12622416019439694,-0.0005792386925301387,0.012554936147100373,-0.018021872484906373,0.003980705048888922,0.0038192307110875854,-0.0041299439035356045,0.010780836978228764,0.047506672013550987,-9.806279416680336
15.01,2.4000000953674316,148.0,23.939208984375,0.2385532110929489,-79.78276072280677,40.45903142580261,274.2888113975525,-0.0022251151967793703,-0.0004995333147235215,-0.9919942617416382,0.12626276910305026,-0.0007927961664954129,0.009432947718932595,-0.020707503097436204,-0.0018228609114885328,-0.0019996287301182747,-0.004020077176392078,0.019938961977604776,0.02282013866119087,-9.806581717729571
15.11,2.5,154.0,23.93545341491699,0.2385532110929489,-79.78276060251353,40.45903136435012,274.2784611701965,-0.0022392182145267725,-0.000491465674713254,-0.9919944405555724,0.12626129388809204,0.005398891833725307,0.012935742025872237,-0.01779067186478176,0.009790869429707529,0.000929190660826862,0.0015402178978547456,0.004152942947403062,0.02170060471398756,-9.805251476168632
15.3,2.5999999046325684,165.0,23.93294906616211,0.3101191818714142,-79.78276060286498,40.459031351636746,274.276647758484,-0.002245547017082572,-0.0004922204534523188,-0.9919947385787964,0.12625883519649506,0.0029663730307029424,0.013741151304237635,-0.018617380342294345,-0.004069996066391468,0.0006455025286413727,0.0020649360958486795,0.007021380523801781,0.05200847988948226,-9.804175003767014
15.4,2.5999999046325684,170.0,23.93670463562012,0.3578298389911652,-79.78276046003027,40.459031281714594,274.2665135383606,-0.002253680722787977,-0.0004754629044327885,-0.9919989109039308,0.1262258142232895,0.0019922803370526366,0.017121358245693264,-0.013050150271417874,-0.006239872425794602,-0.0019270591437816624,0.00992392934858799,0.010780824415851384,0.03645536134019494,-9.807385709881784
15.61,2.799999952316284,172.0,23.9291934967041,0.4214440286159515,-79.78276034315377,40.459031228720505,274.2565791130066,-0.0022532527800649405,-0.00048046457231976086,-0.9919978976249696,0.12623369693756106,0.002775229751999063,0.015483187209286813,-0.008761504046003678,0.0015098369913175702,0.0003745065769180656,0.016129042953252792,0.01718312812736258,0.04892026380635798,-9.802481065392497
15.7,2.799999952316284,175.0,23.15667724609375,8.261893272399902,-79.78276033986072,40.4590312163088,274.2558567047119,-0.0024345461279153824,-0.0007895583985373378,-0.9920075535774232,0.1261528879404068,-0.004175091602898307,0.013029625865453236,-0.009573648489779912,-0.007525299210101366,-0.041473887860774994,0.0016558344941586256,-0.04773255269508809,-0.021336457938887183,-9.782079545259476
15.9,3.0,180.0,23.92543792724609,0.2385532110929489,-79.78276033334497,40.45903120430828,274.25488634109496,-0.00262116058729589,-0.0010299013229086995,-0.9920156002044678,0.12608447670936584,0.0032389650623971976,0.014886856876773028,-0.01202221569832808,0.028532341122627262,0.0193940494209528,0.013010341674089432,0.04662302982062102,0.12052785225212576,-9.793532486557961
16.01,3.0,184.0,23.93545341491699,0.198794350028038,-79.78276020550571,40.45903115013221,274.2440363883972,-0.0027239997871220108,-0.0011392198503017426,-0.9920017123222352,0.1261899322271347,0.00278864668243887,0.013932938837719816,-0.00911897878314537,0.01810332387685776,0.01202621590346098,0.012816491536796093,0.032201183047145615,-0.001947878838982433,-9.798724814057351
16.21,3.0999999046325684,185.0,23.89037895202637,0.6440936923027039,-79.78276009246326,40.4590311249905,274.2337963104248,-0.0030450767371803518,-0.0014833409804850815,-0.9920079708099364,0.12613029778003693,0.007292911277591255,0.010243253596273462,-0.009348155160026964,0.06970708817243576,0.036913029849529266,0.029596569016575813,-0.03270266401581466,0.0912847938761115,-9.785512445569037
16.3,3.0999999046325684,188.0,23.93044471740723,0.2385532110929489,-79.78276008776871,40.459031115275,274.23289651870726,-0.0031005842611193657,-0.0015145717188715935,-0.9919921755790708,0.12625275552272794,-0.0017594604543077735,0.011755610977885984,-0.00931894415747898,-0.010269922204315662,-0.006302534602582455,-0.005388463847339153,-0.030068344899918886,0.052443211236968636,-9.790818793773653
16.51,3.0999999046325684,192.0,23.92668914794922,0.5645759701728821,-79.78275992652691,40.45903109559492,274.2221457481384,-0.003208755515515805,-0.0016133995959535241,-0.9919818639755248,0.12632949650287628,-0.013347001588668526,0.009297486510288038,-0.006911311541938247,-0.023747529834508896,-0.000688222877215594,-0.007956341840326786,0.030518728969618682,0.06771319207269699,-9.799981965422633
16.6,3.299999952316284,189.0,23.74388885498047,3.315889835357666,-79.78275984844012,40.459031053571294,274.20849962234496,-0.003170559648424387,-0.001592551008798182,-0.9919880032539368,0.1262822300195694,-0.00257165685574238,0.009803710453110352,-0.009435151380658069,0.002325193490833044,-0.007634438108652829,-0.0031560303177684546,0.0017337859500548805,0.03759754639584571,-9.813114227056504
16.8,3.5,193.0,23.61117172241211,4.890340805053711,-79.782759839925,40.45903104596583,274.20753211975097,-0.0031685042195022106,-0.001682257978245616,-0.9919872879981996,0.12628720700740814,-0.00765742184349135,0.010911594865401431,-0.009260392723470795,-0.02089305967092514,-0.004418610595166683,-0.007753970567137003,0.03382035928778352,0.04685552973300219,-9.807800277471543
16.9,3.5999999046325684,191.0,23.53479766845703,6.083106994628906,-79.78275975300042,40.459030984447324,274.1955744743347,-0.003326701698824764,-0.001891971915028989,-0.9920102953910828,0.12609916925430298,-0.00988375005099312,0.014891071225779725,-0.006990909382980316,-0.058962345123291016,-0.015733936801552773,-0.039574529975652695,0.02539951679063961,0.26467629957944155,-9.793478692173956
17.1,3.700000047683716,192.0,23.39832305908203,8.683337211608888,-79.78275968364113,40.45903094776294,274.184601020813,-0.0036552965175360437,-0.002269785851240157,-0.9920195937156676,0.1260111778974533,-0.0005327703759965949,0.008854046553451391,-0.006017273949338886,-0.035450663417577744,0.04691656678915024,0.020977595821022987,0.05741181878373027,-0.030024803699925544,-9.810157874822618
17.21,3.700000047683716,195.0,23.320695877075195,10.082849502563477,-79.78275968022746,40.45903093996692,274.1838614463806,-0.003858068492263557,-0.0024823339190334077,-0.9920443296432496,0.12580566108226776,-0.006232101817088974,0.009546274647361718,-0.006784815193878946,-0.027992336079478264,0.0021626998204737893,0.021846361458301544,0.08113943617790938,-0.04080420970916748,-9.856474839448927
17.4,3.799999952316284,197.0,23.11160469055176,12.611513137817385,-79.78275967532647,40.45903093292881,274.18306465148925,-0.004066245630383492,-0.002723094308748841,-0.9920597672462464,0.12567201256752014,7.959178659941255e-06,0.015501663685466203,-0.004533732512295466,-0.011823497712612152,0.1584501415491104,-0.05226398259401322,0.2234497381746769,-0.14255801380611954,-9.951964548826222
17.5,3.9000000953674316,198.0,23.00893592834473,14.297289848327635,-79.78275962553965,40.459030894505844,274.1689130783081,-0.004160781856626272,-0.003620607778429985,-0.9920673370361328,0.1255870759487152,0.010968085619428414,0.003172762254514099,-0.012300327121188405,0.11476129293441772,0.018515996634960168,-0.1692921370267868,0.004100359976291657,0.17477108314633372,-9.77407236814499
17.7,3.799999952316284,202.0,22.78857421875,17.358722686767578,-79.78275963099051,40.45903087599753,274.1579563140869,-0.003961557988077402,-0.005543666426092386,-0.9920693635940552,0.12550702691078186,-0.006709521326736489,-0.00992142285905382,-0.000857716999937401,0.015503618866205215,0.003639929695054889,0.12428419291973115,0.01541157481726259,0.04502346916124225,-9.775842905044557
17.81,3.700000047683716,204.0,22.665874481201172,19.306907653808594,-79.78275963641205,40.45903088458903,274.15790576934813,-0.0031681957188993692,-0.007063814904540776,-0.9920637011528016,0.12549814581871033,0.0015161663596117195,-0.0037866823210647993,-0.002817125520384952,-0.002822073642164469,0.017722269520163536,-0.10629356652498244,0.13759101424366235,0.17743196826428176,-9.730095459222792
18.0,3.700000047683716,208.0,22.44175720214844,22.59894180297852,-79.78275962945119,40.45903088040654,274.1476647377014,-0.0009839971316978335,-0.01102538127452135,-0.9919633269309998,0.12604127824306488,0.004163179169083779,-0.01766945332968391,0.00933772021401356,0.02509873546659946,0.04154720902442932,0.057760979980230324,0.15451846601441505,0.11111060994677248,-9.791354983448985
18.1,3.5999999046325684,209.0,22.30778694152832,25.11965370178223,-79.78275957179015,40.45903086781394,274.1367694854736,-0.0018818691605702047,-0.014108922332525253,-0.9919323325157166,0.12596695125102994,-0.01704687365106079,-0.03612200772932808,0.033158290937073946,-0.04102933406829834,0.12502849102020264,0.034026265144348145,0.07378910237923265,-0.31313367404043674,-10.05856162905693
18.3,3.700000047683716,211.0,22.073654174804688,28.1572322845459,-79.78275953445701,40.45903092625946,274.1420175552368,-0.006516752764582634,-0.019074708223342896,-0.9918043613433838,0.12616562843322754,-0.061153772128889936,-0.0721650443285873,0.08005457089317522,-0.049975186586380005,0.02254690602421761,-0.09489777684211732,-0.006674798236344941,-0.2891505698673427,-10.26624186515808
18.41,3.700000047683716,211.0,22.238924026489254,25.68422889709473,-79.78275934196715,40.459030912402774,274.1353103637695,-0.012229853309690952,-0.022353088483214385,-0.9911808371543884,0.13004420697689054,-0.1278963134805602,-0.11191190888722133,0.20708527500695212,0.14734166860580444,-0.1570061296224594,-0.017233412712812424,0.16644632913172247,-0.35163035318255426,-10.548488134145737
18.6,3.5,215.0,22.20887565612793,25.437725067138672,-79.78275894028188,40.45903140067486,274.1743671417236,-0.005913977511227131,-0.00505528599023819,-0.9915716648101808,0.12932565808296204,-0.2299198640448517,-0.14282002069251398,0.2270325825188458,-0.08436553180217743,-0.2958618998527527,0.0838179960846901,0.10558043215423824,-0.26943141980096696,-10.242740736007693
18.7,3.5,217.0,22.21012687683105,25.747844696044922,-79.78275872664842,40.459031585802585,274.19676179885863,-0.00026641960721462965,0.0032274401746690273,-0.9919487237930298,0.12659910321235654,-0.2419007070488359,-0.13688918901280475,0.2285760983465722,0.1268400400876999,-0.3638026416301727,0.05366603657603264,0.1176425619609654,-0.17699887230992314,-9.83525646328926
18.9,3.299999952316284,223.0,22.17381858825684,25.747844696044922,-79.78275848475016,40.45903175682028,274.21905584335326,0.00806878786534071,0.012531802989542484,-0.9921616315841676,0.12406950443983078,-0.26097679934963464,-0.10626754210222256,0.21746234555347402,0.15293505787849426,-0.1481621265411377,-0.05816393718123436,0.22364149030297995,-0.0967806649580598,-9.71901030778885
19.01,3.2000000476837163,225.0,22.22890853881836,24.865196228027344,-79.78275802443794,40.45903245092594,274.21050662994384,0.017589882016181946,0.023525383323431008,-0.991746723651886,0.12480243295431134,-0.2284097287486513,-0.07730634912680434,0.15652005550284026,0.16778549551963806,0.033569108694791794,0.028822997584939006,0.04903734973166138,-0.405944554656744,-9.65284789323807
19.2,3.0999999046325684,229.0,22.073654174804688,27.11554908752441,-79.78275733764559,40.45903290994306,274.22998876571654,0.013358767144382,0.008622103370726109,-0.9916511774063108,0.12796588242053986,-0.2292082700646752,-0.05256121447144499,0.14147793679330592,-0.06038380786776543,0.27035683393478394,-0.034910254180431366,0.01636831748415716,-0.22313605332747105,-9.668481593728067
19.31,3.0999999046325684,231.0,22.038597106933594,27.147356033325195,-79.78275709398419,40.4590329908663,274.245389175415,0.009968914091587068,0.0005852263420820236,-0.9914785027503968,0.12988737225532532,-0.21501923891681726,-0.02820254623944202,0.15024729965614966,-0.031182995066046718,0.13474683463573456,0.00829049851745367,0.11013706681318584,-0.21113312657922506,-9.867319085597991
19.5,3.0,232.0,22.06238555908203,26.495309829711914,-79.7827568137765,40.45903317832092,274.2730924606323,0.01098415907472372,-0.005643031094223261,-0.9912648797035216,0.13130734860897064,-0.179477816415734,-0.017269460082027156,0.20145095135398547,0.02367743849754333,-0.00035546801518648863,-0.008406279608607292,0.23089424869045616,-0.14646745305508374,-10.060410518646243
19.6,3.0,232.0,22.218891143798828,24.65049934387207,-79.78275641425,40.459033306264,274.283167552948,0.013028714805841446,-0.004041934385895729,-0.9913350939750672,0.13064709305763245,-0.21371534727370226,-0.01647057014871149,0.19308154451770804,-0.09711670130491257,-0.13309617340564728,-0.05492306500673294,0.17471630204468966,-0.004675680315122009,-9.778179452419284
19.8,2.9000000953674316,239.0,22.004791259765625,27.218921661376953,-79.78275620592053,40.45903336783243,274.301270198822,0.0150571558624506,-0.001299829687923193,-0.991504430770874,0.12919190526008606,-0.18773970174693813,-0.019938137010587786,0.16780378525611905,0.0032581700943410397,-0.0392286591231823,-0.023453138768672943,0.03942574689164758,-0.02646323723718524,-9.652597047686575
19.9,2.799999952316284,238.0,22.044857025146484,26.67820167541504,-79.78275570919946,40.459033523786246,274.33038730621337,0.014520189724862576,-0.0016898821340873835,-0.9917431473731996,0.1274046003818512,-0.1931049975559923,-0.04216702100619912,0.17698711686392254,-0.2338500916957855,-0.14648938179016113,-0.06852149218320848,-0.06045499303378165,-0.15096916956827044,-9.86895162820816
20.1,2.700000047683716,237.0,22.101198196411133,24.57098197937012,-79.78275554390311,40.459033608907006,274.3445617675781,0.004795178771018982,0.002642633393406868,-0.9913910627365112,0.13081973791122434,-0.13758058499257214,-0.043079776458644935,0.16361149438836278,0.0005945900338701904,-0.015724457800388336,0.06996691972017287,0.045941806356422615,0.022972942851483824,-9.818292521238329
20.2,2.5999999046325684,237.0,22.06363677978516,26.535070419311523,-79.78275540122185,40.45903368312386,274.35982246398925,0.0018794002244248984,0.005284185521304607,-0.991219997406006,0.1321042776107788,-0.12725271174571515,-0.04773810942109997,0.13051921417828954,0.07133211940526962,0.03979560360312462,0.0703902617096901,-0.0059706284478306774,-0.3308094049617648,-9.552136035561563
20.4,2.5999999046325684,231.0,21.88960266113281,28.4912052154541,-79.78275525917023,40.459033759953705,274.3712336540222,0.003152326447889209,0.004732800181955099,-0.9914276003837584,0.13053418695926666,-0.1501911135555623,-0.0480629946970635,0.09739297085627456,-0.04416210576891898,-0.07174158096313478,-0.0187290757894516,0.0030656951665878297,-0.14006883583031596,-9.56363283097744
20.51,2.5999999046325684,231.0,22.78982734680176,16.046680450439453,-79.78275461184256,40.45903370058279,274.4061729431152,0.008302781730890274,-5.1793809689115726e-05,-0.9920389652252196,0.12565802037715912,-0.20135566372402425,-0.03457845603844345,0.09564627090819504,0.08358447998762131,-0.06325406581163406,-0.05965553969144821,-0.024712215419858696,0.004660308533348144,-9.458222150802614
20.6,2.700000047683716,226.0,22.058629989624023,26.19314384460449,-79.78275443654434,40.45903374218128,274.4212734222412,0.018495529890060425,0.0019494383595883848,-0.9919005036354064,0.12564833462238312,-0.1812293332691458,-0.04244388782364912,-0.00842475421516119,0.3149001896381378,0.030971478670835495,0.04248875379562378,0.15425068181008098,-0.2861222786083817,-8.740824338793756
20.8,2.700000047683716,227.0,21.61289978027344,32.610225677490234,-79.78275403979221,40.45903392107122,274.4101635932922,0.02470357902348041,0.009563901461660862,-0.9912229776382446,0.1295197755098343,-0.1940948929441449,-0.04600722020648408,-0.058679001962871985,-0.2853774428367615,-0.19831383228302,-0.13187897205352786,-0.06283093602396549,-0.17838228698819875,-9.808751034736634
20.9,3.0,229.0,21.50397109985352,34.91624069213867,-79.782753619042,40.4590338583101,274.430770111084,0.019319718703627583,0.01354984100908041,-0.9910458922386168,0.13141983747482305,-0.15696142310041253,-0.02690254293052104,0.049850820638458616,-0.1581777185201645,-0.096518874168396,-0.13306142389774325,-0.052479674108326435,-0.23689564811065794,-10.370580750703812
21.1,3.0,226.0,21.46640968322754,35.13888931274414,-79.782753166906,40.45903384482647,274.4629871368408,0.009141050279140472,0.015763593837618828,-0.992124617099762,0.123922161757946,-0.1687406871106085,9.228995378439755e-05,0.374756850091715,-0.10797112435102464,0.14215035736560822,0.17565417289733887,-0.2953096979297697,-0.33645891163498165,-11.459437555074695
21.31,3.299999952316284,228.0,21.500215530395508,35.059371948242195,-79.78275298030795,40.45903386220704,274.50945301055907,0.008738885633647442,0.007211404386907816,-0.9932221174240112,0.11567885428667067,-0.18068993078602644,0.004732277470303293,0.5497522832853193,0.008894626051187515,0.16213814914226532,0.16120952367782593,-0.1306034453585744,-0.5021003349870443,-11.562000056505205
21.4,3.5,225.0,21.24604797363281,37.77092742919922,-79.78275246137585,40.45903390655164,274.635706615448,0.01845143549144268,-0.000413355213822797,-0.9944987297058104,0.1031097024679184,-0.218234083329452,0.014085675296912691,0.9037227856571526,0.15645883977413175,0.09921357780694964,0.1448373794555664,-0.23686080235987905,-0.4514915140718222,-11.622895299196243
21.5,3.799999952316284,232.0,21.26107215881348,37.68345642089844,-79.78275222364753,40.45903392316893,274.73626537322997,0.023809101432561874,0.0002865915303118527,-0.9946393370628356,0.10062643885612488,-0.2416799227766664,0.030168240431050382,1.1009802250122145,0.042758435010910034,-0.043582733720541,0.1026417911052704,0.019708268763497468,-0.7954028847813607,-11.897620879411695
21.7,3.9000000953674316,237.0,21.226015090942386,37.65960311889648,-79.78275171444676,40.459034032203796,274.98673696517943,0.016838181763887402,0.005613122601062059,-0.9951252937316896,0.09700825810432434,-0.294389633014305,0.015042412594917044,1.567361402471906,-0.1463492214679718,-0.11097505688667296,0.03874218091368675,0.038711112071760014,-0.5275583444908262,-12.216526851654056
21.8,4.099999904632568,239.0,21.143381118774414,39.5521240234375,-79.78275144708384,40.45903404799125,275.1556169509888,0.014123720116913319,0.010224411264061928,-0.9951492547988892,0.096819669008255,-0.2925652481841524,0.03129588010207485,1.788329483668493,-0.0011371556902304294,-0.08803489059209824,-0.13699017465114596,0.09789878049865364,-0.5102230677008629,-12.006554507017135
22.0,4.300000190734863,239.0,21.000646591186523,41.7468147277832,-79.78275090996944,40.4590341577776,275.5148102760315,0.01977040059864521,0.006748843006789684,-0.9942996501922609,0.10455618798732758,-0.3449668901788907,0.028855423470181118,2.1924872849283767,0.0669575184583664,0.15606127679347992,-0.26380476355552673,0.0991173859219998,-0.5575690326467156,-11.993834474086759
22.2,4.5,239.0,20.623779296875,36.26803970336914,-79.78275038285622,40.45903430611681,275.90511484146117,0.03234361857175827,-0.016458833590149883,-0.9916573762893676,0.12368778884410858,-0.36085902804840975,0.0823982041480135,2.4753428560180484,0.13380567729473114,0.20666904747486115,-0.2885390222072601,-0.00793560354039073,-0.6696895024180413,-11.846247242689133
22.3,4.5,241.0,20.5699405670166,36.212379455566406,-79.782750118716,40.45903431248181,276.15863223075866,0.04052532464265824,-0.022719046100974083,-0.989768385887146,0.1349080353975296,-0.3612349832108685,0.14549570419005214,2.5573428029195453,0.05930810421705246,0.09311488270759584,-0.2722572982311249,0.3753061679005623,-0.4930498318746686,-10.886292307376864
22.41,4.599999904632568,238.0,20.626283645629886,36.59406280517578,-79.78275009651763,40.459034560446355,276.27338070869445,0.040581267327070236,-0.019949976354837414,-0.9883885383605956,0.14506353437900546,-0.3499197391423105,0.1453750831192584,2.5256381351035206,-0.05270824581384659,-0.1389341652393341,-0.1568344235420227,0.26750823402777313,-0.5275200817734004,-10.535632445812226
22.6,4.5,237.0,20.56368064880371,36.80876159667969,-79.78275004222017,40.45903486940928,276.63149495124816,0.02585633657872677,-0.0005041129770688713,-0.9868104457855223,0.15980081260204315,-0.25578777169899714,0.03990590084666014,2.5304932755086846,-0.16690202057361606,-0.17317581176757812,-0.06965659558773041,0.1328395576681942,-0.3683160408586264,-10.407417039871216
22.8,4.5,239.0,20.51610374450684,38.152610778808594,-79.78274995819184,40.45903492001797,276.88814277648925,0.0152515834197402,0.0070808082818984985,-0.9864717721939088,0.16306693851947784,-0.21595411805689352,0.00172965002636475,2.585868253685539,-0.1982760429382324,-0.09750410169363022,-0.014744470827281475,0.12264737656340005,-0.382422265894711,-10.318835231065753
22.9,4.5,234.0,20.49732208251953,38.16056442260742,-79.78274986840961,40.45903494981078,277.14987535476683,0.006826024968177079,0.011938299052417278,-0.9863967895507812,0.16380582749843595,-0.16928472228609268,-0.01689380563564136,2.6381555809944204,-0.10697680711746216,-0.026213819161057472,0.005026249215006828,0.18732810666784644,-0.24312000917270785,-10.501274206638335
23.01,4.300000190734863,238.0,20.508590698242188,38.23212814331055,-79.78275004502545,40.459035277187006,277.4648425102234,-0.00027148975641466677,0.009845593944191931,-0.9869611263275146,0.16065755486488342,-0.12845156108235126,-0.008953477481325195,2.6557681376841806,0.03797835856676102,0.02612030692398548,0.1315958946943283,0.08244680964387954,-0.3634382204711437,-10.570200015306476
23.21,4.300000190734863,239.0,20.4772891998291,39.03525924682617,-79.78275017458402,40.45903547163358,277.82411236763,0.006266698241233826,-0.0018309209262952206,-0.9877811670303344,0.15571044385433194,-0.14452826989048462,0.07470432666520645,2.6906442336772405,0.03369443863630295,0.07419287413358687,0.033936236053705215,0.28047485500574115,-0.31537249982357024,-10.474758253097537
23.3,4.099999904632568,234.0,20.55366516113281,37.79478073120117,-79.78274998414841,40.459035427306155,278.09654207229613,0.0095627810806036,-0.006495511159300804,-0.9879675507545472,0.15422891080379486,-0.1788048450723828,0.11698089711927792,2.752254888975469,0.03389586880803108,0.09478309005498886,-0.021675778552889824,0.31558391321450474,-0.15844693612307312,-10.468727434873582
23.5,4.099999904632568,236.0,20.733959197998047,35.29792404174805,-79.78275014189957,40.459035503067824,278.52750844955443,0.02221758291125297,-0.015492827631533148,-0.9882611036300659,0.15035469830036166,-0.1896080817333216,0.14702987392788447,2.7575932267979013,0.06326650828123093,-2.312193828402087e-05,0.031066479161381718,0.2842320930585265,-0.1943429930135608,-10.253342907428742
23.71,4.099999904632568,237.0,20.65633201599121,35.70346450805664,-79.78275050029067,40.459035646073715,278.6400186538696,0.025641977787017826,-0.013669345527887344,-0.9888348579406738,0.1461554765701294,-0.15742057318780786,0.14722955473190702,2.674156306458321,0.1126442849636078,-0.12843088805675507,0.1250009834766388,0.4680045261606574,-0.1548038466833532,-10.117148391008378
23.9,4.099999904632568,239.0,20.687633514404297,35.61599349975586,-79.78275040880081,40.45903557546289,279.1816209077835,0.02595878578722477,0.0009680729126557707,-0.9910740256309508,0.13075734674930573,-0.13755818870227993,0.10660084756669036,2.719187267014975,-0.03251338005065918,-0.1555379182100296,0.1651007980108261,0.2557058667764068,-0.3141208302229643,-10.010272983312609
24.0,4.099999904632568,249.0,20.811586380004886,32.983959197998054,-79.78275090683178,40.4590356673641,279.4063328921795,0.01933084987103939,2.293182478751987e-05,-0.9924156665802002,0.12139829993247984,-0.09363700981962847,0.04636671054476427,2.685826953942108,-0.18706363439559934,0.08797257393598558,0.19647769629955286,0.07142997470218689,-0.29736486632376913,-9.923556436300279
24.1,4.099999904632568,247.0,20.87919807434082,32.093360900878906,-79.78275046452761,40.45903544607588,280.1452497959137,-0.002754071494564414,-0.024384606629610055,-0.9937917590141296,0.10851669311523438,-0.008266167539338315,0.08536547563322401,2.698940550374803,-0.1057058796286583,0.3266493380069733,0.11047059297561647,0.18309700660407546,-0.17774093879386785,-9.412139659523962
24.21,4.199999809265137,245.0,20.69639778137207,35.49671936035156,-79.78275046970387,40.45903543500664,280.41181339025496,-0.007463477551937103,-0.036193955689668655,-0.9937817454338074,0.1050342172384262,0.026567814471124503,0.11606027852246395,2.625487900611709,-0.008284922689199448,0.16104017198085785,0.0029589461628347635,0.18101928988471627,-0.14802304996177554,-9.204480473399164
24.4,4.199999809265137,243.0,21.014419555664066,37.44490432739258,-79.78275031732781,40.459035258133866,281.0726987838745,0.009225009940564629,-0.03756564855575562,-0.9939316511154176,0.1029738038778305,-0.0010954399162032818,0.14024306263138386,2.505582235285284,0.32511138916015625,-0.059023458510637276,0.009853682480752468,0.3651196238771081,0.011195800853893163,-8.952628031373024
24.6,4.099999904632568,241.0,20.95807647705078,38.780799865722656,-79.78275018008847,40.459035144079145,281.6880537986755,0.026241784915328026,-0.018471524119377136,-0.9944828152656556,0.0998707041144371,-0.11654206767714195,0.00600485480020127,2.471073509397028,-0.009022019803524016,-0.10836415737867357,-0.05507788434624672,0.2669299261271953,-0.2557950368151069,-9.15665902018547
24.71,4.0,247.0,20.9993953704834,37.42900085449219,-79.78275021569834,40.45903527264702,281.93685002326964,0.02693459764122963,-0.016076110303401947,-0.9946534037590028,0.09839129447937013,-0.10455039948764662,-0.0474666189443732,2.5132501261083946,-0.06526093930006027,0.008693025447428226,0.04454793035984039,0.1855595614761114,-0.21314263187348845,-10.046222834587097
24.8,4.0,256.0,21.175933837890625,35.41720199584961,-79.78275029121667,40.459035407417815,282.1902672767639,0.01953778974711895,-0.01525275036692619,-0.9950046539306641,0.0967029333114624,-0.08201206730690164,-0.06669856243160027,2.5603789591513304,-0.2272762507200241,-0.061688274145126336,-0.02565287798643112,0.2677295694127679,-0.06335724938660861,-10.211626532077787
25.0,3.9000000953674316,264.0,21.174680709838867,34.59021759033203,-79.78275025623996,40.45903524768085,282.89731640815734,0.009145928546786308,-0.021067796275019646,-0.9950607419013976,0.09657516330480576,0.04016477783632976,-0.07107999608308667,2.591473875186672,-0.10101018100976944,0.18610942363739014,0.06188376620411872,0.2599413157068193,-0.08855938838794827,-9.451523580551148
25.2,4.0,275.0,21.34996795654297,31.926372528076172,-79.78275000691106,40.459034899325545,283.4028098106384,0.003344023367390037,-0.024729829281568527,-0.9949681162834167,0.09703495353460312,0.06038540239331211,-0.02445906540422782,2.6306901462292407,-0.10691864043474196,-0.0066133951768279076,-0.09774520248174667,0.4207896484807134,0.29330857973545793,-9.354103705286981
25.3,4.099999904632568,281.0,21.16090965270996,34.51865005493164,-79.78275032029684,40.4590351046449,283.91606922149657,0.0034678962547332053,-0.023052550852298737,-0.9948332905769348,0.09880933910608293,0.1075967041377516,-0.02179574800805726,2.510158267603232,0.05407128855586052,0.03864637017250061,0.10451915860176086,0.3531692307069898,-0.1245910458639264,-9.31414500296116
25.5,4.199999809265137,297.0,20.854156494140625,31.592397689819336,-79.78275016946607,40.459034647615425,284.7293550491333,0.012187144719064236,-0.03190061077475548,-0.994565725326538,0.09835108369588852,0.07682718024459506,0.027340114983885604,2.5117612434864496,0.16874709725379944,0.1785784363746643,0.0638514906167984,0.5100772162154317,-0.016731021869927646,-9.318387742638588
25.6,4.300000190734863,306.0,20.46101188659668,37.47671127319336,-79.78275005301403,40.45903419219949,285.29900045394896,0.01387573592364788,-0.03588637709617615,-0.9943970441818236,0.09845954179763794,0.04874766357000239,0.06744470662602121,2.5488642850522063,0.05640668421983719,0.16261382400989532,0.05076753720641136,0.6115260788798332,-0.15482111424207687,-9.070669282078745
25.7,4.300000190734863,324.0,21.11082649230957,34.51070022583008,-79.78275019411416,40.459034264881176,285.55119199752806,0.014786177314817904,-0.03696778416633606,-0.9942827820777892,0.09907931834459303,0.0640906455904434,0.07297660724984564,2.5132922413425827,0.09276629239320756,0.08820823580026628,0.0013701581628993154,0.5929330294579268,-0.17037182081490754,-9.438704729676248
25.9,4.400000095367432,331.0,21.04446792602539,38.00947952270508,-79.78275007727208,40.459033746053535,286.42159814834594,0.016387427225708958,-0.037372231483459466,-0.9939119815826416,0.1023419126868248,0.06998003614471485,0.10379790021572363,2.5593553251686973,-0.1504763960838318,-0.16414056718349454,-0.11508283764123915,0.6164022912830115,-0.08656382504850628,-9.355788288116457
26.0,4.800000190734863,338.0,21.14087677001953,34.248291015625,-79.78275025456185,40.45903380934821,286.6766387939453,0.005739213898777962,-0.03394240885972977,-0.9942439198493958,0.10145945101976396,0.06555545713288344,0.0974931947613838,2.5554684325304846,-0.2721652388572693,-0.02860545925796032,0.12520986795425415,0.4619882163405419,-0.2407162919081748,-9.626772235035896
26.21,5.0,335.0,21.204730987548828,33.83479690551758,-79.78275012284098,40.459033223879686,287.57636613845824,-0.0012027916964143515,-0.03566901013255118,-0.9943662285804749,0.09981034696102142,0.12336949119919602,0.12071994311239576,2.57186924788602,-0.12442436814308168,0.002875710837543011,0.01066023949533701,0.6642671600729227,0.01623531845281832,-9.166244945526124
26.41,5.300000190734863,328.0,21.15464973449707,35.854549407958984,-79.78274973356655,40.459032553042405,288.4331304550172,0.005578589159995318,-0.04490956664085388,-0.9939000606536864,0.1005718931555748,0.060310051055545814,0.2011690550676017,2.6520046905650725,0.0929722934961319,0.2513393461704254,0.05518604069948197,0.8671993839740754,-0.13750881518237293,-9.59266718029976
26.5,5.5,324.0,21.10581970214844,34.78900909423828,-79.78274975964044,40.459032547899625,288.6980192184448,0.010607874020934105,-0.056249246001243584,-0.9932246208190918,0.1011357605457306,-0.0025117115467142466,0.21424867273595125,2.638070938596693,0.0332643985748291,0.27058762311935425,0.016973743215203285,0.5805228258669377,-0.3555491571128369,-9.691237202882768
26.6,5.5,317.0,21.083282470703125,34.70949172973633,-79.7827497553257,40.45903257988889,288.96211166381835,0.010270201601088049,-0.06623467057943344,-0.9925466775894164,0.10177796334028244,-0.039002129875982776,0.2348372045782732,2.6315704422253288,0.08106069266796112,0.20323847234249115,0.1192612275481224,0.6573180366307497,-0.5216822947561741,-9.812579791545867
26.8,5.400000095367432,317.0,21.061996459960934,35.32973098754883,-79.78275055939899,40.459032414975866,289.801279258728,0.032810050994157784,-0.05040295422077179,-0.9930352568626404,0.1013115495443344,-0.009766759407999679,0.2297217143830484,2.8142767109256215,0.3199444115161896,-0.2642617225646973,0.02692643739283085,0.6561949326843024,-0.29180054627358915,-10.223780554533006
27.0,5.400000095367432,322.0,21.332439422607425,31.083484649658203,-79.78275070793464,40.459032329947426,290.4328357696533,0.04100228101015091,-0.022980306297540658,-0.9939742088317872,0.09902602434158324,-0.13606932104347466,0.060788704467236734,2.9501723737102115,-0.2405756115913391,-0.2452596127986908,0.04289767146110535,0.5724948180466891,-0.4152415909990668,-10.391271708011628
27.1,5.400000095367432,326.0,21.23477935791016,31.98998641967773,-79.78275112508828,40.45903291900908,290.6776210784912,0.027846753597259518,-0.014260467141866684,-0.9946727752685548,0.09822115302085876,-0.0898387681582243,-0.011142497930735127,2.9653383540312404,-0.3150538802146912,-0.18449242413043976,-0.051079001277685165,0.6742858524620533,-0.19594783443957567,-10.385817425251009
27.2,5.5,326.0,21.497711181640625,27.990243911743164,-79.78275134876912,40.459033018468006,290.97709102630614,0.01631372608244419,-0.010327359661459923,-0.9950894713401794,0.0970783308148384,0.008070726618338506,-0.013215446768964913,3.0404308010954684,-0.33403411507606506,-0.03849601745605469,-0.07372862845659256,0.8484181272983552,0.12091246199794115,-10.45414214015007
27.4,5.599999904632568,325.0,21.53026390075684,28.1015682220459,-79.78275226128478,40.459033203204434,291.55708141326915,-0.0008130488567985594,-0.029483754187822345,-0.995015561580658,0.09525858610868454,0.1810128769816756,0.06408757798191841,3.0371298993637965,-0.2736864387989044,0.23244743049144745,-0.21446816623210907,1.034912000745535,0.15541539235040547,-9.964518520832064
27.5,5.699999809265138,314.0,21.163414001464844,33.55648422241211,-79.78275250368199,40.45903319789579,291.85959644317626,-0.007015278562903404,-0.043993573635816574,-0.9945326447486876,0.09444680064916612,0.21741026727625604,0.16366284750595606,3.00286402714488,-0.09961820393800737,0.2000006288290024,0.03903484717011452,1.0218534871190788,-0.14772032864391804,-9.654563466310499
27.7,5.699999809265138,314.0,21.271089553833008,32.26034545898437,-79.78275301113861,40.459033095982754,292.4480707168579,-0.003247224260121584,-0.05944385379552841,-0.993684947490692,0.0951116755604744,0.20913803491114474,0.33966141309463604,2.8436829246684696,0.15207597613334656,0.035322830080986016,-0.011266560293734074,1.3077825517952444,-0.06407718781381846,-8.988376738429071
27.9,5.699999809265138,315.0,21.192211151123047,32.109264373779304,-79.78275346244398,40.45903300507671,293.06499977111815,0.006422953214496374,-0.04618361219763757,-0.9938949942588806,0.09999378025531767,0.13596098274719431,0.3265225414025724,2.7909963119301286,0.13876059651374814,-0.2311678975820541,-0.004213609267026186,1.2225108517706396,-0.1943405079469085,-9.249077771902085
28.0,5.599999904632568,316.0,21.47266960144043,28.125423431396484,-79.78275359066808,40.45903296781746,293.34611530303954,0.01987371779978276,-0.040514163672924035,-0.9940719604492188,0.09891737252473833,0.11894160353090953,0.27079326101011914,2.7968760150273493,0.3404538333415985,0.03292196989059448,0.1574651449918747,0.690115800127387,-0.22197101388126614,-9.736540845036506
28.1,5.5,324.0,21.27359390258789,33.087329864501946,-79.78275367668654,40.45903283015456,293.65662307739257,0.022285154089331627,-0.04033231735229492,-0.9942026734352112,0.0971486121416092,0.012458682362215746,0.2604029355027012,2.795871970309019,-0.1114475280046463,-0.024136049672961242,0.106382854282856,0.8656075526028872,-0.4171496105566621,-9.678064010739329
28.3,5.5,330.0,21.232275009155273,32.10131072998047,-79.78275391170583,40.459032786098746,294.22133846282964,-0.00036198520683683455,-0.0425080880522728,-0.9944881796836852,0.095844604074955,0.06837873003393907,0.2442321373319639,2.8408603514606745,-0.16690412163734436,-0.05338921770453453,0.00667030643671751,0.8702688067406417,-0.12257421327754855,-10.102641448974607
28.5,5.599999904632568,332.0,21.286113739013672,31.15505027770996,-79.78275404218849,40.459032611344064,294.8404285430908,-0.01657247543334961,-0.03443651646375656,-0.9943864941596984,0.0986667424440384,0.1907433882149169,0.2302144378669191,2.951162169561957,-0.001754429074935615,-0.05819815769791601,-0.04300222173333168,0.729681423380971,0.23199354350566864,-10.19945730686188
28.6,5.599999904632568,332.0,21.45263671875,27.25868034362793,-79.78275414256922,40.45903258297799,295.13887996673583,-0.017632009461522102,-0.035255398601293564,-0.9940987229347228,0.1010642796754837,0.18607639098715886,0.2183553131247009,2.9905236106033843,-0.05685271322727204,0.10718752443790436,-0.12628452479839325,0.7633197241276503,0.459459587931633,-10.126153103113175
28.7,5.5,322.0,21.56782531738281,26.320371627807607,-79.78275425711476,40.459032593237254,295.4366170883178,-0.01750054396688938,-0.03855583444237709,-0.9937189817428588,0.10358545184135436,0.16222940603982766,0.21837881315957391,2.942142112274766,-0.02327683568000793,0.019054027274250984,-0.03562520071864128,0.7722202827036381,0.04622382944449783,-9.727984029650687
28.9,5.400000095367432,319.0,21.37125396728516,29.62830924987793,-79.78275431727295,40.45903256129201,296.0382911682129,-0.0158593188971281,-0.04057137668132782,-0.9931403994560242,0.10851118713617323,0.09515091336612708,0.2485165948907023,2.8656097651682497,0.2308771908283233,0.08877049386501312,-0.06461283564567566,0.8299154904484749,-0.03206778658786789,-9.536983560919762
29.0,5.199999809265137,317.0,21.437612533569336,28.38783264160156,-79.7827542423702,40.459032544956,296.32509536743163,-0.0044420072808861715,-0.04102113470435143,-0.9932668805122375,0.1082523763179779,0.02573834581875599,0.25812725867974,2.84367049277928,0.1468488723039627,-0.1420457363128662,0.1530124545097351,0.8030872225016356,-0.0936395955272019,-9.500315086841585
29.2,5.0,317.0,21.388782501220703,29.246623992919922,-79.78275402197461,40.45903255232045,296.919352722168,0.01556322444230318,-0.03841397538781166,-0.9939149022102356,0.1020555943250656,-0.13480456911550848,0.2690135842112835,2.8053877977003427,0.2362764030694961,0.08278071135282516,0.15347418189048767,0.7315208112448455,-0.4637221715971828,-9.572423534989356
29.4,5.0,319.0,21.361236572265625,29.2863826751709,-79.7827538553234,40.45903253555557,297.2005397796632,0.02065186947584152,-0.037915948778390884,-0.9942190647125244,0.0983077958226204,-0.20785751537811506,0.2707804074501866,2.788310282766984,0.011797804385423659,-0.06776397675275803,0.0276381615549326,0.8661998755484821,-0.21110482240095726,-9.640250067114833
29.5,5.0,321.0,21.274845123291016,30.15312576293945,-79.78275355060505,40.459032578251744,297.7910778045654,0.023165129125118256,-0.03805550932884216,-0.9943187236785888,0.09667181968688963,-0.2351274475755528,0.2757298034425907,2.7651996314111567,0.004380989354103804,-0.06624504178762436,-0.05237555876374245,0.8766735544055699,-0.2968409558013081,-9.616164216399193
29.6,5.199999809265137,320.0,21.26357650756836,30.717702865600586,-79.78275338143877,40.45903253865003,298.06760520935063,0.02407006546854973,-0.03662918880581857,-0.9942524433135986,0.09767894446849824,-0.2439658047270864,0.29226972895179026,2.7323868879638242,-0.019825637340545654,0.014514442533254625,-0.10314531624317168,0.7062210054695607,-0.21055176716297866,-9.472196411490438
29.9,5.400000095367432,318.0,21.308650970458984,30.55866622924805,-79.7827531354977,40.459032645298976,298.65277404785155,0.0219177920371294,-0.04374150559306145,-0.9938493967056274,0.09934613853693007,-0.2484452888349561,0.27769154056145723,2.7464876759952253,-0.1832315772771836,0.10302133858203888,0.024488134309649467,0.9429070126265288,-0.2916576914861799,-9.75696516931057
30.01,5.800000190734862,316.0,21.189706802368164,32.75335693359375,-79.78275296711078,40.45903277711645,298.96506423950194,0.022166689857840538,-0.04814247041940689,-0.9933354258537292,0.10235127806663513,-0.1959514000256544,0.3297672782666338,2.7552361235588227,-0.0262417420744896,0.16335994005203247,-0.2540518045425415,1.0255900041013957,0.18825786877423525,-9.621892148852346
30.1,5.800000190734862,314.0,21.1846981048584,31.81504821777344,-79.78275264157138,40.45903272559633,299.5420944213867,0.021608574315905568,-0.056686598807573325,-0.9926871061325072,0.10436532646417618,-0.2164528136541604,0.367218449391239,2.7526387910969223,-0.3217349648475647,0.08564407378435135,-0.04904599115252495,0.8494598087668419,-0.3265150270611048,-9.7061283069849
30.3,5.9000000953674325,314.0,20.880449295043945,36.36346054077149,-79.7827525259373,40.45903267768973,299.81943626403813,0.009747996926307678,-0.05843182653188705,-0.9929147958755492,0.10300976783037186,-0.16818413387174302,0.3738379696581572,2.7362784451348263,-0.2314374148845673,0.021202655509114262,-0.03878758102655412,0.8409304752945901,0.009750999547541142,-9.62032217144966
30.4,6.0,314.0,20.94430351257324,35.178646087646484,-79.78275227429151,40.45903255131348,300.3944465637207,0.006825572811067104,-0.051789622753858566,-0.9937238693237304,0.09891505539417267,-0.08394104910541599,0.3454796915079038,2.7593891309067597,-0.030416995286941525,-0.04024581238627434,-0.021478788927197456,0.8175878056883812,-0.1765457496419549,-9.853265887498855
30.5,6.099999904632568,314.0,20.9843692779541,34.84467315673828,-79.78275215487749,40.45903252556898,300.67412109375,0.008329675532877445,-0.04674072563648224,-0.9941104650497437,0.09741868823766707,-0.11384370110421885,0.3323669111836929,2.802221562041704,0.01531959604471922,0.04099806770682335,0.05391306057572365,0.9512584445625544,-0.3135718497633934,-10.178724249601363
30.71,6.099999904632568,314.0,20.884206771850586,35.647804260253906,-79.78275186098739,40.459032450029,301.26110191345214,0.016127381473779682,-0.04268689081072807,-0.9943649768829346,0.09568706899881364,-0.1630000542995295,0.28982151091327923,2.934491172788504,0.023188358172774315,0.07631684839725494,0.04557245597243309,0.7077797269821168,-0.023953959457576283,-10.480445255041124
30.8,6.099999904632568,317.0,20.904237747192386,36.33960723876953,-79.78275173657558,40.45903244228236,301.55868644714354,0.02573665976524353,-0.04284527525305748,-0.9942131638526917,0.09508997946977617,-0.15806609537532182,0.2814704333018928,2.9827892036305603,0.2535255253314972,-0.030972458422183987,0.03376876190304756,0.6914401213824749,-0.40404998369514944,-10.41437171816826
31.01,6.0,318.0,20.91550636291504,34.948047637939446,-79.7827515157007,40.45903253062588,302.1547119140625,0.033077422529459,-0.03917156904935837,-0.9936994910240172,0.09966357797384262,-0.20725632174014447,0.2910930384363733,3.0750748461683814,-0.08194715529680252,0.0052036545239388925,-0.10652223974466324,0.8720948921889067,-0.3259143718332053,-10.498534201383592
31.2,6.099999904632568,327.0,20.686382293701172,29.93842887878418,-79.78275159967635,40.45903262458507,302.7759048461914,0.013920702971518041,-0.0411374606192112,-0.9939773678779602,0.10061318427324296,-0.09304818284665717,0.2753330968192021,3.1371554110508715,-0.075089231133461,0.03982370346784592,0.07234590500593185,0.8746669361740351,-0.22131713071838024,-10.404865314960482
31.3,6.0,321.0,20.486053466796875,33.03166961669922,-79.78275162513606,40.45903260371551,303.08893890380864,0.009464744478464128,-0.04632389545440674,-0.9938843250274658,0.0997925102710724,-0.03063130810432592,0.28892885398530843,3.091048257450659,-0.07046691328287125,0.2127065807580948,-0.1096138134598732,0.9714330927282572,0.0018413612991571425,-9.426687532067302
31.4,5.800000190734862,322.0,20.258180618286133,38.44682693481445,-79.78275178024009,40.45903270842403,303.3822052001953,0.0077491020783782,-0.04924114793539047,-0.9938269257545472,0.09911365061998367,0.0004147879452232866,0.2912744629078087,2.9854090364099366,0.08905908465385437,0.06282945722341537,0.026166768744587898,0.9554298482090235,-0.2748078797757626,-9.323886464238168
31.6,5.800000190734862,322.0,20.846643447875977,35.94997024536133,-79.78275183931254,40.45903273409445,303.9883892059326,0.009322923608124256,-0.04565853625535965,-0.9941612482070924,0.0973234698176384,-0.009418736352561878,0.3041281535242192,2.9818463944904807,-0.01391367893666029,-0.04019450768828392,0.02492166683077812,0.930576184988022,-0.2047112758085132,-9.818270301818847
31.8,5.9000000953674325,323.0,20.847896575927734,35.79093551635742,-79.78275184289996,40.459032715614576,304.2884075164795,0.009245339781045914,-0.04323665797710419,-0.9944020509719848,0.09596691280603407,-0.02240077709923044,0.30540810449305944,2.9842338873919294,0.03134382143616676,-0.13074232637882233,0.05169938132166863,1.0578164215385917,-0.2788681132346392,-9.829411586523058
31.9,6.0,324.0,20.854156494140625,36.522499084472656,-79.7827520053018,40.45903276914329,304.89816398620604,0.009195529855787754,-0.04540073499083519,-0.9943169951438904,0.09585438668727876,0.009536048710251105,0.3227612846350966,2.9459694648023502,0.033311616629362106,0.08099523931741713,0.02362687326967716,1.0908573561161756,-0.09779907633550464,-9.681909139752387
32.11,6.300000190734862,326.0,20.86417388916016,35.67165756225586,-79.78275207122229,40.459032770158856,305.51283950805663,0.011515576392412186,-0.05327638238668442,-0.9936857819557192,0.09806964546442032,0.001431967509967864,0.3762100341410203,2.9193465488453283,-0.0836772695183754,0.09304292500019072,-0.15242817997932434,1.1528557491302491,-0.028532075781840832,-9.488687898516655
32.21,6.4000000953674325,328.0,20.760251998901367,37.82658767700195,-79.78275211222909,40.459032681889404,305.80597991943364,0.010873876512050629,-0.06345295906066895,-0.9929852485656738,0.0991760715842247,0.01134649162763236,0.4092037873408394,2.894405652897005,-0.22892823815345764,0.2152148187160492,-0.15902546048164368,1.1778205825388433,-0.10196202892810106,-9.570691004991534
32.3,6.699999809265138,334.0,20.732707977294922,37.906105041503906,-79.78275215732788,40.45903258799893,306.0973217010498,0.006340645253658296,-0.07209915667772293,-0.9924421310424804,0.0990968495607376,0.032339015337027294,0.4732676501618284,2.870424168635412,-0.06262613832950592,0.04518415033817291,-0.007559962570667267,1.511744104921818,0.11782112130895254,-9.664768027067183
32.5,6.9000000953674325,331.0,20.554916381835934,31.79119300842285,-79.78275219522443,40.45903240673164,306.7220031738281,-0.005333092994987965,-0.06867080181837082,-0.9926776885986328,0.0992313101887703,0.0947887758817007,0.5167903146718567,2.9588735149702563,-0.15416471660137174,-0.033399615436792374,0.0624057874083519,1.1449729715287686,0.3000299906730652,-9.86171862244606
32.7,7.099999904632568,332.0,20.7164306640625,37.44490432739258,-79.78275235315479,40.45903226843429,307.0427696228027,-0.0008586167823523282,-0.07225041091442108,-0.9923665523529052,0.09993889182806016,0.1758429431269074,0.5114024217538535,2.934708108039844,0.2871907353401184,0.026137042790651318,0.0952051877975464,1.2065271223336458,0.3178463471308351,-9.447525839209556
32.8,7.199999809265138,333.0,20.91300392150879,34.637928009033196,-79.78275249311935,40.45903207245685,307.63557929992675,0.003637106157839298,-0.07750764489173889,-0.9919631481170654,0.09994197636842728,0.08844810984866683,0.5214558997300474,2.911646564622344,0.1072441339492798,0.13996072113513947,-0.024872174486517903,1.3563085944950577,0.02716989152133465,-9.607113311290739
33.0,7.300000190734862,336.0,20.99563789367676,33.429256439208984,-79.78275262122398,40.459031956781075,308.24354667663573,0.0008582468144595622,-0.07539032399654387,-0.992340922355652,0.09785238653421402,0.05622924929730179,0.5081169119395944,2.8924712339302032,-0.017177486792206764,0.051438264548778534,-0.20448453724384308,1.4322136397659782,-0.02115537241101265,-9.684898821115494
33.1,7.5,336.0,20.88545799255371,35.218406677246094,-79.78275267207033,40.45903187980148,308.5637714385986,-0.0011340287746861575,-0.07354486733675003,-0.9924671649932858,0.09797443449497224,0.04581203266760656,0.48751837384320096,2.8899785478457445,0.07797171920537949,-0.017968492582440376,0.02499646320939064,1.3685927174985408,-0.29616527348756794,-9.464286882877351
33.3,7.599999904632567,334.0,20.801570892333984,36.31575012207031,-79.78275264631687,40.459031840278136,308.8558303833008,0.002534150378778577,-0.06918477267026901,-0.9927840828895568,0.0979124903678894,0.02395146566315284,0.4678774302950975,2.872024932664931,0.22903840243816376,-0.14061693847179413,0.08090238273143767,1.2163533682376146,-0.2695336547121406,-9.5165592366457
33.41,7.699999809265138,334.0,20.861669540405273,35.86249923706055,-79.78275262276084,40.459031803222324,309.45739860534667,0.02071242965757847,-0.06465592980384828,-0.9927074909210204,0.09961140155792236,-0.10313019753815594,0.4227075229269358,2.8505537736106605,0.1614541858434677,-0.11547861248254775,0.023130923509597785,1.2177104339003564,-0.4654469905793667,-9.543291537165643
33.6,7.800000190734862,332.0,20.790302276611328,36.60201644897461,-79.782752520962,40.459031972739204,310.05929679870604,0.016184793785214424,-0.07596427947282791,-0.9918807744979858,0.10069841891527176,-0.17647328192310752,0.39035854742576265,2.8300283161477826,-0.15602456033229828,0.09898405522108078,-0.003202609019353986,1.282497290968895,-0.4275858306884766,-9.451441134810448
33.71,7.800000190734862,334.0,20.36710929870605,33.69961929321289,-79.78275240764059,40.459031997461146,310.34382171630864,0.008829322643578053,-0.07863429933786392,-0.9918736815452576,0.09962572902441023,-0.15943731279022175,0.4316267008799107,2.7921502515296384,-0.08798272907733917,-0.11443904787302014,0.10043657571077348,1.3350662447512152,-0.3830665559694171,-9.294708273410798
33.81,7.800000190734862,330.0,20.28572654724121,35.647804260253906,-79.78275226825721,40.45903201427865,310.6242877960205,0.008114655502140522,-0.07131140679121017,-0.9925523996353148,0.098431296646595,-0.13120254035773438,0.4500177492344559,2.752861323100276,0.14396314322948456,-0.17742447555065155,0.05290675535798073,1.6301130920648577,-0.046284110583364964,-9.312767398953438
34.0,7.800000190734862,329.0,20.34206771850586,34.45503616333008,-79.78275191659964,40.459032068922774,311.2060977935792,0.024663886055350304,-0.053522683680057526,-0.9939274191856384,0.0929270014166832,-0.20306196382416453,0.3601524231232005,2.7364204626568465,0.25064483284950256,-0.05506540089845657,0.16344980895519254,1.1322444601356985,-0.5230723971873522,-9.439034512639044
34.2,7.699999809265138,323.0,20.24566078186035,35.73527145385742,-79.78275184340382,40.4590321492475,311.50316734313964,0.034954801201820374,-0.05363621562719345,-0.9938796758651732,0.09002506732940674,-0.2638642558291123,0.3159862590776561,2.7461798430756352,0.21636854112148285,0.11660831421613692,0.3519396781921387,1.1967028498649597,-0.7881958991289141,-9.577389575242997
34.3,7.699999809265138,326.0,20.24315643310547,36.02153396606445,-79.78275150462788,40.45903220046221,312.0578643798828,0.040669023990631104,-0.07201217114925385,-0.9930245876312256,0.08403855562210083,-0.3168824570729805,0.3332736300707664,2.7363531085150243,-0.06887742877006531,0.2009531557559967,0.11663246899843215,1.0267076993733646,-0.6412044990062714,-9.630686361193655
34.5,7.699999809265138,323.0,20.253171920776367,35.87840270996094,-79.78275145678707,40.45903226206229,312.6128303527832,0.034838862717151635,-0.08749551326036452,-0.9928126931190492,0.07385056465864183,-0.2462841226967321,0.40270684419818603,2.7112069124924054,-0.0990154892206192,-0.03383927047252655,0.014648303389549257,1.2436121374368667,-0.8051579408347607,-9.622064056992533
34.6,7.699999809265138,322.0,20.383384704589844,33.413352966308594,-79.78275136923388,40.45903227315301,312.89594955444335,0.027858400717377663,-0.08214916288852693,-0.9939187169075012,0.06783096492290497,-0.23397833625726835,0.4162034414472565,2.7140138337010566,-0.2424797713756561,-0.1893935352563858,0.08374325931072235,1.2037457480281593,-0.3955835077911616,-9.612836565971373
34.8,7.5,325.0,20.49732208251953,32.944198608398445,-79.7827513057181,40.45903236312135,313.1706687927246,0.021100688725709915,-0.06962019205093384,-0.9953685402870178,0.06284398585557938,-0.19018157118373447,0.35174945722437645,2.7214674758710595,-0.096361942589283,-0.2995922267436981,0.12956632673740387,1.275634413957596,-0.475399499796331,-9.789562227129935
34.91,7.400000095367432,323.0,20.33205223083496,38.68537902832031,-79.78275134557032,40.45903265241867,313.7239372253418,0.03299221396446228,-0.04678130894899368,-0.9966272115707396,0.05879834294319153,-0.12203387678575722,0.1898502705137907,2.7834123128652104,0.16321752965450287,-0.013505086302757265,-0.0826331079006195,0.8136219316720963,-0.13812372299842535,-9.945891630649568
35.1,7.300000190734862,322.0,20.70140647888184,37.07117080688477,-79.78275132245068,40.45903289606007,314.280322265625,0.04089445620775223,-0.05409124121069908,-0.9960291385650636,0.057687230408191674,-0.1835290126547591,0.1910143090779464,2.888451577404647,-0.07512430101633072,0.11233790218830107,-0.0777045339345932,0.8877514699101449,-0.5697266365215182,-10.1859701192379
35.2,7.199999809265138,323.0,20.725194931030273,37.14273452758789,-79.78275139621289,40.459032986351,314.57495803833007,0.03316168114542961,-0.05811207368969917,-0.9960997104644777,0.0575222335755825,-0.15186145552577546,0.23087032856997114,2.978205020415708,-0.1197611838579178,0.11045093089342116,0.10586972534656523,1.2501029853522778,-0.5485738222673535,-10.588071445226667
35.3,7.199999809265138,326.0,20.691389083862305,37.43695068359375,-79.7827515156452,40.45903306550504,314.87752838134764,0.02632145024836064,-0.06056780740618705,-0.9960529804229736,0.059306632727384574,-0.0751051281244441,0.27194685651807626,3.051863050266043,-0.14597530663013458,-0.0919436514377594,-0.1345079094171524,1.145076321065426,-0.019990675575099887,-10.431505229473112
35.5,7.099999904632568,324.0,20.658836364746094,37.15863800048828,-79.78275198239928,40.45903334588611,315.4751808166504,0.0199350081384182,-0.06319618225097656,-0.9959284067153932,0.061118751764297485,0.0012556091439322892,0.2683064048309016,3.0777662932603604,-0.07315337657928468,0.057509694248437875,0.12874764204025269,1.2988616010546683,-0.4945029745995999,-10.08540385723114
35.6,7.099999904632568,324.0,20.7064151763916,37.09502410888672,-79.78275222348802,40.4590336191389,315.76919860839837,0.011230501346290113,-0.0648602545261383,-0.996029794216156,0.059931457042694085,0.02711064321903911,0.2641006542300559,3.0982389462322613,-0.182903453707695,-0.08952366560697557,-0.23221249878406525,1.3753811886906624,0.09210740575566888,-10.12599873661995
35.7,7.099999904632568,324.0,20.68888664245605,36.92803955078125,-79.78275238529886,40.45903373291775,316.08136291503905,0.007530760485678911,-0.06258619576692581,-0.9962684512138368,0.05895377323031425,0.06748501645824702,0.2794173406061832,3.1312646707790828,-0.04135429486632347,-0.06734593957662582,-0.01526421867311001,1.2530010116100312,-0.13433057938702406,-10.033675879240038
35.9,7.099999904632568,322.0,20.72269058227539,36.92803955078125,-79.78275267505691,40.45903416688977,316.6898567199707,0.005464809481054544,-0.056468073278665536,-0.9968476295471193,0.055465314537286765,0.015147647125892285,0.21670012686694948,3.1618770220006853,-0.11857610195875168,-0.0299582164734602,0.04088651388883592,1.2701842242479324,-0.3425449860468507,-9.971708257198337
36.0,7.099999904632568,324.0,20.324539184570312,34.256240844726555,-79.78275274446716,40.45903429034011,317.00624389648436,0.007194110658019781,-0.05443202331662178,-0.9970256686210632,0.05408626049757004,0.031364035770984615,0.22342874140643207,3.1517184080650256,0.18878133594989774,-0.03901716694235802,-0.035153720527887344,1.2756629191339015,-0.11886269314214587,-9.750052590966225
36.2,7.099999904632568,325.0,20.359596252441406,33.86660385131836,-79.78275304746175,40.45903478936528,317.58431549072264,0.02159668318927288,-0.04886316508054733,-0.9972964525222778,0.050455223768949516,-0.015844240625100377,0.19189664437138626,3.077517182319534,0.1823633313179016,-0.0590149350464344,0.1772843599319458,1.2357507021725178,-0.2891450150124729,-9.742844143509863
36.41,7.199999809265138,327.0,20.507339477539066,31.6560115814209,-79.7827534612894,40.45903533924391,318.14260025024413,0.03161304444074632,-0.061510097235441215,-0.9965792298316956,0.04524419456720352,-0.046828974193640974,0.15367644845471726,2.941102099830895,0.15360036492347715,0.21402646601200104,0.0571894720196724,0.9636427742242814,-0.24216174189001324,-9.614465015530588
36.5,7.300000190734862,328.0,20.681373596191406,29.02397537231445,-79.78275359464128,40.459035474715705,318.4317085266113,0.03818865492939949,-0.074199378490448,-0.995311439037323,0.04890051856637001,-0.06693314057837635,0.1971781183137737,2.8400628015936777,0.08818915486335754,0.2671883702278137,-0.048174891620874405,1.1938012421876192,-0.4647794212773442,-8.758447262048723
36.6,7.199999809265138,327.0,20.89046669006348,25.93868637084961,-79.78275390252401,40.45903569462228,318.76287002563475,0.03968195617198944,-0.08049824833869934,-0.994315505027771,0.05729086697101592,-0.07079841250955213,0.2636418117250959,2.7487400093213528,-0.03198854997754097,-0.0717744529247284,-0.16593438386917114,1.4110252305865292,-0.5795505069941282,-8.416271125674246
36.8,7.199999809265138,327.0,21.430099487304688,25.81941032409668,-79.78275422279792,40.45903595617458,319.2821990966797,0.024464914575219158,-0.06828980892896652,-0.9942996501922609,0.07814288139343263,-0.0391486134773826,0.21187145923217798,2.4506127911009,-0.19729338586330414,-0.1862819641828537,-0.3011310398578644,1.0210045444965363,-0.3692509010061622,-8.265375539660454
37.0,7.099999904632568,326.0,21.41257095336914,25.70013236999512,-79.78275444406349,40.4590361764365,319.7781135559082,0.011635630391538143,-0.05207157880067825,-0.9944617748260498,0.09054820984601973,0.0401491750698753,0.11426753519706805,2.2390967619661732,-0.07538007199764253,0.052857834845781326,-0.18226853013038635,1.096879476606846,-0.5200588518753648,-8.523338906764982
37.11,7.099999904632568,321.0,21.69803810119629,19.887386322021484,-79.78275447532913,40.45903627289382,320.02960510253905,0.008766290731728077,-0.046264104545116425,-0.9943187832832336,0.09546169638633728,0.023821004737496224,0.10689608409837284,2.166844981013247,-0.03842367976903915,-0.041909817606210716,0.12864303588867188,0.8040302322059871,-0.48621403478086,-8.584680876731873
37.2,7.199999809265138,320.0,21.950952529907227,17.334867477416992,-79.78275454490381,40.459036359539006,320.2401573181152,0.009167771786451341,-0.04530462622642517,-0.9940382242202759,0.09874945878982544,0.01161349857131112,0.09761630368221727,2.0406986327909,0.1238182783126831,0.058935560286045074,0.020556973293423653,1.0274531462788583,-0.2383197557553649,-8.495517854690553
37.4,7.300000190734862,320.0,21.75438117980957,20.45991516113281,-79.78275449208701,40.45903644781167,320.66263122558587,0.024845700711011887,-0.05296459421515465,-0.9927904009819032,0.10461742430925368,-0.06905581669335123,0.17019520910976846,1.6846189576522277,0.24446722865104675,0.15924109518527985,-0.24312575161457065,1.4095140177011491,-0.3355908924713731,-7.814585618376732
37.5,7.5,316.0,21.74186134338379,21.597017288208008,-79.78275442604213,40.45903644652235,320.8216583251953,0.03341697156429292,-0.059321343898773186,-0.9918214678764344,0.10795587301254272,-0.1285826758020548,0.1943807652212799,1.4591917202906002,0.1142234057188034,0.1059241145849228,-0.010279768146574495,1.1780622187256813,-0.5977306699007751,-7.519962548017503
37.7,7.599999904632567,317.0,21.654216766357425,22.38424301147461,-79.78275419216754,40.45903638374404,321.1399719238281,0.03906261548399925,-0.07283397763967514,-0.9898728132247924,0.11541787534952165,-0.15245087732644735,0.2533539197742813,1.1189882829952649,0.10525087267160416,0.09401574730873108,-0.2268237471580505,1.6252410458028317,-0.3160204078629613,-8.137861214876175
37.9,7.599999904632567,317.0,21.94719696044922,18.48787498474121,-79.78275406955892,40.45903632484765,321.2490684509277,0.043050922453403466,-0.0779104009270668,-0.989019811153412,0.11796800792217255,-0.1425576012460672,0.23816799858026605,0.9975384904322088,0.06286362558603288,0.2396897226572037,-0.06529403477907181,1.40044001609087,-0.3325428120419383,-8.376999471187593
38.01,7.599999904632567,318.0,21.82699966430664,20.475818634033203,-79.78275378352178,40.45903615312357,321.5088035583496,0.05044727772474289,-0.07884359359741211,-0.9885794520378112,0.1181081160902977,-0.0779648829515183,0.2175289225010893,0.7432952081518992,0.013268828392028809,-0.03219834715127945,0.10801351070404053,1.2835913050174714,-0.2982801382988691,-8.100109251737598
38.1,7.699999809265138,323.0,21.789438247680664,19.6885929107666,-79.78275355129931,40.459036094051115,321.67077560424804,0.0470520481467247,-0.07759398967027664,-0.989208459854126,0.11503057926893236,-0.06693283017016964,0.20926883872716964,0.6539382140806473,-0.15553569793701172,-0.004575572442263365,0.2260128259658813,1.3454539695382115,-0.3983168618381024,-8.116777324676514
38.3,7.800000190734862,321.0,21.636688232421875,22.89315795898437,-79.78275345318066,40.45903584421647,321.765071105957,0.02008693665266037,-0.06048482283949853,-0.9902664422988892,0.12373614311218264,-0.016613806780204018,0.2049286199109835,0.2358898213417576,-0.16403727233409882,-0.016885969787836075,-0.44294473528862,1.266667562574148,-0.2736298302747309,-7.813534289002418
38.41,7.900000095367432,322.0,21.602882385253906,23.74399757385254,-79.78275315657031,40.45903577271459,321.8772155761718,0.011632629670202732,-0.05756746605038642,-0.987925946712494,0.14336371421813965,-0.025149756342975543,0.19849741102097432,0.16812775984540893,-0.07700445502996445,0.028597528114914894,-0.5144095420837402,1.2259609282761812,-0.17057333048433065,-8.333259374499322
38.6,7.900000095367432,323.0,21.662981033325195,22.56713485717773,-79.78275279338945,40.45903559498944,321.9613525390625,0.011165610514581205,-0.06573056429624557,-0.9779165387153624,0.1980760246515274,-0.03826651937489803,0.2131644098624348,0.0632175034020679,0.1608266532421112,0.17223656177520752,-0.6365836262702942,1.3963194832205774,0.15369863156229258,-8.909500722885133
38.8,7.900000095367432,312.0,21.602882385253906,23.680383682250977,-79.78275244472759,40.45903527977424,321.96874542236327,0.015462485142052175,-0.07413667440414429,-0.9619152545928956,0.2626476585865021,-0.09516123312594446,0.2221957750303601,-0.04532068486506954,0.02750089205801487,-0.02827816642820835,-0.6024971008300781,1.5187553550302983,-0.15358006099238994,-9.147800488471985
38.9,7.900000095367432,312.0,21.554052352905273,24.403993606567386,-79.78275210396015,40.459035168526796,322.00955505371087,0.01965183205902576,-0.07372486591339111,-0.9512010216712952,0.2989902198314667,-0.08418955741638888,0.2370097810165709,-0.0629918073284689,0.11860659718513487,-0.06320907175540924,-0.5984010696411133,1.5164740638434888,-0.4073705078288913,-9.21738352417946
39.0,7.900000095367432,315.0,21.64795684814453,21.8355712890625,-79.78275186178429,40.459035022071646,322.0061981201172,0.021341901272535324,-0.06843019276857376,-0.9391305446624756,0.335999459028244,-0.08854301167207837,0.2418509877529609,-0.07280682599488482,0.16151763498783112,-0.2469501495361328,-0.4981769919395447,1.3249816980957985,-0.24298342186957606,-9.536015262007714
39.21,7.800000190734862,317.0,21.378765106201172,27.46542739868164,-79.78275114636047,40.45903474254296,322.04213638305663,0.0235345121473074,-0.06258457899093628,-0.9089251160621644,0.41156354546546936,-0.038877385893561885,0.2805906912685145,-0.08736114456213481,0.021313343197107315,0.12270818650722505,-0.7773363590240479,1.5368061482906343,0.2490556822344661,-9.582917532920838
39.4,7.900000095367432,310.0,21.550296783447266,24.849292755126953,-79.78275088866705,40.459034570083496,322.0384895324707,0.023740721866488457,-0.0633605420589447,-0.8916119337081909,0.4477165043354033,0.013582078986251812,0.28655486775161265,-0.06276446203645057,0.014762451872229574,0.03649548813700676,-0.6985335350036621,1.2440575490891934,0.25402912287041546,-9.816506781578063
39.5,8.0,305.0,21.183446884155273,31.011919021606445,-79.78274993703702,40.459034277226856,322.0821678161621,0.01367870531976223,-0.07323117554187775,-0.8531689643859863,0.5162876248359679,0.0924937894362076,0.34019739873997923,0.004039048633700203,-0.12974514067173004,-0.004937990102916956,-0.7518899440765381,1.5569807964563371,0.8620482062548399,-9.793574586510658
39.71,8.100000381469728,311.0,21.13211250305176,32.80106735229492,-79.78274846741654,40.45903405599661,322.1708709716797,0.004070587456226349,-0.07535629719495772,-0.8086238503456116,0.5834658741950989,0.19623555865906572,0.4172005892782477,0.2269861870073477,0.027821322903037068,-0.07063145935535431,-0.8377837538719177,1.5360444022715092,0.7213202704489231,-10.28330637931824
39.8,8.199999809265138,314.0,21.127103805541992,30.98806381225586,-79.78274812964902,40.45903375683185,322.2050506591797,0.003239273326471448,-0.07507592439651489,-0.7832132577896118,0.6171954274177551,0.2783821380706945,0.4366713571339397,0.32213946732315274,0.04845743626356125,-0.0033659511245787144,-0.9412348866462708,1.7245906484127045,1.2163874282687903,-10.611111813783646
39.9,8.199999809265138,309.0,20.99814224243164,33.36564254760742,-79.78274778008135,40.45903380501112,321.9677574157715,0.004889550618827343,-0.0730590671300888,-0.7558350563049316,0.6506549715995789,0.3452599078874212,0.4427548311430087,0.3510238501315642,0.1699497252702713,-0.06344776600599289,-1.0161181688308716,1.6095469728112222,1.3557415607571603,-10.964673063755038
40.1,8.300000190734862,307.0,21.34996795654297,27.55289649963379,-79.78274720001147,40.459033321291386,321.90478057861327,-0.002339902566745877,-0.07671862840652466,-0.6960223913192749,0.713905930519104,0.4994664516396061,0.4029690932480561,0.5420369930175574,-0.1834360957145691,-0.030413024127483368,-0.864480197429657,0.969237097799778,1.2740938188135624,-10.72939747810364
40.2,8.300000190734862,317.0,21.415075302124023,26.932659149169922,-79.78274684360628,40.45903288033168,321.9709922790527,-0.006570661906152964,-0.08184967190027237,-0.6670787334442139,0.7404481768608093,0.5896346473637785,0.355148559493104,0.5958462238796987,-0.0195231344550848,-0.05868396535515785,-0.6035525798797607,1.1106903076171877,1.5583234633505345,-10.42577729701996
40.4,8.399999618530272,322.0,21.630428314208984,22.479665756225586,-79.7827462829527,40.45903218126629,321.9267036437988,-0.017622554674744606,-0.07846897840499878,-0.620453953742981,0.7801083326339722,0.6823503323228799,0.2312169355005486,0.5654733598822441,1.2940087799506728e-05,0.13920889794826508,-0.4655058681964874,0.5463938340917229,1.5770795769989492,-9.946843557357786
40.6,8.300000190734862,319.0,21.461400985717773,24.78567886352539,-79.78274576539583,40.45903157100978,321.8380577087402,-0.025522878393530846,-0.086151622235775,-0.5931395888328552,0.8000699877738953,0.610371601957595,0.1109111967591528,0.4454598273399599,-0.6002581715583801,0.2996165752410889,-0.2844943106174469,0.6630665074288845,2.0552623879909517,-9.643392945528033
40.7,8.199999809265138,317.0,21.38252258300781,27.07579040527344,-79.7827454979008,40.459031148803184,321.88852615356444,-0.03903865814208984,-0.1169622838497162,-0.5826917886734009,0.8032845258712769,0.5413901903901789,0.125506952133811,0.38092797738905937,-0.7842724919319153,-0.044462889432907104,-0.43671780824661255,0.8721239089965821,1.4612924279272557,-9.242065790891651
40.8,8.199999809265138,324.0,21.410066604614254,26.344226837158203,-79.78274518791058,40.459030778553625,321.9347831726074,-0.06216264888644218,-0.12399880588054656,-0.5767611265182495,0.8050507903099059,0.5489630045321054,0.1839524025040481,0.327438174263036,0.0015638802433386445,-0.3906862437725067,-0.22893987596035004,1.0562524375319482,1.9615923321247104,-9.390000346899038
41.0,8.100000381469728,328.0,21.56782531738281,24.04616355895996,-79.78274473122654,40.459030245127494,321.9218780517578,-0.09855327010154724,-0.07378929853439331,-0.5788695216178894,0.8060721755027771,0.3935537210743936,0.2925826870843941,0.3448835119868742,0.2581465542316437,-0.5336957573890686,-0.2522460222244263,0.689983945414424,1.7984534074366094,-9.589209136962893
41.2,8.0,329.0,21.948448181152344,18.535585403442386,-79.7827442894178,40.459029961999775,321.90557022094725,-0.1230144426226616,-0.027928369119763367,-0.5862782001495361,0.8002284169197083,0.2572346541000653,0.51590177512933,0.3301065833787715,0.08561336994171143,-0.33774420619010925,0.08630555868148804,0.5070686410367489,1.3436046414077285,-9.51864318430424
41.3,8.0,325.0,21.950952529907227,18.662813186645508,-79.78274350369549,40.45902999624185,321.93121643066405,-0.13161417841911316,-0.019667679443955415,-0.5891631245613098,0.7969804406166077,0.19057280161094795,0.6973459302304488,0.28498442693558124,-0.06527087837457657,-0.13885480165481567,-0.00916998740285635,0.3995781062543393,1.2704353621602058,-8.954034286737443
41.4,7.900000095367432,330.0,21.87958526611328,18.631006240844727,-79.7827430774999,40.45903022598149,321.92115325927733,-0.1394028216600418,-0.017062122002243996,-0.5918132066726685,0.7937461137771606,0.1395954124189297,0.8719113911899151,0.20713470808249035,-0.15614274144172668,-0.2118171602487564,0.18544648587703705,0.5464572398364544,1.3240088675916195,-8.480245512127876
41.6,7.900000095367432,331.0,21.862056732177734,18.941125869750977,-79.78274059102034,40.45903092197014,321.8712989807129,-0.1590939611196518,-0.012361052446067331,-0.5954406261444092,0.7873924970626831,0.01731819899630841,1.3366852943329737,0.07547760782376269,-0.06517115980386734,-0.1047389805316925,0.14347031712532046,0.22099204380065204,1.5177582585811615,-8.554599291086197
41.7,8.0,328.0,22.13625717163086,15.839933395385742,-79.78273895198626,40.459031247960965,321.84252853393554,-0.15914122760295868,-0.007683461531996727,-0.5969953536987305,0.7862644195556641,-0.007944074321062101,1.585333165328222,0.008472999119810587,0.2599424123764038,-0.046072721481323235,-0.05019238591194153,0.04935985565185546,1.8003347490727903,-8.245941733717919
41.9,8.0,329.0,21.33995246887207,28.523012161254893,-79.78273488310523,40.459032435219015,321.70608825683587,-0.1611969918012619,0.00855423416942358,-0.5964486002922058,0.7862516045570374,-0.16315384142020484,2.1197447468409267,-0.057118195793637076,0.06653036177158356,-0.17301471531391144,-0.13490894436836245,0.1740274086780846,1.3853156080842022,-9.031347341537478
42.1,8.100000381469728,332.0,21.342456817626953,28.523012161254893,-79.78273247818956,40.459033059508265,321.6459114074707,-0.16023637354373932,0.016002027317881584,-0.5979715585708618,0.7851740717887878,-0.19269686461413324,2.350013638163856,0.07549846564939605,0.19296447932720184,-0.08934684097766876,0.19021598994731906,-0.3486805059760809,1.1451911457628012,-9.96792744755745
42.2,8.100000381469728,333.0,21.78067398071289,20.921117782592773,-79.78272684070856,40.459035030901475,321.50809020996087,-0.16826164722442627,0.02435745485126972,-0.6032546758651733,0.7792166471481323,-0.3008573999031845,2.8841285301853543,0.3130064221901165,-0.016042308881878853,-0.3196239471435547,0.29891955852508545,-0.11960786595940592,0.9556445141136648,-10.084139689207078
42.3,8.100000381469728,334.0,21.964725494384766,18.41630744934082,-79.7827235215169,40.4590359874156,321.452010345459,-0.17995084822177887,0.024512823671102524,-0.6033709049224854,0.7765052914619446,-0.3640791429734455,3.1499987278646935,0.3977389215207981,-0.21692219376564026,-0.3225635290145874,0.2296381592750549,-0.3422865756601096,0.9062736949324608,-9.411402910351754
42.5,8.100000381469728,335.0,21.624168395996094,23.60086441040039,-79.78271627476501,40.459038812207524,321.2693817138672,-0.17902886867523193,0.0025075927842408427,-0.6016011834144592,0.7784718871116638,-0.4829735510988173,3.624062277640261,0.4346574671391017,-0.03521352633833885,0.493869423866272,0.2073370516300201,-0.572585084438324,1.0592821723222734,-8.960410675406457
42.61,8.100000381469728,337.0,21.56782531738281,24.006404876708984,-79.78271313035509,40.45904053304897,321.2052947998047,-0.15240585803985596,-0.014466219581663609,-0.6053240299224854,0.7811184525489807,-0.5632495784260049,3.7716303138021217,0.3524138363506083,0.13735808432102206,0.7093151807785034,-0.04194045439362526,-0.3824151396006346,1.5917658823728562,-9.069394589066508
42.7,8.0,340.0,21.680509567260746,22.81363868713379,-79.78270896071739,40.45904186136981,321.11685104370116,-0.1242837905883789,-0.02737164869904518,-0.6072562336921692,0.7842475175857544,-0.6661488450971764,3.9663317753675127,0.09840146837996272,0.09822937101125716,0.5115820169448853,0.037290580570697784,0.006950439065694809,1.3797663080692293,-9.217799261212347
42.91,7.800000190734862,352.0,21.63167953491211,23.250986099243164,-79.78270056642701,40.45904533211765,320.95151443481444,-0.0930251032114029,-0.036979492753744125,-0.6060588359832764,0.7890954017639159,-0.8569231985179735,4.1517214576764765,-0.3333344085977791,0.14607097208499908,0.2260967940092087,-0.15355072915554047,-0.13100484757684172,1.3516406160593033,-9.41227297604084
43.11,7.699999809265138,356.0,21.51774406433105,26.39988899230957,-79.78269192548022,40.45904937541936,320.8081428527832,-0.06618906557559967,-0.029280435293912888,-0.602291464805603,0.7949884533882141,-0.9954430369697346,4.2519261537802135,-0.4048999993157144,0.16371342539787292,-0.023584829643368718,0.14126752316951752,-0.3628505752980709,1.1950755697488786,-9.67614203095436
43.2,7.599999904632567,358.0,21.577842712402344,23.77580451965332,-79.78268739142625,40.4590511410359,320.72098083496087,-0.05460300296545029,-0.022746412083506584,-0.5995165109634399,0.7981736063957214,-0.9361756721368006,4.29304255073708,-0.4154670005095881,0.3169948160648346,0.02176947332918644,0.15397074818611145,-0.3415744944289327,0.6533657573908568,-10.500414665937424
43.31,7.400000095367432,6.0,21.33995246887207,28.849035263061523,-79.78268282963994,40.45905293135667,320.64407653808587,-0.04424270987510681,-0.018446972593665126,-0.5961155891418457,0.8014665246009827,-0.9076912806807494,4.318401950810609,-0.3686940408343677,0.08787249028682709,-0.1499125510454178,-0.009353325702250006,-0.2171192501485348,0.7855118078738451,-10.8611165356636
43.51,7.400000095367432,9.0,21.683013916015625,24.14953804016113,-79.78267428265026,40.45905830012469,320.5556671142578,-0.05346205085515976,-0.01329914852976799,-0.5855697989463806,0.8087478280067444,-0.8761037547235438,4.352314790801838,-0.1502319463718733,0.05077328160405159,-0.06214503571391105,0.06790979951620102,-0.345729927867651,0.8766529429703951,-10.897260514497757
43.7,7.400000095367432,14.0,21.560312271118164,25.11170196533203,-79.78266483318758,40.4590630606244,320.3428565979004,-0.06996803730726242,0.00033828668529167766,-0.5812452435493469,0.8107147216796875,-0.8340134721979502,4.448860244820578,0.15097046099320366,0.1664559841156006,0.04982278868556023,-0.12560242414474487,-0.9139889498054982,1.2492096769809724,-10.68479608654976
43.9,7.400000095367432,18.0,20.9555721282959,33.51672744750977,-79.78265526446967,40.45906763759862,320.1694366455078,-0.05835188552737236,0.008615980856120586,-0.5790311694145203,0.8131690025329591,-0.7646929466713271,4.493286511402057,0.4225858285634584,0.11290595680475235,-0.012707188725471495,0.1345197707414627,-1.2042630073428156,0.6889469417184592,-10.646271121501924
44.0,7.400000095367432,19.0,20.760251998901367,36.92008590698242,-79.7826504987245,40.45906960306484,320.15973205566405,-0.049510691314935684,0.0026382487267255783,-0.579437792301178,0.813507080078125,-0.7033689252084248,4.521186375182607,0.4986407744219925,-0.107175812125206,0.20975221693515772,0.11224618554115297,-0.7446183550357819,1.2970401933789253,-11.37598843216896
44.1,7.400000095367432,18.0,20.692642211914066,38.208274841308594,-79.78264552996491,40.45907215363458,320.0365898132324,-0.03786199539899826,-0.005862847436219454,-0.5818628072738647,0.8123840093612671,-0.6488616052220612,4.506300187504441,0.5514461068721008,0.17270107567310333,0.3440074026584625,0.3447095453739166,-1.0035568184405566,1.2566413418948652,-11.674564805030824
44.3,7.5,23.0,21.06074523925781,31.22661590576172,-79.7826359937972,40.459075810819336,320.1086647033692,0.005443664733320475,-0.01956179365515709,-0.5949645042419434,0.8034954667091371,-0.5829772453663521,4.4014688378854885,0.6313150831185788,0.11616256088018415,0.4727882444858551,0.020052541047334668,-0.44542915742844347,1.109379288777709,-11.782858747243884
44.4,7.699999809265138,25.0,21.07451820373535,30.88468933105469,-79.7826311138958,40.45907831687593,320.0211669921875,0.013014832511544228,-0.033084165304899216,-0.6012639999389648,0.7982591986656189,-0.6433498178767939,4.330175581266024,0.5362007452490296,-0.08525064587593079,0.10972895473241806,0.2467295676469803,-0.3401669965311885,0.7603302620351315,-11.420319682359695
44.6,7.699999809265138,26.0,21.24104118347168,29.75553894042969,-79.78262174707915,40.45908274528979,319.9319869995117,-0.035228993743658066,-0.048093874007463455,-0.6074758768081665,0.7920977473258972,-0.7567190623574499,4.1950925666293655,0.5262843844204856,-0.5011647343635559,-0.4926364123821258,0.10325472801923752,-0.33264049708843235,0.8816895152628422,-10.321331992149354
44.8,7.900000095367432,39.0,21.336196899414066,27.72783470153809,-79.78261289720945,40.459086035668356,320.08069915771483,-0.0656747967004776,-0.04322696104645729,-0.6024576425552368,0.7942689657211304,-0.6318451336675336,3.9997611856073214,1.0606423357102297,0.17693890631198886,0.07938821613788605,0.04340820759534837,-0.8069172949343921,1.6772732251882554,-10.127619584798813
44.9,7.900000095367432,34.0,21.26608085632324,28.76156616210937,-79.78260833927969,40.45908909795892,319.83625717163085,-0.05263175815343857,-0.03885481506586075,-0.5980961322784424,0.7987498044967651,-0.7087049582934418,3.979088314412552,0.981681417514702,0.2122873216867447,0.14650438725948334,-0.12304342538118362,-0.8186371616274118,1.2923906336724758,-10.03769057750702
45.0,7.800000190734862,33.0,21.2235107421875,29.93842887878418,-79.78260405554757,40.459090791399404,319.9034492492676,-0.03926274925470352,-0.03817694634199143,-0.5928031802177429,0.803483247756958,-0.6755800918653536,3.9624845224110317,0.9313578029967774,0.1942230761051178,0.2837707996368408,-0.14523600041866302,-0.6080636501312257,1.1007194893062116,-10.040353399515151
45.21,7.800000190734862,32.0,21.468914031982425,24.435800552368164,-79.78259497917556,40.45909548205263,319.6428787231445,-0.01886920817196369,-0.035975705832242966,-0.5806707739830017,0.813124418258667,-0.5867212176619705,3.933425303957721,0.6750083237614342,0.13256679475307465,0.03439188748598099,0.14802907407283786,-0.451746818125248,0.7970338194072247,-10.254335764646529
45.4,7.599999904632567,29.0,21.684267044067386,22.169546127319336,-79.78258559604448,40.459099353068815,319.71801681518554,-0.02168123982846737,-0.044676557183265686,-0.5715059041976929,0.8190940618515015,-0.44320858887577547,3.9043398116471435,0.5271201298534461,-0.2379829585552216,-0.02063004299998284,-0.06862686574459076,-0.5328903838992121,1.2459456150233743,-9.773570092320444
45.51,7.5,28.0,21.69803810119629,22.304725646972656,-79.78258149132171,40.45910092868645,319.7703430175781,-0.029606198891997337,-0.05263284593820572,-0.56845623254776,0.8204942941665649,-0.3901618591442981,3.8531604413563136,0.4684230020305533,-0.2010270357131958,-0.11396776884794235,0.032817989587783813,-0.4502738314121962,1.0841080612689258,-9.154966835975648
45.6,7.400000095367432,27.0,21.7456169128418,21.430030822753906,-79.78257693929481,40.45910258387465,319.89709014892577,-0.035196438431739814,-0.056662708520889275,-0.566413938999176,0.821416974067688,-0.3366975273001689,3.8098446475447636,0.4653091071031262,-0.11437397450208665,-0.15877926349639893,0.15420213341712952,-0.4956044438481331,1.1688541696965695,-8.888444314599036
45.8,7.300000190734862,27.0,21.91714859008789,18.344741821289066,-79.78256893694503,40.4591056262876,319.97197647094725,-0.042672514915466316,-0.047433722764253616,-0.566314697265625,0.8217158317565918,-0.3375081656555636,3.7258132924468494,0.33564333681319874,0.1844840943813324,-0.07129386067390442,-0.06245364248752594,-0.4812869516015053,1.183641047179699,-8.70345302939415
45.9,7.199999809265138,25.0,21.837017059326172,20.22136116027832,-79.782564570044,40.4591075661521,320.041911315918,-0.04618384316563606,-0.04234471172094345,-0.5662314891815186,0.8218612670898438,-0.3958650410935837,3.7208267476231223,0.2886355740975729,-0.08608308434486389,-0.1466105878353119,0.13992512226104736,-0.7406236834824086,0.7346661016345024,-8.462492195963861
46.11,7.099999904632568,23.0,21.815731048583984,21.207380294799805,-79.7825564880783,40.459111001264965,320.09656829833983,-0.04981819167733192,-0.041437525302171714,-0.5681849718093872,0.8203455805778503,-0.43906939569688136,3.707753403982569,0.14108941028229222,0.057331811636686325,-0.05784519389271736,-0.10908671468496324,-0.5344812650978565,0.8781628402322531,-8.616162870526313
46.3,7.0,22.0,21.736852645874023,21.040393829345703,-79.78254873483044,40.45911414152438,320.0714256286621,-0.04652396962046623,-0.038419537246227264,-0.5723069906234741,0.8178168535232544,-0.5244959999901538,3.688384284196778,-0.028156419519788117,-0.024286169558763504,-0.042338039726018906,-0.2341675162315369,-0.3305989417433739,0.879610318467021,-8.853470363616943
