time,wind_speed,wind_angle,battery_voltage,battery_current,position_x,position_y,position_z,orientation_x,orientation_y,orientation_z,orientation_w,velocity_x,velocity_y,velocity_z,angular_x,angular_y,angular_z,linear_acceleration_x,linear_acceleration_y,linear_acceleration_z
0.0,4.0,352.0,25.61946105957031,-0.08746951073408127,-79.7827625808897,40.45904979712748,272.1671926562786,0.04860048741102218,0.0009852121584117413,0.9945055842399596,0.0927128568291664,-0.05516103273733408,-0.02134024900158253,0.0008763218720970027,-0.007992018945515156,-0.0043374686501920215,-0.006636625155806541,0.07953224672935902,0.9085960628092288,-9.760917302370073
0.21,3.799999952316284,350.0,25.61946105957031,-0.07951773703098297,-79.78276219605841,40.45904974962883,272.18315768587587,0.04860157147049904,0.0009643676457926633,0.9945043325424194,0.0927259922027588,-0.05118877421848625,-0.01085698613973061,0.004954216511291913,-0.004212351981550455,-0.0064597567543387404,-0.009859398938715458,0.0845906364452094,0.8853920453041793,-9.763101237416267
0.3,3.700000047683716,349.0,25.615705490112305,-0.09542128443717957,-79.7827621353535,40.45904975137332,272.18315808820734,0.04859628900885582,0.000949727080296725,0.9945051670074464,0.09272000938653946,-0.05438780532911496,-0.013072755115733857,0.005351811032461982,0.0043026478961110115,0.002336402190849185,0.010485623963177204,0.09294677356258037,0.8795739195495844,-9.764846046566964
0.5,3.5999999046325684,347.0,25.613201141357425,-0.11132483184337616,-79.782761691254,40.45904979179736,272.19732413041595,0.04858975112438202,0.0009701276430860162,0.9945040941238404,0.09273511171340942,-0.05492722235459988,-0.021255329886017214,0.005927180168370986,0.0041415677405893785,0.0024818584788590674,0.010007491335272787,0.08526382455602287,0.9064763009548188,-9.760988638401033
0.6,3.5,347.0,25.61069679260254,-0.08746951073408127,-79.78276161862489,40.459049801870364,272.1973628138304,0.0486103817820549,0.0009731162572279572,0.9945024847984314,0.09274151921272278,-0.06121227867935977,-0.023265185427788663,0.006580050144231011,-0.00707488926127553,-0.003719784319400787,-0.013037505559623241,0.08273593618534505,0.9089344704151154,-9.76135175049305
0.8,3.0999999046325684,347.0,25.61069679260254,-0.10337305814027786,-79.78276116828133,40.459049788148405,272.2131023590565,0.04858901724219322,0.0009553473792038858,0.9945026636123656,0.09275079518556596,-0.06453706252671171,-0.019916332228294097,0.009350256711184321,-0.009428836405277252,-0.0037902095355093475,-0.010030682198703287,0.08602189779281616,0.8828813970834017,-9.764644317626953
0.9,2.9000000953674316,349.0,25.61946105957031,-0.07951773703098297,-79.78276082280124,40.45904980275228,272.22535133707527,0.04858767986297608,0.0009601733763702213,0.994502067565918,0.09275779128074646,-0.054548247495994455,-0.02046543590622965,0.0063121939142518025,0.0061442116275429726,0.002219777088612318,0.003545024432241917,0.0847552995197475,0.8944104252755642,-9.763181344270707
1.1,2.5,354.0,25.61946105957031,-0.06361418962478638,-79.78276067528726,40.459049821783935,272.2254895304442,0.048583444207906716,0.0009462557500228287,0.9944988489151,0.09279430657625196,-0.0653632738713671,-0.02438987118025021,0.007228955181338544,0.004141397308558226,0.00208752416074276,-0.0009397725807502867,0.0816852646227926,0.8954826584458352,-9.76250423669815
1.2,2.4000000953674316,355.0,25.621965408325195,-0.07156596332788467,-79.78276033562643,40.459049860273474,272.2370496277809,0.0485697016119957,0.0009493987890891733,0.994500458240509,0.09278523921966553,-0.05650972335352788,-0.026792503240268488,0.003914596072192038,0.0006513888365589082,0.0009280617232434453,0.009276552125811577,0.08701527577824891,0.8830506739765406,-9.763581878542901
1.4,2.0999999046325684,4.0,25.62071418762207,-0.07156596332788467,-79.78275996315888,40.459049841231604,272.2483924512864,0.04852375015616417,0.0009103828924708068,0.9944998025894164,0.09281615912914276,-0.048294181595080136,-0.017702780527683818,0.000848364290396588,0.007498781662434339,0.002412760397419333,0.0022086380049586296,0.08181198474951089,0.9071875416487456,-9.7622913980484
1.5,2.0,8.0,25.621965408325195,-0.07951773703098297,-79.78275990318761,40.45904984889451,272.2479856644869,0.04850463569164276,0.0009036729461513461,0.994502067565918,0.09280190616846083,-0.05389094642959845,-0.019386454843978884,0.0012193405667378122,-0.0008291997364722192,-0.003187883645296097,0.0027934117242693892,0.08741474110633135,0.8849126467108727,-9.763968964219094
1.7,1.8999999761581416,17.0,25.61069679260254,-0.06361418962478638,-79.7827594779201,40.459049880106534,272.2597683702708,0.04848981648683548,0.0009170479606837033,0.9945014715194702,0.09281597286462784,-0.05340192192172808,-0.022111700897864114,0.0004174240889881285,0.0029600644484162326,0.003101444337517023,0.007091231644153595,0.08269357128068805,0.9041423117369414,-9.760655931830406
1.8,1.7999999523162842,21.0,25.61445426940918,-0.09542128443717957,-79.78275941122655,40.45904989034915,272.25926691639427,0.04847782850265503,0.000934192503336817,0.9945012927055359,0.09282370656728743,-0.05892108096087355,-0.023692708427140188,0.0008240482569178423,-0.003866579383611679,-0.00205821474082768,-0.002385028405115009,0.08187064876779915,0.8979746686667205,-9.761534768342973
2.0,1.7999999523162842,31.0,25.608192443847656,-0.08746951073408127,-79.78275897152999,40.45904993225843,272.2682353441716,0.04842965677380562,0.0009306787396781149,0.9945029020309448,0.09283187985420227,-0.05772431484650593,-0.02565826227213949,-0.002633492431295175,0.003242820268496871,0.001105108647607267,0.009012049064040184,0.0816596556454897,0.9012040127813816,-9.760883973240851
2.11,1.7999999523162842,35.0,25.61820983886719,-0.07156596332788467,-79.78275889614302,40.459049945828475,272.26738317656515,0.04844649136066437,0.0009430275531485676,0.9945017099380492,0.0928359553217888,-0.0634918853872205,-0.02765582530022401,-0.002143126953372931,-0.004265257623046637,-0.001386112067848444,-0.010014516301453114,0.08102692295797169,0.907434221059084,-9.761364614367483
2.3,1.8999999761581416,41.0,25.613201141357425,-0.08746951073408127,-79.78275849566977,40.45904997851768,272.27651696252826,0.048411514610052116,0.0009238098282366992,0.9945058822631836,0.09281007200479507,-0.057939003439214085,-0.02494856361166021,-0.005236871472562704,-0.005315560847520828,-0.004989958368241787,-0.0010740564903244376,0.08368842020630837,0.8910838712006808,-9.763253265023232
2.4,1.8999999761581416,44.0,25.615705490112305,-0.07951773703098297,-79.78275812119031,40.45905001930888,272.28682022142414,0.048383958637714386,0.0009422795847058297,0.9945068359375,0.09281338006258012,-0.05117353550003357,-0.02470794812416977,-0.007431511360858391,0.0039170985110104075,0.00296674738638103,-0.0011533446377143266,0.08136111874133349,0.9018377047777176,-9.759675938487053
2.6,2.0999999046325684,47.0,25.61820983886719,-0.07951773703098297,-79.78275798654325,40.459050047687285,272.28427927541736,0.04837920144200325,0.0009409878402948381,0.9945086240768432,0.0927971675992012,-0.06060904454433636,-0.028457347627050333,-0.006797511311332944,-0.00329879904165864,0.0008382224477827549,-0.010119369253516195,0.08620871633291245,0.8853394934535027,-9.764401658177377
2.7,2.0999999046325684,47.0,25.621965408325195,-0.07156596332788467,-79.78275765700937,40.45905005657349,272.2966150228977,0.04835852235555649,0.0009009717032313348,0.99450945854187,0.09279926866292952,-0.05041654825474839,-0.02030449855574009,-0.0063987647627150755,0.005529758054763079,0.0013841408072039485,0.007846894674003124,0.08689349837601185,0.8834318393468857,-9.763302381634713
2.9,2.0,48.0,25.61946105957031,-0.07951773703098297,-79.78275726040252,40.4590501003035,272.30945913839344,0.04832016676664352,0.00089837028644979,0.9945101141929626,0.09281136095523834,-0.04205225900401025,-0.017760508600963815,-0.003246784749339939,0.008296022191643715,0.00374325318261981,0.006230528466403484,0.08103203013539315,0.9061822590976952,-9.761445305943493
3.0,2.0,48.0,25.61946105957031,-0.07156596332788467,-79.78275720727581,40.459050109001296,272.3087088053227,0.0483112670481205,0.0008987772162072359,0.9945112466812134,0.09280437976121902,-0.04785876699491134,-0.01938678645166012,-0.0027956888268510717,-0.00689923157915473,-0.004016172140836716,-0.010153689421713352,0.08082218818366528,0.9041261588037014,-9.76131608247757
3.2,2.0,50.0,25.623218536376953,-0.07951773703098297,-79.78275677513491,40.45905012528953,272.3236824755669,0.04830785468220712,0.0008549485937692225,0.9945084452629088,0.0928364172577858,-0.04691143925771767,-0.012897726538566244,0.0023678229512721447,-0.00907642301172018,-0.0016570452135056255,-0.004268794786185026,0.08466438445262611,0.8882588620483876,-9.762176792621613
3.31,2.0,52.0,25.615705490112305,-0.07951773703098297,-79.78275671887755,40.459050129461296,272.323449063778,0.048298656940460205,0.0008677882142364979,0.9945076107978821,0.09284990280866624,-0.049975120123410495,-0.015142474407130247,0.0025460858933390525,0.003995772451162338,0.002862756373360753,0.003575359703972936,0.0844521305244416,0.8935252299159766,-9.761553479433061
3.51,2.0,54.0,25.61695671081543,-0.015903547406196594,-79.78275627324716,40.45905018082845,272.33674390959743,0.04827320203185082,0.0008530243649147451,0.9945073127746582,0.09286672621965407,-0.0493599329007722,-0.015864172120606406,0.003813146691706072,0.004207198973745108,0.0033970554359257217,0.0014670698437839744,0.08280265839770437,0.889981451779604,-9.762763268351556
3.61,1.8999999761581416,55.0,25.61946105957031,-0.08746951073408127,-79.78275620910732,40.459050186930426,272.3366226141453,0.048305694013834014,0.0008380529470741749,0.9945061206817628,0.0928630828857422,-0.054336641934842486,-0.017633607557958054,0.0041093931166326005,-0.0014077058294788005,-0.0022334717214107518,0.004742372781038284,0.08653976923786104,0.8873572944849729,-9.763636257648466
3.8,1.8999999761581416,59.0,25.61445426940918,-0.09542128443717957,-79.78275577295742,40.45905025454986,272.34742980051044,0.04826583713293076,0.000850415788590908,0.9945083260536194,0.0928596928715706,-0.05365280834439287,-0.02084968058083629,0.0028956496988581885,0.004323791712522507,0.0038221492432057853,0.008928588591516018,0.07832075846381485,0.9031257732957602,-9.760013907551766
3.9,1.8999999761581416,61.0,25.61695671081543,-0.08746951073408127,-79.7827553981013,40.459050316005566,272.358168799162,0.0482604131102562,0.0008579969871789218,0.9945072531700134,0.09287410229444504,-0.04853302112140418,-0.021367088381096508,0.0012321254025978872,-0.004034375306218863,-0.0010134787298738956,-0.0061513776890933505,0.08266039746813476,0.909559976309538,-9.760705633163454
4.1,1.8999999761581416,63.0,25.63323402404785,-0.015903547406196594,-79.78275526909921,40.45905033958904,272.357400882721,0.048260241746902466,0.0008682441548444331,0.9945084452629088,0.09286079555749893,-0.05718236050911461,-0.025266651769563345,0.0017662751029252017,-0.001439406885765493,-0.00368639244697988,-0.006616759113967419,0.08668645212426783,0.8801680697500707,-9.762753328084946
4.21,1.8999999761581416,63.0,25.62071418762207,-0.07951773703098297,-79.78275491729529,40.45905037728897,272.3705725853444,0.04824573174118997,0.0008611651719547807,0.994510531425476,0.09284639358520508,-0.04898967880715453,-0.02051582153211052,0.002936702433250729,0.00020855831098742783,0.0010460227495059367,0.002831859514117241,0.086480209864676,0.8847851043194532,-9.763856697678566
4.4,1.8999999761581416,66.0,25.61946105957031,-0.07156596332788467,-79.78275454741025,40.459050425675976,272.3831882362366,0.04819688200950623,0.0008388920687139034,0.9945132732391356,0.09284304827451706,-0.039009227954720636,-0.016647827866909822,0.0031971566766683364,-0.004721323493868113,-0.003130221739411354,-0.0017934486968442798,0.07896636416204274,0.8991575603932143,-9.761925947070123
4.5,1.8999999761581416,67.0,25.61695671081543,-0.09542128443717957,-79.78275449828412,40.45905043418429,272.38311510133747,0.048177018761634834,0.0008354484452866018,0.994515061378479,0.0928337424993515,-0.042067807593799016,-0.018640428807474654,0.003453148365415891,0.007339627016335727,0.006963590160012245,0.0058150561526417715,0.08615977331064642,0.8953984585404396,-9.762055170536042
4.7,1.7999999523162842,62.0,25.61946105957031,-0.07156596332788467,-79.78275409511241,40.45905048216174,272.39510228085516,0.048163264989852905,0.0008206894854083657,0.9945158362388612,0.09283261746168137,-0.040244897133425744,-0.017761353187727598,0.003602135714867839,0.00620616041123867,0.003191841766238213,0.003907999023795128,0.07982235085219146,0.9014641407877207,-9.76049922645092
4.8,1.7999999523162842,60.0,25.61695671081543,-0.08746951073408127,-79.78275404384298,40.459050490886376,272.3950538818836,0.04812585934996605,0.0008084553410299122,0.9945186376571656,0.0928223431110382,-0.04538747646310996,-0.0191593564565088,0.004020478541369111,-0.007117752451449633,0.0012490433873608704,-0.01086405385285616,0.08241619398817421,0.9105294446647167,-9.76136052131653
5.0,1.7000000476837158,53.0,25.61946105957031,-0.07156596332788467,-79.78275362868136,40.459050544976016,272.4053886418343,0.04807556793093681,0.0008206506026908755,0.9945216178894044,0.09281624108552933,-0.044629981730822464,-0.019210417487969537,0.0024787272000309783,-0.002984600840136409,3.433924212004058e-05,-0.004025883506983519,0.08522256514057518,0.8835857672989369,-9.762363318800928
5.1,1.600000023841858,50.0,25.61820983886719,-0.07156596332788467,-79.78275357043529,40.4590505551204,272.40517349886903,0.04809251055121422,0.0008024034323170781,0.994521141052246,0.09281276911497116,-0.04862338252954272,-0.020878984918998887,0.002618811356260867,1.523367336631054e-05,-0.0040550222620368,0.0014278574381023645,0.08954940422438086,0.8839488063007593,-9.7633631926775
5.3,1.5,42.0,25.608192443847656,-0.08746951073408127,-79.78275318131385,40.45905059741885,272.4149163250924,0.04802534356713295,0.0007979249348863959,0.9945258498191832,0.0927976295351982,-0.044834445799984725,-0.019711447850142592,0.0006127973882097947,-0.002539866836741567,-0.003917806316167114,0.0028793271631002426,0.0815776393096894,0.9011839129775764,-9.761033661961557
5.4,1.399999976158142,37.0,25.61820983886719,-0.07951773703098297,-79.78275283302776,40.459050596653405,272.42748560357103,0.048002939671278,0.0007869696128182112,0.9945269227027892,0.09279721230268476,-0.038194277390674984,-0.011574833060246151,0.0018882238143108187,0.0037071211263537407,0.0048594484105706215,0.0008193939574994148,0.08490676981396973,0.8993325383216143,-9.76046238899231
5.6,1.2000000476837158,33.0,25.60694122314453,-0.11132483184337616,-79.7827527315177,40.459050605579336,272.42708193111423,0.04798687621951103,0.0007552975439466536,0.9945271611213684,0.09280391037464142,-0.04585358868439812,-0.014874172670027754,0.002356375054278609,0.0018964398186653848,0.0010346320923417807,-0.0013797385618090632,0.08385425272397698,0.8888428527116776,-9.763418156504633
5.7,1.100000023841858,32.0,25.62071418762207,-0.07951773703098297,-79.78275237043641,40.45905065408871,272.4371869449616,0.04798457399010658,0.0007509950082749128,0.9945301413536072,0.09277290850877762,-0.04338688042001538,-0.016316161549242817,0.00039387021544816766,-0.005225329659879208,-0.003916248213499785,0.0021098353900015354,0.08449356352910402,0.8940910942107441,-9.762577911615374
5.9,1.0,31.0,25.60569000244141,-0.11927660554647446,-79.78275198606258,40.459050691604546,272.4464318041802,0.04796195402741432,0.0007406051154248416,0.9945299625396729,0.09278690069913864,-0.03930705114560746,-0.015430138398385881,-0.003030390027708481,-0.00543414568528533,-0.006234722211956978,-0.0012126117944717407,0.08462269563227892,0.8964955423772335,-9.761780936121939
6.02,0.8999999761581421,28.0,25.61695671081543,-0.08746951073408127,-79.78275193762514,40.45905069899854,272.44573606896404,0.04794984310865402,0.0007424522191286088,0.9945296645164492,0.09279541671276093,-0.0420853153253322,-0.017050359555147096,-0.0028421900182195948,0.0037900789175182577,0.003504826221615076,0.0008962645661085844,0.08557229259051383,0.8991340984404087,-9.761656975150107
6.2,0.8000000119209291,28.0,25.613201141357425,-0.07951773703098297,-79.78275155639952,40.45905072489601,272.4544787292481,0.04795841500163078,0.0007137595675885677,0.9945299625396729,0.09278830885887146,-0.03999350240652397,-0.016005021818503492,-0.005741838965457517,0.003131940960884095,0.0047908518463373176,-0.002748290309682489,0.08527186447754502,0.8874811092764141,-9.764640224575997
6.31,0.699999988079071,25.0,25.61445426940918,-0.07156596332788467,-79.78275150783136,40.45905073267755,272.45350854444507,0.04795953258872032,0.0006864382303319871,0.9945303797721864,0.0927838459610939,-0.04317323464402461,-0.017555068537243132,-0.005519048624245127,0.004281030036509037,0.0016031624982133508,0.00802498310804367,0.08809056046418846,0.8835230559110642,-9.763860206007957
6.5,0.6000000238418579,33.0,25.61069679260254,-0.07156596332788467,-79.78275116361546,40.459050742131645,272.4639999454022,0.0479225292801857,0.0006844366434961557,0.9945303201675416,0.09280355274677277,-0.0370553358858838,-0.014567889783707412,-0.0057571125873240704,0.007153319660574199,0.0019030014518648386,0.005608672276139259,0.08307862870395184,0.9077088940143586,-9.762320049405098
6.6,0.6000000238418579,33.0,25.615705490112305,-0.07951773703098297,-79.78275111527782,40.45905074895935,272.4630611424446,0.047951098531484604,0.0007040397031232715,0.9945310950279236,0.09278081357479097,-0.0419075234821244,-0.015624866952742962,-0.005346251668378561,-0.005101320799440146,-0.006353343371301889,0.0007093549938872457,0.08402595072984696,0.8942684841156007,-9.762474415898325
6.8,0.6000000238418579,29.0,25.603185653686523,-0.12722837924957275,-79.78275074763589,40.45905080746605,272.47011410045627,0.047915518283844,0.0006983515922911465,0.9945326447486876,0.09278188645839693,-0.03977710379066295,-0.02232623805933092,-0.009462342962011485,0.004603744950145483,0.003489627968519926,0.008438111282885075,0.08078165053389967,0.9032224716246128,-9.760544250011442
6.9,0.699999988079071,26.0,25.61445426940918,-0.08746951073408127,-79.78275043453947,40.45905081944243,272.48007206964496,0.047913700342178345,0.0007033590227365494,0.9945339560508728,0.0927688255906105,-0.03514237499239905,-0.02066379708500859,-0.01091216009717508,-0.005177479237318039,-0.003056212095543742,-0.007250207010656595,0.08173456395976246,0.9044714368879796,-9.76035187661648
7.1,0.699999988079071,14.0,25.61445426940918,-0.07156596332788467,-79.78275034107561,40.459050846146134,272.47714753794673,0.0479191318154335,0.0006904788315296173,0.9945350289344788,0.0927545502781868,-0.04211195095689582,-0.02372295459600661,-0.010605632277600351,-0.002360110403969884,-0.002580297645181417,0.002801892347633839,0.08458624189719559,0.8950429478287697,-9.761226620078087
7.2,0.699999988079071,5.0,25.61820983886719,-0.07156596332788467,-79.78275004794362,40.459050831775755,272.48948569941524,0.04790038987994194,0.0006669576396234334,0.9945367574691772,0.09274588525295258,-0.03550926843423189,-0.01900215700625986,-0.009275547102925807,-0.0021815269719809294,0.004606534261256456,-0.007884473539888859,0.08142518229782582,0.9066116639971732,-9.7608915746212
7.41,0.8999999761581421,352.0,25.621965408325195,-0.07156596332788467,-79.78274974928121,40.45905081593733,272.4983169918061,0.047856263816356666,0.0006486942293122411,0.994541585445404,0.0927167311310768,-0.028653332318275188,-0.013844270819254307,-0.011780936043717886,-0.008452737703919409,-0.0049020075239241115,-0.009611296467483044,0.08936908157542349,0.8862212535738946,-9.763025808334351
7.5,0.8999999761581421,347.0,25.61695671081543,-0.07156596332788467,-79.78274971504021,40.45905082390996,272.49685882377634,0.047853823751211166,0.0006317890947684648,0.9945400953292848,0.0927341878414154,-0.03092611949763195,-0.015491619263043222,-0.011675602566129277,0.007863814942538738,0.005517642479389906,0.005613985937088728,0.08623105452395978,0.8905762597918511,-9.7630468583107
7.7,1.0,337.0,25.615705490112305,-0.07156596332788467,-79.78274938869461,40.45905078612413,272.5057543997765,0.047876302152872086,0.0006191508146002889,0.9945409893989564,0.09271325916051863,-0.03211813657210846,-0.010700476414994112,-0.012632148117195872,0.0036671406123787173,0.00214123516343534,-0.002592678414657712,0.08251151273958385,0.8910288342833519,-9.763059722185137
7.81,1.100000023841858,339.0,25.61445426940918,-0.08746951073408127,-79.78274935087677,40.45905079040862,272.50417675423625,0.04787077009677887,0.0006153671420179307,0.9945428371429444,0.0926963984966278,-0.03535625586494946,-0.011910259640070949,-0.01246004073421217,0.0014772281283512716,-0.0004861735797021538,0.004343742039054632,0.08772637942805887,0.8853541845828296,-9.763581293821336
8.0,1.2999999523162842,333.0,25.61695671081543,-0.08746951073408127,-79.78274901859174,40.45905076423257,272.51316725063333,0.04784848913550377,0.000611361872870475,0.9945443868637084,0.09269123524427414,-0.0352125166047562,-0.011623926674727782,-0.013095543338223431,0.006558314897119999,0.0014615888940170407,0.006270365789532661,0.08154424622654917,0.9058449478447438,-9.762364488244057
8.11,1.399999976158142,329.0,25.62071418762207,-0.07156596332788467,-79.78274897382394,40.459050768778454,272.51151557612417,0.0478709414601326,0.0006182716460898519,0.9945444464683532,0.09267962723970412,-0.040038608634850495,-0.01263433968852609,-0.012665412804002376,-0.006049468647688627,-0.0023811766877770424,-0.004135679453611374,0.08386338899843396,0.8924141858518124,-9.763953761458398
8.3,1.600000023841858,328.0,25.611949920654297,-0.07156596332788467,-79.78274870508213,40.45905073251652,272.52313588905344,0.04785312712192536,0.0006292078760452569,0.9945464730262756,0.09266632050275804,-0.03141294938798613,-0.010471175341380937,-0.01071369607121345,0.002141427481546998,0.0015210418496280909,0.005591361317783594,0.0819659218378365,0.9020357061177492,-9.76014371573925
8.4,1.7000000476837158,330.0,25.61820983886719,-0.07156596332788467,-79.78274845461681,40.45905066630611,272.5354422216416,0.04781603068113327,0.0006158630712889135,0.9945483803749084,0.09266474843025208,-0.024522541259959924,-0.0038164451008071937,-0.009567730135174687,-0.005536872893571854,-0.001569863990880549,-0.006897381506860256,0.08144334521144629,0.9064404136687516,-9.761325438022617
8.6,1.7999999523162842,333.0,25.615705490112305,-0.08746951073408127,-79.78274839289645,40.45905066667217,272.53305398273466,0.047825176268815994,0.0006383347208611668,0.99454927444458,0.09265056252479552,-0.031685425178086486,-0.006535584095414847,-0.008973135446476066,-0.005708049051463604,-0.0026146285235881805,-0.005700137000530958,0.08622479617595673,0.8885967580229044,-9.763845587968829
8.7,1.7999999523162842,335.0,25.60694122314453,-0.07156596332788467,-79.78274810590628,40.45905061815528,272.54324202585224,0.04783585295081138,0.0006424503517337142,0.9945465326309204,0.09267495572566986,-0.028478100515920025,-0.006347189578763636,-0.011085493986614537,0.0044487519189715385,0.004300688859075308,-0.00046766828745603567,0.08421953011304141,0.8979418511688709,-9.760783985853195
8.9,1.8999999761581416,336.0,25.61445426940918,-0.07951773703098297,-79.78274781455781,40.45905059154659,272.5502381806374,0.04780253022909165,0.0006484166369773448,0.9945498108863832,0.09265705198049544,-0.028530551747835288,-0.011030908871683412,-0.014207641158926091,-0.005873094312846661,-0.0018531343666836626,-0.007021714467555285,0.08873488708399238,0.8864465906471014,-9.763391844034196
9.0,1.8999999761581416,338.0,25.61445426940918,-0.07951773703098297,-79.78274778070895,40.45905059693843,272.54853748130796,0.047804757952690125,0.0006396048702299595,0.994550883769989,0.09264439344406128,-0.031283809619999936,-0.012374867770882474,-0.014067759883217214,0.0027405149303376675,0.0011457187356427312,0.007547685876488686,0.08846512944437564,0.885186734944582,-9.762944532036784
9.2,2.0999999046325684,340.0,25.61820983886719,-0.07156596332788467,-79.78274748110907,40.459050556941115,272.5570540313721,0.047814544290304184,0.0006535982829518616,0.9945498108863832,0.09265109896659852,-0.03159129632149731,-0.01406659340177809,-0.014269330281761613,0.007339975330978631,0.0038080965168774132,0.0075517939403653145,0.08315278784371913,0.9053409178555012,-9.761552894711494
9.31,2.0,337.0,25.61445426940918,-0.08746951073408127,-79.78274744179019,40.45905056395507,272.5553233509064,0.04779927060008049,0.0006549026584252715,0.9945509433746338,0.092646062374115,-0.0364897497995635,-0.014901588903210944,-0.013741913212039466,-0.00794106163084507,-0.0045372373424470425,-0.006934748962521553,0.08261947609484196,0.9065927336364984,-9.762294321656228
9.5,1.8999999761581416,335.0,25.61445426940918,-0.07156596332788467,-79.78274718242695,40.45905049088906,272.5609487776757,0.04777897149324417,0.0006362264393828807,0.9945512413978576,0.09265416860580444,-0.033226561581228144,-0.011709047718815329,-0.01819174771304316,-0.007281774654984473,-0.0023215832188725467,-0.007418903987854719,0.08706274786032736,0.8879789996892214,-9.762911787629127
9.6,1.8999999761581416,333.0,25.60694122314453,-0.07951773703098297,-79.78274714219313,40.45905049638772,272.558805990696,0.04780014231801033,0.0006484681507572532,0.9945491552352904,0.0926651805639267,-0.0354993668327708,-0.013445063267650348,-0.0180006880885823,0.006747058592736721,0.006135378498584032,0.004207772668451071,0.08483861320652067,0.8891633532196284,-9.76394732952118
9.8,1.7999999523162842,335.0,25.61445426940918,-0.08746951073408127,-79.78274685997728,40.45905042836518,272.56479005861286,0.047802779823541634,0.0006533081759698689,0.9945480227470398,0.09267520904541016,-0.037081112972265545,-0.013060609592204377,-0.01939260954138641,0.003855078713968396,0.004093748051673174,0.003080947091802955,0.0857753188814968,0.8993261794745923,-9.76297552227974
9.9,1.7000000476837158,338.0,25.61820983886719,-0.03180709481239319,-79.78274665964437,40.459050375063526,272.5732080225945,0.04778987169265747,0.0006617022445425391,0.9945504665374756,0.09265626966953278,-0.028684794427544832,-0.014748763317496978,-0.021468979884339986,-0.004597962833940983,-0.004044950008392334,-0.004241140093654394,0.08173863873817026,0.8915217545628548,-9.7649682533741
10.1,1.399999976158142,341.0,25.60944557189941,-0.05566241592168808,-79.78274658592571,40.45905039310861,272.56836186695097,0.04779195785522461,0.0006683864630758762,0.9945526123046876,0.09263130277395247,-0.035476657361782744,-0.01735915226126179,-0.02082288762916516,-0.005848947446793318,-0.0035874827299267045,0.0009920442244037986,0.0850550698209554,0.8980133333802224,-9.762238188385963
10.2,1.399999976158142,341.0,25.61820983886719,-0.07156596332788467,-79.78274639635714,40.45905029645913,272.57824264812473,0.04775867983698845,0.0006418476114049554,0.9945529103279114,0.09264641255140303,-0.027931685269797654,-0.012864224974590102,-0.019792331723992758,0.00258734286762774,0.0010215291986241935,-0.0021458042319864035,0.08073860040865839,0.8993709106743336,-9.761036000847817
10.4,1.2999999523162842,347.0,25.61695671081543,-0.07951773703098297,-79.78274616146983,40.45905023780267,272.58169155168537,0.0477326437830925,0.0006253981264308095,0.9945557713508606,0.09262903779745102,-0.027010516827859973,-0.016527191972591008,-0.024776218121153243,0.0019218357047066086,0.0019633527845144268,-0.00019525311654433608,0.08721966337412597,0.8859334974735976,-9.763950253129003
10.5,1.100000023841858,352.0,25.61820983886719,-0.07156596332788467,-79.78274612964198,40.459050248251415,272.57894753265384,0.04774156585335732,0.0006183392833918332,0.9945570230484008,0.09261082112789154,-0.030197505165543027,-0.017724045061658388,-0.024539987275312296,0.004534028004854918,-0.0018506100168451671,0.006311275996267796,0.08690484562888742,0.8812895657122135,-9.764536728858948
10.7,0.8999999761581421,357.0,25.61695671081543,-0.06361418962478638,-79.78274589201125,40.45905017159602,272.582392323494,0.04776591435074806,0.0006238564383238554,0.9945582151412964,0.09258592873811723,-0.03124992355177055,-0.017726068381828573,-0.02696757653890875,0.0064016287215054035,0.004811563063412905,0.004937447607517242,0.08399160747416318,0.9099283508956432,-9.76136402964592
10.8,0.8000000119209291,359.0,25.603185653686523,-0.08746951073408127,-79.78274585457567,40.45905018201095,272.5793950443268,0.04773682728409767,0.0006319877575151622,0.9945598244667052,0.09258266538381577,-0.0358973766141726,-0.018683723938139225,-0.02651481302044228,-0.006088264752179384,-0.0032170289196074013,-0.008468324318528175,0.08084829965606333,0.9047371197491884,-9.761562834978104
11.01,0.8000000119209291,358.0,25.61946105957031,-0.07156596332788467,-79.78274565931645,40.45905007804157,272.58419917869566,0.04771195724606514,0.0006233117310330273,0.9945618510246276,0.0925745889544487,-0.03208299340220923,-0.014580439294945815,-0.02654186282090473,-0.00724045792594552,-0.002257880987599492,-0.005765514448285103,0.08704042794182898,0.8895868378132582,-9.763015283346176
11.11,0.699999988079071,359.0,25.615705490112305,-0.06361418962478638,-79.78274562071573,40.45905008629867,272.58123295354847,0.04772697389125824,0.0006367373862303793,0.9945611953735352,0.09257342666387558,-0.03458130052125614,-0.016230958112374516,-0.026320532405459236,0.004443705081939697,0.002233103383332491,0.001449814299121499,0.08274864474311472,0.894720327705145,-9.762879043221474
11.3,0.699999988079071,353.0,25.615705490112305,-0.08746951073408127,-79.78274545014466,40.45904997177694,272.586303103447,0.04769008606672287,0.0006416364340111612,0.994565725326538,0.09254395961761476,-0.030384358806899808,-0.012111700247648936,-0.026351060311084317,-0.0010164557024836538,-0.0007630377076566218,-0.0060755060985684395,0.0860519378632307,0.8864106302708388,-9.763838571310043
11.4,0.699999988079071,353.0,25.615705490112305,-0.07156596332788467,-79.78274532176239,40.459049860265424,272.594477701664,0.04766371846199036,0.0006339282263070345,0.9945660829544068,0.09255318343639374,-0.02050789120472789,-0.010820866872791338,-0.026879728623200885,0.004586996976286173,0.0017853067256510258,0.009776641614735126,0.08623514757491649,0.8833713206648827,-9.763186606764794
11.6,0.8000000119209291,350.0,25.61445426940918,-0.08746951073408127,-79.78274526830748,40.45904987334432,272.58870874691013,0.047680120915174484,0.0006661204388365152,0.9945653676986694,0.09255225211381912,-0.02716262476398687,-0.0133644112326223,-0.026304733493332427,0.00450888043269515,0.0040611885488033295,0.0006960342288948598,0.08167326869443059,0.905041321143508,-9.761176334023476
11.71,0.8000000119209291,349.0,25.615705490112305,0.007951773703098297,-79.78274511802549,40.45904977366961,272.5976869945526,0.04768348857760429,0.0006823982694186268,0.9945666790008544,0.09253664314746857,-0.02405339579542826,-0.01484288333671056,-0.02407975555863771,-0.00664687342941761,-0.003656688844785095,0.004694788716733457,0.08482651677913965,0.8872320178896189,-9.764783481359483
11.9,0.8999999761581421,341.0,25.60443687438965,-0.02385532110929489,-79.78274494389298,40.459049647910106,272.60058151531223,0.04767156392335892,0.0006586711970157921,0.99456787109375,0.09253012388944626,-0.024224778189815947,-0.01183573647728876,-0.02762609271305343,0.004906752146780491,0.0007161331013776362,0.009910337626934052,0.08199512137100101,0.9086872793734074,-9.76138741850853
12.0,0.8999999761581421,337.0,25.61445426940918,-0.08746951073408127,-79.78274491632648,40.45904965436421,272.5975877528191,0.047666210681200034,0.0006568596581928433,0.9945679903030396,0.09253101050853728,-0.028604113196358263,-0.012608482115916092,-0.02725894871284161,-0.005837257020175457,-0.0013068569824099539,-0.008733360096812248,0.08232883293181659,0.9049050079286098,-9.761075177192687
12.2,0.8999999761581421,329.0,25.61069679260254,0.015903547406196594,-79.78274481914661,40.45904946357894,272.60761182355884,0.04765462875366211,0.0006030831136740744,0.9945711493492126,0.09250366687774657,-0.01895188503543812,0.0001691988963870984,-0.02020953520668797,-0.006608643103390932,-0.000860909465700388,0.00270849303342402,0.08600945418700576,0.8920295121520758,-9.763267883062364
12.3,0.8999999761581421,323.0,25.60944557189941,-0.05566241592168808,-79.78274479984275,40.459049460717424,272.6054275517464,0.047640200704336166,0.0006085382774472238,0.9945712685585022,0.09250997006893158,-0.021707564936970423,-0.0010349990242492695,-0.019840819804419103,0.0013643148122355342,-1.8119928427040577e-05,-0.004963744431734085,0.08246362952515482,0.9053228645771744,-9.761277490854264
12.5,0.8999999761581421,317.0,25.611949920654297,0.0,-79.78274463350769,40.45904931206205,272.6127439026833,0.04763443022966385,0.0006090826936997472,0.994570016860962,0.09252656251192093,-0.024380553175039062,-0.001813463351665178,-0.018504452829747456,-0.0058304453268647185,-0.004330299794673921,-0.009568377397954464,0.08748883629217745,0.8826504320651293,-9.764022173881534
12.6,0.8999999761581421,309.0,25.60569000244141,0.007951773703098297,-79.78274460571913,40.45904931016136,272.61066191244134,0.04764893278479576,0.0006131204427219927,0.9945687651634216,0.09253231436014177,-0.026264699152145955,-0.003191516900503341,-0.018395075588518724,0.007153251674026252,0.002819454064592719,0.0070696258917450905,0.08940047381445766,0.8899123084545136,-9.763550888299942
12.8,0.8999999761581421,293.0,25.60944557189941,-0.015903547406196594,-79.78274446245453,40.45904916189407,272.61999748992923,0.04764579236507417,0.0006187688559293747,0.9945690035820008,0.09253190457820892,-0.02578291856158509,-0.0040067544575364145,-0.014439160892681725,0.004933771211653948,0.0038296768907457603,0.0011410885490477085,0.0822287633176893,0.9008064752072096,-9.76219316482544
12.91,0.8999999761581421,289.0,25.599428176879893,0.007951773703098297,-79.78274436245673,40.45904902044373,272.6290566806793,0.04764924943447113,0.0006126025109551848,0.9945709109306335,0.09250933676958084,-0.01941654689107903,-0.004420378713667759,-0.015306836428405053,-0.001718475017696619,-0.0023307506926357746,0.005631153471767902,0.08698736445978285,0.8865405115485192,-9.76482090353966
13.1,0.8000000119209291,281.0,25.599428176879893,-0.03180709481239319,-79.78274431348662,40.45904902310127,272.62564616250995,0.04763791710138321,0.0006049182848073543,0.994571089744568,0.09251309931278227,-0.02515794747018792,-0.007179195352874123,-0.014685109521729437,0.004365896340459585,0.0031275455839931965,0.008853185921907425,0.08286116709932685,0.9093534965068102,-9.76245395064354
13.2,0.8000000119209291,266.0,25.613201141357425,0.0,-79.78274422404095,40.45904887404117,272.632517326355,0.04762912541627884,0.0006049777148291469,0.9945703148841858,0.09252553433179857,-0.020873213634107785,-0.0071181778623867,-0.018201739595960185,-0.008654934354126453,-0.002705399878323078,-0.008317245170474052,0.08725379649549724,0.8842551273107528,-9.764696942567824
13.3,0.8000000119209291,271.0,25.608192443847656,-0.015903547406196594,-79.78274420096767,40.459048877514064,272.6305062060356,0.04761102050542832,0.0006027789204381406,0.9945721626281738,0.09251540154218674,-0.02292379156866453,-0.008726980165875354,-0.017969279481009126,0.004788038786500692,0.003136103972792625,0.003770207753404975,0.08344696674495937,0.8965529181808234,-9.761834730505944
13.5,0.699999988079071,262.0,25.61069679260254,-0.007951773703098297,-79.78274409842741,40.45904872250764,272.63564072895053,0.047585174441337585,0.0005870268796570599,0.9945734143257141,0.09251511096954346,-0.02137657518063311,-0.008838767982020851,-0.020439141480680097,-0.0050464593805372715,0.0013339905999600887,-0.013336606323719023,0.08740068951621653,0.8840729134529829,-9.765237225294113
13.61,0.699999988079071,258.0,25.61069679260254,0.007951773703098297,-79.78274407267534,40.45904872743034,272.63338969993595,0.04758711904287338,0.0005912886699661613,0.9945746064186096,0.09250175952911376,-0.023480713402728337,-0.010430610355648892,-0.0202891727384943,0.008826354518532753,0.00490826228633523,4.0861297748051584e-05,0.08621153944171965,0.8920040036737921,-9.76276385307312
13.81,0.699999988079071,251.0,25.603185653686523,-0.03180709481239319,-79.78274397931268,40.459048539612866,272.63824592876443,0.04757832363247872,0.0005641269381158054,0.9945761561393738,0.09248935431241988,-0.02339072535337433,-0.004897902114459975,-0.0219168600210077,-0.0031928794924169783,-0.001394350896589458,-0.012251081876456738,0.08585160677321256,0.8859052115678787,-9.765377558469774
13.91,0.699999988079071,255.0,25.608192443847656,-0.03180709481239319,-79.78274389647683,40.45904834669663,272.6477239613533,0.04758290946483612,0.0005300642806105317,0.9945774078369141,0.09247396886348724,-0.01957360717679623,0.0001876498285097606,-0.020518723677376186,0.004820742644369602,0.0021709236316382885,0.006944720633327961,0.0879133167397231,0.8885944922268391,-9.763890611529352
14.1,0.8000000119209291,246.0,25.60694122314453,0.015903547406196594,-79.78274384896277,40.4590483402071,272.64327876615533,0.04758768156170845,0.00052556925220415,0.9945762157440186,0.0924844741821289,-0.026767747239919933,-0.0015361491943986704,-0.019732556695984727,-0.0006949544767849147,0.0009141240152530373,-0.006585887633264065,0.08445277006365359,0.8891109475493432,-9.763858451843262
14.2,0.699999988079071,244.0,25.613201141357425,0.007951773703098297,-79.78274380023298,40.45904817518458,272.65247737216947,0.04757517948746681,0.0005293791764415801,0.9945781230926514,0.09247061610221864,-0.018149434718993458,-0.0026332987402438468,-0.019527695354283208,0.0066452911123633385,0.0039889286272227755,0.008453826420009136,0.08845538103953005,0.8864455673843623,-9.76345265507698
14.41,0.699999988079071,244.0,25.611949920654297,0.007951773703098297,-79.78274369392894,40.459047987675206,272.6591549401284,0.04756763204932213,0.000523295602761209,0.9945810437202454,0.09244290739297867,-0.02152864754271436,-0.002233007463587496,-0.018146232283209697,-0.0002982791338581592,0.002490464830771089,-0.0033748161513358355,0.08401552624069154,0.8952608297020197,-9.76355615079403
14.5,0.699999988079071,241.0,25.60944557189941,0.007951773703098297,-79.78274367039748,40.45904798642883,272.6571421508789,0.04756886139512062,0.0005281140329316257,0.9945817589759828,0.09243487566709516,-0.024194414818931274,-0.003360171613713844,-0.017973215753530933,0.005999757442623378,-1.6482234059367336e-05,0.00737116439267993,0.0901938678883016,0.8851927283406258,-9.76322402894497
14.7,0.699999988079071,237.0,25.60694122314453,0.015903547406196594,-79.78274362544838,40.45904777227212,272.66615669775007,0.047566451132297516,0.0005328929401002824,0.9945841431617736,0.092409648001194,-0.01759951472258096,0.002085166923136312,-0.01467161272326986,0.001274444512091577,0.0006352888303808867,-0.005376705434173346,0.08319331635721028,0.8977809065580369,-9.762259238362311
14.81,0.699999988079071,236.0,25.60694122314453,-0.015903547406196594,-79.78274360660409,40.45904776753567,272.6645340209008,0.04758468270301819,0.0005244977655820549,0.994584023952484,0.09240180999040604,-0.020380835665024525,0.001111762491582314,-0.014369694415526341,0.0037167500704526897,0.0006803712458349762,0.006637072190642357,0.08739873435348272,0.8831769738346339,-9.764908027052881
15.0,0.699999988079071,228.0,25.61069679260254,0.0,-79.78274349888895,40.45904753839453,272.67335795211795,0.047585882246494286,0.0005245057982392608,0.994585394859314,0.09238709509372713,-0.025563774288158096,0.005582722021505135,-0.01138537594171497,0.005255341064184904,0.0033812799956649533,-0.0009244080865755676,0.08231338349170983,0.9005708324164152,-9.763328694105148
15.1,0.699999988079071,226.0,25.615705490112305,-0.05566241592168808,-79.78274346958673,40.459047529367155,272.6719947342873,0.04760966449975968,0.0005177451530471443,0.9945858120918274,0.09236957132816316,-0.02860038623894575,0.004559387787220036,-0.011036045149264642,0.004966659471392632,0.0043142782524228105,0.009077253751456738,0.08784952727146447,0.884108142927289,-9.764288806915284
15.31,0.8000000119209291,217.0,25.60443687438965,-0.07951773703098297,-79.78274338211571,40.45904731084437,272.682660449028,0.04756591469049454,0.0005055859219282868,0.9945897459983826,0.092350535094738,-0.028282832148446138,0.005356877113414522,-0.006531985453416372,0.002941521583124995,0.0033204634673893447,-0.003201675601303577,0.0827422767598182,0.9001871819794178,-9.762927575111387
15.4,0.8000000119209291,217.0,25.615705490112305,-0.07156596332788467,-79.78274331089732,40.45904710176495,272.6956497316361,0.0475861094892025,0.0004904633387923242,0.99458909034729,0.09234721958637238,-0.026835739983220815,0.006815388691362936,-0.0009496553980588556,0.004251233302056789,0.0011855812044814233,0.009249165654182434,0.0887767586298287,0.8852822638303042,-9.762878458499909
15.6,0.8000000119209291,213.0,25.615705490112305,-0.07951773703098297,-79.78274324464017,40.4590470807816,272.69499968338016,0.0475466363132,0.00048263435019180173,0.9945908784866332,0.0923478752374649,-0.0335630390271532,0.0052280665635118465,4.0939806765087064e-05,0.0011273224372416735,0.002779962727800012,-0.0036340418737381697,0.08302372883073986,0.8991628228873015,-9.762389046549798
15.71,0.699999988079071,213.0,25.60569000244141,-0.06361418962478638,-79.7827432125467,40.459046815037134,272.7104600553513,0.04753384366631508,0.0004566331044770777,0.9945914745330808,0.0923476591706276,-0.02848943649467308,0.017228327804533206,0.007474397155086363,0.005604889243841171,0.0012778651434928179,0.01037702988833189,0.08857174063101411,0.8853685833513737,-9.76398533642292
15.9,0.8000000119209291,208.0,25.60569000244141,-0.08746951073408127,-79.78274313199472,40.45904658427065,272.7243384008408,0.04751042276620865,0.0004521307710092515,0.9945913553237916,0.0923614650964737,-0.02875856944510987,0.015733096809898664,0.01136961042318692,0.0026934859342873088,0.00017428350111003965,-0.0020730358082801104,0.08261942127719522,0.8996394440531731,-9.763139244318007
16.0,0.8000000119209291,203.0,25.615705490112305,-0.07156596332788467,-79.78274310115212,40.45904656560615,272.72521572160724,0.04750743508338928,0.0004325548652559519,0.9945919513702391,0.09235680848360064,-0.031194996360921743,0.01498472045088105,0.011647427853450023,0.0020189625211060047,0.003442649496719241,0.008382877334952354,0.08904322721064091,0.8867089113593102,-9.76455251634121
16.2,0.699999988079071,200.0,25.61445426940918,-0.06361418962478638,-79.78274301694033,40.45904632038448,272.7399627451897,0.047481469810009,0.00043611566070467234,0.9945958256721495,0.09232793748378754,-0.03248717833581314,0.01630445911143122,0.015605286425730346,0.0005202130414545536,0.003420350607484579,-0.0040039140731096285,0.084265165803954,0.8985376093536616,-9.762968505620957
16.31,0.699999988079071,198.0,25.61445426940918,-0.07951773703098297,-79.78274298076967,40.459046300444605,272.7412291054726,0.04747672379016876,0.00043435333645902585,0.9945968985557556,0.09231963753700256,-0.034888804456509395,0.015469684367364138,0.0159001588247128,0.0047743613831698895,0.004538544919341804,0.007409950718283653,0.08153016722761093,0.9032891298830508,-9.760907362103463
16.41,0.699999988079071,197.0,25.61445426940918,-0.04771064221858978,-79.7827429417937,40.45904606683111,272.75483475971225,0.04746097326278687,0.0004166524158790708,0.9945996999740601,0.09229793399572372,-0.032882478290898534,0.01784651697230314,0.018474499472128383,-0.008233476430177689,-0.0015733966138213873,-0.005541575606912375,0.08334087632596493,0.8947402082383633,-9.764418615102768
16.6,0.699999988079071,197.0,25.60694122314453,-0.07156596332788467,-79.78274286475535,40.45904602476885,272.7579657917023,0.04747539758682251,0.0004168527375441045,0.9945980310440063,0.09230748564004898,-0.03766882828321017,0.016031045867405516,0.019273978277814102,0.0058644446544349185,0.004191839601844549,0.010434742085635662,0.08322162053547799,0.90613540828228,-9.762892491817476
16.7,0.699999988079071,201.0,25.61820983886719,-0.06361418962478638,-79.78274284464055,40.4590458240131,272.77168976116184,0.047452908009290695,0.0004166289290878922,0.994600474834442,0.09229283779859544,-0.03320399501247605,0.01213418025675175,0.020928579581100417,-0.007383577059954405,-0.002795137465000153,-0.004638926591724157,0.08657747464254499,0.8870339434593917,-9.764158998727801
16.81,0.699999988079071,204.0,25.60193252563477,-0.07951773703098297,-79.78274280752541,40.45904580811187,272.77347897338865,0.047426681965589516,0.00042714187293313444,0.9946035146713256,0.09227365255355836,-0.03565568955879496,0.011143771313560306,0.021273551638480315,0.0005385268596000967,0.0028139401692897077,-0.005004195962101221,0.08092489818111062,0.9060260653495787,-9.761582715511322
17.0,0.699999988079071,208.0,25.61695671081543,-0.07951773703098297,-79.78274276251726,40.459045558645464,272.7905158286095,0.047421518713235855,0.00040398575947619975,0.9946057796478271,0.0922517627477646,-0.033424835221528025,0.013904290629834457,0.024795000148801472,-0.0066341431811451895,-0.0033072512596845627,0.00028312444919720287,0.08724732801318169,0.8860388935357333,-9.764061350226402
17.1,0.6000000238418579,210.0,25.613201141357425,-0.07156596332788467,-79.78274272298475,40.45904554089129,272.79269163656244,0.04740755259990692,0.0003819349803961813,0.9946045875549316,0.0922720730304718,-0.036091398325689916,0.013171745922638577,0.02525220439298594,-0.0018599590985104442,0.001781568513251841,-0.005961259361356497,0.0826098281890154,0.9071525314450264,-9.76177976667881
17.3,0.6000000238418579,205.0,25.611949920654297,-0.08746951073408127,-79.78274269655384,40.45904526708456,272.81030498790744,0.047379937022924416,0.00035981819382868707,0.9946073293685912,0.0922570452094078,-0.03317839860775112,0.019119160385480085,0.028123699124760617,-0.004634406417608261,-0.004515678621828556,-0.0053137824870646,0.08974883082322778,0.8867472106218338,-9.764489951133733
17.4,0.6000000238418579,206.0,25.60944557189941,-0.07156596332788467,-79.78274268292661,40.459045012124854,272.82514994192127,0.04737747460603714,0.00035060464870184665,0.9946079850196838,0.0922512784600258,-0.03031819859676118,0.02329634733544884,0.030040101166201018,-0.0016577771166339517,-0.0008778148330748081,-0.00769388023763895,0.08247875919565559,0.9073302137106658,-9.762165098190307
17.6,0.5,217.0,25.61445426940918,-0.07951773703098297,-79.78274261185861,40.459044960722814,272.8306375627518,0.04737599939107895,0.00034277804661542177,0.9946094155311584,0.09223654121160507,-0.03603326448731088,0.02232112774606624,0.03097556401359256,-0.00692410534247756,-0.002026041503995657,0.0003151151759084314,0.08784795583225788,0.8878727996349335,-9.764667706489565
17.7,0.5,224.0,25.61445426940918,-0.07951773703098297,-79.78274261068364,40.459044695012714,272.847604203701,0.04735826700925827,0.0003177498874720186,0.9946108460426332,0.0922304168343544,-0.03227560474767798,0.026033854145677663,0.035395808619448764,-0.0008617141284048557,-0.002869245829060673,-0.010199938900768757,0.08235011131502687,0.9074221611768007,-9.763703500628473
17.91,0.5,230.0,25.615705490112305,-0.07156596332788467,-79.7827425658807,40.45904442870357,272.8661605601311,0.04736827313899994,0.0003299585951026529,0.9946128129959106,0.0922037586569786,-0.03171792732854318,0.025026777439522096,0.03796943190949044,-0.001385207287967205,-0.0006125144427642226,0.0068509471602737895,0.08512261429801582,0.8922077060490847,-9.76528692662716
18.01,0.5,231.0,25.60944557189941,-0.07951773703098297,-79.78274253016258,40.45904440099771,272.86968444633493,0.04735080897808075,0.0003421538858674466,0.994612991809845,0.09221066534519196,-0.035162432218749866,0.02473147454924581,0.038701241443783285,-0.006320858374238014,-0.005806737113744021,-0.010453796945512295,0.08230264836922288,0.9057707612961532,-9.764710391163826
18.2,0.6000000238418579,242.0,25.61445426940918,-0.07156596332788467,-79.78274251304981,40.45904411811959,272.89062290239343,0.04734676331281662,0.0003295550704933703,0.9946149587631226,0.09219156205654144,-0.03027548580396568,0.02718481931968596,0.04310725163749257,0.0018884463934227824,-0.0011995023814961314,0.007656543515622616,0.0830683138500899,0.8973788373917342,-9.762194918990136
18.3,0.6000000238418579,246.0,25.608192443847656,-0.08746951073408127,-79.78274247860224,40.459044088754055,272.8946699385644,0.047333430498838425,0.0003365976735949517,0.9946170449256896,0.09217625856399536,-0.03395001105961894,0.02685021908889976,0.0437586574004897,-0.006984655745327473,-0.0004894207813777032,-0.013052539899945259,0.08186353160999715,0.9043188976496459,-9.763758464455606
18.5,0.6000000238418579,257.0,25.613201141357425,-0.08746951073408127,-79.78274242811564,40.45904377595646,272.9162208919525,0.04733982309699058,0.00033609813544899225,0.9946178793907166,0.0921633169054985,-0.03542481120003412,0.030690913898312508,0.047589003584852727,0.0026476113125681877,0.000746975711081177,0.011924083344638348,0.08344407968223096,0.8992643451690674,-9.763056798577312
18.6,0.6000000238418579,263.0,25.61069679260254,-0.07951773703098297,-79.78274238641309,40.45904374241808,272.92067216682443,0.047339610755443566,0.00033781988895498216,0.994619607925415,0.0921456143260002,-0.03930457519982344,0.03054148934152784,0.048310049451147266,-0.008050224743783474,-0.001902022631838917,-0.00643095001578331,0.08193156944587827,0.902207541167736,-9.76340470790863
18.8,0.6000000238418579,278.0,25.61069679260254,-0.09542128443717957,-79.78274237070859,40.459043441398265,272.94519333887104,0.047346506267786026,0.0003310186439193785,0.9946222305297852,0.09211388230323793,-0.03540202695210863,0.03124133839237165,0.05396843122619819,0.0026487491559237237,-0.001755067380145192,0.010668104514479635,0.08299837566912174,0.9003236413747072,-9.762646324038506
18.91,0.6000000238418579,280.0,25.611949920654297,-0.06361418962478638,-79.78274236363919,40.45904320744767,272.96084694910047,0.0473254956305027,0.0003269310691393912,0.9946247935295104,0.09209661185741423,-0.035129676608770755,0.02749155652465686,0.05464492663463903,-0.004216174595057964,-0.001723755500279367,-0.011828341521322729,0.08224719118326902,0.9047540035843852,-9.763856112956999
19.1,0.6000000238418579,286.0,25.608192443847656,-0.05566241592168808,-79.78274227859258,40.45904314712133,272.97116981792453,0.0473572351038456,0.0003265877312514931,0.9946258664131165,0.09206905961036682,-0.04001731534620709,0.0262449293331095,0.05559659361031855,-0.002530716825276613,0.001991871278733015,0.005013545509427786,0.08291775718331337,0.8947872783243657,-9.764091171026232
19.21,0.6000000238418579,281.0,25.61445426940918,-0.06361418962478638,-79.78274232824153,40.459042884195966,272.9849402194024,0.047326121479272835,0.0003332568157929926,0.9946284294128418,0.09205658733844756,-0.033133248041533656,0.029107904789409805,0.05249822747884465,-0.005299537442624569,-0.0017001585802063346,-0.009746956638991831,0.08165901610627771,0.9059936133027076,-9.764000539183616
19.4,0.6000000238418579,280.0,25.61445426940918,-0.07156596332788467,-79.78274234170291,40.45904258500438,273.0059885864258,0.04731873422861098,0.0003193311276845634,0.9946291446685792,0.09205323457717897,-0.0277284972291686,0.031106573650129494,0.053127281001481313,-0.0034223771654069424,-0.0008694722782820463,0.008359577506780623,0.08735675317235292,0.8930423960834742,-9.764342016577721
19.5,0.6000000238418579,277.0,25.61445426940918,-0.07951773703098297,-79.78274231005499,40.459042552529894,273.0110672597885,0.04731176048517227,0.00031453577685169876,0.9946303367614746,0.09204317629337312,-0.0308412328707658,0.03077498044464821,0.05382142602583469,-0.004638549871742725,0.002408723579719663,-0.011673411354422571,0.0834348977264017,0.9088260045647621,-9.764344355463981
19.7,0.5,265.0,25.61445426940918,-0.07156596332788467,-79.78274236481977,40.45904227057178,273.0320958976746,0.04729720577597618,0.00032400042982771987,0.9946334362030028,0.0920177847146988,-0.021759554980872026,0.029808458822277638,0.05366703967317578,-0.0009098001173697412,5.013473855797202e-05,0.004298897460103035,0.08760996501892805,0.8899660297483206,-9.765479884743687
19.8,0.5,256.0,25.60193252563477,-0.08746951073408127,-79.78274234042958,40.45904224053958,273.03727744865415,0.047289155423641205,0.0003339719260111451,0.9946339726448059,0.09201610833406447,-0.024688110327110827,0.029314381238605962,0.05426622983125727,-0.004864543210715056,-0.0011652653338387606,-0.010522400960326195,0.08516095924191178,0.9099711817502976,-9.763914585113524
20.0,0.4000000059604645,238.0,25.59191703796387,-0.11927660554647446,-79.78274230971486,40.459041957576645,273.05659996318815,0.04729147627949715,0.00032016410841606563,0.9946367740631104,0.09198445826768877,-0.028795983820431463,0.027570223718218226,0.05318364070526802,-0.0011303735664114356,-0.0022555640898644924,0.0073604080826044065,0.08649536694400012,0.8908878432959318,-9.765810252428057
20.1,0.4000000059604645,225.0,25.611949920654297,-0.06361418962478638,-79.78274227508456,40.459041928086585,273.0616698150635,0.0472954735159874,0.00032553504570387304,0.9946395754814148,0.09195249527692796,-0.03187132127547539,0.027215432496368,0.0538945632240492,-0.004930722527205944,-0.0008591690566390753,-0.009923136793076992,0.08124784721061587,0.9080975145846606,-9.763143337368966
20.3,0.30000001192092896,200.0,25.60944557189941,-0.09542128443717957,-79.7827422668402,40.45904164722243,273.0807402019501,0.04728175327181816,0.00029719583108089864,0.9946431517601012,0.091920867562294,-0.031194236009811145,0.025941981847474087,0.05183730831277258,-0.0027570333331823353,-0.0025612590834498405,0.0067853033542633065,0.08594857919029891,0.8925434824079276,-9.7648033618927
20.4,0.30000001192092896,188.0,25.61069679260254,-0.08746951073408127,-79.78274228005144,40.459041373153745,273.09472440528873,0.047272510826587684,0.00027769029838964343,0.9946436882019044,0.09191970527172087,-0.0318281784942633,0.028409771921904418,0.05016344761991138,-0.0043070875108242035,-0.004036393947899343,-0.011320707388222221,0.08110786121338606,0.9062986186891796,-9.762821155786515
20.5,0.30000001192092896,168.0,25.60193252563477,-0.07951773703098297,-79.78274224446542,40.45904134274903,273.09946118640903,0.047268837690353394,0.0002704772632569074,0.9946444034576416,0.09191393107175827,-0.03326917150088505,0.02779898871164393,0.05060344722047789,0.005777302198112011,0.0021252536680549388,0.002281805267557502,0.08510749376378954,0.8958986147493124,-9.763536854982377
20.7,0.30000001192092896,164.0,25.61445426940918,-0.07951773703098297,-79.78274225468867,40.459041052706134,273.11817537593845,0.04725342988967896,0.000264630070887506,0.9946492910385132,0.09186874330043793,-0.03220996738305187,0.02729526378824821,0.04935805971272915,-0.004653165116906165,-0.0004375541175249964,-0.010998770594596865,0.07965670106001199,0.9032951232790948,-9.762964997291565
20.9,0.30000001192092896,157.0,25.60694122314453,-0.11132483184337616,-79.78274225103729,40.45904078473193,273.1353329305649,0.047209471464157104,0.00023941365361679345,0.9946543574333192,0.0918365940451622,-0.0306667878657827,0.024269614514389803,0.04654738391477933,0.0031843536999076605,-0.0021903126034885645,0.006972513161599636,0.08419303491711617,0.897105991691351,-9.763853189349176
21.0,0.30000001192092896,151.0,25.611949920654297,-0.07156596332788467,-79.78274221520677,40.459040757737824,273.13972281265256,0.04719763249158858,0.0002427924337098375,0.9946566224098206,0.09181780368089676,-0.03406534580510283,0.024286315593389472,0.04729184893502305,-0.011827988550066948,-0.001049359911121428,-0.009483469650149344,0.08284521516412496,0.9063168181478978,-9.764429724812508
21.11,0.30000001192092896,144.0,25.608192443847656,-0.07156596332788467,-79.78274217506146,40.45904073044315,273.14415346431736,0.04717918112874031,0.00024317734641954303,0.9946574568748474,0.09181921184062958,-0.035532183619196266,0.023773065762148958,0.047861752222142284,0.004728092812001704,0.00214373623020947,0.003696761094033718,0.08497243221849203,0.8957368661463261,-9.765189862847329
21.3,0.30000001192092896,138.0,25.60068130493164,-0.07951773703098297,-79.78274224327924,40.45904043071265,273.1602870111466,0.047145359218120575,0.00020439473155420282,0.9946601986885072,0.09180641919374466,-0.02876775500462104,0.02839295894085545,0.043966359155047145,-0.0054759886115789405,-0.0036718037445098157,-0.00820772536098957,0.0828985344618559,0.9054262141138316,-9.76380465745926
21.4,0.30000001192092896,129.0,25.57313537597656,0.7633702754974365,-79.78274235649671,40.45904025248078,273.172448504448,0.047096110880374915,0.0002148666098946705,0.9946638345718384,0.09179206937551496,-0.012427233214970605,0.014983518597924066,0.03878171452493672,0.007152008358389139,0.003264358034357429,-0.0040612928569316855,0.08411360414698721,0.8943064910173416,-9.765093968510627
21.6,0.30000001192092896,128.0,25.596923828125,0.2306014448404312,-79.7827423207055,40.459040220760976,273.1800272350312,0.04709558188915253,0.00020927253353875133,0.9946646094322203,0.0917835608124733,-0.01861338127469156,0.014891037972684231,0.040185930434602384,-0.005009644664824009,0.001519137527793646,-0.015429460443556309,0.08448543224483729,0.9037599769234658,-9.765312069654462
21.8,0.4000000059604645,127.0,25.59066390991211,0.20674611628055573,-79.78274230461871,40.459039911564034,273.19463144588474,0.04710377380251885,0.0002024808491114527,0.9946619868278505,0.09180893748998642,-0.023790187681572674,0.019412795931438274,0.037023498528340686,0.003005761653184891,0.0017582640284672384,0.0028651889879256487,0.08549589506350458,0.9061679334193468,-9.761333624124527
21.9,0.4000000059604645,124.0,25.5869083404541,0.22264966368675232,-79.78274232552056,40.45903967068483,273.20466767597196,0.04708773270249367,0.00020049329032190144,0.9946692585945128,0.09173831343650818,-0.026415436185976183,0.01863609980477437,0.032843389901470565,-0.006733341608196497,-0.0018189578549936414,-0.008468901738524437,0.08567317533306779,0.9045853114128112,-9.766575068235396
22.01,0.5,120.0,25.595672607421875,0.21469789743423465,-79.78274229596957,40.459039649741186,273.20771943378446,0.047078412026166916,0.00021511415252462032,0.9946645498275756,0.09179312735795976,-0.027929066037977863,0.018227343245098983,0.033187638898924204,0.003955948166549207,-0.00309416325762868,-0.0029501274693757296,0.07879285717383028,0.9040440785139799,-9.76238144516945
22.2,0.5,123.0,25.58815956115723,0.2942156493663788,-79.7827423834645,40.45903941783784,273.2182758932114,0.04705265536904335,0.00021412722708191723,0.9946697950363159,0.0917498916387558,-0.017516621295207126,0.013841269342494241,0.0252377636967786,-0.006119512021541596,-0.004376666620373726,-0.0011398084461688993,0.08463260849006475,0.8986093108355999,-9.764099941849713
22.4,0.6000000238418579,112.0,25.58440399169922,0.3498780429363251,-79.78274242977406,40.459039146990854,273.23193823146823,0.047055792063474655,0.0002042980631813407,0.994671642780304,0.09172827005386353,-0.015281405090266315,0.017123455525899653,0.024978764020917737,0.0033835538197308783,0.005540107376873493,0.010029834695160387,0.08544242958538234,0.9084465202689171,-9.765106247663498
22.5,0.6000000238418579,107.0,24.9971923828125,25.000377655029297,-79.78274241163814,40.45903912901018,273.2343162183762,0.04704831913113594,0.0002200958551838994,0.9946722984313964,0.09172513335943222,-0.018676115647401424,0.0172668970984253,0.02572127006691248,-0.003472521901130677,-0.0011895662173628807,-0.003966132644563913,0.0806618100218475,0.8937364605814219,-9.769819103479383
22.6,0.6000000238418579,100.0,25.381572723388672,2.3616769313812256,-79.78274238942359,40.45903911132473,273.2368858938217,0.04716143012046814,0.00037766952300444245,0.9946557879447936,0.09184569865465164,-0.02351136546869904,0.015546958313182778,0.027450538239885358,0.0020622003357857466,-0.005059677176177503,-0.0029170054476708174,0.08329517668113112,0.8909349864721299,-9.757977907061578
22.8,0.699999988079071,95.0,25.58315277099609,0.15108370780944824,-79.7827423631529,40.45903888968761,273.2474677448273,0.047004736959934235,0.0002604648470878601,0.9946662187576294,0.09181350469589232,-0.032809478859217686,0.009117384346376559,0.022729481572273464,-0.026285011321306232,0.0069913300685584545,-0.02517783641815185,0.07915395928546788,0.9166035322844984,-9.747694408893585
22.91,0.699999988079071,91.0,24.521413803100586,22.14569091796875,-79.78274248383332,40.459038642589405,273.2561174516678,0.046937257051467896,0.000187450394150801,0.9946684837341307,0.09182282537221907,-0.01346722198358276,0.01609850585906661,0.01908376853382668,0.011135242879390715,0.0017653710674494505,0.008281666785478592,0.10038318933919073,0.8503724129498005,-9.770672796964648
23.1,0.8000000119209291,88.0,25.57313537597656,0.4293957948684693,-79.78274244798307,40.45903860906929,273.25984703350065,0.0467197634279728,-7.086891855578871e-07,0.9946741461753844,0.09187320619821547,-0.021427693128180464,0.017187968072171045,0.01958575559339855,-0.004556877072900535,-0.04165007546544075,-0.02507815696299076,0.0999590012524277,0.8696899323910475,-9.768357884287834
23.2,0.8999999761581421,83.0,25.589412689208984,0.18289080262184146,-79.78274253945261,40.45903837919492,273.2698866014481,0.046661097556352615,-7.06127320881933e-05,0.9946777224540708,0.09186398983001708,-0.013501681177803487,0.015207124044824875,0.01964153014144715,0.003664656076580286,-0.0185336135327816,0.002045688685029745,0.07586188094224781,0.8999349477142096,-9.756184566020966
23.4,0.8999999761581421,78.0,25.52680969238281,1.3677051067352295,-79.78274259798118,40.459038105561035,273.28239761638645,0.046555206179618835,-0.0001306645426666364,0.9946860671043396,0.09182803332805634,-0.013904921904926069,0.02167518683423364,0.021966137102110192,-0.0018392588244751094,-0.001671181758865714,0.026005679741501808,0.08190955102443695,0.8570218665897846,-9.768014068007467
23.5,1.0,74.0,25.390336990356445,3.45902156829834,-79.78274258249594,40.459038084543316,273.2844681625366,0.04650845751166344,-0.000180803268449381,0.994692862033844,0.09177697449922564,-0.017324844871403303,0.020176768486903484,0.022994455377023867,-0.0065277270041406155,0.009162629954516888,-0.010583600029349329,0.079576850021258,0.9187503375113012,-9.758183729052542
23.7,1.0,71.0,25.24259376525879,5.916119575500487,-79.78274263219828,40.459037836689355,273.29647206115726,0.04597160220146178,-0.0006124171777628362,0.9946984648704528,0.09198523312807083,-0.016137574705014996,0.020040555005955887,0.023386222261332013,0.0122453011572361,0.019506759941577908,-0.003948625177145004,0.08817486086860299,0.9296544445306064,-9.777527487874034
23.8,1.100000023841858,65.0,25.19251251220703,6.9816575050354,-79.78274261551276,40.459037815867035,273.2987106924057,0.04545179009437561,-0.0009807301685214043,0.994711697101593,0.092097207903862,-0.015967974402905757,0.02048494064610555,0.02317620479221328,0.0327385775744915,-0.027620811015367508,-0.02487071231007576,0.08945592186413706,0.8630138008296491,-9.770829502344133
24.0,1.2000000476837158,65.0,25.02974510192871,10.154415130615234,-79.78274270944182,40.45903760924547,273.31004630374906,0.04484878107905388,-0.0013116227928549053,0.9947311878204346,0.09217869490385057,-0.006658075252513015,0.0124856001124329,0.02265350984239273,0.05736572667956352,0.011667241342365742,-0.008376112207770348,0.09813356447964908,0.8913595674186945,-9.784489767551422
24.2,1.2999999523162842,66.0,24.843189239501953,13.319221496582033,-79.7827428080623,40.459037361481684,273.32061706829074,0.04433230310678482,-0.0015444387681782243,0.994756817817688,0.09214816987514496,-0.008539141312386814,0.02264494496577728,0.026658559957495668,-0.004538825247436762,0.07454419881105423,-0.006405494175851345,0.1107282659970224,0.989568670615554,-9.812496761083604
24.3,1.2999999523162842,67.0,24.74553108215332,14.941383361816404,-79.78274279572804,40.45903734283434,273.32333015251163,0.04403863847255707,-0.0011070594191551206,0.9947683811187744,0.09216957539319992,-0.00850748260191408,0.01762457394428394,0.029532877169243837,0.015745744109153748,0.061026599258184426,-0.021537125110626217,0.015813059262000027,0.9015484868735076,-9.811046651601792
24.4,1.399999976158142,69.0,24.64160919189453,16.984989166259766,-79.78274287593995,40.459037122299755,273.3322194700241,0.043749511241912835,-0.0009719319641590117,0.9947760701179504,0.09222671389579773,-0.014091241606408825,0.01960670570319553,0.027086226733026592,0.020085874944925308,-0.05680767446756362,0.03370608389377594,0.04669584592804313,0.7481997746229172,-9.862540740966796
24.6,1.5,72.0,24.44128227233887,20.777984619140625,-79.78274283941226,40.45903708359229,273.3396572952271,0.043262481689453125,-0.0002587337221484632,0.9947675466537476,0.09255233407020567,-0.02587575162241129,0.021746258966574016,0.03610159786861228,-0.02534297667443753,-0.04046183452010155,0.08754880726337433,0.11864408950321376,0.6827368332445621,-9.775882666110993
24.7,1.600000023841858,71.0,24.33360481262207,22.614845275878906,-79.78274294473674,40.459036850699135,273.34644817161563,0.043610330671072006,0.0009303685510531068,0.9946706891059875,0.09342113882303238,-0.02717084059680791,0.010667017154874052,0.04114650407264615,-0.03358533978462218,-0.00950350146740675,0.013883320614695549,0.0894703297689557,0.8903702185302973,-9.965939394235614
24.91,1.600000023841858,70.0,24.070674896240234,27.55289649963379,-79.78274294982727,40.45903662894071,273.35964380550394,0.041091274470090866,0.0009761670953594148,0.9945322871208192,0.0960010141134262,-0.11856834970581445,0.026859194515474773,0.12143828230630035,-0.0856701135635376,-0.13053986430168152,0.05229046195745468,0.2577412459999323,0.3197321838140488,-10.353910338878633
25.1,1.7000000476837158,69.0,24.47759056091309,20.23726463317871,-79.78274255828566,40.45903649404433,273.40420435714725,0.030524622648954388,-0.0063698673620820045,0.994978666305542,0.09510605782270433,-0.19227857100584272,0.06026269203194565,0.3331647408012618,0.3321762382984161,-0.0956939309835434,0.018474441021680832,0.4707502689957619,0.3598276378959417,-10.752434338331225
25.2,1.7999999523162842,69.0,24.31232070922852,22.757976531982425,-79.78274210153954,40.45903614874538,273.44396089363096,0.012779615819454191,-0.004823215771466494,0.9955613613128662,0.09311828017234802,-0.19619286214381848,0.058653129765072164,0.30941486664380513,0.4781284034252167,0.07493112981319427,0.08435434848070145,0.15029070982709528,-0.044887356944382194,-10.045811190605164
25.3,2.0,69.0,24.29980087280273,22.64665222167969,-79.78274184544682,40.459036047152274,273.4728404169083,7.291675865417346e-05,-0.0017846435075625773,0.995792806148529,0.09161686152219772,-0.23704965055907606,0.07216298343739823,0.296474212275372,0.13640961050987244,0.061527751386165626,-0.1502593606710434,-0.011365274176932873,0.21078817740082745,-9.836672658920287
25.5,2.200000047683716,71.0,24.35739517211914,21.70834350585937,-79.78274138849551,40.45903571600899,273.5117621307373,-0.012686447240412235,0.008126323111355305,0.99579119682312,0.09040496498346327,-0.17881530436183746,0.08214279241061813,0.21026568143469784,0.0255199633538723,0.092188760638237,-0.030796406790614125,0.15473779141902924,0.21178149143233896,-9.618998361825943
25.6,2.4000000953674316,83.0,24.289783477783203,23.4179744720459,-79.78274123830626,40.45903561526612,273.5316814069748,-0.016703823581337932,0.011793069541454315,0.9956593513488772,0.09079935401678084,-0.1286745812376535,0.08410973628300883,0.19011711381360435,0.011403006501495838,0.15619881451129913,0.0549255907535553,0.05710595458745956,0.04164999118074775,-9.625271254777909
25.8,2.4000000953674316,82.0,24.26975059509277,22.86930084228516,-79.78274104970326,40.45903524585338,273.5718917732239,-0.0016803257167339325,0.01069025881588459,0.9956254363059998,0.09280603379011154,-0.07043868200311841,0.083528914980245,0.18299325510270906,-0.15284228324890134,-0.07636663317680359,-0.013444340787827969,0.2979208634421229,0.3506172499805689,-9.801447277665137
26.0,2.5999999046325684,80.0,24.147050857543945,24.41989707946777,-79.78274110238516,40.459035026564095,273.60985754776004,0.0077954838052392015,0.0009652195731177926,0.99539452791214,0.09554092586040497,-0.009498508119016029,0.06957079467317964,0.20661669051197248,-0.10436967015266416,-0.009112315252423286,0.006072135642170906,0.13999477718956768,0.21901442410424352,-9.903708647489546
26.11,2.799999952316284,81.0,24.3436222076416,20.54738426208496,-79.78274111859844,40.45903495699459,273.6319296245576,0.009483625181019306,-6.497332651633769e-05,0.9951932430267334,0.09747093915939332,-0.0007113392125644601,0.08216350656597522,0.23358788250955145,-0.1523985117673874,-0.06671862304210663,-0.04713690653443337,0.06768665576353669,0.5872422999143599,-9.971504774093626
26.2,3.0,77.0,24.23469352722168,23.720142364501953,-79.78274119035231,40.45903460647397,273.6651090269089,0.007240551523864268,0.0011813874589279294,0.9950152635574341,0.09945250302553177,0.029449153986954524,0.11014964127309493,0.20922332283894945,0.1864349991083145,0.12195475399494173,0.17769956588745114,0.06889810748398305,0.013381316475570202,-9.823903509378432
26.41,3.0999999046325684,80.0,24.195880889892567,24.730016708374023,-79.78274164282301,40.45903431812403,273.71564935493467,0.0075300056487321845,0.0034803829621523623,0.9948107600212096,0.101404570043087,0.07620458812339909,0.12818114376754827,0.18126344392719632,-0.046528220176696784,0.09182889759540558,0.03815852105617523,0.16739047173410654,0.33547003783285617,-9.687615437507633
26.6,3.4000000953674316,81.0,24.259735107421875,23.15556526184082,-79.7827419287872,40.45903411912674,273.75664507198337,0.008929310366511345,0.0005662583862431347,0.9948496222496032,0.10096726566553116,0.11645857757264345,0.13346225670783474,0.2264700086871855,0.0392114594578743,0.08744187653064728,0.06216510385274888,0.06383786310441793,0.134889417886734,-10.006896800994873
26.7,3.4000000953674316,81.0,24.10197639465332,25.11965370178223,-79.78274193599154,40.459033751491795,273.78589688587186,0.010882786475121977,0.001708547817543149,0.9949498176574708,0.09976725280284884,0.08268857546557089,0.1303030461024705,0.2272234103360065,-0.20548447966575625,-0.01312348898500204,-0.0931895449757576,-0.0571292429510504,0.3957009637355805,-9.809331663250925
26.8,3.4000000953674316,82.0,24.339866638183594,19.83172416687012,-79.78274207982534,40.459033651749465,273.80907856273654,0.014540426433086397,0.0036230788100510853,0.995039999485016,0.09834146499633788,0.11542817101483947,0.1321759650417242,0.2348419575906868,0.05628709495067597,0.04752051457762718,0.193822517991066,-0.00037407447933219374,-0.025059832390397788,-9.937247107028961
27.01,3.4000000953674316,80.0,24.12952041625977,24.96061897277832,-79.78274250456933,40.45903314476079,273.86231600093845,0.01534508727490902,0.007148801349103452,0.9951487183570862,0.09691469371318816,0.12397642110992135,0.1614396575608502,0.05754307955202706,0.0665416270494461,-0.08962032198905945,-0.038752619177103036,0.19958250023424626,0.5881608974933624,-8.622336360812188
27.1,3.5,81.0,23.96299934387207,26.964466094970703,-79.78274268638964,40.45903302606193,273.86516367244724,0.012138856574892998,0.005397345870733261,0.9951774477958679,0.09718721359968184,0.12357221558342055,0.16222733183475735,0.0020465871548895165,-0.0374140739440918,-0.09574701637029648,-0.005053890403360128,0.0783430692460388,0.31299955353140835,-9.165218759179117
27.31,3.5,80.0,23.907907485961914,28.196990966796875,-79.78274328041451,40.45903257222624,273.91196368980405,0.01737247221171856,0.006150086410343647,0.9951081871986388,0.09705770015716553,0.15168901774593915,0.1494743791970236,0.1420037629062004,-0.0012174947187304495,0.05405055359005928,0.0743137001991272,0.11497628644108772,0.3115636966377497,-10.51313703775406
27.4,3.5999999046325684,81.0,23.715091705322266,31.34589195251465,-79.78274342778863,40.45903209415652,273.9679689292908,0.018927125260233886,0.006490154191851616,0.995084583759308,0.09698659181594847,0.1587637742583953,0.1794248434369438,0.28351511033939103,0.026086283847689632,0.05614309757947922,0.1276942938566208,0.06860497925430536,0.2666303294152021,-10.802242090702057
27.6,3.5,81.0,23.716344833374023,31.29022979736328,-79.78274384712304,40.45903183996868,274.055759180069,0.01849277876317501,0.0035425007808953524,0.9951094388961792,0.0969676524400711,0.16887889793424446,0.1685547466574408,0.5790913291002179,-0.01570146344602108,-0.06911656260490417,0.01723538339138031,0.13566868728026749,0.4572376094385982,-11.25761389017105
27.7,3.4000000953674316,83.0,23.55858612060547,34.04154586791992,-79.78274413888329,40.45903159136324,274.1011056785584,0.018082797527313232,0.001881675445474684,0.9950711131095886,0.09748294949531557,0.1763004815879534,0.16450208101306027,0.6894335167625067,-0.04187573492527008,-0.04066561535000801,-0.037709884345531464,0.11847253767773508,0.3665987136214972,-11.263431869745258
27.9,3.4000000953674316,84.0,23.25934600830078,39.401039123535156,-79.78274463389418,40.45903122055061,274.27314208793644,0.02138992771506309,-0.0038946974091231827,0.9950296878814696,0.0971769168972969,0.1950295748509024,0.15750549131351727,1.0572442561400859,-0.04794104769825936,-0.001040464616380632,0.10021010041236876,-0.15703028367832306,0.35792232267558577,-11.789073168039325
28.0,3.5,84.0,23.420860290527344,37.0075569152832,-79.78274484718956,40.459031105143225,274.39182852554325,0.02126485481858253,-0.0006384774460457263,0.9950970411300659,0.09658870100975037,0.20428099987202344,0.14872344195422615,1.311153891349872,0.026497684419155117,0.16087903082370758,-0.0760369524359703,-0.05955491468310356,0.7106890822201968,-12.225295336246493
28.2,3.5,87.0,23.46468162536621,35.44900894165039,-79.78274536043617,40.459030736273704,274.7011804466248,0.018549105152487755,0.0060599902644753465,0.9953916072845459,0.09388735890388487,0.2353365748501823,0.17202974416512914,1.8261278645714405,0.031038759276270863,0.038407441228628166,0.022344024851918217,0.16332320334389808,0.4456709032505751,-12.458780504465105
28.4,3.700000047683716,89.0,23.28689193725586,38.08899688720703,-79.7827459218602,40.459030445377344,275.0866248493195,0.025001240894198414,0.0002529287594370544,0.9952930212020874,0.09363116323947906,0.25116531151120514,0.16013839886720022,2.266610278476555,-0.1877516210079193,-0.061050456017255776,0.11601078510284425,0.14478939352557066,0.4532414395362139,-12.272724441289904
28.5,3.799999952316284,90.0,23.596147537231445,32.610225677490234,-79.78274613874228,40.459030349997846,275.3259906654358,0.03239893168210983,-0.002680232282727957,0.99503493309021,0.0940668135881424,0.2817563905921377,0.14935288079661727,2.4999881767088867,-0.14081035554409027,-0.060795843601226814,-0.15035727620124814,0.045850996356457466,0.6483112780004741,-12.127869029045105
28.6,4.0,89.0,23.65624618530273,31.56854248046875,-79.78274634519595,40.45903025243909,275.587322462082,0.038784626871347434,-0.006266885437071322,0.9946709871292114,0.09532211720943452,0.3169595978552077,0.1380952548121533,2.6866447751457723,-0.15254153311252594,-0.041414014995098114,0.1261252909898758,-0.09732151413336396,0.5258642233908176,-11.76696835398674
28.81,4.099999904632568,83.0,23.73136901855469,27.28253555297852,-79.78274689235745,40.459029998255545,276.0953669433594,0.04377437010407448,-0.010070348158478735,0.9937794208526612,0.1019064486026764,0.36053287630222297,0.1406902650902282,2.8556296656200697,-0.016511715948581696,-0.03144994005560875,0.13241232931613922,-0.00102026604115963,0.6530614098161459,-10.925186816453934
28.9,4.099999904632568,84.0,24.16708374023437,22.82954216003418,-79.78274726532464,40.45902993650569,276.3065490608216,0.04507730901241303,-0.007908171974122524,0.9935061931610109,0.10416839271783827,0.34168907028173817,0.12842480117594338,2.8749122210133105,-0.1323230117559433,0.08501672744750978,0.14361964166164398,-0.06722458868287504,0.4499853809550405,-10.525888645648957
29.1,4.0,82.0,23.88286781311035,27.012176513671875,-79.78274747279302,40.45902964878484,276.87817333984384,0.0573180578649044,-0.0018931673839688301,0.9931448101997375,0.10185549408197404,0.3144831733088703,0.2105277864690569,2.7696384670921668,0.02183604054152965,-0.0067041232250630856,0.017495378851890564,0.16715636383742094,0.5427065799012779,-9.115222726464275
29.3,4.199999809265137,78.0,23.77143478393555,28.5468692779541,-79.78274782267006,40.45902954882565,277.2658061866761,0.0627174898982048,-0.009573970921337605,0.9933556914329528,0.0960180088877678,0.24188171961295601,0.14894682960908856,2.5248772372204096,0.12614884972572327,0.041414737701416016,-0.007016578223556279,-0.013434982951730493,0.5978163316100836,-9.100436287522315
29.4,4.300000190734863,74.0,23.686294555664066,29.10349273681641,-79.78274823929898,40.45902972111335,277.36962794113157,0.055914655327796936,-0.0041853804141283035,0.9938550591468812,0.09543730318546297,0.2068363507780488,0.14140585506719838,2.403701762008357,0.15639257431030273,0.16586445271968842,-0.020682338625192642,0.06059766052756459,0.5225527258962394,-9.343446570038797
29.6,4.300000190734863,77.0,23.8365421295166,27.370006561279297,-79.78274794286278,40.45902938068611,277.8516578559876,0.050230380147695534,0.0051158955320715896,0.9940794706344604,0.09621251374483107,0.03599578416841975,0.18246462319495696,2.387947109201108,-0.011830034665763378,0.06097645312547684,-0.058460380882024765,0.1606419991515577,0.6330976268649101,-9.515334244966509
29.8,4.300000190734863,76.0,23.768930435180664,28.07771301269531,-79.78274816164223,40.4590295728557,278.0744633560181,0.04969483241438866,0.011707229539752008,0.9938153624534608,0.09861259162425996,-0.039516671178256385,0.1819440956956648,2.253777582780188,-0.0731959417462349,0.03342542424798012,-0.022081619128584862,0.11848529191687705,0.37683053702116015,-9.62592321932316
29.9,4.199999809265137,75.0,23.84154891967773,27.38591003417969,-79.78274851302872,40.45903016827807,277.9926304702759,0.04915397986769676,0.012419771403074265,0.9935629963874816,0.10130321234464644,-0.05118947369793187,0.12729311194826268,2.109001395334794,0.08668065816164018,-0.020982736721634858,0.04717795550823212,0.223278341665864,0.5051449436321855,-9.896263972520831
30.01,3.9000000953674316,76.0,23.808996200561523,27.7039794921875,-79.78274820841983,40.45903006528291,278.2020745162964,0.04559861868619919,0.009271587245166302,0.9936705827713012,0.10224266350269318,-0.09155390327273616,0.12504348362906031,2.10738724097554,0.16325882077217102,-0.0714777261018753,0.010099091567099094,0.28760613748803737,0.24646679095923896,-9.81068178534508
30.2,3.799999952316284,75.0,23.662506103515625,29.81915283203125,-79.7827481999,40.45903010664415,278.56997107315067,0.03701063618063927,0.008083439432084559,0.9947763085365297,0.09478955715894699,-0.1706567919279999,0.05666100135625076,2.0920994286441386,0.2002396136522293,0.06684979051351547,-0.07144971936941147,0.07536785060539843,0.38999868594110015,-10.051998714208604
30.4,3.299999952316284,70.0,23.801483154296875,27.958436965942386,-79.78274733682412,40.459029640162186,279.133496749878,0.014789801090955734,0.013539751060307026,0.9957062005996704,0.09037325531244278,-0.2740904972503826,0.07055150637114055,2.2935509842668016,0.2768939435482025,-0.023114269599318504,0.037685278803110116,0.2264330424182117,0.21826212499290704,-10.420152275562288
30.51,3.299999952316284,66.0,23.50224304199219,32.268299102783196,-79.78274686722379,40.45902957245206,279.36428545761106,0.00605476601049304,0.014414235018193722,0.9957551360130308,0.09070497751235962,-0.35090239331798473,0.06641349587911301,2.3449995607172824,0.10205508023500444,0.08400062471628189,0.07350780814886093,0.16490672070533038,0.06038002076558769,-10.427026262283324
30.7,3.0999999046325684,73.0,23.89664077758789,26.209047317504893,-79.78274577672357,40.45902927955677,279.9032001380921,0.00448498735204339,0.0188349224627018,0.9955018162727356,0.09274307638406754,-0.4022943860438446,0.04806945176866779,2.438177154890897,0.10161647945642473,0.026337597519159317,0.05932805687189102,0.2544063413701952,0.14700703228823842,-10.489906049966812
30.8,3.0,73.0,23.67252349853516,28.8887939453125,-79.78274528160163,40.45902925016761,280.14557312774656,-0.000689527892973274,0.022920111194252968,0.9953306317329408,0.09376103430986404,-0.4117290415761447,0.04032608120407352,2.409697477316229,0.07906803488731384,0.02857967466115952,-0.015530670061707497,0.26002173319458965,0.22501993484795094,-9.698562594652175
30.9,3.0,58.0,23.67377471923828,29.23072052001953,-79.78274451436485,40.459029027086586,280.49034260559085,-0.009452537633478642,0.021541116759181026,0.9951910972595216,0.09508677572011948,-0.4186462864528476,0.0469478348917082,2.413907071032645,0.24590718746185306,-0.15984781086444855,0.10218758881092073,0.31210175011307,-0.21962622558698056,-9.677866374850273
31.11,3.0,38.0,23.865339279174805,26.527118682861328,-79.78274356715731,40.4590290163598,280.96732281494144,-0.022959325462579727,0.011664151214063171,0.9944764375686646,0.1017524152994156,-0.4572410273125646,-0.0007653037126791503,2.3318026998179744,0.19930173456668854,-0.00819065235555172,-0.023112187162041664,0.4031727186217904,0.07337429724633694,-9.464914289116859
31.2,3.0,351.0,23.589887619018555,30.35192108154297,-79.78274274212698,40.45902861110381,281.3357376937866,-0.029750822111964226,0.010290918871760368,0.9940442442893982,0.10433144122362137,-0.4678340186068459,0.0032048131501096824,2.3240967085788324,0.15700869262218475,-0.10749242454767227,0.0008717442397028207,0.4712872992083431,-0.14710891088470818,-9.31964957177639
31.4,3.0999999046325684,343.0,23.60491180419922,29.75553894042969,-79.78274152121502,40.45902838437062,281.9338641052246,-0.03292427584528923,0.017918236553668976,0.9936618208885192,0.1059773415327072,-0.48059759528768004,0.04198827446299967,2.3072362391095558,-0.0766041949391365,0.2611084878444672,0.05894441902637481,0.4555199532955885,-0.6197370314598084,-9.51517169237137
31.6,3.4000000953674316,333.0,23.597400665283203,30.495052337646484,-79.78274093371144,40.45902824488593,282.3965277557373,-0.02283858135342598,0.03249648958444595,0.9939773678779602,0.1021343469619751,-0.3590865620172947,0.14751517217151924,2.2769643291807298,-0.11926374584436415,0.09886182844638823,0.03773307427763939,0.6672511404007674,-0.3380643377825618,-9.527273674607278
31.7,3.5999999046325684,330.0,23.44965744018555,33.469017028808594,-79.7827399952388,40.45902791658109,282.7759013061524,-0.014030905440449716,0.04079366102814674,0.994083821773529,0.09968224912881853,-0.3208586059276527,0.1953302657050981,2.291839393057186,-0.14013543725013733,0.13980673253536224,0.033803023397922516,0.5852021332830191,-0.13513470858335494,-9.423357542753221
31.8,4.099999904632568,323.0,23.34698867797852,34.26419448852539,-79.78273979569293,40.45902784121663,283.00496434021,-0.007474455516785383,0.04861106723546982,0.9939895868301392,0.09780532121658324,-0.2519465849405469,0.2263751212295041,2.25044155450598,-0.1343546062707901,0.13734182715415955,0.029111389070749283,0.5832492363452911,0.03843267040327192,-9.355129306912422
32.0,4.300000190734863,318.0,23.28188323974609,35.560333251953125,-79.78273895833962,40.45902745170514,283.5822338943482,-0.003324437886476517,0.05131521075963974,0.9939558506011964,0.0969920977950096,-0.17502820467638794,0.2376864920065218,2.3111686087758327,0.12813575565814972,0.07935331016778946,0.03067303448915482,0.6451133626699448,0.10009985519573092,-10.030378049612043
32.1,4.800000190734863,325.0,23.17671012878418,37.55622863769531,-79.78273881525914,40.45902743618394,283.8175101165772,-0.011586627922952177,0.05061692744493485,0.9939447045326232,0.096839040517807,-0.13654202192821144,0.2227189055943739,2.3699923075701057,0.2693979740142822,-0.04915377870202065,0.05215437337756157,0.7295209173113109,0.13903750576078894,-10.264016414880754
32.31,5.0,331.0,23.363265991210927,34.22443389892578,-79.78273816936753,40.45902707746149,284.4665694122315,-0.030258886516094208,0.04033755511045456,0.9939441680908204,0.0976339429616928,-0.1719478432116378,0.18362870837394601,2.5720871554026967,0.050205785781145096,-0.1152280792593956,0.018805522471666336,0.8420846425741911,-0.00151665810495615,-10.369194960594177
32.4,5.199999809265137,343.0,23.39957618713379,33.548534393310554,-79.78273753380317,40.45902648031718,284.8941893463135,-0.028491942211985588,0.035611938685178764,0.9940555095672609,0.0988619327545166,-0.18935243595446846,0.19585450442542265,2.6599105795303317,-0.05665959790349007,-0.08605363219976425,0.10739265382289886,0.7118933893740178,-0.1476878035068512,-10.066560620069504
32.6,5.199999809265137,344.0,23.368274688720703,33.89046096801758,-79.78273761863053,40.45902652689581,285.431140411377,-0.01174730248749256,0.039560854434967034,0.9942716360092164,0.09859494119882584,-0.055388492434376886,0.1490281612200188,2.7002374901129818,-0.19879649579524994,0.056652918457984924,-0.13480129837989807,0.6606828899681568,0.10584450703114273,-10.021341762542725
32.7,5.400000095367432,344.0,23.4033317565918,33.309982299804695,-79.78273741581559,40.459026103774015,285.8070883636475,-0.005462876986712217,0.0434679351747036,0.994281530380249,0.09739159047603607,0.013594090127584836,0.1913114146083768,2.74776462106556,-0.07949279248714447,0.07354716211557387,-0.016563106328248978,0.7057736203819513,0.14051158882677556,-10.015726096630095
32.9,5.400000095367432,345.0,23.31944465637207,34.407325744628906,-79.7827375829068,40.45902583504189,286.4524960403444,-0.004650602582842112,0.04478893801569939,0.9944083094596864,0.0955224111676216,0.07228386192698638,0.2061960169410058,2.74574767214236,-0.05062038078904152,-0.05864518880844116,-0.1091252937912941,0.6654212542623282,0.05130906153470278,-9.70452441573143
33.1,5.400000095367432,342.0,23.47219467163086,31.33794021606445,-79.78273786720412,40.459025967838436,287.00808953094486,-0.0061881262809038145,0.03520873561501503,0.9948307871818542,0.0950470045208931,0.10336685505157844,0.17341845019650667,2.8295100431810254,0.10599470138549803,-0.13217343389987946,0.041620347648859024,0.7576853471249342,-0.09308294059708716,-9.964656515121462
33.2,5.5,340.0,23.500991821289066,31.27432632446289,-79.78273789875648,40.459025672733816,287.3905968551636,-0.009522306732833384,0.03567077964544296,0.9945665597915648,0.09733692556619644,0.0970259344551628,0.16439471217645213,2.9061911474505515,0.06466485559940338,0.05514708533883095,0.11582529544830322,0.7756118139624596,-0.09660089048556984,-10.2478149497509
33.3,5.400000095367432,338.0,23.21677589416504,36.29189682006836,-79.7827380618084,40.459025735479905,287.6814217453003,-0.00969995465129614,0.04072454571723938,0.9939010739326476,0.1020207777619362,0.06440189304697104,0.1559226088303185,2.9042948832605204,-0.11927533149719236,0.0576101541519165,0.07175173610448837,0.6048038639500738,-0.25827456688508393,-9.936228522062304
33.5,5.5,337.0,23.499740600585927,31.059629440307607,-79.78273849242437,40.45902574259532,288.32914303588865,0.0009477026178501546,0.046544577926397324,0.9933038353919984,0.1057368591427803,0.14086078803805013,0.2061722883149588,2.9238402826198104,0.07422759383916855,-0.18554069101810453,-0.026977874338626855,0.9424678136408332,-0.14058766658417882,-9.768684743642806
33.6,5.400000095367432,335.0,23.49848747253418,30.526859283447266,-79.78273868472651,40.45902583432907,288.620650756836,-0.004103083163499832,0.037286076694726944,0.9938528537750244,0.10416106134653093,0.16372166146552533,0.20836973648835874,2.898886373542884,0.16518041491508484,-0.24515053629875186,-0.1114082932472229,0.8629285776615143,-0.031563781723380084,-9.611051411032678
33.8,5.400000095367432,335.0,23.51100730895996,30.16107940673828,-79.78273902145277,40.45902594940581,289.2833323364258,-0.01323893666267395,0.02776147797703743,0.9947888851165771,0.09720636904239656,0.1234873438507163,0.09870247843455512,2.9413848180696296,-0.03342760354280472,-0.058088209480047226,-0.1198187842965126,0.7341391944140196,-0.19201404701918365,-9.889451966285707
34.0,5.300000190734863,332.0,23.556081771850586,29.278430938720703,-79.78273927298062,40.45902597877134,289.9437479858399,-0.004315512254834175,0.027496108785271645,0.9954431056976318,0.09120621532201767,0.13501471204624055,0.11514917504673952,2.9796423921543638,-0.15445378422737122,-0.0031120725907385354,-0.1277540624141693,0.7454203006625176,-0.2712271910905838,-9.807772210836411
34.1,5.300000190734863,332.0,23.500991821289066,30.685895919799805,-79.78273951569066,40.45902605489801,290.2431139831544,-0.0025762447621673346,0.030441226437687874,0.9955800175666808,0.08880944550037384,0.17663099147503747,0.1196528476091143,3.0069902753577358,-0.11969784647226335,0.046429429203271866,-0.08056744188070297,0.5107312638312579,-0.029264802709221837,-9.956763943433762
34.2,5.400000095367432,329.0,23.539804458618164,29.723730087280273,-79.78273965632845,40.459026042118616,290.6045489196777,-0.0020347591489553447,0.03951945900917053,0.9952610731124878,0.08882328122854233,0.20314756064614245,0.1374389674457796,3.0253647221970925,0.05973633006215096,0.1896311491727829,0.11837585270404816,0.8221190323680639,-0.2215352135896683,-9.999594798088074
34.4,5.400000095367432,330.0,23.48847198486328,30.35192108154297,-79.7827401236801,40.459026137281256,291.27214382934574,0.0025085583329200745,0.048155128955841064,0.9944891333580016,0.09309286624193193,0.20492062027638214,0.2509217276828059,3.0116072698279357,-0.052392687648534775,-0.1233019083738327,-0.0867983028292656,0.9955617742985488,-0.006423202939331532,-9.569534425735474
34.51,5.5,332.0,23.380794525146484,31.68781852722168,-79.7827403717533,40.459026207877066,291.57270954895023,0.004863126203417778,0.04316997900605202,0.9944532513618468,0.09578953683376312,0.18546194984865896,0.2532643106458639,2.9839496309048217,-0.20395465195178986,-0.09653010219335556,-0.1177733838558197,0.9454233618825676,0.06820727722719312,-9.549225291609764
34.7,5.5,331.0,23.527284622192386,30.28830718994141,-79.78274084084771,40.45902602928986,292.24928044128416,0.005707432981580496,0.03893767669796944,0.9942644238471984,0.09944716095924376,0.2089053005111666,0.21416579258253185,2.981609198175553,0.07821391522884369,0.1155877634882927,-0.04176415875554085,0.7536785425990821,-0.03103135619312525,-9.537862982153893
34.9,5.5,331.0,23.36451911926269,32.18082809448242,-79.78274129315254,40.45902617369349,292.9079451446533,-0.0025604898110032077,0.04651804268360138,0.9938189387321472,0.1007644534111023,0.12517153588097366,0.24568159383604385,2.9478100579128235,-0.1110564023256302,0.006130855530500412,0.0038869557902216907,0.9356340265274048,-0.1896836026757956,-9.414780846834184
35.0,5.5,332.0,23.29064750671387,34.081302642822266,-79.78274145374496,40.4590262200295,293.2019762878418,-0.002900996245443821,0.04984275624155998,0.9935455322265624,0.10185614973306656,0.08798458985549648,0.2320630126154705,2.9153425400092567,-0.044888000935316086,0.10509270429611206,-0.08290890604257584,0.8040836611390114,-0.2768830931559205,-9.455863968729973
35.1,5.599999904632568,332.0,23.31944465637207,33.38949966430664,-79.78274159188669,40.4590262751084,293.4923529510498,-0.0012191482819616795,0.049349620938301086,0.9935365319252014,0.10221771150827408,0.07924047972027053,0.2436423692326535,2.880214744709104,0.03198795020580292,-0.033896394073963165,0.08150019496679306,0.8954568576067686,-0.3453145928308368,-9.457916926145554
35.31,5.599999904632568,331.0,23.28313446044922,34.03359222412109,-79.78274183081045,40.45902618838807,294.1508479003906,-0.003297567134723068,0.04054594039916992,0.9940491318702698,0.10105232894420624,0.06497048543157617,0.19619939016196328,2.846880229754253,-0.07326414436101912,-0.08957824856042862,-0.07801865041255951,0.6920092016458512,-0.264808921739459,-9.298921777009962
35.5,5.599999904632568,329.0,23.41960906982422,31.13119506835937,-79.78274185878735,40.45902611917927,294.8096804504395,-0.0017875720513984559,0.033730972558259964,0.9944496750831604,0.09964408725500107,0.06012579280483823,0.18015667264455604,2.912658968721169,0.04730629175901413,0.03380704298615456,-0.06264639645814896,0.7508773608505727,-0.31741394553333524,-9.5543714261055
35.6,5.699999809265138,329.0,23.46468162536621,30.582523345947266,-79.78274195974083,40.459026152796014,295.1026034240723,-0.006958705373108387,0.032739493995904916,0.9946563243865968,0.09766564518213272,0.05612824128875715,0.18564181390048745,2.93077179671725,0.07736697047948837,0.05338076874613762,0.027452284470200542,0.8958271325379611,-0.31453554399311545,-9.993215485811234
35.7,5.9000000953674325,329.0,23.28939437866211,33.42130661010742,-79.78274200321424,40.45902610033011,295.4723334197998,-0.007854870520532131,0.0344688855111599,0.9946281909942628,0.09728830307722093,0.0057287924808973175,0.2075754699074075,2.9837189393291568,-0.051458295434713364,-0.0047515113838017,-0.05508442595601082,0.9106518707424404,-0.25854088928550484,-9.811239609718324
35.9,5.9000000953674325,330.0,23.27061462402344,33.381546020507805,-79.78274219022909,40.45902606494632,296.06957958984384,-0.0010382739128544929,0.043885208666324615,0.9943512678146362,0.09663685411214827,0.02992972146264165,0.28767415503276633,2.9680786021107584,-0.08652601391077043,0.1460636407136917,-0.10339831560850143,1.0188476528227328,-0.0013582351058721545,-9.70466474890709
36.0,5.800000190734862,332.0,23.2856388092041,33.36564254760742,-79.78274227881182,40.459026080791716,296.4204153900147,0.0014361467910930517,0.04659192264080048,0.9942344427108764,0.096566341817379,0.05404515301323758,0.2976624371266906,2.99429741291902,0.00033228527172468597,0.028706090524792668,0.07474809139966965,0.8795935808122158,-0.2929190089926124,-9.874387199878694
36.2,5.800000190734862,330.0,23.30442047119141,33.07938003540039,-79.78274248710801,40.459025976884064,297.0684313659668,-0.0018826089799404144,0.04871385544538498,0.9939982295036316,0.09793422371149063,0.057621864139280075,0.32111642486973885,3.033023070657064,-0.041081327944993966,-0.003900811541825533,-0.031946998089551926,0.8544512113183738,-0.2145880087651313,-9.931983443498618
36.3,5.800000190734862,330.0,23.14040184020996,35.7670783996582,-79.78274258461816,40.45902596995976,297.3731303100586,0.00141762918792665,0.04940928518772125,0.9938266277313232,0.0993255451321602,0.028626309156899295,0.3102801203979545,3.022260496349023,-0.0728427916765213,-0.005221265833824873,0.0395444817841053,0.8299141748249531,-0.30026340421289205,-9.728770480155944
36.5,5.800000190734862,330.0,23.344486236572266,31.74348068237305,-79.78274250406619,40.45902591153786,298.0191340332032,0.008278223685920237,0.03671886399388313,0.9941834211349488,0.10090872645378113,0.02970486465036588,0.2947089104999193,3.0790485295124035,0.06540942937135696,-0.19488225877285004,0.034281983971595764,0.8680761739611627,-0.18255981193855408,-10.211897842884065
36.7,5.9000000953674325,328.0,23.348241806030273,32.268299102783196,-79.78274245510309,40.459025945025786,298.67002819824216,-0.004319735337048769,0.033045753836631775,0.9943013787269592,0.10126300156116486,-0.022028546601809272,0.2413780622869296,3.106392503131765,0.09632998704910277,0.004143986850976944,0.07096648961305617,0.7759786536544562,-0.12542354319244625,-10.127779798507689
36.8,5.9000000953674325,333.0,23.288143157958984,32.37166976928711,-79.78274242858222,40.45902590931994,298.98133610534666,-0.008051159791648388,0.034760765731334686,0.9942427277565002,0.10103627294301988,-0.08301792917105559,0.2538833123432201,3.0957165085264884,0.10870914161205293,0.04497892037034035,-0.11045949161052704,0.8804583840072155,-0.3237594535946846,-9.695419131517413
36.9,5.9000000953674325,335.0,23.27311897277832,33.087329864501946,-79.78274239811489,40.45902585762268,299.2926134948732,-0.011787889525294304,0.037997759878635406,0.9939852356910706,0.10203208774328232,-0.10494114110222057,0.27437001712527576,3.1002795292856784,0.09298279881477356,-0.04790491983294487,0.219615176320076,0.9687915399670601,-0.41189566802233457,-9.828083099126816
37.1,5.9000000953674325,334.0,23.32695770263672,32.23649215698242,-79.78274225222351,40.459025679754745,299.94678829956064,-0.014211589470505713,0.0475657619535923,0.9931950569152832,0.10535230487585068,-0.15018378167851704,0.30950359332512256,3.1122485522702057,-0.11249493807554244,-0.02884363196790218,0.04718804731965065,0.9920731061697008,-0.26088734038174155,-9.879374874830246
37.2,5.9000000953674325,336.0,23.27812767028809,33.04757308959961,-79.78274206295431,40.45902566781486,300.29403256225584,-0.009216126054525377,0.047795526683330536,0.9934034943580629,0.10382834821939467,-0.1498288920810353,0.3240846481519624,3.1074392970328324,-0.13119731843471527,-0.1461845189332962,0.04803984984755516,0.8761655775457621,-0.35688334554433826,-9.845865651369095
37.4,5.9000000953674325,333.0,23.48471450805664,28.554821014404297,-79.78274214655613,40.45902567711384,300.9315543060303,-0.00017008268332574517,0.04083534702658653,0.9943492412567142,0.09799075871706008,-0.07047092444279493,0.3240037794019616,3.0978187809025264,-0.040856268256902695,-0.07186655700206758,0.042351894080638885,0.980906605347991,-0.23197099518030884,-9.738311381936072
37.6,6.0,333.0,23.420860290527344,30.033849716186523,-79.7827421144191,40.45902556561627,301.550036895752,-0.004707422107458115,0.03822381421923637,0.994684100151062,0.09550076723098756,-0.043220588287125015,0.2991564596735934,3.0308160872246326,0.16745257377624512,0.07905212789773941,0.03870539367198944,1.0120682448148728,-0.4300015347450972,-9.652559040784835
37.7,6.099999904632568,333.0,23.358257293701172,30.542762756347656,-79.7827421844555,40.45902561458461,301.8951315765381,-0.005837662611156702,0.0445958636701107,0.9945473670959472,0.09408854693174362,-0.0872715831141398,0.3009215925137748,2.9841395873619487,-0.2759737968444824,0.11908046156167985,-0.2654985487461089,0.9164327935874462,0.006717692473903298,-9.21901197373867
37.8,6.199999809265138,334.0,23.231800079345703,33.15094375610352,-79.78274217858353,40.459025538301184,302.19367932128915,-0.0036774398759007454,0.05063240975141525,0.9943360686302184,0.09337349981069563,-0.07556948931071399,0.3463130246113376,2.952561857763958,-0.014711176976561546,0.10538654029369354,-0.21691425144672394,0.981746704056859,-0.09409370491281152,-9.446317219734192
38.0,6.199999809265138,336.0,23.29690742492676,31.4890251159668,-79.78274199468316,40.45902535599096,302.85381077575687,-0.0006700079538859428,0.055568628013134,0.9940798282623292,0.09336545318365096,-0.08694900495724123,0.39972548776783057,3.0045157575074715,-0.1052318587899208,0.14451901614665985,0.017313625663518906,0.9136884029209614,-0.3418082003295422,-9.874221138954162
38.2,6.099999904632568,339.0,23.35074615478516,30.80517196655273,-79.78274197072584,40.45902515912357,303.5000929718018,0.0024710949510335922,0.05226891115307808,0.994261622428894,0.09330464154481888,-0.04928708728154264,0.3881298214065977,3.021014464104366,-0.013362834230065346,-0.05468389019370079,-0.12559537589550018,0.9393608225136996,-0.1812682899087668,-9.754643824696544
38.3,6.099999904632568,340.0,23.320695877075195,31.878662109375,-79.78274193901608,40.459025105004415,303.80569599914554,0.0013579775113612411,0.05119955167174338,0.9942674040794371,0.0938577651977539,-0.06270234341617152,0.35467255243432383,3.044734178334839,-0.10646811872720716,-0.002775481669232249,0.13549378514289856,0.6390879531204701,-0.3296568456664681,-9.944179565906524
38.4,6.099999904632568,339.0,23.344486236572266,31.425411224365234,-79.78274182580424,40.45902501486594,304.1443858032227,0.002076595788821578,0.05159856006503105,0.994238555431366,0.09393127262592316,-0.05526634822024427,0.34834188114125586,3.04006360425183,0.009195774793624878,0.1476612687110901,-0.01759304478764534,0.7438482036441565,-0.01876652900129557,-9.71461378633976
38.6,6.300000190734862,340.0,23.152921676635746,34.288047790527344,-79.7827417710507,40.45902493297008,304.7522807006836,0.006247329525649548,0.048981595784425735,0.9941369891166688,0.09619505703449248,-0.04732041143691111,0.3491724827890358,2.989177099927907,-0.1273289918899536,-0.06458764523267746,-0.012454087845981121,0.9892260237783194,-0.11297681277617813,-9.558906526565552
38.7,6.4000000953674325,343.0,23.37954330444336,30.44734191894531,-79.78274170505918,40.45902494303771,305.08716915893564,0.007604533806443214,0.044914070516824715,0.9941913485527042,0.0975123718380928,-0.025148135866939952,0.3676080548162488,2.9961625122482296,0.0025233691558241844,-0.16225089132785794,-0.042684271931648254,1.1290711762011052,0.01363643780350685,-9.632950403094293
38.9,6.4000000953674325,344.0,23.31318473815918,31.13914680480957,-79.78274172176717,40.45902487555731,305.72794293212894,-0.004423461388796568,0.04943889006972313,0.9937874078750608,0.09961320459842682,0.0009321694668155463,0.3740230753552533,3.0161756586922746,0.2916367053985596,0.08335886895656586,0.1823010146617889,1.3235476684570309,-0.10389289830811324,-9.835285699367523
39.0,6.5,346.0,23.507251739501953,27.33024787902832,-79.7827417617185,40.459024781307185,306.03349255371086,-0.010941157117486,0.05414662882685661,0.993515968322754,0.09937044233083724,-0.04015054894521574,0.4207285978514492,3.041335972035742,-0.03777260705828667,-0.04383938759565354,-0.01342597883194685,1.18005699634552,-0.1802411716617644,-9.95775563120842
39.2,6.599999904632568,350.0,23.33572196960449,31.616252899169922,-79.78274194264776,40.45902454368403,306.66427944946287,0.003568742657080293,0.06729213893413544,0.9926589727401732,0.10043561458587646,-0.024433393175555814,0.5057095695458784,2.98908443814493,-0.264424741268158,0.16577035188674927,-0.15124915540218353,1.3269462163746355,0.2895240973122418,-9.495185324549675
39.3,6.599999904632568,352.0,23.39832305908203,30.45529365539551,-79.78274204521472,40.45902443653429,306.9663920288086,0.01323725190013647,0.07199864089488983,0.9920851588249208,0.10202014446258544,0.05733198803949133,0.5420910911092953,2.973087815631692,-0.045739106833934784,-0.0372341088950634,0.013191020116209984,1.4077250620722772,0.1866076383367181,-9.584330220222474
39.5,6.599999904632568,353.0,23.447153091430664,28.610483169555664,-79.78274213013205,40.45902416696481,307.5944590454102,0.020512696355581284,0.07127028703689575,0.9920204877853394,0.10195689648389816,0.0851847067845246,0.5578976277801566,2.9893003967874265,-0.11269164830446245,0.02454428374767304,-0.16623127460479736,1.2806883086264134,0.20997815530747171,-9.963650794029236
39.6,6.800000190734862,349.0,23.430877685546875,29.008071899414066,-79.7827421691642,40.459024083488714,307.89827297973636,0.0241528544574976,0.06819313764572144,0.9920989871025084,0.10249929875135423,0.07351238723351564,0.5258373421196413,2.9868062433392835,-0.08021969348192215,-0.19555208086967468,0.05077390372753143,1.216473528519273,0.02244058127515018,-9.772784811258315
39.8,6.9000000953674325,349.0,23.65374183654785,25.159412384033203,-79.78274224249219,40.459023912761936,308.53136776733396,0.011501695960760115,0.06472067534923552,0.9926130771636964,0.10197209566831587,0.06312603313509962,0.4949837059488363,2.9837283729748982,0.2283569127321244,-0.0685037299990654,-0.009537638165056705,1.1670057917386294,-0.17591573042795064,-9.769383485913275
40.0,7.099999904632568,349.0,23.503496170043945,27.29048728942871,-79.78274238343356,40.459023802705055,309.1755213623046,-0.004102935083210468,0.06598757207393646,0.993294894695282,0.09483736753463744,-0.050069885513832735,0.4618199180143084,2.9613505923828365,0.0415324829518795,0.04130227118730545,-0.1267739236354828,1.3360472613573076,-0.13472319250926376,-9.523404572010039
40.1,7.199999809265138,350.0,23.57736778259277,26.23290252685547,-79.78274239624845,40.459023733972906,309.4753031616211,-0.003997237887233496,0.0703488141298294,0.9934996366500854,0.08940646797418594,-0.06620650486240243,0.4696212349146858,2.962123063195873,-0.1491466760635376,-0.005161281675100327,-0.0967882201075554,1.2796285007894042,-0.01934096312150359,-9.69847605586052
40.2,7.199999809265138,354.0,23.582374572753906,26.28061294555664,-79.78274248369556,40.459023695078656,309.7991328125001,0.003442006185650825,0.07574465125799179,0.9932279586791992,0.08802948147058487,-0.03990053589472714,0.4929053544864868,2.9437540290072968,-0.27813369035720825,0.14872722327709198,-0.05799403414130212,1.4337632980942727,-0.07660914139822125,-9.516508950591087
40.4,7.300000190734862,352.0,23.69380760192871,24.03026008605957,-79.78274249358431,40.4590236254426,310.42085217285165,0.01645575277507305,0.07844628393650055,0.9926199316978456,0.09100019931793213,0.08033606787610237,0.5125257332146184,2.835253063908878,-0.016551289707422256,0.06136784702539444,-0.05493847280740738,1.5817892168462278,0.2430990871042013,-9.014302123188973
40.5,7.300000190734862,350.0,23.5147647857666,27.34615135192871,-79.78274253777731,40.45902358422307,310.7039866333008,0.01905417628586293,0.08151568472385406,0.991972804069519,0.09477420896291733,0.06715660362387538,0.4866131172349967,2.7403885967486166,-0.035869430750608444,0.015446048229932785,0.10843440890312196,1.3469860862195493,0.015847745127975942,-8.816603084206582
40.7,7.300000190734862,349.0,23.53104019165039,27.425668716430664,-79.78274256827558,40.459023491158135,311.3063464050293,0.015266621485352516,0.07582716643810272,0.9921465516090392,0.09829733520746232,0.015608967268760647,0.4994685756092612,2.76573162987589,0.052576497197151184,-0.06124360114336014,0.12443283200263976,1.5801120892167089,-0.17253340853378174,-9.71269356071949
40.9,7.400000095367432,347.0,23.69881629943848,24.53122329711914,-79.7827426927985,40.45902344238304,311.9098887329102,0.004462046083062886,0.07644960284233092,0.9921658039093018,0.09870515763759613,-0.0668536238853232,0.4710574541504449,2.8222926627299327,0.08975786715745926,0.1555166244506836,-0.005267500877380371,1.5016718374192717,-0.02335751605220139,-9.921908690929412
41.01,7.400000095367432,347.0,23.55858612060547,26.94061088562012,-79.78274259203894,40.45902339443243,312.19410275268564,0.002660953672602773,0.07973489165306091,0.991957664489746,0.09826110303401947,-0.12488796467486535,0.45430133325509,2.7921586763774293,-0.0029206338804215197,0.22504910826683044,-0.11504364758729935,1.5104644417762758,-0.187966988068074,-9.576016649007798
41.1,7.400000095367432,345.0,23.5786190032959,25.62856674194336,-79.78274245711852,40.45902335046464,312.47582577514646,0.0030148846562951803,0.08144868910312653,0.9918502569198608,0.09792982041835784,-0.1719000857974562,0.4558544062933161,2.773544694802389,-0.10219623148441316,0.05487418919801712,0.07748367637395859,1.5236487436294557,-0.4356612009555101,-9.617448264956474
41.3,7.400000095367432,345.0,23.58487892150879,26.01820373535156,-79.78274220786469,40.45902340561869,313.06608914184574,-0.003984028473496437,0.07423629611730576,0.9925748705863952,0.0962723270058632,-0.1835559165411048,0.4134444840441776,2.8326732282422835,0.06029311195015907,-0.022353772073984143,-0.17204268276691434,1.3852721925079825,-0.07009426508098841,-9.91865179181099
41.4,7.300000190734862,348.0,23.56860160827637,26.638442993164066,-79.78274210496603,40.459023437002465,313.37488125610355,-0.009515448473393915,0.06888283044099808,0.99297034740448,0.09578435122966766,-0.19609966864511988,0.3988999191797104,2.8604095892936034,0.12746977806091309,-0.07407289743423462,-0.015452072955667973,1.2681666424870492,-0.29577403994277124,-10.063507204055787
41.6,7.400000095367432,349.0,23.54857063293457,26.535070419311523,-79.78274179185979,40.45902340665787,313.9552073364258,-0.0038462581578642134,0.05857795476913453,0.9933986663818359,0.09855475276708604,-0.19713618447409306,0.35905578775241626,2.886613581659143,-0.04780161753296852,0.013422464951872827,-0.0984293818473816,1.1255062749981881,0.07622727253474296,-9.782068435549736
41.8,7.400000095367432,349.0,23.314435958862305,30.50300407409668,-79.78274151310556,40.459023653850544,314.5298418884277,-0.006245046854019165,0.0632629245519638,0.9932222962379456,0.09730583429336548,-0.11695843968548812,0.3334753549491973,2.87969654942348,-0.02896469458937645,0.1934433132410049,-0.08335539698600769,1.1483985628187656,0.008225872116163373,-9.802708522081378
41.9,7.599999904632567,350.0,23.54606628417969,26.46350288391113,-79.78274134555058,40.45902372476626,314.82780026245115,-0.002351372968405485,0.06432299315929413,0.99323308467865,0.09667065739631653,-0.1108969071348803,0.3701943228511546,2.904129059351274,-0.07816675305366516,-0.0446121022105217,0.07650966942310332,1.6698849758505825,0.04068595890887082,-10.183509610891342
42.0,7.699999809265138,351.0,23.344486236572266,29.683971405029297,-79.7827413191478,40.459023698282095,315.1231989746093,0.0049312557093799106,0.0642096996307373,0.9932085275650024,0.09689990431070328,-0.06392609226592053,0.416152655967276,2.9432365720469127,-0.14887568354606628,0.18368516862392426,0.13378584384918213,1.7077834117412567,0.2217597832158208,-10.094752385616305
42.2,7.699999809265138,351.0,23.56735038757324,26.527118682861328,-79.78274153227309,40.45902366492515,315.7201075439453,0.017739865928888314,0.07498489320278168,0.99217689037323,0.09822288900613783,0.06441955216764501,0.4814138542775889,2.9050855449453445,-0.006468416657298803,0.15636469423770905,0.20762936770915985,1.436661324352026,-0.07667512357234955,-9.49453160583973
42.41,7.900000095367432,354.0,23.314435958862305,31.727577209472656,-79.782741553605,40.45902354641523,316.3040652160645,0.021784329786896702,0.08662748336791992,0.9910700917243958,0.09900176525115968,0.09498168892131567,0.5683239006622854,2.766486681594383,-0.12048738449811935,0.08827060461044313,-0.13554443418979645,1.7569717977941035,0.5512564882636071,-9.176216202378273
42.5,7.900000095367432,356.0,23.25934600830078,31.62420463562012,-79.78274161262833,40.45902346549629,316.58530758667,0.02487778291106224,0.08516068011522293,0.9911369085311892,0.09887579828500748,0.09248646922432023,0.5827066244309382,2.7440992208192627,-0.14196039736270905,-0.11848247796297072,-0.038210391998291016,1.4625753070414067,0.43288070373237136,-9.400212509036065
42.6,8.100000381469728,356.0,23.35325050354004,29.930477142333984,-79.78274168034292,40.45902339088546,316.8670000915528,0.026459258049726486,0.07971146702766417,0.9915713667869568,0.0986521542072296,0.13365722573871516,0.5762740466379583,2.7693216540086887,-0.05067012831568718,-0.16358354687690735,-0.10489648580551147,1.7218882115185257,0.5519390045106412,-9.764577074646953
42.8,8.199999809265138,355.0,23.417104721069336,29.04783058166504,-79.78274181343627,40.459023359171034,317.4495615844727,0.025476092472672462,0.07518500834703445,0.9920737147331238,0.09740699082612993,0.15271745460443886,0.5193454598761275,2.805893074134528,0.08977362513542175,0.005034156143665314,0.08283405005931854,1.5443958342075348,-0.10226736322045328,-9.836486717462538
42.9,8.399999618530272,356.0,23.36577033996582,29.47722625732422,-79.78274198116553,40.45902328561441,317.7452616577149,0.025092422962188717,0.0751258134841919,0.9920803904533386,0.09748318046331406,0.13924185365569194,0.5311201153656622,2.799867801869806,-0.17629672586917874,0.013540397398173807,-0.12958616018295288,1.7844254985451695,0.6486218382418156,-9.739672613739968
43.1,8.5,356.0,23.499740600585927,27.640365600585927,-79.78274211125967,40.45902310948561,318.3121600036621,0.028548259288072583,0.07861911505460739,0.991531252861023,0.09934719651937483,0.1199063422529984,0.5674534751655486,2.7272854955374504,-0.050328969955444336,-0.02764696255326271,0.10186803340911864,1.6841296702623367,0.06653612472116947,-9.139881019592288
43.2,8.800000190734863,355.0,23.32695770263672,30.28830718994141,-79.78274232040755,40.45902314215763,318.6058421020508,0.027334606274962425,0.08216602355241777,0.9912270307540894,0.09985271096229552,0.12937084094854093,0.5796679420415278,2.61483996498204,0.05196124315261842,0.21437183022499084,-0.009780497290194036,1.5399640832841397,0.2020631266571581,-8.717609723210336
43.41,8.899999618530273,357.0,23.20050048828125,31.767335891723643,-79.78274250563184,40.4590230173804,319.16132305908206,0.02009106241166592,0.0953896790742874,0.9903638958930968,0.09836920350790024,0.0861459540011386,0.647865659167421,2.4703981999790137,0.17697076499462128,0.07472106069326401,0.34633082151412964,2.1478469082713127,-0.12603883473202587,-8.910826286673545
43.5,8.899999618530273,356.0,23.417104721069336,28.57072448730469,-79.78274255396809,40.459022845631644,319.4162211303711,0.0251412782818079,0.0917343720793724,0.990586280822754,0.09844542294740677,0.04298067116159862,0.6955111449463336,2.471094440292502,-0.2402845472097397,-0.2490006387233734,0.02412499114871025,1.8380178612470628,0.2292957112938165,-9.485821593403816
43.71,9.0,355.0,23.27812767028809,30.240596771240234,-79.78274267308845,40.4590226051679,319.9785761718751,0.02651488408446312,0.1006690189242363,0.9893325567245485,0.10190163552761078,0.09399225574726697,0.6581094923381762,2.4888469267759668,0.14147914946079254,0.12029698491096495,-0.12253458797931673,1.8379795619845392,0.5998249963670971,-9.344364582896233
43.8,9.0,354.0,23.265605926513672,30.789268493652344,-79.78274267772645,40.45902247585391,320.2371973876953,0.020525665953755386,0.10049016028642654,0.9892645478248596,0.10409712791442872,0.05472983728880454,0.6608205776465883,2.5221895705814563,0.13230884075164795,-0.09856457263231276,-0.2631182372570038,1.9073955135047442,0.16378025460988285,-9.905197348594664
44.0,9.0,355.0,23.748897552490234,22.77388000488281,-79.7827426658279,40.459022287738,320.8049502258301,0.009363852441310884,0.09502243250608444,0.9903289675712584,0.10065604001283646,-0.017332727322176757,0.6113929463467564,2.698652199603812,0.11438408493995668,-0.17140322923660278,0.04913341999053955,1.7143046651780611,-0.038501302096992734,-10.20780946969986
44.2,9.0,353.0,23.63996887207031,24.58688545227051,-79.78274265263353,40.45902220913575,321.35450314331064,0.013255207799375055,0.08975465595722197,0.9909294247627258,0.0991332083940506,-0.036736683893083946,0.5500619399556193,2.7371171317169405,-0.02996882237493992,0.004150994122028351,-0.10762112587690352,1.7928394956886768,-0.15292634228244426,-10.104199147224426
44.31,9.100000381469727,352.0,23.61868476867676,24.817485809326172,-79.78274260119404,40.45902217623827,321.6342921142578,0.012362271547317505,0.08866307884454727,0.9911945462226868,0.09756791591644287,-0.02024452743542081,0.5227358341240274,2.755299662921104,0.11163832992315292,-0.033770062029361725,0.07508303970098495,1.6128969888389109,0.042671152576804164,-9.841486086845398
44.4,9.0,351.0,23.57235908508301,25.10375022888184,-79.7827426230488,40.45902226565962,321.9035792236328,0.008808550424873829,0.08790533989667892,0.9914687275886536,0.09583808481693268,-0.03194610855386762,0.4850979240809729,2.7196498518469574,-0.014043615199625492,-0.15179213881492615,0.26349252462387085,1.4600270904600616,-0.20979208594188087,-9.67075557589531
44.6,8.899999618530273,351.0,23.230548858642567,32.093360900878906,-79.78274251617273,40.459022312279046,322.45384930419925,6.104484054958448e-05,0.08644719421863556,0.9916874170303344,0.09530480206012726,-0.039260920070827925,0.4016210700013221,2.6894622219734496,0.17801585793495178,-0.006031003315001726,0.02864340506494045,1.341027481108904,-0.014409058273304257,-9.474058164954188
44.7,8.699999809265138,351.0,23.32946014404297,29.64421272277832,-79.78274252416973,40.459022389472814,322.73057507324216,-0.0005112888757139443,0.08510429412126541,0.991825520992279,0.0950743407011032,-0.09285189057183367,0.3906357666942567,2.6941517024960744,-0.10751356184482573,-0.011197736486792564,-0.21887677907943728,1.392583258599043,0.05491295635700226,-9.779918414354324
44.9,8.699999809265138,351.0,23.70132064819336,23.12375831604004,-79.78274250077743,40.459022808712696,323.2749323730468,0.002682122401893139,0.07008296251296997,0.9931820034980774,0.09311745315790176,-0.03609597402539439,0.3566075194147625,2.8482353023390945,-0.1232302188873291,-0.23169681429862976,0.18314309418201447,1.6773778903484344,-0.003606178890913725,-10.536419481039047
45.1,8.5,351.0,23.46343040466309,27.5369930267334,-79.78274253245347,40.459022932680476,323.84948681640634,0.014422203414142132,0.07280335575342177,0.99253249168396,0.09680426120758057,0.029523592743088214,0.3468062476898345,2.8243789883840735,-0.2327634990215301,0.08416454493999481,0.14300636947155,1.6152705198526385,0.07557734537869693,-9.92315882563591
45.2,8.5,348.0,23.50850486755371,26.84518814086914,-79.78274284952306,40.45902301951031,324.1205553894044,0.01902519538998604,0.07785019278526306,0.9917958974838256,0.09959106147289276,0.07388754297359876,0.3832362013847103,2.744026247685301,-0.10731132328510284,0.005904950201511383,0.23361869156360626,1.5845087568461895,-0.08213057577610018,-9.332744411230088
45.3,8.5,348.0,23.19423866271973,32.093360900878906,-79.7827428808843,40.459023042101826,324.396903503418,0.01966050639748573,0.08158894628286363,0.9912248849868774,0.10212747752666472,0.08196934106550935,0.4237393611865732,2.718361244902888,0.06341800093650818,0.06360204517841339,0.199455127120018,1.6360918700695042,-0.15062023697420954,-9.421114550828934
45.5,8.399999618530272,348.0,23.417104721069336,28.92855262756348,-79.78274298610756,40.459023275686334,324.9691729431152,0.015952803194522858,0.08612152189016342,0.9909412860870358,0.1018042266368866,0.04070203685801002,0.44264361348780995,2.804066061204752,0.18026544153690333,0.033312011510133736,0.0287777092307806,1.901255790889264,-0.3197780479118228,-10.163941318988801
45.6,8.399999618530272,347.0,23.22929763793945,31.27432632446289,-79.78274293652608,40.45902330927088,325.25475262451175,0.011836257763206959,0.08806860446929933,0.9909836649894714,0.1002758964896202,-0.013840123982688787,0.44830816749324975,2.836476573139261,0.010122436098754406,-0.043579932302236564,0.08529072254896164,1.7153232501447202,-0.17773317296057942,-10.001380537748338
45.8,8.300000190734862,349.0,23.2856388092041,29.62035751342773,-79.782742925468,40.4590235490497,325.8392481689453,0.004861196968704462,0.08470311760902405,0.9915814995765686,0.09781555086374284,-0.029104115702536338,0.4527430613168834,2.8862682899831578,0.2351759970188141,-0.061741497367620475,-0.018759192898869514,1.730594715625048,-0.2597216248512268,-10.045203080177307
46.0,8.300000190734862,349.0,23.205507278442386,30.526859283447266,-79.78274281548028,40.459023811175264,326.4250635986328,0.0004650092450901866,0.07925155758857727,0.992559850215912,0.09243426471948624,-0.05314535814981359,0.3774121172738302,2.9549235644941336,-0.0965150073170662,-0.06296786665916443,-0.3256833255290985,1.6625284476578237,-0.10653901007026434,-10.16298939228058
46.1,8.300000190734862,350.0,23.20676040649414,31.886613845825195,-79.78274277842135,40.45902390217687,326.72509335327146,-0.00016243442951235915,0.07838814705610275,0.9928216338157654,0.09033628553152084,-0.04518576532984395,0.3764870215386536,2.9982793381849917,-0.019316542893648148,-0.08261365443468094,-0.2184739708900452,1.770950882434845,0.17652314649894835,-10.118265209198
46.2,8.300000190734862,351.0,23.30692481994629,30.48710060119629,-79.78274277178481,40.45902417044736,327.0263895874024,0.003378693014383316,0.07717366516590117,0.9928759336471558,0.0907210260629654,-0.05978744977983254,0.3485490650390549,3.0149131435180734,-0.1560356467962265,-0.06691321730613707,0.13095197081565854,1.4565306016802788,0.0953970584180206,-10.045178521871568
46.4,8.300000190734862,349.0,23.28689193725586,29.81915283203125,-79.78274298778848,40.45902443876295,327.6297869567872,0.010968916118144987,0.07463926821947098,0.9925904273986816,0.09525216370821,0.04867819127882042,0.3429531151786795,3.0115555866077863,0.11070386320352554,0.025438271462917328,-0.1722276210784912,1.5707230688631535,0.11584386706352234,-9.77920914709568
46.6,8.199999809265138,347.0,23.11661148071289,33.27022171020508,-79.78274297581405,40.45902466912256,328.23800991821287,0.009607887826859951,0.0721534714102745,0.9923775792121888,0.09944061934947968,0.03610750149905243,0.3220905685423471,3.043884695626068,0.02554682269692421,-0.05240929126739502,0.17354536056518555,1.3682600109279155,0.1689105285331607,-9.783892766833306
