time,wind_speed,wind_angle,battery_voltage,battery_current,position_x,position_y,position_z,orientation_x,orientation_y,orientation_z,orientation_w,velocity_x,velocity_y,velocity_z,angular_x,angular_y,angular_z,linear_acceleration_x,linear_acceleration_y,linear_acceleration_z
0.0,0.6000000238418579,195.0,23.151670455932607,-0.015903547406196594,-79.7827813526267,40.45904564584813,273.55967122554785,0.00864353496581316,-0.005295231472700834,0.98984032869339,0.14182183146476746,-0.028198446550469637,0.001738471553304837,0.028391428649615393,-0.004046558402478695,-0.003987467382103205,-0.00859178975224495,-0.08396124763414264,0.17918496351689106,-9.803932929039002
0.11,0.6000000238418579,191.0,23.155426025390625,-0.015903547406196594,-79.7827814051027,40.459045750907705,273.55148738861084,0.008631212636828424,-0.005298941396176815,0.9898409247398376,0.1418183445930481,-0.016675574335609754,0.0007731956487827468,0.022130977351880545,0.006026108283549547,0.002202943665906787,0.00023806339595466847,-0.0801388039905578,0.1703081044368446,-9.805815732479095
0.21,0.6000000238418579,194.0,23.15417289733887,-0.015903547406196594,-79.78278138542288,40.45904574543052,273.55367201805115,0.008636987768113613,-0.005315166898071766,0.9898393154144288,0.14182856678962708,-0.018141685126494,0.0010123645434218817,0.02216034137950501,-6.316031794995071e-05,-0.0014986904570832849,0.002046668669208884,-0.08071584194898605,0.15946785997599364,-9.80701558113098
0.4,0.6000000238418579,194.0,23.16043472290039,0.007951773703098297,-79.78278134138661,40.4590458278202,273.5511651659012,0.00862871203571558,-0.005324232392013073,0.9898385405540466,0.14183394610881805,-0.01866047874388568,0.0006196490952994988,0.021265880493795068,0.006039520725607872,0.0014892781618982553,0.0009819926926866174,-0.08457565295509993,0.17786599611863496,-9.804517065882685
0.5,0.6000000238418579,194.0,23.16043472290039,-0.007951773703098297,-79.78278131946158,40.45904582203383,273.55326026916504,0.008639676496386528,-0.005347287282347679,0.9898337125778198,0.14186646044254306,-0.019956159589640428,0.0008725153094916961,0.02131324822089336,0.0004719198332168162,-0.002405735664069653,0.004680690821260214,-0.08053490716964007,0.15934768142178654,-9.807423716783523
0.62,0.5,191.0,23.151670455932607,0.007951773703098297,-79.782781302164,40.4590459060349,273.54822975635534,0.008625085465610027,-0.005341155920177697,0.9898326396942142,0.1418747752904892,-0.017233845510444292,0.0018010731573276024,0.017708911105302396,0.004685394000262022,-0.0003649567952379584,0.0026394196320325136,-0.08408029329031706,0.17742867920547725,-9.804969640374184
0.81,0.5,190.0,23.16043472290039,-0.007951773703098297,-79.78278128188266,40.45904589952497,273.5499699735641,0.008641011081635952,-0.005358342081308365,0.9898319840431212,0.14187780022621155,-0.01856189568894034,0.002000782808700328,0.01770999727877387,0.003512488678097725,-0.0007653195643797518,0.004475963767617941,-0.08131979537196457,0.15984116815030575,-9.806765320301057
0.9,0.5,191.0,23.16043472290039,0.0,-79.78278127037166,40.45904598590606,273.54462749004364,0.008626329712569714,-0.005370193626731634,0.9898280501365662,0.14190594851970673,-0.016137363173286498,0.002851778339921885,0.014970137451090866,0.00468743359670043,0.001854081754572689,0.0027849767357110977,-0.08274540136568248,0.1773874015174806,-9.804543963074684
1.1,0.5,193.0,23.159181594848643,-0.015903547406196594,-79.78278125829567,40.459046073560366,273.5372174406052,0.008639737963676453,-0.005382567644119264,0.9898298382759094,0.14189203083515167,-0.014530799685929546,0.003499870264968887,0.011406489587242524,0.002452183282002807,-0.001350039499811828,0.004303428344428539,-0.08116182918660343,0.1606858715415001,-9.806371802687645
1.3,0.5,193.0,23.155426025390625,-0.007951773703098297,-79.78278122471559,40.459046059090156,273.539432349205,0.00864565372467041,-0.005384605377912521,0.9898279905319214,0.14190459251403809,-0.016676790271175992,0.003710085021419811,0.011313264959939758,0.006676703225821257,0.0030164266936481,0.002574201673269272,-0.0829126774147153,0.1793672321923077,-9.804756801724434
1.4,0.5,191.0,23.15667724609375,0.007951773703098297,-79.78278116673866,40.45904618514274,273.53149837493896,0.008663352578878403,-0.005385280586779118,0.9898310899734496,0.14188167452812195,-0.018296705759565483,-0.0026879177978931987,0.007713198800922758,0.003066506935283541,-5.3879273764323436e-05,0.00358583009801805,-0.0810336107108742,0.1602485729008913,-9.807582761049273
1.51,0.5,190.0,23.15417289733887,0.0,-79.78278114509928,40.45904618289906,273.53224474430084,0.008657027967274189,-0.0053877797909080965,0.9898282289505004,0.14190201461315155,-0.020124703923152173,-0.002518051302303141,0.00789631913922053,-0.007392324507236482,-0.0038171201013028617,-0.006721511483192444,-0.08273356075398625,0.180358481425792,-9.80562452852726
1.71,0.5,191.0,23.15793037414551,-0.015903547406196594,-79.7827810728658,40.45904624809175,273.5246030712128,0.008666932582855225,-0.005411450285464525,0.9898281693458556,0.14190089702606198,-0.02342588355759857,0.0009022100265906746,0.005261895096195798,-0.002350664231926203,-0.00026501546381041413,0.004856123588979243,-0.08274083322845399,0.160818402338773,-9.807223157286645
1.81,0.5,191.0,23.14540863037109,0.0,-79.78278106485473,40.45904635471009,273.51648611068725,0.008656960912048817,-0.00543912360444665,0.9898259043693542,0.1419159173965454,-0.016525023096915788,-0.0005788171527650815,0.002916812836467065,0.0067728478461503965,0.004237019922584295,0.0037637685891240853,-0.08450641826726496,0.18025577142834665,-9.805806961655616
2.0,0.5,188.0,23.14916610717773,0.0,-79.78278104502523,40.45904635062636,273.51675564289087,0.008670469745993614,-0.005438545718789101,0.9898241758346558,0.1419273018836975,-0.01856480534104199,-8.74737595525166e-06,0.0030406679925280363,-0.002877440070733428,-0.0014252194669097662,0.003153894329443574,-0.08208864941261709,0.1624268800020218,-9.807567558288577
2.21,0.5,187.0,23.151670455932607,-0.007951773703098297,-79.78278102080054,40.45904643438588,273.5086470270157,0.008656018413603306,-0.005444341339170933,0.9898210763931274,0.14195001125335693,-0.016019793903884878,0.001896262847541405,0.00166271605099728,0.005108507815748453,0.004878462292253971,0.002922778716310859,-0.08326531933620572,0.18098093580454588,-9.805078398585321
2.3,0.5,187.0,23.159181594848643,-0.007951773703098297,-79.78278100189759,40.459046428143246,273.5087927007675,0.008665435016155243,-0.005445139482617378,0.9898219704627992,0.1419432908296585,-0.018342601885548225,0.0023948232875931033,0.0018703162392175485,-0.003260764991864562,-0.002839731518179179,0.0014965063892304895,-0.0834305214509368,0.16499980106949808,-9.806873493790626
2.5,0.5,191.0,23.14415740966797,0.2385532110929489,-79.78278100472255,40.45904649456837,273.5029367828369,0.008641842752695084,-0.005464144516736269,0.9898198246955872,0.14195869863033295,-0.013702592449742187,0.007526069654026526,0.0036788856638262273,0.006345908623188734,0.0006003936287015674,0.007568825501948595,-0.08310851345770061,0.1798377868719399,-9.804293117523194
2.62,0.5,192.0,23.09282302856445,1.0337306261062622,-79.78278097751407,40.45904660931553,273.49397808551794,0.008633476682007313,-0.005457274150103332,0.9898120760917664,0.1420137733221054,-0.014228570616837187,0.004521765234832638,0.0025560721910776463,-0.008518176153302194,-0.0058883135206997395,0.01355840265750885,-0.08054754263721407,0.18001855719834567,-9.805157920718193
2.8,0.4000000059604645,193.0,23.13163757324219,0.2862638533115387,-79.78278094556606,40.459046593850154,273.4943735027313,0.008629665710031986,-0.005466118454933167,0.9898111820220948,0.14201980829238892,-0.01640416810440956,0.0046378394843320965,0.002266272009509245,0.003801266197115183,0.0017520814435556527,7.170520257204771e-05,-0.07721979171037674,0.15549460384994745,-9.807092764377595
2.9,0.4000000059604645,194.0,23.139148712158203,0.3021674156188965,-79.78278095163903,40.45904669617543,273.48480504989624,0.008618856780230999,-0.005488017108291388,0.9898251891136168,0.14192163944244385,-0.013727579201793318,0.005841833291080612,0.0010630725243804962,-0.008020428009331226,-0.0060589630156755465,0.006266397889703511,-0.08897723590023816,0.18442936778068544,-9.803572740554811
3.1,0.4000000059604645,192.0,23.13163757324219,0.2862638533115387,-79.78278091458397,40.459046797023504,273.4765961790085,0.008618086576461792,-0.00549402041360736,0.9898148775100708,0.1419936865568161,-0.01453725787085431,0.005330353827396644,0.0021483717777288614,0.003020712407305837,0.0010913006262853742,0.0102823618799448,-0.08301430019550025,0.16713774411007762,-9.80516552209854
3.2,0.4000000059604645,195.0,23.14040184020996,0.2862638533115387,-79.78278089880568,40.45904678835471,273.47677344322204,0.008607067167758942,-0.005491654388606547,0.9898250102996826,0.1419232189655304,-0.016552984729229874,0.0058004611083389114,0.002292557094452567,-0.008190138265490532,0.0019406839273869991,-0.003979019820690155,-0.08569316550157964,0.17507124630734325,-9.804801240563393
3.4,0.4000000059604645,195.0,23.12287330627441,0.3419262766838074,-79.78278085597282,40.45904687210562,273.4700047397613,0.008626424707472323,-0.005491467192769051,0.989820957183838,0.14195075631141665,-0.01794153875687166,0.007526579974504831,0.005011379774578224,0.00046068569645285606,-0.0040754186920821675,0.01217594463378191,-0.08078528677113354,0.17150318395346406,-9.805076644420623
3.5,0.4000000059604645,195.0,23.129133224487305,0.3816851377487183,-79.78278082200555,40.459046956228,273.4632305526733,0.008649388328194618,-0.005503791850060225,0.9898178577423096,0.1419706642627716,-0.018764197687934404,0.008610834366926307,0.007902901761736823,0.0017511878395453095,0.002253429498523473,0.00748969428241253,-0.08217571810819209,0.1774119963683188,-9.806692814826963
3.7,0.4000000059604645,192.0,21.62166404724121,18.527633666992188,-79.7827808025,40.45904694352376,273.4639752531052,0.008648788556456566,-0.005501847248524427,0.9898181557655334,0.14196880161762238,-0.02010912561371836,0.009407807799625679,0.008184262212308316,-0.01160718873143196,0.003759794868528843,0.010649707168340685,-0.07306973953731359,0.17096883980557326,-9.821067609786988
3.8,0.4000000059604645,194.0,23.06152153015137,1.439271092414856,-79.78278078142421,40.459046930078784,273.46473199367523,0.008635366335511208,-0.005516013130545614,0.9898195266723632,0.1419588327407837,-0.0225196606711494,0.00752650525190729,0.008028058942860988,0.0042806263081729395,0.01210194919258356,0.0063541526906192285,-0.08799204401671888,0.18850743524730207,-9.804625239372251
4.0,0.4000000059604645,196.0,23.125375747680664,0.2306014448404312,-79.78278075258753,40.45904703806911,273.45476669311523,0.008633981458842754,-0.005524382460862397,0.9898256063461304,0.14191661775112152,-0.02462458387886728,0.006871044723580192,0.0070303077526267365,-0.022211674600839608,-0.014984180219471456,0.003098455024883151,-0.07696094278246164,0.10187037382274866,-9.802454752922056
4.1,0.4000000059604645,196.0,22.40419578552246,9.017312049865724,-79.78278075729051,40.459047184512464,273.44295162200933,0.008615938015282154,-0.005476285237818956,0.9898180961608888,0.14197176694869995,-0.019279856785328738,0.00253290757146038,0.008082461978199609,-0.0010985552798956633,-0.005178796127438545,0.002539942972362041,-0.09011681254953148,0.18478672401979568,-9.806637266278267
4.3,0.4000000059604645,194.0,23.121620178222656,0.3339745104312897,-79.78278071412667,40.45904716762036,273.4443261051178,0.00854201428592205,-0.005545071791857481,0.9898279309272766,0.14190499484539032,-0.02302970108978429,0.0038577727216106564,0.006814570397155293,0.005878782831132412,0.01569291390478611,-0.005883205216377974,-0.05586537185590715,0.18037779550999405,-9.804251017570495
4.41,0.4000000059604645,194.0,23.125375747680664,0.2465049922466278,-79.78278069753006,40.45904729236214,273.43423789978027,0.008571615442633629,-0.005595928523689509,0.9898288249969482,0.14189516007900238,-0.017981022907718486,0.0022979294612138768,0.008529363998919792,0.037203576415777206,0.02040175162255764,-0.0234333910048008,-0.11613345955498518,0.15919161558151246,-9.76053723335266
4.61,0.4000000059604645,195.0,23.01018714904785,2.934204578399658,-79.78278071128626,40.45904741882805,273.42265051841736,0.0085517643019557,-0.005569674540311097,0.9898284077644348,0.14190006256103516,-0.019516533827728392,0.0020033646815641143,0.00962854461579512,0.0034936678130179644,0.006188326515257359,-0.0020700900349766016,-0.08010832537896932,0.1355252112261951,-9.829004620313645
4.7,0.4000000059604645,195.0,22.90501594543457,3.8645620346069336,-79.78278068939497,40.45904741225693,273.4236288690567,0.008547349832952024,-0.005561919417232275,0.9898284673690796,0.1418999880552292,-0.01962558240093797,0.0028341337062177396,0.011200618459900964,0.005553659051656723,0.01253338251262903,0.008337355218827723,-0.09058498266153038,0.1453979059495032,-9.808926451206208
4.9,0.4000000059604645,196.0,22.79233169555664,5.574193477630615,-79.78278068987177,40.45904754056931,273.4100278043747,0.00855307187885046,-0.005535576026886703,0.9898266792297364,0.1419135183095932,-0.02126864278254703,-0.0005379833716073343,0.008784437708449583,-0.003893923712894321,0.024357914924621586,0.006505594123154879,-0.051713634040206666,0.15413028398528694,-9.820482888221742
5.0,0.4000000059604645,194.0,22.728477478027344,6.6238274574279785,-79.78278066754302,40.45904753298907,273.41093677520746,0.00847971998155117,-0.005653701722621918,0.989831268787384,0.14188151061534882,-0.01461047863590024,0.004101843927988891,0.010086645677081348,0.02717690356075764,-0.057481102645397186,0.02464764565229416,-0.07275888236705214,0.11493288913741707,-9.791956661939624
5.21,0.4000000059604645,195.0,22.55819702148437,9.08887767791748,-79.78278067451406,40.45904766506313,273.3965328359604,0.008131527341902256,-0.005579929333180189,0.9898416996002196,0.1418314427137375,-0.02352232872135548,0.0018501741287694415,0.00794420491545395,-0.05899377912282944,-0.10427151620388032,0.05481400713324547,-0.0750007642339915,0.2316008298844099,-9.818676098585133
5.3,0.4000000059604645,194.0,22.49559593200684,10.114656448364258,-79.78278065267617,40.45904765819571,273.39742321014404,0.007725834380835296,-0.005505209788680078,0.989845871925354,0.1418282687664032,-0.021811040277709512,0.00279848826369855,0.01389200493875155,-0.02815025113523006,-0.06014615297317505,0.06902829557657242,-0.08599262516945601,0.3836574171110988,-9.835858726501462
5.4,0.5,194.0,22.41546440124512,11.522120475769045,-79.78278075705441,40.45904777640717,273.38079959392553,0.005399845540523529,-0.00508645037189126,0.9898573756217957,0.14187122881412506,-0.005980547952937051,0.007380517339646406,0.01181604756396576,0.01451702229678631,0.04187624529004097,0.0876813530921936,-0.05542345482856036,0.40980525188148026,-9.838642001152039
5.61,0.5,194.0,22.212631225585934,14.631263732910154,-79.78278079309437,40.45904793620319,273.363156619072,0.004266777541488409,-0.004596087615936994,0.9898717999458312,0.14182612299919128,-0.007504798156673285,-0.0029923523656436445,0.007390981965479753,0.015088748186826706,0.050292909145355225,-0.03176509216427803,-0.1888633296824992,-0.07982225948944688,-9.837711124420169
5.8,0.5,194.0,22.038597106933594,17.279205322265625,-79.78278076745754,40.459047947059865,273.36471289634704,0.002639916958287359,-0.0019746008329093448,0.9899219870567322,0.1415754407644272,-0.009415418810689713,-0.008553229674652623,0.00434124376053402,-0.011176385916769505,-0.047736290842294686,0.04887241497635842,-0.17906864047050478,-0.1819163258560002,-9.805922151803973
5.9,0.5,192.0,21.922155380249023,18.949077606201172,-79.7827808580093,40.459048069478534,273.3435224914551,0.00259013962931931,-0.0017577640246599913,0.9899258017539978,0.14155255258083346,-0.004788559781478768,0.0017054710654983338,0.0008425775997285915,0.051558542996644974,0.007950764149427414,-0.043862342834472656,0.013377960036741571,-0.15073695288039746,-9.79331380069256
6.1,0.6000000238418579,187.0,21.72433280944824,22.352436065673828,-79.78278092551416,40.45904821838028,273.3217437887192,0.005565287545323372,-0.003254729090258479,0.9900305867195128,0.14070530235767365,-0.024078179862694667,0.028332679746651088,0.020768441883486324,-0.08219503611326218,-0.07641065865755081,-0.02066768705844879,-0.0436644163588062,-0.04429382801055908,-9.961054630279538
6.21,0.6000000238418579,186.0,21.619159698486328,23.78375625610352,-79.78278090289203,40.45904817736258,273.32501799106603,0.008671476505696774,-0.007318871095776558,0.9903139472007751,0.13838206231594086,-0.04555312316741466,0.04965377652673195,0.0624342386943477,-0.09080371260643004,-0.11385546624660492,-0.06530729681253432,0.09988370921462776,0.1074280518013984,-10.194929223060608
6.4,0.699999988079071,182.0,21.81447982788086,20.181602478027344,-79.78278100968659,40.45904829687839,273.3177447938919,0.01032582949846983,-0.013509056530892849,0.9912205934524536,0.1311212033033371,-0.04634159171872817,0.09588854908423257,0.2684734758133105,0.05840102955698968,0.013925530947744845,-0.09192360937595367,0.14121304457075895,0.07048271663021298,-10.632275226116182
6.51,0.699999988079071,181.0,21.89961814880371,18.821847915649414,-79.78278097014284,40.45904818877642,273.34905129909515,0.006031600758433342,-0.006802842486649753,0.9917454719543456,0.1278999000787735,-0.057849221617787626,0.10740514786915664,0.3430764689749709,0.10611391067504884,0.14548225700855255,-0.014565962366759775,-0.013020157262217254,0.078066532490775,-10.532469102144242
6.7,0.8000000119209291,174.0,21.86080551147461,19.632930755615234,-79.78278087527245,40.459047906945,273.3830154561996,0.0025845644995570183,0.0030427882447838783,0.9919577240943908,0.12650665640830994,-0.08199436409279105,0.14999545748370555,0.2621112848061305,-0.05389752611517906,0.029515886679291725,-0.027282876893877983,0.09024646542035043,0.011573713710531593,-9.851835658550264
6.8,0.8999999761581421,174.0,21.864561080932614,19.354618072509766,-79.78278082648085,40.45904775821287,273.40712625026697,0.003771943273022771,0.007007256150245666,0.9917826652526855,0.12768635153770447,-0.07935882282380824,0.15574982984365196,0.22036342315252447,0.04049960896372795,0.047242287546396255,0.0172168780118227,0.114293697103858,-0.004774224171414971,-9.392607035636905
6.9,0.8999999761581421,174.0,21.850788116455078,19.291004180908203,-79.78278107785445,40.45904749341741,273.3758344078064,0.0005080810515210032,0.01415746472775936,0.991203248500824,0.13158850371837616,-0.05559216095560021,0.16045505105474928,0.04646354102736786,0.07766377180814743,-0.0012839346891269088,0.01602550409734249,0.2701402667909861,-0.002303519742563367,-9.29253077030182
7.1,1.0,172.0,21.592866897583008,23.473636627197266,-79.78278115654281,40.45904751875396,273.3726256513596,-0.0009506849455647172,0.014705341309309006,0.9909799695014954,0.13319768011569974,-0.046716350328612606,0.1431537838170391,-0.003079678842505251,0.04905297979712486,-0.057037558406591415,0.046376649290323264,0.22387347858399154,-0.16545995866879826,-9.17599634706974
7.3,1.0,166.0,21.679258346557614,22.169546127319336,-79.78278111529495,40.459047256273045,273.37020379543304,0.002116995165124536,0.006472701206803322,0.9908542037010192,0.13476546108722687,-0.051297842591546135,0.13261652248979555,-0.013719651574036993,0.001365595031529665,-0.10013376176357268,0.04838196188211441,0.16103935400024058,-0.09468737089075148,-9.793689776659011
7.4,1.0,165.0,21.70429992675781,22.074125289916992,-79.78278113486725,40.45904682415179,273.39595562458044,0.0019710862543433905,0.00432499498128891,0.9908301830291748,0.13502995669841766,-0.060801485341110725,0.1427941692806217,0.03899799604587503,0.02358406782150269,0.09584590047597884,0.02297261543571949,0.07196520050056279,-0.09637854097411036,-9.863448228836061
7.6,1.0,163.0,21.72433280944824,20.80183982849121,-79.78278097596142,40.45904681224197,273.3981413269043,0.0002710503758862614,0.0070376903750002376,0.99085533618927,0.13474498689174652,-0.08525083700509888,0.15053027839376154,0.080030780250004,0.06017069518566132,0.04031763970851898,0.001085206982679665,0.035771910909097634,-0.0805249851755798,-9.858288645744324
7.7,1.100000023841858,162.0,21.61540412902832,23.091951370239247,-79.78278092326087,40.45904665758285,273.40594655513763,-0.0008149028290063143,0.006750867236405611,0.9908896684646606,0.13450457155704498,-0.09524741694091114,0.1584757527011731,0.07106006501448796,-0.05608246475458145,-0.05093250796198845,0.01006911974400282,0.13827992588281632,0.023343007648363712,-9.767155696749688
7.91,1.0,162.0,21.65797233581543,23.632671356201172,-79.78278081004937,40.459046567884506,273.4127404117584,-0.0010821528267115355,0.009228834882378578,0.9908357858657836,0.1347523182630539,-0.09281532392092633,0.1321171792831411,0.08666404858054137,0.02395579405128956,0.06577146053314209,-0.011409725993871687,0.10304778378456833,0.07840237280353904,-9.820574104785921
8.0,1.0,163.0,21.5991268157959,22.241111755371094,-79.78278074925767,40.459046431690226,273.42155665397644,-0.001566225429996848,0.012363024987280369,0.9908591508865356,0.1343238651752472,-0.08759126445099223,0.12674409566984274,0.089770703967274,0.02584286406636238,0.06798192113637924,0.02739820629358292,0.09142936628311872,-0.07908572958782316,-9.887408949136734
8.2,1.0,167.0,21.98976707458496,17.0963134765625,-79.78278088161774,40.45904633796077,273.41706520557403,-0.0085619380697608,0.0163468737155199,0.9908674359321594,0.13357092440128324,-0.049893025877265865,0.1095642839057313,0.06278370794875131,0.0751957893371582,0.012285208329558372,0.009365406818687916,0.11468123045749964,-0.0013197348453104494,-10.026575020551682
8.3,1.0,168.0,21.447628021240234,25.20712280273437,-79.78278085533475,40.45904623514918,273.4163656854629,-0.008883710950613022,0.014996849000453947,0.9909368753433228,0.1331930011510849,-0.04414509623980512,0.1018971919930614,-0.07496059620494612,-0.012164849787950516,-0.08650907129049301,-0.03273214772343636,0.13135787322185935,-0.15101163497194647,-8.747533434033395
8.41,0.8999999761581421,175.0,21.34496116638184,26.58278083801269,-79.78278102855968,40.4590460482485,273.3837482357025,-0.003616620087996125,0.0069033177569508535,0.9912348389625548,0.13188183307647705,-0.02607856673086064,0.11178190045284164,-0.03180977688572556,-0.050457168370485306,-0.0256595890969038,-0.007686822209507227,0.21033189358189705,0.05723125402349979,-9.44332344532013
8.6,0.8999999761581421,176.0,21.112079620361328,29.98613929748535,-79.78278101339241,40.459046019285545,273.3839381361008,-0.0008146472391672432,0.007811371702700853,0.9913172125816344,0.13125735521316528,-0.048876800734840034,0.10274293960972886,0.142342007182116,-0.16327953338623047,-0.016090743243694302,-0.0909198448061943,0.16327132757753135,0.1632020015269518,-10.972175041437149
8.8,1.0,184.0,21.07076072692871,30.685895919799805,-79.78278099744968,40.45904584215192,273.4464926147461,-0.0011173548409715297,0.0129608903080225,0.9913615584373474,0.1305112987756729,-0.03209085337311536,0.09818104353719703,0.48075322936616793,-0.0057724397629499435,-0.02160427719354629,-0.04216592386364937,0.2368662475794553,0.09685746448114514,-11.437163171768189
8.9,1.0,188.0,20.846643447875977,34.80491256713867,-79.78278108773898,40.459045763211506,273.451093378067,-0.0038621015846729283,0.012638523243367672,0.9913699626922609,0.13042645156383514,-0.03000385959503585,0.10778162728858838,0.6364080975353809,-0.059596247971057885,-0.060237739235162735,-0.10763408988714218,0.2326225760020316,0.21706958536058665,-11.706063755750652
9.11,1.0,194.0,20.743976593017575,35.32973098754883,-79.78278133964103,40.45904575262214,273.5832098150253,-0.008166329935193062,0.005848619155585766,0.9912772178649902,0.13141052424907684,0.002894972940860956,0.10617104070581436,1.0924532714496775,0.08466295897960663,-0.04409173130989075,0.007230272050946952,0.2513834405131638,0.025053272545337683,-12.200636458396911
9.2,1.100000023841858,199.0,20.966840744018555,31.958179473876953,-79.78278139326389,40.45904568197051,273.70574444770807,-0.007929489016532898,0.003609684761613608,0.9911483526229858,0.13247326016426084,0.004859717119928893,0.10842347060230964,1.3528082685090566,-0.06884554028511047,-0.06757152080535889,-0.05241282284259796,0.19165108110755685,0.0392542270431295,-12.332799904346464
9.41,1.2000000476837158,205.0,20.49481773376465,39.56802749633789,-79.78278184235522,40.45904566723514,273.9708443307877,0.0015524470945820212,0.004862315021455288,0.9908061623573304,0.13519328832626346,0.04307930150618063,0.11875243378254495,1.8146966222264145,-0.05990706384181976,0.0365448109805584,0.10290215164422988,0.1877294632047415,-0.18652826238423587,-12.166482871770857
9.5,1.2999999523162842,208.0,20.72644805908203,35.2025032043457,-79.7827825447087,40.45904568879713,274.2791420841217,0.012661096639931202,0.00616747559979558,0.9904277920722958,0.1373118758201599,0.09690798550424112,0.15969070085100295,2.30370743499016,0.050546862185001366,-0.07856477797031403,-0.003221554215997457,0.2297911897301674,-0.014924552002921703,-12.638511049747468
9.7,1.2999999523162842,204.0,20.63129234313965,35.782981872558594,-79.78278263368007,40.45904559610579,274.52338069915766,0.010804276913404465,0.003953248262405396,0.9903463125228882,0.1381373554468155,0.08811076691010128,0.16259021498654655,2.57405011619473,-0.01220865547657013,-0.09638472646474837,-0.06616060435771942,0.324610515832901,0.12668562814593315,-12.536819783449173
9.8,1.399999976158142,200.0,21.054485321044922,29.84300804138184,-79.78278269904334,40.45904549823892,274.7943086051941,0.007500183302909136,0.0035593241918832064,0.9903802275657654,0.13812358677387238,0.07491769040570945,0.15353392910149266,2.8208383246555697,0.13423271477222445,-0.0043411580845713615,0.011739194393157959,0.1843747511319816,0.056573670669458814,-12.235165436267856
10.0,1.600000023841858,198.0,21.119590759277344,28.56277275085449,-79.78278385672556,40.459045590791774,275.1196834468841,0.007342103868722916,0.006290240213274957,0.9905542731285096,0.13678020238876346,0.0745447687858272,0.14946084998450054,2.9289035096428493,0.06329236179590225,0.10561007261276244,0.011807803064584732,0.10900836233049632,-0.044992095194756984,-11.100434886217117
10.11,1.7000000476837158,196.0,21.169673919677734,27.043983459472656,-79.78278538658793,40.459045741551826,275.0533549213409,0.011768713593482971,0.008797966875135899,0.9906490445137024,0.13564151525497434,0.14192214450053253,0.17739906006098755,2.7927295499574645,-0.016077393665909767,0.08470869064331055,0.08858241140842438,0.11841885292902588,-0.13358230023644865,-10.753180443048477
10.3,1.7000000476837158,191.0,21.242292404174805,26.19314384460449,-79.7827856372451,40.459045565169674,275.6243552589416,0.01937945559620857,0.014232484623789787,0.9907093644142152,0.1338542252779007,0.11748317446725046,0.18709680277352594,2.8913095315803337,-0.25027903914451605,-0.05440593138337135,-0.0893041267991066,0.11627725537866355,-0.13199299961328506,-10.503462234735487
10.41,1.7000000476837158,190.0,21.2385368347168,26.216999053955078,-79.78278664796848,40.459045689708574,275.6373822116852,0.02277221344411373,0.014432841911911963,0.990702211856842,0.1333501935005188,0.1570794510111339,0.19486630504440344,2.7265791183807893,-0.0081328134983778,0.03364546969532966,-0.02054210938513279,0.19088434668257834,0.0654846308939159,-9.99920771241188
10.6,1.7000000476837158,184.0,21.34996795654297,24.41989707946777,-79.78278746666096,40.45904573373862,275.94968337059015,0.02502996288239956,0.008501431904733181,0.9907848834991456,0.13284051418304446,0.1253765170858137,0.16693246815035642,2.5888500790004474,-0.08414871245622635,-0.13666042685508728,-0.13455191254615784,0.05139494251459837,0.2451704084314406,-9.800266724824906
10.7,1.7000000476837158,182.0,21.27359390258789,25.366159439086914,-79.78278748447785,40.45904566151104,276.2086243057251,0.023152654990553856,0.006142097990959883,0.9908523559570312,0.13280744850635529,0.10930320677595626,0.13387283712023992,2.578237627067749,0.19672328233718872,0.006326259113848209,0.11399012058973312,0.16886243518441915,-0.2285949773155153,-9.799212471842766
10.9,1.7999999523162842,171.0,21.28736686706543,25.10375022888184,-79.78278767646098,40.45904583619808,276.554586353302,0.020194917917251587,0.006989120040088892,0.9907884001731871,0.13372227549552915,0.013945655132171084,0.08819295350212952,2.4633289945605066,0.05671272799372672,0.034737050533294685,0.03989917039871217,0.08011986449360847,0.11525678833946584,-9.692278007268904
11.0,1.7999999523162842,170.0,21.364994049072266,23.69628715515137,-79.78278757336696,40.459045773914674,276.80064004898065,0.0174935981631279,0.008215130306780338,0.9906978011131288,0.1347014307975769,-0.021266242238129538,0.08673520790384667,2.4584404165070337,0.09501790255308153,0.0771973505616188,0.005363861098885536,0.0799703767709434,0.1666294383443892,-9.703368421196938
11.2,1.8999999761581416,165.0,21.357481002807614,24.01435661315918,-79.78278672417271,40.4590456322593,277.192387046814,0.009913400746881962,0.005371474660933018,0.9907368421554564,0.13532747328281405,-0.13083040159036166,0.08129896462527107,2.350246113057888,0.031811732798814774,-0.1501302272081375,0.0192980132997036,0.07669885047711432,0.22983931962400675,-9.596636270284653
11.31,2.0999999046325684,165.0,21.312406539916992,25.024232864379893,-79.78278511880322,40.459045666972116,277.8725680732727,0.007067877799272537,0.002300781663507223,0.9909707903862,0.13387179374694824,-0.2171782874508912,0.004027820718133859,2.4040526518367122,0.05268121883273125,0.07986366003751755,0.03465086594223976,0.08842685759067535,-0.03763492746278644,-9.701631798148156
11.51,2.0,164.0,21.39253807067871,23.37026405334473,-79.7827848225708,40.459045612460045,278.11232036590576,0.006443698424845935,0.006534408777952193,0.9910812377929688,0.1329432874917984,-0.21932916295734034,0.005459171756666315,2.3934665911343376,0.09495015442371367,0.12556353211402893,0.037358216941356666,0.08285221355035903,-0.04017327686771751,-9.721187810897828
11.71,2.0,158.0,21.288618087768555,24.53122329711914,-79.78278365506168,40.45904559219811,278.8116373443604,0.002239672001451254,0.013682805933058262,0.991323709487915,0.13071006536483765,-0.2467573005838765,0.032685632370736864,2.424960914009431,0.0927482321858406,0.009757027961313723,-0.003724313573911786,0.1882446759939194,0.007619716851040722,-9.605160925984382
11.8,2.0,158.0,21.297382354736328,25.44567680358887,-79.78278335069803,40.459045555289904,279.0531539344788,-0.001971418736502528,0.015414653345942497,0.991418182849884,0.12980195879936218,-0.24029664796831085,0.031530593157113096,2.4038978221346348,0.19866548478603369,0.06844519078731537,0.05147595703601837,0.18124331133440136,-0.0441182014066726,-9.631690912842751
11.93,2.200000047683716,153.0,21.343708038330078,23.990501403808594,-79.78278260650849,40.45904572333068,279.42745012283325,-0.007314315531402826,0.016278479248285294,0.9913269281387328,0.1302020251750946,-0.2600784046097241,0.011527162757162928,2.4241948681948324,0.20318906009197235,0.010700937360525131,0.06140365451574325,0.1664470234885812,-0.017282462271396067,-9.627166337370873
12.11,2.299999952316284,152.0,21.328683853149414,24.11773109436035,-79.78278170720289,40.459045807102,280.05931324005127,-0.010093462653458118,0.01196487806737423,0.9911003112792968,0.13219371438026428,-0.2738922619470224,-0.023814698475123245,2.4347558470421973,-0.024309132248163223,-0.10320150852203368,0.019854651764035225,0.17787644801661373,0.016576979714445772,-9.579646015763283
12.3,2.4000000953674316,149.0,21.28360939025879,24.73796844482422,-79.78278120541384,40.45904587946485,280.5427069091797,-0.007886781357228756,0.008867641910910606,0.9910703897476196,0.13281068205833435,-0.19538512930114607,-0.07305944024571456,2.3844322264173248,0.04994411766529083,0.06447254866361618,-0.010428374633193016,0.12132261676713825,0.08599580459296703,-9.571019033789637
12.4,2.4000000953674316,145.0,21.26107215881348,25.42977333068848,-79.78278079128098,40.45904593830542,280.9268354797363,-0.007229190319776534,0.012054167687892914,0.9910027384757996,0.13310164213180542,-0.16884264490778464,-0.07816509492304008,2.4186321954985486,0.017194919288158417,0.113632470369339,0.005690226331353188,0.13289753646589814,0.07410468757152558,-9.637843353152276
12.61,2.5,140.0,21.3599853515625,22.69436264038086,-79.78278015318539,40.45904606097529,281.59343570709234,-0.00020605781173799187,0.013532113283872604,0.9908050298690796,0.13461904227733612,-0.1265704493430794,-0.05891835232239535,2.468701482764476,-0.08697980642318726,-0.03623125702142716,0.014116990379989147,0.15916537620127202,0.052668868079781536,-9.6518328166008
12.7,2.5,138.0,21.32617950439453,23.79170799255371,-79.782780013894,40.45904615024421,281.8388943099976,0.0007082256488502028,0.010892015881836414,0.9906530380249025,0.13596870005130768,-0.09320739330795184,-0.06637575842620153,2.4439357663377246,-0.051965661346912384,-0.0784088745713234,0.0383191704750061,0.15214410359971225,0.18643594946712247,-9.584866409897804
12.9,2.299999952316284,136.0,21.24855232238769,25.350255966186523,-79.78277947970967,40.4590463442678,282.56211132049566,-0.002970098750665784,0.005102124530822039,0.9903472065925598,0.13848331570625305,-0.07628387762993545,-0.0998205356667742,2.501020983037625,0.024673029780387882,-0.028723312541842464,0.0033736987970769405,0.15294088723137975,0.16417176224291324,-9.6086400192976
13.0,2.299999952316284,137.0,21.18094253540039,26.43964767456055,-79.7827793563663,40.45904644142721,282.8121904754638,-0.005806026514619589,0.0032959096133708954,0.9902745485305786,0.13896717131137848,-0.07030848444890984,-0.10781001877048182,2.4952515258262875,0.05660289525985718,0.010217380709946156,-0.017562633380293846,0.1405753508862108,0.0976373551413417,-9.73953461945057
13.2,2.5,135.0,21.29362678527832,24.02230834960937,-79.78277884687363,40.459046672753,283.5942301177978,-0.010623483918607237,0.002834372222423553,0.9903744459152222,0.13797689974308014,-0.07556689017977614,-0.10407788099281884,2.629136799724293,-0.0023768180981278424,-0.015276284888386725,-0.05278072506189346,0.09280960153788327,0.11235691655427216,-9.868518934249881
13.3,2.4000000953674316,133.0,21.22225952148437,25.75579643249512,-79.78277879648856,40.45904676340032,283.85663169860834,-0.012173037044703959,0.003170335199683905,0.9906413555145264,0.13591022789478302,-0.06146328309590355,-0.0962665981961435,2.6194472184775703,-0.024415547028183937,-0.026710094884037968,-0.0614447221159935,0.08383873019367456,0.10046441081911324,-9.737709118723867
13.5,2.299999952316284,132.0,21.2235107421875,25.461580276489247,-79.78277856465108,40.45904704792417,284.6440805816651,-0.010807677172124386,0.0027119857259094715,0.9911160469055176,0.132532998919487,-0.0286516868157364,-0.0780962946642737,2.7277615842552323,-0.042820420116186135,0.011871790513396265,0.04404305666685104,0.13886906940490007,0.07736003352329135,-9.774629607796667
13.6,2.200000047683716,136.0,21.23352813720703,24.45965576171875,-79.78277839493134,40.45904724371911,285.16208213806146,-0.010344597510993479,0.002461660653352737,0.991190493106842,0.1320166438817978,-0.015352255871174027,-0.07333403245712672,2.852291449231358,-0.04087782651185989,0.003941477276384831,-0.015154934488236902,0.07820243457332254,0.08649279051460326,-9.777112335562707
13.7,2.0999999046325684,140.0,21.22225952148437,25.01628112792969,-79.78277844388704,40.45904732603794,285.4473041915893,-0.011158322915434836,0.0032673485111445197,0.9912089109420776,0.13179486989974976,0.01205349036216142,-0.06418719988188905,2.8565369126289486,-0.04685001075267792,-0.05181118845939636,-0.02537829801440239,0.11299168663099407,0.08206420987844468,-9.860295410156253
13.9,2.0999999046325684,144.0,21.23352813720703,24.41989707946777,-79.78277856147406,40.45904768214417,286.18724388122564,-0.010543035343289377,0.005426377989351749,0.9911485910415648,0.1322270929813385,0.032145186534542264,-0.04084263139843969,2.956651023802154,-0.028775904327631,-0.009086607955396177,-0.04305616021156311,0.11712998955510558,0.07654685027897358,-9.858610242605213
14.0,2.0999999046325684,147.0,21.254812240600586,24.165441513061523,-79.78277916035584,40.45904791223969,286.8371614837646,-0.008578065782785416,0.003443580120801925,0.99106103181839,0.13308848440647125,0.11431588055918222,-0.0134337882491547,2.9697300562187627,0.03609549626708032,0.0211041271686554,0.05912952497601509,0.22844863247126346,-0.053826059466227885,-9.828187179565427
14.21,2.0999999046325684,148.0,21.25356101989746,24.714113235473643,-79.78277933248278,40.45904798151719,287.1332382583618,-0.007212480064481497,0.001557655050419271,0.9909417629241944,0.13408972322940824,0.12774557878929232,-0.011531145096820856,2.9576767136363,-0.04584317281842232,-0.060682609677314765,0.012106847018003464,0.10650396332144738,0.06737146343104541,-9.66260865032673
14.4,1.8999999761581416,155.0,21.198471069335934,25.50929069519043,-79.78277997321008,40.45904820856493,287.75547927856445,-0.004511664621531963,-0.001461285282857716,0.9907146096229552,0.13587547838687894,0.1811097970492269,-0.007234005707629851,2.9594375281306804,0.017656151205301285,0.020859338343143463,0.10122422128915788,0.13104009532369673,-0.015522283622995018,-9.709281710386275
14.5,2.0999999046325684,157.0,21.125850677490234,26.781574249267567,-79.78278021641485,40.45904825296858,288.0512356185913,-0.002837134059518576,-0.0012647713301703336,0.990578293800354,0.13691292703151706,0.19490118146795424,0.002601211682589755,2.9599989782755443,-0.011193519458174706,0.0652480274438858,0.04990620538592338,0.09737192809581756,-0.057839633971452725,-9.799966762661935
14.7,2.0999999046325684,161.0,21.209739685058594,24.63459587097168,-79.78278096888953,40.4590484273722,288.6716989898682,-0.00033205561339855194,0.0012460974976420405,0.990644872188568,0.1364593505859375,0.2157754288736537,0.035118879946426165,3.0005586385353022,-0.028543459251523018,0.036277808248996735,-0.015050782822072506,0.08453983875922859,0.1387957782112062,-9.89088687300682
14.8,2.0999999046325684,164.0,21.2134952545166,24.57893371582031,-79.78278123542724,40.4590484468408,288.97186607360834,0.001812826143577695,0.0023984797298908234,0.9907626509666444,0.1355740875005722,0.2200046876024888,0.051071429164826,3.0014837601833886,-0.012908588163554668,0.057092491537332535,-0.015631340444087982,0.06788616915699094,-0.025332591296173632,-9.821634789705275
15.0,2.200000047683716,172.0,21.22225952148437,24.817485809326172,-79.78278223508939,40.45904857883542,289.5791887664795,0.006341398227959871,0.0027592529077082872,0.9911364912986756,0.13266734778881073,0.2566349324179161,0.07869383526901676,2.989570068773185,0.06264033913612366,0.040116071701049805,0.01946425624191761,0.0816954150237143,0.08652514206245543,-9.793948808312416
15.1,2.200000047683716,174.0,21.256065368652344,24.35628318786621,-79.78278276256269,40.45904873448114,289.879022064209,0.006611810065805912,0.0020499469246715307,0.9913000464439392,0.1314397156238556,0.240696589613544,0.08432263786974385,2.9771095411234305,-0.042970705777406686,-0.04422585666179657,-0.11177689582109453,0.0594776492100209,0.15268625926226378,-9.601160845756533
15.3,2.299999952316284,183.0,21.199722290039066,25.10375022888184,-79.78278301998921,40.45904873295349,290.1756700897217,0.006525867618620396,0.0011830426519736648,0.9914574623107908,0.13026189804077148,0.2289605518407829,0.0792046650598951,2.950498009468668,-0.050340820103883736,-0.06145306304097176,-0.035598669201135635,0.09082935059443116,0.0168331562820822,-9.59595390021801
15.41,2.4000000953674316,184.0,21.165916442871094,25.98639678955078,-79.78278412239645,40.45904868030616,290.7707819366455,0.0033283871598541732,-0.0010335082188248632,0.9915461540222168,0.12970808148384094,0.22456750251832028,0.11299761696878105,2.9459182456455086,-0.09358750283718108,-0.08128522336483003,-0.025572028011083603,0.06392969179898501,0.09234377031214536,-9.729956295490263
15.5,2.4000000953674316,189.0,21.143381118774414,25.54904937744141,-79.78278438208223,40.4590486283287,291.0654787445068,0.0008235877030529082,-0.00035261522862128913,0.9914262294769288,0.13066507875919342,0.21897822298174724,0.11366721050265198,2.9487070361949104,0.08984871208667755,0.10991384834051132,0.010543654672801495,0.08341645158827306,-0.01002879710868001,-9.80537368297577
15.7,2.4000000953674316,192.0,21.21099090576172,24.865196228027344,-79.78278504318085,40.45904866360513,291.6606783294677,0.0022740848362445827,0.0031358357518911357,0.991148054599762,0.13270525634288788,0.17232525666554155,0.12246484878029355,2.9565800667208766,0.03334356099367142,0.1062941923737526,0.05958223342895508,0.08654936232604088,-0.13123202104121448,-9.725434643626214
15.9,2.4000000953674316,201.0,21.125850677490234,26.29651641845703,-79.78278580073975,40.4590486584747,292.2506575012207,0.004913443699479103,0.005763467401266098,0.9909164905548096,0.13426555693149567,0.18224939661167985,0.1456356450019371,2.9559169067888282,0.058584216982126236,0.03325524926185608,0.04568641260266304,0.060675108726136386,0.1276816830597818,-9.715596118569373
16.0,2.5,200.0,21.09705352783203,26.535070419311523,-79.78278601238935,40.45904859815694,292.5467008972168,0.004310206975787878,0.005487093236297369,0.9908735752105712,0.13461409509181976,0.15549186815052404,0.1528334402789106,2.959839391957112,-0.1079932376742363,-0.06467390805482864,-0.1617497205734253,0.0627721715066582,0.25322648288682104,-9.746903280615806
16.1,2.5,203.0,21.09079360961914,26.272661209106445,-79.78278657595742,40.45904864208715,293.1386083984375,0.0026695195119827986,0.00394177483394742,0.9910050034523008,0.1337403655052185,0.12170353709570254,0.1338121287521168,2.9793692496053548,-0.16130247712135315,-0.11270111054182053,-0.12815313041210175,0.11470503958873453,-0.11259403942152856,-9.84819869041443
16.3,2.4000000953674316,205.0,21.1208438873291,25.962541580200195,-79.78278673929607,40.45904858554288,293.436395111084,0.002956890733912587,0.002871144097298384,0.9911475777626038,0.13270102441310885,0.1316684240458741,0.12237529036251404,2.9759126437069017,0.02048354595899582,0.010446655564010143,0.0731828510761261,0.08605574768967927,-0.19192959129810333,-9.85631111741066
16.4,2.4000000953674316,212.0,21.123348236083984,25.994348526000977,-79.782787280859,40.459048527768324,294.02935737609863,0.003923930693417788,0.0044693206436932096,0.9912969470024108,0.13151049613952634,0.12148181493513298,0.12085059131919555,3.0025614191100702,0.12057720869779588,0.07462393492460251,0.11256463825702667,0.0019180748841608878,0.19237973554059865,-9.86256997704506
16.61,2.4000000953674316,212.0,21.194713592529297,24.88109970092773,-79.78278761996468,40.45904858092989,294.3187593841552,0.0034565501846373077,0.004654595162719488,0.9912928342819214,0.13154835999011993,0.09039674926407157,0.1250758252788474,2.9970807391360745,-0.11467736959457395,-0.1030791848897934,-0.08796854317188263,0.026233222391456368,0.1076268023159355,-9.746924915313723
16.8,2.299999952316284,213.0,21.1846981048584,24.563030242919922,-79.78278784153538,40.45904845103404,294.91598838806146,0.0014385327231138945,0.0031303174328058962,0.9910844564437866,0.1331905871629715,0.06531959358281829,0.12320230206927645,2.9766767413878363,-0.06134653463959694,-0.05944124609231949,-0.08036273717880249,0.029142659856006507,0.13036178176291288,-9.66653388619423
16.9,2.299999952316284,211.0,21.13837242126465,25.09579849243164,-79.78278821667679,40.459048463021155,295.2031282806396,0.0005148941418156028,0.003703621448948979,0.9909651279449464,0.13406789302825928,0.07028810707167457,0.11758163438702812,2.962024229340768,0.024891691282391548,0.027733298018574715,0.011046056635677814,0.10479054640978576,-0.05966231158934534,-9.699983468055725
17.1,2.299999952316284,212.0,21.175933837890625,24.984474182128906,-79.78278832091063,40.45904839390576,295.49923652648926,0.0013315032701939347,0.005833376664668322,0.9908847212791444,0.13457995653152466,0.055224033580777834,0.11881919772673533,2.9606797169663497,-0.01452041417360306,0.11678581684827805,-0.0408124215900898,0.0499855534080416,0.016458596438169482,-9.753638103604317
17.2,2.299999952316284,213.0,21.11082649230957,26.16133689880371,-79.78278885720523,40.45904825621388,296.087403717041,0.0037868542131036533,0.009496059268712996,0.9908766150474548,0.1343839466571808,0.07675396529741313,0.15476749770077336,2.9472131922223936,0.06478606909513474,0.06884156912565231,-0.0024059487041085963,0.16400270462036134,-0.051220494490116834,-9.70273633718491
17.4,2.200000047683716,212.0,21.149641036987305,25.24688148498535,-79.78278919721181,40.459048242191336,296.6772417449951,0.0020050639286637306,0.0066763688810169705,0.9910157322883606,0.1335638016462326,0.05618857264524193,0.13536154656702415,2.971060744782528,0.02886712178587913,-0.011158168315887451,0.09557829797267914,0.08867342736572027,0.2356805418804288,-9.755579963922502
17.51,2.200000047683716,212.0,21.135868072509766,25.31049728393555,-79.7827892742572,40.45904818046402,296.9752268218993,0.0007650982006452978,0.005912868306040764,0.9910573959350586,0.13330306112766266,0.02726368266856684,0.12545685408641738,2.9860917499172386,-0.19236643612384804,-0.08082830905914308,-0.16349971294403076,0.007605340923182667,0.207778030782938,-9.840428910255433
17.71,2.0999999046325684,214.0,21.17718505859375,24.523271560668945,-79.782789499111,40.459048175345394,297.56144088745117,0.0008349298150278628,0.0054070213809609404,0.991174578666687,0.132450133562088,0.015472337501516074,0.1023201790878414,2.9974612554742768,-0.028095636516809464,0.030625509098172188,-0.06298854947090149,0.11013404270634056,-0.12742933915928004,-9.874501805305481
17.81,2.0999999046325684,218.0,21.07451820373535,26.081817626953125,-79.78278954509734,40.45904812080971,297.86108154296875,0.00192849722225219,0.00649957824498415,0.9912203550338744,0.13204675912857056,0.014570584585238694,0.1012799137823058,2.9938609913106093,-0.09381186217069626,-0.03849975392222405,-0.021265072748065,0.09641480284743012,0.02010073570534587,-9.8113998234272
18.0,2.0999999046325684,221.0,21.10456657409668,25.517242431640625,-79.78278979138427,40.45904815117256,298.4449495697021,0.0040230718441307545,0.007565103005617856,0.9911227822303772,0.13267415761947632,0.009628871299787529,0.10847851488970407,2.9928548735770413,-0.1742517203092575,-0.0724353939294815,-0.05683797225356103,0.07159482507035136,0.000777314230799675,-9.811250134706498
18.11,2.0,222.0,21.17092514038086,24.70616149902344,-79.78279001436181,40.45904818443074,298.7307791137696,0.004604618065059185,0.007389521226286887,0.9910085201263428,0.1335156261920929,0.027485922724734702,0.10626842123638314,2.9912617602746376,0.08941230177879332,0.07598266750574112,0.0929642990231514,0.10125386715866626,-0.10594456750899554,-9.826938214302064
18.3,2.0,225.0,21.112079620361328,25.80350685119629,-79.78279003190605,40.459048132732406,299.02978271484375,0.0037328805774450298,0.007869125343859196,0.9909525513648988,0.13393037021160126,0.006847755156174125,0.10772613302349984,2.9869156415546967,-0.05305213108658791,-0.05575477331876755,-0.07046777755022049,0.07256327929906548,0.08672705372795463,-9.758005388975144
18.4,2.0,230.0,21.165916442871094,24.523271560668945,-79.7827903363435,40.45904809251986,299.6154875183105,0.0018929950892925265,0.010156804695725441,0.99101322889328,0.13336491584777832,-0.00932075472526258,0.12438509348603333,2.9791772357187165,-0.03671339899301529,-0.02135547436773777,-0.028154706582427025,0.11974395990371706,0.09220824281685054,-9.718336708545683
18.61,2.0,234.0,21.142127990722656,24.97652244567871,-79.78279053113049,40.4590480386648,300.2010168457031,0.0005363840027712287,0.009063098579645157,0.9911386370658876,0.13252107799053192,-0.029069374874225725,0.12419829530275388,2.9770387882808262,0.012068169191479685,0.03957965224981308,0.023807674646377563,0.12939517306163908,-0.08465243420563638,-9.78313204407692
18.8,1.7999999523162842,242.0,21.083282470703125,25.533145904541016,-79.78279050642689,40.45904791983604,300.7963442230225,0.0036967000924050812,0.010953734628856182,0.9910256266593932,0.1331719160079956,-0.02038553323487747,0.11410332853362475,2.9630196170397816,0.0402529239654541,0.06862897425889969,0.04824910312891007,0.2352331202477217,-0.02545451944693923,-9.730688366889954
18.91,1.7999999523162842,245.0,21.13211250305176,24.793630599975586,-79.78279063960878,40.459047960827974,301.08286613464355,0.0036075694952160116,0.013060675002634524,0.9908616542816162,0.13419993221759796,-0.023781923829757717,0.1153063099657669,2.9601516475318985,0.04359590262174606,0.08991795033216476,0.04285111278295517,0.17991886217147113,0.03903767449781299,-9.70523426771164
19.1,1.7999999523162842,258.0,21.1208438873291,24.54712677001953,-79.78279060823071,40.45904791080222,301.3786157989502,0.0027099582366645336,0.01382343377918005,0.9907652139663696,0.13485489785671234,-0.03780705216786391,0.12359918658030378,2.9525870578762867,-0.03867332637310028,-0.08483909070491791,0.008540079928934574,0.195423229560256,0.02822318747872487,-9.732430252432824
19.2,1.7999999523162842,258.0,21.083282470703125,26.28856468200684,-79.78279084927247,40.45904786550325,301.9648355865478,0.0016763147432357073,0.01163054071366787,0.990741491317749,0.13525241613388062,-0.03601928495665603,0.1200085109514294,2.9732048275042464,0.00240772170946002,0.008713017217814922,-0.03149132803082466,0.15074612569995224,0.042067062109708786,-9.798039520382881
19.32,1.7000000476837158,265.0,21.0920467376709,26.272661209106445,-79.78279086080701,40.459047884471566,302.5455927276612,0.0004254249797668308,0.012261045165359974,0.990818977355957,0.13463787734508514,-0.05459155524909524,0.08765726212044292,2.975679954516951,0.10479164123535156,0.09722110629081726,0.03750896826386452,0.16130357505753634,-0.07379737070761623,-9.828077251911164
19.51,1.7999999523162842,269.0,21.148387908935547,24.68230628967285,-79.78279101678953,40.45904792960416,303.12463134765625,0.0006265743868425487,0.012523076497018336,0.9909816384315492,0.13340972363948822,-0.05920567862711582,0.09373022604192607,2.9804432124156537,-0.05797462537884712,-0.032295793294906616,-0.03743688389658928,0.17711534153670072,0.15214522736147046,-9.846403595209123
19.7,1.7999999523162842,279.0,21.09455108642578,25.47748374938965,-79.78279096492278,40.45904790348607,303.4230799102783,0.0007659660186618568,0.012172881513834,0.9910553693771362,0.1328934133052826,-0.05027166583215598,0.08708110857225076,2.9883212348104573,0.051934517920017235,0.06404264271259308,0.015530609525740147,0.1878454390726984,-0.056776418304070826,-9.867910823822024
19.8,1.7999999523162842,281.0,21.108322143554688,24.83338928222656,-79.78279091472713,40.459047882548866,303.7228063964844,0.00026805794914253056,0.012642881833016872,0.9911251068115234,0.1323297768831253,-0.05874442851422512,0.08285549636721845,3.0038153853271186,-0.03921414539217949,-0.02522418648004532,-0.11315816640853882,0.1973406046628952,0.18197912860661747,-9.905619517564777
20.0,1.7999999523162842,285.0,21.039459228515625,26.169288635253906,-79.78279107378897,40.459047964224645,304.300782623291,-0.001491404720582068,0.014289397746324541,0.9910619854927064,0.13262632489204407,-0.05913969148770281,0.07867704810395079,2.9976002608022907,-0.05109969526529312,0.049697913229465485,-0.035918720066547394,0.2381331747584045,-0.06453215600922704,-9.877410210371018
20.1,1.7999999523162842,288.0,21.0382080078125,26.20109558105469,-79.78279136073418,40.459047936956814,304.87869781494135,0.0008032605983316897,0.01553740631788969,0.9907947182655334,0.1344761997461319,-0.031124754251684008,0.08958894370113338,2.9880648381775834,0.04868626594543457,0.04502032324671745,0.03172460198402405,0.19291822755709293,0.00584251732332632,-9.817020167112352
20.3,1.8999999761581416,287.0,21.029443740844727,25.946638107299805,-79.78279133705935,40.45904793484945,305.1777471923828,0.0007182437111623585,0.014269559644162657,0.9906526207923888,0.1356586366891861,-0.03619707728885758,0.09032774765866963,2.991126583167377,-0.05584586784243584,-0.054575394839048386,-0.09372172504663467,0.221976349465549,0.16107270140200855,-9.773640843629838
20.4,2.0,288.0,21.065753936767575,25.86712074279785,-79.7827915349468,40.45904800100941,305.7630628967285,-0.00039822483086027205,0.010886464267969131,0.9906148314476012,0.13624869287014008,-0.030784955322353993,0.05734381238091805,3.011667149637129,-0.03549310937523842,-0.0037377227563411,0.050109121948480606,0.19194567114114766,0.016517315274104476,-9.89128799200058
20.6,2.0,287.0,21.087038040161133,24.96061897277832,-79.78279176140282,40.4590480600561,306.0494169616698,-0.0004724866012111307,0.010147004388272762,0.9907189011573792,0.13554657995700836,-0.03207788098252541,0.05710960377630973,3.0149505747319614,-0.09275570511817932,-0.03110208921134472,-0.0589301735162735,0.10042346203699708,0.02355131699005142,-9.845548732280733
20.71,2.0,284.0,21.130859375,24.92881202697754,-79.78279174106314,40.459048067155386,306.3505987548828,-0.00032252611708827317,0.010334857739508152,0.9908168315887452,0.13481561839580536,-0.03123866459085684,0.0475381576313879,3.0094343459599253,-0.05985876545310021,-0.05696769803762436,-0.030508788302540783,0.12001145174726845,-0.02373154599219561,-9.77483133673668
20.9,2.0999999046325684,281.0,21.127103805541992,24.626644134521484,-79.78279171947258,40.45904807576946,306.65115493774414,-0.0006325941067188977,0.010950194671750069,0.9908825755119324,0.13428117334842682,-0.024330150517038653,0.04652435637945724,3.001790319788277,0.015641815960407257,0.017649503424763683,0.03483924269676208,0.16380499564111234,-0.10976793391630056,-9.756445351839067
21.0,2.0999999046325684,281.0,21.035703659057614,25.93868637084961,-79.78279189839067,40.459048209754414,307.2391943359375,-0.0016069699777290225,0.011399389244616032,0.9909982085227966,0.1333797127008438,-0.02988219433302628,0.04289878751601196,2.9846539205292424,-0.02124643698334694,-0.03937584161758423,-0.05919516459107399,0.1216852172277868,-0.06669692771974951,-9.720130634307864
21.1,2.0,280.0,21.04947662353516,25.81941032409668,-79.78279207303899,40.45904830653915,307.52866500854486,-0.0019544376991689205,0.011396140791475771,0.9909982085227966,0.13337501883506775,-0.030267680099525938,0.04029915250444716,2.989337457897603,-0.04625020176172257,-0.02295638434588909,0.010510905645787716,0.1919974738173187,0.002714387141168117,-9.78648659169674
21.3,2.0,278.0,21.06324958801269,25.23892974853516,-79.78279204819762,40.45904835102331,308.1274122619629,-0.0003477141435723752,0.010754094459116459,0.9909901022911072,0.1335023194551468,-0.023438915929027603,0.04112075798879925,3.001928701913085,-0.0948861837387085,-0.06390374898910522,-0.06544454395771028,0.15712584910914304,0.06376459931954742,-9.846205959320068
21.4,2.0,276.0,20.990629196166992,26.5748291015625,-79.78279219150579,40.45904848442749,308.41902679443365,0.0004300300497561693,0.009090128354728222,0.9910681247711182,0.1330462247133255,-0.007753014310468698,0.029525111899790974,3.0107337001380485,0.010657208971679207,-0.06119503825902939,0.028973842039704326,0.2773318669572473,-0.1662269671820104,-9.900148862600327
21.61,2.0999999046325684,274.0,21.15715217590332,23.592912673950195,-79.78279238131049,40.459048605169286,309.0108312988281,-0.0005568029591813684,0.006337244529277086,0.9913006424903872,0.13146375119686127,-0.006203201023135509,0.016444618358891022,3.03082135178467,0.0030525620095431805,-0.06645430624485016,-0.016951916739344597,0.21959485162049533,-0.06606114808470011,-9.906693066358569
21.7,2.0999999046325684,277.0,21.03445243835449,26.550973892211914,-79.78279237068526,40.45904862504583,309.31326812744135,-0.0015715964836999776,0.004972139373421669,0.991351306438446,0.1311313360929489,0.002689257361496945,0.015095680756916937,3.0110738665245087,0.15331363677978516,0.041666217148303986,0.093966044485569,0.21409163497388364,-0.17923254523426296,-9.685416884422304
21.9,2.0,277.0,20.968093872070312,26.58278083801269,-79.78279264255563,40.45904878128842,309.8997473144531,-0.004645089618861675,0.0033291266299784184,0.991337239742279,0.1312171220779419,0.0004553420586661307,0.007623110652684331,2.9974201645348835,0.05100242421030998,0.002655689837411046,0.033767282962799065,0.2153381882607937,-0.13443318888545036,-9.813504821062088
22.0,2.0,283.0,21.10707092285156,24.49941635131836,-79.78279266350526,40.4590487925187,310.20010894775385,-0.00530989607796073,0.0057053598575294035,0.9912131428718568,0.1320449262857437,0.000959217147449823,0.010450578710379726,3.00669810557309,0.11743445694446565,0.14650428295135498,0.0686824694275856,0.18163403324782848,-0.15842261536046864,-9.88279900431633
22.2,2.0999999046325684,286.0,21.021930694580078,25.79555511474609,-79.7827928477261,40.45904893157504,310.7982458496094,-0.0022064093500375748,0.010517466813325882,0.9910564422607422,0.13301023840904236,0.003845946448935021,0.0486494375061007,2.997348434072763,-0.006591968704015017,0.02834716252982616,0.09054278582334516,0.2631487327627838,-0.16841190721839666,-9.724031311869622
22.3,2.0,291.0,21.089542388916016,24.91290855407715,-79.78279288657555,40.45904893657665,311.0978674316406,-0.0010386378271505237,0.011048846878111362,0.990989863872528,0.13347667455673218,0.021154133676484086,0.06510269344276304,2.993207413942233,0.049715556204319,0.061324525624513626,0.06920156627893448,0.2222455406561494,-0.13780052728950978,-9.736846069693566
22.5,2.0,292.0,21.009410858154297,26.209047317504893,-79.78279313048726,40.45904904057664,311.6941427612305,-0.0008045147405937313,0.011234618723392488,0.9909958243370056,0.13341869413852692,0.034042795481500875,0.06535219852734464,3.0027763119171023,0.06177668273448944,0.016497744247317314,0.08394300937652588,0.2517080157995224,-0.19425707548856733,-9.832855596542359
22.6,2.0,281.0,21.000646591186523,26.15338516235352,-79.78279342308942,40.459049130533685,312.28819412231445,0.0008637845749035478,0.010844359174370766,0.9911368489265442,0.13239921629428866,0.026832440736959742,0.06671037695185862,3.0073622425820887,-0.09825589507818222,-0.05018550530076027,-0.06833291053771973,0.20749201057478786,-0.012615221589803695,-9.81506836652756
22.81,2.0999999046325684,277.0,21.03445243835449,26.240854263305664,-79.78279347239683,40.45904914310265,312.58796447753906,0.0024726348929107194,0.010713541880249977,0.9911527633666992,0.13226979970932007,0.04111325924259862,0.055737337427930835,2.9871982297532043,0.015565836802124975,0.08975650370121002,0.04256404563784599,0.11047805084846916,-0.0470606482308358,-9.63046475172043
22.91,2.200000047683716,275.0,21.016923904418945,25.898927688598643,-79.78279371823399,40.45904926386271,312.88455337524414,0.003309738589450717,0.01128990575671196,0.9912251830101012,0.13165995478630066,0.031248318382174508,0.052560637013840734,2.9849355128370365,-0.21883544325828552,-0.08628738671541214,-0.10734160989522934,0.11869517041370273,0.1655257946625352,-9.632756860256196
23.11,2.299999952316284,274.0,21.021930694580078,25.64447021484375,-79.78279407272096,40.45904936806237,313.48243087768554,0.002479004207998514,0.009624365717172623,0.9913127422332764,0.13115057349205014,0.02288151112861425,0.04894579673419774,2.9657736167461395,-0.09483471512794496,-0.08739601075649261,0.02109463326632976,0.11320114485919475,-0.17859209239482882,-9.615916294455527
23.2,2.299999952316284,268.0,21.039459228515625,25.75579643249512,-79.78279408633135,40.45904939390993,313.77813095092773,-2.1902820662944574e-05,0.007813004776835442,0.9913350939750672,0.1311248540878296,0.005956752380924503,0.03436293864583422,2.9501250355752195,-0.09847251325845716,-0.10282216966152193,-0.16681049764156342,0.05239204810000957,0.21701076602563266,-9.573443874120713
23.4,2.4000000953674316,264.0,21.07076072692871,24.69820976257324,-79.78279446322536,40.45904951704464,314.3684019470215,-0.012459177523851395,0.002760410774499178,0.99132239818573,0.13083265721797946,-0.0399636506752519,0.014602061349259591,2.939077387238288,-0.055292222648859024,-0.0899711400270462,-0.12076621502637865,0.04861660602036864,-0.009730232795700431,-9.630072403550148
23.6,2.5,253.0,20.976858139038086,26.79747772216797,-79.78279458607439,40.45904956859482,314.9549040222168,-0.011570425704121591,0.004206166137009859,0.9914388060569764,0.1299910992383957,-0.07069849327243495,-0.00012338544438558592,2.9242069529921566,-0.194080650806427,-0.01636134274303913,-0.13467156887054446,0.03982038826681674,-0.2482671669311821,-9.610628657341003
23.71,2.5999999046325684,247.0,20.966840744018555,26.479406356811523,-79.78279461754383,40.45904958346009,315.2466062927246,-0.007884694263339044,0.005979084875434637,0.991460919380188,0.13002903759479525,-0.02635026454535753,0.0046133000797746295,2.9126633415566436,0.006813538260757922,0.10323941707611084,0.10763520747423172,-0.0011939009372144939,-0.17277184702455994,-9.704500442147257
23.81,2.5999999046325684,242.0,20.949312210083008,26.15338516235352,-79.78279466080922,40.45904960327115,315.5381826782226,-0.004930778406560421,0.007634915877133608,0.9914959073066713,0.12982036173343658,-0.02146035996593337,0.01782318272194986,2.9205935971764805,-0.2759385406970978,-0.0662660226225853,-0.10885104537010193,0.008164748155977578,0.03146969636902213,-9.798510221242905
24.0,2.799999952316284,233.0,20.953067779541016,27.06783866882324,-79.78279474747772,40.45904980368551,316.1267027282715,-3.563022983144037e-05,0.004948806948959827,0.9914740920066832,0.13020993769168854,0.027159761496026055,0.003239386246724343,2.950741719892368,0.17392532527446747,0.008503500372171402,0.1201278492808342,0.14762243346311152,-0.3804830733686686,-9.96190364599228
24.2,3.0,228.0,20.923019409179688,27.56879997253418,-79.78279496209001,40.45904993907733,316.7124685668945,-0.0008102590800262988,0.0019207008881494407,0.9913643002510072,0.13112032413482666,0.019068765145476528,-0.020455476385721,3.0079007200167083,-0.05374739319086075,0.012056542560458185,-0.16721229255199432,0.050358541812747716,0.18504789356142284,-10.028344388008119
24.3,2.9000000953674316,228.0,20.9555721282959,26.702056884765625,-79.78279497513962,40.45904997489483,317.0138143920898,-0.0013009534450247884,0.0014309444231912494,0.991293966770172,0.13165366649627686,0.020407336585035355,-0.024087851871676717,3.0188597978498843,0.12603506445884705,0.0703432559967041,0.13681459426879886,0.032776503385975965,-0.2362013643421233,-9.99083683848381
24.4,2.9000000953674316,223.0,20.966840744018555,25.811458587646484,-79.78279518792482,40.45905005643535,317.29710906982416,-0.001313099404796958,0.0009546541841700672,0.9912643432617188,0.131880521774292,0.009512629889074857,-0.01749852443639804,3.0164360133656114,-0.0982220694422722,-0.06259141862392427,-0.057235993444919586,0.060245247012935585,-0.0476392484921962,-9.981423990726473
24.6,2.799999952316284,224.0,20.946807861328125,27.02012825012207,-79.78279539726387,40.459050136021474,317.8848585510254,-0.003035317175090313,0.00015538728621322662,0.9911782741546632,0.13250108063220978,0.024638766653499847,-0.015199456954578625,3.0094676415812254,0.11244232207536696,0.013229294680058956,0.19508318603038788,0.08429668595083058,-0.41644107419997456,-9.893426903486251
24.7,2.799999952316284,223.0,21.006906509399414,25.77169990539551,-79.78279542150227,40.45905015181912,318.1864141845703,-0.0032144275028258558,-0.0004653396608773619,0.9911941289901732,0.13237719237804413,-0.001982930453581552,-0.00673097936494177,3.0205391624965,-0.09719407558441162,-0.09089648723602296,-0.09644299745559692,0.05728476061485707,0.02366075585363433,-9.83911445617676
24.9,2.799999952316284,224.0,21.04572105407715,25.342304229736328,-79.78279563164241,40.45905021037896,318.7720617675781,-0.002026537200435996,-0.0010781658347696066,0.9910940527915956,0.1331442892551422,-0.0108279561296521,0.004327424728189575,3.0180339063492267,-0.15720777213573456,-0.007638100534677506,-0.1280631422996521,0.11775716738775373,-0.1970899601094425,-9.840179818868638
25.1,2.799999952316284,229.0,21.046972274780273,25.00832939147949,-79.78279584579933,40.45905026190928,319.3602117919922,-0.0031379980500787497,0.002610093913972377,0.9910590052604676,0.13336239755153656,-0.010221392448461408,0.03999066185847877,3.015147436122616,-0.16926345229148865,-0.059547059237957,-0.04963398352265358,0.0725335224531591,-0.012635065577924251,-9.881313811540604
25.2,2.799999952316284,229.0,21.05824089050293,25.20712280273437,-79.78279586998009,40.459050234652175,319.66100067138666,-0.0036653554998338227,0.004881807137280704,0.9910572171211244,0.13329832255840302,-0.011982231028846876,0.05288177876476277,3.0037784860313286,0.0022250562906265267,0.10450198501348497,-0.005570151843130589,0.0806825767736882,-0.13299898565746845,-9.723705621957778
25.4,2.799999952316284,233.0,21.008159637451172,25.76374816894531,-79.78279588663328,40.459050199886214,319.96087020874023,-0.0024783022236078978,0.007559780031442642,0.9910973906517028,0.13290125131607056,-0.0380658964771119,0.07295786193752837,2.997772904659859,-0.17608052492141724,0.0010975400218740106,-0.1355748325586319,0.08165292221121491,0.07425227038096636,-9.694242671728137
25.5,2.799999952316284,236.0,20.94430351257324,26.43964767456055,-79.78279615464567,40.459050098070335,320.5458425903321,-0.0018146610818803308,0.011622299440205095,0.9911779761314392,0.1320149004459381,-0.021441756931238853,0.11682269493265555,2.9689300672811454,-0.018163558095693588,0.009223697707057,-0.1072527915239334,0.20471098344773056,-0.2003159968927503,-9.705730696320538
25.7,2.799999952316284,243.0,20.99438667297364,26.16133689880371,-79.78279634636458,40.459050088586174,321.1340574645996,-0.003624449251219631,0.009548966772854328,0.9913212060928344,0.131064772605896,-0.03728954075223108,0.10709524244053624,2.974769574579704,0.006946940440684557,-0.018681973218917847,-0.10410314053297044,0.15588008154183627,0.04045867580920458,-9.810787035226822
25.8,2.799999952316284,246.0,20.986873626708984,26.272661209106445,-79.78279635047832,40.45905004869032,321.43203872680664,-0.0060962168499827385,0.009832277894020079,0.9913387894630432,0.13081873953342438,-0.02569110419436188,0.0912646983473921,2.9800488251903183,0.19749169051647186,0.1007414162158966,0.07235217839479446,0.20776617189869287,-0.2504917766712606,-9.917622681856157
25.9,2.9000000953674316,250.0,21.00189781188965,26.240854263305664,-79.78279649926915,40.45905006209181,321.7265943908692,-0.007998185232281685,0.011213496327400208,0.991342306137085,0.13057878613471985,-0.06766791797933379,0.09242681974536733,2.994450821814509,-0.12682589888572693,-0.03898556530475617,-0.05657720565795898,0.1095678312331438,0.003966833325102926,-9.817981449365616
26.1,2.9000000953674316,252.0,20.93804359436035,26.9167537689209,-79.78279662765846,40.45905002607625,322.31900543212885,-0.006629927549511193,0.011201479472219944,0.9914249777793884,0.130027174949646,-0.0743657027906194,0.09703389168796107,2.9981942749257797,-0.11588432639837265,-0.05604687705636025,-0.09662364423274994,0.12937317291274664,-0.07991121025756003,-9.824374794960024
26.2,3.0,255.0,21.00565528869629,25.00832939147949,-79.78279662083922,40.459049994740774,322.6192373657226,-0.0051561682485044,0.010760551318526268,0.9914585947990416,0.1298753172159195,-0.051685869232824116,0.08827622256060426,3.0037823231097343,0.16357018053531647,0.09905831515789032,0.09201022982597352,0.19205114029347892,-0.3241594762355089,-9.919255224466324
26.4,3.0,252.0,20.9843692779541,25.827362060546875,-79.78279683337706,40.4590499826522,323.2077879333496,-0.005465921480208635,0.010846816934645176,0.991483211517334,0.1296675205230713,-0.047114812877215,0.08084244586928238,2.9963078075703264,-0.02294722571969033,-0.014277351088821888,-0.021484220400452614,0.18207951799035074,-0.20216146951541306,-9.828260854482652
26.6,3.0,251.0,20.93178367614746,27.00422477722168,-79.78279698908129,40.45904996609665,323.8046125793457,-0.005876244977116585,0.01006514485925436,0.9915582537651062,0.12913736701011658,-0.0607746122396297,0.07315570207259485,2.994406347984718,-0.09558743983507156,-0.05932789295911789,-0.10424337536096573,0.07520787443965674,-0.08609270391985774,-9.753657984137538
26.7,3.0,251.0,20.949312210083008,26.686153411865234,-79.78279697497057,40.45904995305854,324.1038488769531,-0.004774908535182476,0.009132077917456629,0.9915202260017396,0.1295439898967743,-0.04598222722156261,0.05668236975866575,2.9917477211692436,0.18070417642593384,0.08156969398260118,0.1461426317691803,0.03455470561981201,-0.4238698885962368,-9.846905286312102
26.9,3.0999999046325684,250.0,21.010662078857425,25.40591812133789,-79.78279694980739,40.459049947801425,324.40372222900385,-0.003401215188205242,0.009636850096285343,0.9914722442626952,0.1299169957637787,-0.055944902227964666,0.0414045239541488,3.001397872226216,0.045458633452653885,0.014624964445829391,0.09784281998872756,0.07656093384604902,-0.423425792567432,-9.923558775186539
27.01,3.0999999046325684,248.0,21.029443740844727,24.83338928222656,-79.78279689887808,40.45904999903277,325.00690979003906,-0.007607481442391871,0.0090657826513052,0.991327702999115,0.13087938725948334,-0.07354962111937467,0.036397098171808036,2.997385221152177,0.17677362263202667,0.029187235981225967,0.11363662779331207,0.08988175448030232,-0.239069588072598,-9.703836198449137
27.21,3.0999999046325684,246.0,20.901735305786133,27.3063907623291,-79.78279699346909,40.459050033225466,325.6046728515625,-0.0106279868632555,0.004153768066316843,0.9912349581718444,0.13161732256412506,-0.10983710749735752,0.014095360031453088,2.988598956197325,-0.07734944671392441,-0.1087862029671669,-0.04762449115514755,0.02681248731678352,-0.08066157247871161,-9.743455177545547
27.31,3.0999999046325684,245.0,20.901735305786133,26.638442993164066,-79.78279694179629,40.459050037551826,325.9034895324707,-0.011878262273967266,0.003106262069195509,0.9911153316497804,0.1324378401041031,-0.08755944821477532,0.0028936760780490928,2.9841160565175286,0.1801595836877823,0.03607059642672539,0.10769721120595932,0.12629781156778336,-0.40187609855085615,-9.792338485121727
27.4,3.2000000476837163,246.0,20.91926383972168,26.9167537689209,-79.78279705634193,40.459050119803024,326.2047247314453,-0.012491757050156592,0.0029773281421512365,0.9909365177154541,0.13371603190898895,-0.10781730339435984,-0.0016150385723548767,3.0022966018854285,-0.0464070737361908,-0.07441113144159317,-0.00014675804413855076,0.04659166499041021,-0.17338273487985134,-9.830469932556152
27.6,3.2000000476837163,247.0,20.973100662231445,25.7876033782959,-79.78279712578525,40.45905019077993,326.80369705200195,-0.011088671162724495,0.008413375355303288,0.99101984500885,0.13298901915550232,-0.10237972664640584,0.00816938510218408,3.0128772180100767,-0.1224590465426445,-0.011072267778217793,-0.11305560171604155,0.1750045332312584,-0.08870948824100197,-9.809022345542907
27.7,3.2000000476837163,246.0,20.936792373657227,26.51916694641113,-79.78279709961436,40.45905020047504,327.1047033691406,-0.009213726036250593,0.008473546244204044,0.9913427233695984,0.1307021677494049,-0.0980162629233954,0.028452743761416287,3.0047659673187237,-0.08287554234266281,-0.01634926348924637,-0.06959547102451323,0.1663730744831264,-0.04552938122302293,-9.690886954665183
27.9,3.2000000476837163,246.0,21.03445243835449,24.54712677001953,-79.78279715352322,40.459050245829296,327.7035879516601,-0.008622298948466778,0.0020933777559548608,0.9918864369392396,0.1268174797296524,-0.07262949032200104,0.007011708639000968,3.0063341618028785,-0.011003509163856506,-0.17122432589530945,0.028715010732412338,0.15991111546754838,-0.3408149411156774,-9.810146180391312
28.0,3.0999999046325684,242.0,20.936792373657227,25.708086013793945,-79.78279712749145,40.45905025712721,328.00362152099615,-0.01146584004163742,0.0002240838075522333,0.9918712973594666,0.12672729790210724,-0.06937351484176182,-0.010388537863759073,2.9912831554007093,0.11435478925704955,-0.0013242957647889853,-0.029134776443243027,0.048804287938401116,-0.0845263079367578,-9.642826935052874
28.2,3.2000000476837163,246.0,20.89297103881836,27.34615135192871,-79.78279723225094,40.45905032726408,328.6004766845703,-0.010557133704423904,0.004586851689964533,0.9917505383491516,0.12766535580158234,-0.09415244670286388,-0.010220907588741106,2.9787605529848764,-0.13192865252494812,0.003588083665817976,-0.10519007593393326,-0.015360091910697518,-0.047678388291969895,-9.624637416601182
28.3,3.0999999046325684,245.0,20.960580825805664,25.66037368774414,-79.78279721682752,40.45905033805367,328.8982176208496,-0.00808656122535467,0.008458598516881466,0.991618275642395,0.12867145240306854,-0.06148751414182129,-0.0003941871772138597,2.977642632117159,0.14658652245998385,0.1688927859067917,0.14100155234336853,0.05127188146580011,-0.39074186705052855,-9.835375746488573
28.5,3.0999999046325684,244.0,20.97184944152832,25.779651641845703,-79.78279730840667,40.459050477206624,329.5001806640625,-0.007032396737486124,0.011180401779711243,0.9911310076713562,0.13223059475421906,-0.06553196305674351,0.03461805946363277,2.9989053446238056,-0.11869378387928008,-0.1913558393716812,-0.07497549802064896,0.17330681243911386,0.012582148276269436,-9.774284622073173
28.6,3.0999999046325684,241.0,20.950565338134766,25.95458984375,-79.78279745400151,40.45905053035745,329.79600662231445,-0.009916363283991814,0.004592920653522015,0.9909455180168152,0.13381977379322052,-0.041312511317053366,0.0248364383372956,2.99098374690328,0.1314568817615509,-0.13026860356330872,0.142653688788414,0.06175450016744435,-0.1901636956259609,-9.742701471447946
28.8,3.0999999046325684,240.0,20.881702423095703,26.964466094970703,-79.78279745795504,40.45905060050828,330.39412826538086,-0.014118353836238384,-0.002497537061572075,0.9906485080718994,0.13568326830863953,-0.059920526623663324,-0.04829681137888487,2.9920452369664687,-0.0036368712317198532,0.013590339571237564,-0.08625324070453644,-0.03792371367802844,-0.05283489245921374,-9.771568590402604
29.01,3.0999999046325684,239.0,20.90924644470215,26.51916694641113,-79.78279760092308,40.459050647301076,330.99231857299804,-0.003570230212062597,-0.002180667594075203,0.9910234808921814,0.13362252712249756,-0.06535663457064543,-0.036903435052487575,3.004597854237641,-0.28125637769699097,-0.05122712627053262,-0.18768060207366946,-0.061173789426684375,0.06917358443140982,-9.815109297037123
29.1,3.0999999046325684,239.0,20.87293815612793,27.57675170898437,-79.78279774188273,40.459050693071866,331.2884191894531,-2.5076280508073968e-05,-0.0008200144511647522,0.9912993907928468,0.13162417709827426,-0.013758645027060602,-0.01829992990733486,3.0031958743119658,0.03371146321296692,0.06312158703804016,0.06650632619857788,0.029038602258078763,-0.2215317052602768,-9.776873184442518
29.2,3.2000000476837163,237.0,20.93553924560547,26.82928466796875,-79.78279773565237,40.45905069225813,331.5887655639648,-0.0016516016330569985,0.0007891084533184768,0.9915805459022522,0.12947846949100494,0.0007511206616044599,-0.0016177226528703607,3.0035911457603075,0.15830719470977786,0.09566909819841383,-0.009232996962964536,0.0656223876401782,-0.2819063995778561,-9.803268685340882
29.41,3.2000000476837163,240.0,20.882953643798828,26.781574249267567,-79.78279788980359,40.459050666399854,332.18326705932617,-0.010663559660315514,-0.0008310875855386258,0.9919575452804564,0.1261187046766281,-0.08313394679991258,0.037031979018097835,2.996356225849784,-0.0526326522231102,-0.15368525683879852,-0.07222314178943634,0.1717825346812606,-0.07737547382712365,-9.746892755627634
29.61,3.299999952316284,244.0,20.906742095947266,26.58278083801269,-79.78279786337971,40.459050617173865,332.48260635375976,-0.01625325158238411,-0.0005740844062529504,0.9918985962867736,0.12598758935928345,-0.09760292912257687,0.0445556309141274,2.991677598866185,0.12202818691730499,0.0527903214097023,-0.096592977643013,0.05332299792207778,-0.15911101536825306,-9.717184222340585
29.7,3.299999952316284,245.0,20.894222259521484,26.26470947265625,-79.78279788499977,40.45905056160919,333.0776571655273,-0.019981332123279568,0.01120895892381668,0.991392970085144,0.12889984250068665,-0.15459560855952148,0.08424933981670649,2.9693250620428917,-0.1482795774936676,0.059635207056999213,-0.024692200124263763,0.22002407379448416,-0.33819988355040553,-9.620602253079415
29.9,3.4000000953674316,250.0,20.800317764282227,28.06976127624512,-79.78279795885197,40.459050533723534,333.6716055297852,-0.013994324952363968,0.02179996483027935,0.9908158779144288,0.13271327316761014,-0.10025312792461584,0.14604972104681152,2.9436027784723766,0.19784899055957794,0.09830981492996216,0.17412588000297546,0.1987515012547374,-0.2433312946557999,-9.590577970147132
30.0,3.4000000953674316,255.0,20.777782440185547,28.729759216308594,-79.78279797085311,40.459050487809954,333.96687835693365,-0.012484763748943806,0.020007221028208733,0.9908420443534852,0.13295134902000427,-0.09965041453835333,0.1620924356405147,2.948051456941148,-0.052372757345438,-0.08108522742986679,0.059454385191202164,0.3427987186610699,-0.34527654938399793,-9.846591875553132
30.1,3.5,258.0,20.85791206359864,26.88494682312012,-79.78279803126217,40.459050459017675,334.26379913330084,-0.01172641571611166,0.014505730010569097,0.9910261034965516,0.1323610097169876,-0.10861749554537832,0.14532707127187033,2.9650549049388797,-0.2328203618526459,-0.17760592699050906,-0.11161132901906967,0.19524806890636684,-0.11675413236021995,-9.855669093132018
30.31,3.5999999046325684,259.0,20.779033660888672,28.610483169555664,-79.78279803136195,40.45905042285505,334.8567556762696,-0.013751665130257608,0.009397919289767742,0.9912472367286682,0.13096372783184052,-0.09451331198939332,0.05653011104973256,2.9586446617439,0.0241572130471468,-0.0011327606625854973,0.05696728453040122,-0.014605933567509057,-0.24761366749182345,-9.706975568532943
30.41,3.700000047683716,261.0,20.83287239074707,27.544944763183594,-79.78279822764297,40.45905035805581,335.154786529541,-0.013784174807369707,0.009918034076690674,0.991414487361908,0.12964972853660586,-0.09479172658646076,0.06630064275345199,2.9738229788309627,0.07192136347293854,0.07246673107147218,0.042530182749032974,0.18895335853099826,-0.4537238348275423,-9.870494123697279
30.61,3.700000047683716,261.0,20.835376739501953,27.87891960144043,-79.78279833956461,40.45905034201984,335.7443327331543,-0.015075391158461569,0.0056951399892568606,0.9916061162948608,0.12828761339187622,-0.08321449789335894,0.060640257836530126,2.9675137787692965,0.12926003336906433,-0.033231500536203384,0.18849344551563266,0.15335845151916147,-0.5965707650408149,-9.773376549482348
30.7,3.700000047683716,262.0,20.761505126953125,28.825180053710927,-79.78279833096327,40.45905031761888,336.04126495361334,-0.015152613632380962,0.0047095478512346745,0.9916436076164246,0.1280285269021988,-0.10286148968862972,0.04843603048257506,2.965031312409576,0.01216144859790802,-0.007924427278339863,0.021879063919186592,0.0959017827641219,-0.4969572337344289,-9.791235115528108
30.91,3.799999952316284,262.0,20.834123611450195,27.48928260803223,-79.78279843849286,40.45905032099461,336.6341757202148,-0.01573397032916546,0.0058643096126616,0.9916768074035645,0.12765254080295566,-0.103173499625963,0.05323439046770631,2.9945096809270315,-0.017638934776186943,-0.039785373955965035,-0.0349159836769104,0.09944556090049446,-0.38404760912060737,-9.860394812822342
31.0,3.799999952316284,260.0,20.787797927856445,28.196990966796875,-79.78279843427089,40.459050285059575,336.933408203125,-0.018422342836856842,0.005672059487551451,0.99163019657135,0.1276642233133316,-0.11994355848554968,0.06313866709110333,2.9851488472269603,-0.032646521925926215,-0.006456972565501928,-0.056475304067134864,0.22251113215461374,-0.3158612539619208,-9.790918781161313
31.2,3.9000000953674316,260.0,20.846643447875977,26.82928466796875,-79.7827985069144,40.45905023294633,337.5254873657226,-0.01700134202837944,0.010104488581418993,0.9914560317993164,0.12893348932266235,-0.1452430334294351,0.06703664901005116,2.98396621406056,-0.117936909198761,0.03938933089375496,-0.13097703456878662,0.15776197135448455,-0.2464352159947157,-9.772360888123512
31.4,4.0,258.0,20.751487731933594,28.97626495361328,-79.78279847270153,40.45905022083146,338.11861175537115,-0.012954081408679484,0.01688467338681221,0.9912115335464478,0.13056378066539764,-0.14016900554466302,0.09719923370275688,2.9517650461433362,-0.10613545775413513,-0.0605427697300911,-0.11790233105421065,0.07676939165219665,-0.2456739633344113,-9.711090838909149
31.5,4.099999904632568,258.0,20.79656219482422,28.06976127624512,-79.78279843350352,40.45905019910629,338.41287750244135,-0.013543826527893543,0.014752918854355812,0.9912088513374328,0.1307821273803711,-0.131035549018334,0.09825509760940764,2.92943313678649,0.050625111907720566,-0.10730279982089996,-0.14451518654823306,0.20284700073301792,-0.17504822289571167,-9.638346798419954
31.6,4.300000190734863,257.0,20.735212326049805,28.849035263061523,-79.78279853714987,40.459050234248,338.7106375122071,-0.014750072732567787,0.01205370668321848,0.9913613796234132,0.12976837158203125,-0.14137322133672167,0.07963521177095949,2.9343590350912927,-0.038457319140434265,-0.10970945656299592,-0.07144476473331451,0.12771523145958782,-0.3499974451214075,-9.68011053621769
31.8,4.300000190734863,257.0,20.779033660888672,28.483253479003906,-79.78279840082256,40.45905021529953,339.2974142456055,-0.01976915821433068,0.010989545844495295,0.9914170503616332,0.1287660151720047,-0.17404431956967842,0.037843358036876135,2.918682588511643,-0.010502933524549007,-0.08812100440263748,0.07839259505271913,0.06394042235333472,-0.4426702218130231,-9.687072815895082
31.9,4.400000095367432,257.0,20.72018814086914,30.0736083984375,-79.78279840078463,40.45905024297692,339.5925039672852,-0.02258126623928547,0.013886828906834129,0.9914332628250122,0.12789654731750488,-0.19470330168495129,0.024844708120995738,2.9176141087349543,0.03751746937632562,-0.01237880252301693,-0.02257900312542916,0.04368975124787538,-0.5036513089388609,-9.706335883140564
32.1,4.5,256.0,21.07076072692871,22.948820114135746,-79.78279836059296,40.45905029604132,340.1779608154297,-0.02685096673667431,0.012729912064969541,0.9915564060211182,0.12622612714767456,-0.20403870076250696,0.035549113598606456,2.9236491368362167,0.09191343933343887,-0.04837866500020027,0.08472263813018799,0.15969533493742347,-0.6775818548351527,-9.740458479523658
32.3,4.5,257.0,21.039459228515625,24.252910614013672,-79.78279820966586,40.45905034449703,340.7505926513672,-0.03155490010976792,0.0065819616429507715,0.991334855556488,0.12734326720237732,-0.22075955676270653,-0.016759344961422257,2.760004318459127,-0.012305863201618195,-0.1248117983341217,0.04197037220001221,0.07092457427177579,-0.5728601228445769,-8.918484969735148
32.4,4.599999904632568,259.0,21.115835189819336,22.75002479553223,-79.7827980662031,40.45905046605419,341.0368856811524,-0.031409908086061485,0.007183777168393134,0.9912010431289672,0.1283840537071228,-0.2326228338087685,-0.052572243327339,2.692498509909152,0.05943445861339569,-0.02404235489666462,0.06971199810504912,0.03306171503383666,-0.511339008808136,-8.801598544120788
32.5,4.599999904632568,258.0,21.18094253540039,21.692440032958984,-79.78279798391397,40.45905051411484,341.3021063232422,-0.03177553415298462,0.009590242989361286,0.9911535382270812,0.1285029649734497,-0.20091555180571846,-0.04990656418078402,2.5887608650931173,0.1055835857987404,0.06072041019797325,0.04172734916210175,0.20832300955429675,-0.5529162204265595,-8.814089366197589
32.7,4.599999904632568,258.0,21.149641036987305,22.2331600189209,-79.78279786550617,40.459050723415935,341.8044180297852,-0.03491178527474404,0.013166951946914196,0.9911094903945924,0.12770989537239075,-0.19078602404398493,-0.04429380804390555,2.3599116265649145,-0.05684410408139229,0.005309216678142548,0.12467695772647858,0.11105896258726716,-0.6631146007776261,-8.575650436878204
32.8,4.599999904632568,263.0,21.112079620361328,23.068096160888672,-79.78279782520488,40.459050788627415,342.0350088500976,-0.032945644110441215,0.013930446468293669,0.9912200570106506,0.12729281187057495,-0.1713967970525239,-0.03971976579794443,2.2402671064524102,-0.0005839620716869831,0.01666010171175003,-0.01236393116414547,0.12639482052996756,-0.3903171764686704,-8.588478058576584
33.0,4.599999904632568,261.0,21.07576942443848,23.24303436279297,-79.78279779346137,40.45905100902673,342.47574371337885,-0.030068399384617805,0.0093447333201766,0.9912214279174804,0.12840886414051056,-0.12396064352165548,-0.04647076251262383,2.0750683011849365,0.012433084659278393,-0.02259834669530392,0.042534098029136665,0.1949483077414334,-0.40045902583748105,-8.916064222455026
33.21,4.599999904632568,262.0,20.973100662231445,24.483510971069336,-79.78279775764345,40.459051232355755,342.90086883544916,-0.02934393472969532,0.0020614550448954105,0.990991711616516,0.13065291941165924,-0.10718979012249866,-0.06287366225462697,1.9909100003111684,-0.06344349682331085,-0.05714086815714836,-0.07141400128602983,0.2528401098400355,-0.7245974886417389,-9.138417461514473
33.31,4.5,262.0,21.113330841064453,22.026412963867188,-79.78279775755352,40.45905129510025,343.0979208374024,-0.02808942832052708,-0.00035679101711139083,0.990897536277771,0.1316552460193634,-0.07657767547806542,-0.0668499973815988,1.9440653717933312,0.1302589476108551,0.04729925841093064,0.07961633056402206,0.16258959705010054,-0.682430439144373,-9.306101573109627
33.4,4.5,261.0,21.159656524658203,22.38424301147461,-79.78279770444577,40.4590514727481,343.3315252685547,-0.02656134031713009,-0.0013792774407193065,0.9907928109169006,0.13274869322776794,-0.10034162783437622,-0.06629392268491786,1.9295819614433336,-0.10484553128480913,-0.002424876438453793,-0.1764996200799942,0.11112231351435184,-0.3275617517530918,-9.126814246773721
33.61,4.400000095367432,262.0,21.14087677001953,22.51942443847656,-79.78279765037384,40.45905166132511,343.74713653564453,-0.025104111060500145,0.002019867766648531,0.9907240271568298,0.13353542983531952,-0.08438386297411532,-0.05111516529280061,1.8368862039323042,0.06681156158447266,0.14156216382980347,-0.008884303271770477,0.05590183929540217,-0.4447812128439546,-9.099169195890427
33.8,4.300000190734863,262.0,21.07201385498047,23.847370147705078,-79.78279763703473,40.45905170662247,344.1025671386719,-0.02745414897799492,0.007829799316823483,0.9906871318817142,0.13313178718090055,-0.08493064512804135,-0.014494940018581126,1.7122334819429774,0.0776670053601265,0.07379503548145294,0.1276828497648239,0.18628430558368564,-0.7228074366599322,-9.200438293218614
33.9,4.300000190734863,263.0,21.143381118774414,22.583038330078125,-79.78279761233534,40.459051854601505,344.3310369873047,-0.028114369139075283,0.008780800737440586,0.9907550811767578,0.1324268877506256,-0.10064435262740512,-0.004600928975225995,1.7113821492188033,-0.05199772119522095,-0.0009356983937323092,-0.0883428305387497,0.1513654280640185,-0.4785835279896856,-9.15557903945446
34.0,4.199999809265137,263.0,21.083282470703125,23.49749183654785,-79.78279760285837,40.45905187139593,344.49892181396484,-0.02751948870718479,0.007295283023267984,0.9909253716468812,0.1313636749982834,-0.10103641207678124,-0.001772362586919366,1.6414499960967937,-0.11176451295614244,-0.08673564344644548,0.08456876873970033,0.1227705974970013,-0.6151558841764927,-9.11806330382824
34.21,4.199999809265137,264.0,21.656721115112305,16.150053024291992,-79.78279763595394,40.45905197740289,344.87956756591797,-0.022693535313010216,0.006635261233896017,0.9911202788352966,0.13084988296031952,-0.09552810457039762,-0.0023285836332324642,1.4880918835728054,-0.1698993742465973,0.05042257532477379,-0.012114307843148708,0.15395788248628378,-0.734689125046134,-8.221806181669235
34.3,4.099999904632568,265.0,21.473920822143555,17.28715705871582,-79.78279759000414,40.459051987688994,345.0143408203125,-0.015571512281894684,0.010031861253082752,0.9931433796882628,0.11542653292417525,-0.11529009982294787,-0.018474552983130568,1.2109821263106948,-0.16051679849624634,0.054935272783040986,-0.568183183670044,0.013697309374110771,-0.6626807373762131,-7.43283552646637
34.51,4.099999904632568,266.0,21.35622978210449,19.267148971557614,-79.78279745445406,40.45905205359129,345.2387747192383,-0.01825900562107563,0.007602559868246317,0.9993788003921508,0.029169421643018726,-0.13693770067469369,0.0006936830490647445,0.8483588494576613,0.12747330963611606,-0.05630702152848244,-1.031850814819336,0.12040690625086428,-0.4961941355466843,-7.962203255295753
34.6,4.099999904632568,259.0,21.289871215820312,19.935096740722656,-79.7827974718676,40.45905205389671,345.2925848388672,0.023994922637939453,-0.00472117541357875,-0.99932062625885,0.027572579681873318,-0.16133701779985504,0.007607928352771415,0.7160082255745068,0.11895345151424408,-0.08843918144702911,-1.1406947374343872,0.1043433440476656,-0.7317638361454011,-8.322614518404007
34.8,4.0,255.0,21.274845123291016,20.2531681060791,-79.78279711371243,40.45905203111089,345.4162496948242,0.02700783498585224,-0.004178816918283701,-0.9873360991477966,0.15627066791057587,-0.18633776148959053,0.05974817696129399,0.5176064535614677,0.013207455165684223,0.014394715428352356,-1.4182037115097046,0.28349441198632125,-0.3560740178078413,-8.841725646257403
34.91,4.0,261.0,21.31365966796875,20.2531681060791,-79.78279711075817,40.459051954008906,345.4186148071289,0.027921069413423538,-0.0044225635938346395,-0.9740576148033142,0.2245279401540756,-0.16833989569763436,0.0969813669901992,0.43910833662151305,0.04488109424710274,-0.10845836997032167,-1.2669498920440674,0.1603822365961969,-0.5595450626313687,-8.959627733230592
35.1,4.0,264.0,21.269838333129886,21.072200775146484,-79.78279688572589,40.45905177423652,345.436826171875,0.03258269652724266,-0.006478182505816221,-0.9315274357795716,0.3621507585048676,-0.1006356848037506,0.1712306139970732,0.3019258543748867,0.10992144793272016,0.003458073828369379,-1.488611340522766,0.3496899912133813,-0.4223846227303147,-9.12650551378727
35.21,4.0,251.0,21.239788055419922,21.35846519470215,-79.78279669586075,40.459051684707816,345.46477264404297,0.03711884841322899,-0.006363940890878439,-0.902142345905304,0.4297918379306793,-0.05757311849147319,0.19883837902530832,0.2490533124654154,0.13667036592960358,0.013283581472933292,-1.5835959911346436,0.5217591125518084,-0.3736508942395449,-9.204881007671355
35.4,3.9000000953674316,248.0,21.301137924194336,19.664737701416016,-79.78279634132463,40.459051380064814,345.47052520751953,0.04302167147397995,-0.008841120637953281,-0.8253695368766785,0.5628820657730103,0.07085477524540344,0.2139008881262492,0.17889763217263205,0.06725722551345825,-0.04829559475183487,-1.5187691450119019,0.3612051322683692,-0.27549606051296005,-9.347364204525947
35.6,3.9000000953674316,259.0,21.209739685058594,21.70039176940918,-79.78279605289949,40.459050944466355,345.42817443847656,0.0465606302022934,-0.012851005420088768,-0.7341799736022949,0.6772347092628479,0.2326732196605345,0.14554648381656135,0.04662748789049377,0.0894855484366417,0.01298550982028246,-1.5079046487808228,0.5142715701833368,-0.0893796979263425,-9.338023277521136
35.7,3.9000000953674316,266.0,21.172178268432614,22.16159439086914,-79.78279596650924,40.45905068212287,345.42851776123047,0.047217663377523415,-0.013906345702707771,-0.685427725315094,0.7264751195907593,0.3130264745415551,0.09141400465565952,0.0134424850412479,0.08876870572566986,-0.02563125267624855,-1.365490436553955,0.6017158031836153,0.11709549098275605,-9.36440591454506
35.8,3.799999952316284,256.0,21.127103805541992,23.012434005737305,-79.78279590085083,40.4590503714149,345.4279302978516,0.045292068272829056,-0.015706416219472885,-0.6422419548034668,0.7650015354156494,0.37924081485397176,0.02454081180817827,-0.003635014373202959,-0.034261491149663925,-0.10234717279672624,-1.0567085742950442,0.579312086775899,0.1804920354858041,-9.47987497508526
36.0,3.799999952316284,252.0,20.840383529663086,27.314342498779297,-79.78279553916799,40.45904968970162,345.4002279663086,0.03638466820120812,-0.01828925684094429,-0.5810573101043701,0.8128432035446167,0.4718349195560759,-0.07122078438798808,0.04128466665502432,-0.03796403482556343,-0.08029273897409439,-0.5707816481590271,0.6549485986679793,0.4334209499135614,-9.89486648797989
36.1,3.799999952316284,265.0,21.09455108642578,23.20327568054199,-79.78279518859101,40.459049432842825,345.4273733520508,0.025229165330529213,-0.028679570183157917,-0.5602321624755859,0.8274545073509216,0.4709302295865371,-0.06456175864305336,0.1583707885629511,-0.3704571127891541,-0.18996194005012512,-0.25844308733940125,0.9719976413995028,0.09895118795335292,-10.121506905555725
36.31,3.799999952316284,270.0,20.956825256347656,26.01025199890137,-79.782795086322,40.459049021733904,345.44284576416015,0.0009465420735068619,-0.03715303167700768,-0.5537660717964172,0.8318424820899963,0.4602851510407087,-0.03739751001116928,0.1705064388429611,-0.3080977201461792,-0.5537272691726685,-0.2942456901073456,1.1169049476832151,0.6341667902469635,-10.091482622623444
36.4,3.700000047683716,263.0,21.05198097229004,23.624719619750977,-79.782794631462,40.45904834794441,345.4600881958008,-0.05368868261575699,-0.0006734142662025987,-0.5520153641700745,0.8321034908294678,0.4351148010770841,0.129611574893432,0.28323361812933084,0.2053639590740204,-0.6293350458145142,-0.052372299134731286,0.7441988173127174,0.7178671972453594,-10.253555746078492
36.6,3.700000047683716,256.0,20.920515060424805,26.376033782958984,-79.78279403339927,40.459047609855396,345.35272735595703,-0.07680633664131165,0.03685826435685159,-0.5659662485122681,0.8200150728225708,0.3974568039479068,0.40983991652387897,0.3903862509269629,0.06572487950325012,-0.20390349626541132,0.18313951790332794,0.4727338638156653,0.15587847355753184,-10.396913101673128
36.7,3.5999999046325684,263.0,20.948060989379886,25.89097595214844,-79.78279323558263,40.45904748973409,345.3894857788086,-0.0828000158071518,0.040704790502786636,-0.5722113251686096,0.8148996829986572,0.37214157136166975,0.6310185670114297,0.500355503860079,-0.051515862345695496,-0.09839339554309844,0.1585215926170349,0.5910278969630599,0.008138931328430772,-10.573972638845444
36.9,3.5,266.0,21.003150939941406,25.159412384033203,-79.78279090842788,40.4590475035355,345.3575338745117,-0.0915985181927681,0.03637809306383133,-0.5817735195159912,0.8073574304580688,0.3118796586048856,1.0920715793111886,0.6608037069823439,0.001149244955740869,0.010790469124913216,0.10984425246715546,0.6101334182918072,0.12114520858973266,-10.602716381549836
37.0,3.4000000953674316,264.0,21.015670776367188,24.57893371582031,-79.78278932823494,40.459047662969716,345.4046911621094,-0.0949094370007515,0.03523848578333855,-0.5848487019538879,0.8047996759414673,0.27333502723080794,1.332903234618406,0.7421956309042494,0.014119491912424563,0.01761701516807079,0.08072736114263535,0.562026657499373,0.20010567985475064,-10.474620258808137
37.2,3.299999952316284,266.0,20.93178367614746,26.50326156616211,-79.78278541354516,40.459048347869256,345.38818115234375,-0.09893593937158583,0.03756299242377281,-0.5865545272827148,0.8029661774635315,0.1769598263214618,1.792985234097238,0.8809156157587609,0.045058269053697586,-0.00843065232038498,0.018422473222017288,0.4459464898332954,0.024984476398676642,-10.493061207532882
37.4,3.0999999046325684,270.0,20.881702423095703,26.30446815490723,-79.78278305831303,40.45904881608928,345.4420217895508,-0.09978632628917694,0.03877922147512436,-0.58526211977005,0.8037457466125488,0.13058310251461558,2.0253178623531385,0.9890251056153748,-0.00015510663797613233,-0.009875105693936348,0.0009898763382807374,0.35429138448089365,0.1650857368670404,-10.571391677856449
37.51,2.9000000953674316,273.0,20.94305229187012,25.898927688598643,-79.78277763129722,40.459050178494365,345.433896484375,-0.0990179404616356,0.04194454476237297,-0.5800267457962036,0.8074683547019958,0.07419607932078018,2.4820229451335862,1.1602538096250041,0.028393192216753963,-0.033290907740592963,-0.04781471937894821,0.2996794318221509,0.12252015394158662,-10.601100211143494
37.6,2.700000047683716,280.0,20.93178367614746,26.38398551940918,-79.78277447034388,40.45905111718132,345.38876861572265,-0.09954196959733964,0.04292905703186989,-0.577073872089386,0.8094654679298401,0.05800531749042881,2.6961266106589044,1.2074416621577324,-0.02446761913597584,-0.04524162784218788,-0.07559987157583238,0.2243073237128556,0.19856864785775544,-10.503927673101426
37.8,2.5999999046325684,283.0,21.0281925201416,23.79170799255371,-79.78276747421778,40.45905294691217,345.51859802246094,-0.1037481352686882,0.045612554997205734,-0.571209728717804,0.812942385673523,0.06065417557620826,3.1538985301336093,1.3827001131550478,0.10517853498458862,0.007664570584893227,-0.00870578084141016,0.2613861261494458,0.11575872612185775,-10.38862291932106
38.0,2.5,295.0,20.95932960510254,25.00832939147949,-79.78275948983953,40.459055351479776,345.53815216064453,-0.10706888139247894,0.0499202124774456,-0.5675582885742188,0.814814031124115,0.03655471595179989,3.597751959834933,1.4749576536133255,-0.027188407257199287,-0.08556968718767166,-0.028160717338323593,0.08801596278324722,0.19826673053205016,-10.050526385307313
38.1,2.4000000953674316,302.0,21.069509506225586,23.871225357055664,-79.78275522654604,40.459056810745146,345.49306243896484,-0.11077551543712616,0.04992496594786644,-0.5658872723579407,0.8154802322387695,0.010643201919711652,3.806719271544313,1.4870537876120615,-0.06562917679548264,-0.057792585343122475,-0.06700204312801361,0.0895897226035595,0.252142610102892,-10.029718483686445
38.2,2.299999952316284,315.0,20.97810935974121,24.777727127075195,-79.78275092246075,40.45905796036444,345.52570861816406,-0.11351164430379868,0.04771167039871217,-0.5665689706802368,0.8147627115249634,0.02492262578018075,3.980012088867335,1.5209363682105748,-0.04900840297341347,-0.01654902659356594,0.02472434565424919,-0.034616037430241706,0.21760891791433096,-9.946354730129242
38.4,2.299999952316284,323.0,20.90924644470215,26.185192108154297,-79.78274148105199,40.459061131736156,345.5251745605469,-0.117323137819767,0.04492979869246483,-0.5640077590942383,0.8161567449569702,-0.06346741280357562,4.407031313422536,1.5878589114746722,-0.1583145260810852,-0.032000448554754264,-0.053965162485837936,-0.08344915031455458,0.3881590057164431,-10.019922058582306
38.51,2.4000000953674316,341.0,20.9555721282959,25.40591812133789,-79.78273626098121,40.45906274673917,345.5723776245117,-0.11788883060216905,0.04372887685894966,-0.5635522603988647,0.8164550662040709,-0.06725799729755938,4.63258159513334,1.651474851790367,-0.026983637362718586,-0.00832968670874834,0.11092790216207504,-0.06913364063948392,0.07961570659652352,-10.100844014883043
38.71,2.5,350.0,20.928028106689453,25.843265533447266,-79.78272591453259,40.459066491252386,345.5691275024414,-0.11667382717132567,0.04707064852118492,-0.5642055869102478,0.8159924745559692,-0.13794351454046286,5.015647151853297,1.6771057024357958,0.2116578370332718,-0.034467808902263634,0.2208766341209412,-0.06267602135427297,-0.05130957316607237,-9.999279048442839
38.9,2.799999952316284,5.0,20.94305229187012,25.843265533447266,-79.7827200785063,40.4590684099054,345.60941833496094,-0.1171308010816574,0.05177423730492592,-0.5655896067619324,0.8146829009056091,-0.20997636337368009,5.229872221718859,1.7389461317618813,-0.05083595216274262,-0.11018703877925873,0.11087925732135773,-0.31792561344802384,0.30092130733653905,-9.938517122268678
39.0,2.9000000953674316,11.0,20.9555721282959,25.30254554748535,-79.7827078656363,40.45907266426987,345.6527151489258,-0.11638644337654115,0.057231616228818886,-0.5674457550048828,0.8131322264671326,-0.292571657126338,5.599398806997181,1.8925968829364128,0.016097769141197205,-0.06712625175714493,0.07944533973932266,-0.4154018412530423,0.2846599996089935,-10.06659336447716
39.2,3.299999952316284,22.0,21.07451820373535,24.165441513061523,-79.78270109087588,40.45907518393891,345.6765493774414,-0.11656560003757475,0.057901617139577866,-0.5664935708045961,0.8137229681015015,-0.3469137430196797,5.799582878285609,1.9458013858626444,-0.028234958648681637,-0.04998919740319252,0.15043364465236664,-0.4311894331499934,0.04609078701585531,-10.006045446395877
39.3,3.5999999046325684,26.0,20.974353790283203,24.3721866607666,-79.78268744948353,40.459079773032265,345.7488607788086,-0.11969909816980362,0.0547187365591526,-0.5653454661369324,0.8142865300178528,-0.3552671355084178,6.180529072069813,2.005926134739892,-0.06317878514528275,-0.02184530533850193,0.03553752973675728,-0.5140109670907259,0.3531563302874565,-9.739690155386926
39.4,4.099999904632568,31.0,21.003150939941406,24.24495887756348,-79.78268005396936,40.459082564797896,345.7899298095703,-0.12263032793998715,0.05476447567343712,-0.5631145834922789,0.8153923749923706,-0.3734004799145324,6.3658928791886185,2.0596230380194527,0.013662622310221195,-0.012788179330527779,-0.07891310006380081,-0.6362835554033518,0.3969931618496776,-9.72238941371441
39.6,4.300000190734863,34.0,21.23728370666504,20.793888092041016,-79.78266492462097,40.459087969746214,345.86733001708984,-0.11368335783481598,0.04818269610404968,-0.5610402226448059,0.8185282349586487,-0.3795969673207241,6.686172068362138,2.1669054478690093,-0.09065910428762436,0.2641763687133789,-0.14266464114189148,-1.0211606651544571,0.44077488340437415,-9.560757755041124
39.7,4.800000190734863,38.0,21.21975517272949,21.28689956665039,-79.78265730963166,40.45909061201535,345.89731353759765,-0.101810023188591,0.03733768314123154,-0.5607171654701233,0.8208757042884827,-0.3657188938567797,6.873306426390228,2.000376415401699,-0.12669804692268372,0.18469493091106406,-0.014570240862667559,-0.8532363791763783,0.34550210572779183,-9.366151893138886
39.9,5.0,39.0,21.251056671142575,20.388347625732425,-79.78264112518347,40.45909638838821,345.96417755126953,-0.08862945437431335,0.02045045793056488,-0.5586933493614197,0.8243714570999146,-0.3534315045782989,7.2288863964067716,1.5120372414202652,0.08805610984563828,0.16344286501407626,-0.02857013419270516,-0.6312550230324269,0.31410526201128963,-9.073741409182553
40.0,5.400000095367432,46.0,21.21725082397461,21.000635147094727,-79.78263317260495,40.45909918616779,345.97428649902344,-0.08570143580436708,0.018692221492528915,-0.5582304000854492,0.8250362873077393,-0.3535283910353885,7.328253090311513,1.3479409073310054,-0.023065079003572464,0.027755271643400192,0.07376281917095184,-0.9050582049787044,0.2359107942692936,-9.156266087293622
40.2,5.599999904632568,48.0,21.163414001464844,21.52545166015625,-79.78261645823449,40.45910522176553,345.9945196533203,-0.07926914095878601,0.01872201450169086,-0.5572752356529236,0.8263233304023743,-0.36990087605817024,7.503557531706287,1.1841172956544823,0.1825186163187027,0.08276724815368652,-0.013636861927807331,-0.87493049941957,0.3830963402241469,-9.191306696534157
40.3,6.0,49.0,21.251056671142575,21.056297302246094,-79.7826083002016,40.459108141889686,345.9894537353516,-0.0755549743771553,0.01858451776206493,-0.5572080016136169,0.8267197012901306,-0.3974118156585316,7.5793787746161865,1.1175630427722931,-0.06528772413730621,-0.02713271602988243,-0.04890948534011842,-0.7777402004599572,0.3799396112188697,-9.383059117197991
40.5,6.099999904632568,50.0,21.23728370666504,20.61894989013672,-79.78258209690406,40.45911781676556,346.01141876220703,-0.0691128596663475,0.020209528505802155,-0.5573049187660217,0.8271797895431519,-0.4445643847541637,7.804372129616414,0.9853232111153032,0.0303029902279377,-0.010656116530299187,0.042333506047725684,-0.9320656169950964,0.4841344725340605,-9.251002090573312
40.7,6.4000000953674325,52.0,21.199722290039066,21.65267944335937,-79.78257367764851,40.45912086670185,345.99603790283203,-0.06553684175014496,0.01954425312578678,-0.5572829842567444,0.8275015354156494,-0.4518272594516088,7.856418200451197,0.9271486811796816,0.00806376803666353,0.05554355680942536,0.031213236972689632,-1.0018577637523414,0.32242574024945503,-9.30932163476944
40.8,6.5,53.0,21.272340774536133,20.539432525634766,-79.7825652200298,40.45912394093442,345.97643798828125,-0.06191789731383324,0.018564991652965542,-0.556956946849823,0.8280221223831177,-0.4738841026809574,7.911608642961153,0.8439377230043503,-0.15721942484378815,-0.001154378755018115,-0.05713765323162079,-0.9246493010222911,0.3613594622164965,-9.343859968185424
40.9,6.599999904632568,53.0,21.252307891845703,20.913166046142575,-79.7825559147108,40.4591274700891,345.99885314941406,-0.05997214838862418,0.01867646723985672,-0.5561805367469788,0.828684389591217,-0.4679042678019586,7.985744171005018,0.7980556185403009,0.07617663592100142,0.048410631716251366,0.09476932883262634,-0.9085655111074448,0.2689516557566822,-9.278241344690324
41.11,6.599999904632568,54.0,21.256065368652344,20.809791564941406,-79.78253776863603,40.45913417515751,346.0218176269531,-0.05298004299402237,0.0195725429803133,-0.5554071664810181,0.8296583890914917,-0.4543974758094523,8.088742702907384,0.7538137406046255,0.100501149892807,0.20798327028751373,0.14307120442390442,-0.7009106373041869,0.12925063719972968,-9.570823152065277
41.21,6.699999809265138,57.0,21.274845123291016,20.51557731628418,-79.7825291198086,40.45913733948132,346.0002111816406,-0.04735786095261574,0.019393343478441242,-0.5553965568542479,0.8300096392631531,-0.4544718620318772,8.097827675949532,0.6850762613627335,-0.04344719275832176,0.06692516058683395,-0.16804233193397522,-0.9426430108398199,0.33790310081094505,-9.490067256689073
41.4,6.800000190734862,57.0,21.321170806884766,19.712448120117188,-79.78251064458857,40.45914428921744,346.01959747314453,-0.0376439169049263,0.021362090483307842,-0.5544951558113098,0.8310606479644775,-0.4358752094542697,8.152526733628221,0.5671385757319796,-0.12035702168941498,0.0576283372938633,0.032314900308847434,-1.0429234170913697,0.153192481957376,-9.608427765369417
41.6,7.099999904632568,58.0,21.2235107421875,20.968828201293945,-79.78249211373517,40.45915128424823,346.02446502685547,-0.042314812541007996,0.017600536346435547,-0.5525625944137573,0.8322104811668396,-0.4080351634618961,8.18901166832615,0.5440098154517472,-0.18752296268939966,0.006312190555036068,0.034053169190883636,-0.9275872345268726,0.013978792279958723,-9.756426056027413
41.7,7.099999904632568,58.0,21.42884826660156,18.304983139038086,-79.78248337466655,40.45915446457204,346.00884765625,-0.048035867512226105,0.012911867350339893,-0.5516237020492554,0.8326086997985841,-0.39954847764273776,8.17389798892881,0.59479160767719,-0.3802523314952849,-0.1421554684638977,-0.15212848782539368,-1.1848313941061497,0.5650772595405579,-9.6798041421175
41.8,7.300000190734862,62.0,21.377513885498047,18.797992706298828,-79.78247465934443,40.459157647729995,345.9938558959961,-0.04980137199163437,0.0073944060131907454,-0.5520082712173462,0.8323173522949219,-0.3843906061881646,8.160992542281369,0.6307717806384465,-0.2193492352962494,0.11459086090326308,-0.15895713865756989,-0.8654953591525555,0.7041980150341988,-9.934905881881717
42.02,7.400000095367432,62.0,21.20097541809082,21.207380294799805,-79.7824564031948,40.45916457459546,345.9421286010742,-0.04637713730335236,0.012985785491764544,-0.5545539855957031,0.8307529091835022,-0.4365083320321616,8.20746215825525,0.6229075034893838,0.15163680911064148,-0.18352773785591125,0.1125304102897644,-0.8326762533187867,0.2617543911002577,-9.913610322475432
42.21,7.5,64.0,21.341203689575195,19.442087173461914,-79.78243826890329,40.45917119437778,345.88261932373047,-0.060790732502937324,0.030508145689964294,-0.5580077767372131,0.8270436525344849,-0.5060063825931669,8.233819626392208,0.8091976965129418,0.15797507762908936,-0.3115255534648895,-0.07890878617763519,-1.0074194160103798,0.4195532181859017,-9.861183017492293
42.31,7.599999904632567,66.0,21.39253807067871,18.106189727783203,-79.78242947076079,40.45917444433551,345.8727392578125,-0.06363583356142044,0.04424574971199036,-0.560558021068573,0.8244801163673401,-0.5366943879940403,8.214282979069178,1.0224504883257275,0.2907201051712036,-0.08955100923776628,0.1108332946896553,-1.3803156539797783,0.10978723886422813,-9.678617742061617
42.5,7.699999809265138,66.0,21.362489700317386,19.259197235107425,-79.78241169017062,40.45918145872432,345.76894134521484,-0.05395133420825005,0.04606126621365547,-0.566286563873291,0.8211498856544495,-0.6762000127813357,8.206603308251893,1.089304769980417,0.004662484861910343,0.221831813454628,0.12101799249649048,-1.2572959376871586,0.112258528014645,-9.470945692062378
42.6,8.0,61.0,21.23477935791016,20.388347625732425,-79.78240247995002,40.45918485654676,345.68108123779297,-0.04487761110067368,0.03722012042999268,-0.5673926472663879,0.8213808536529541,-0.7170184123525261,8.191719175116406,0.9266803842463556,-0.1385541409254074,0.2017059028148651,-0.0754198506474495,-1.4241218242049218,0.2077680174261332,-9.644796862006187
42.8,8.0,64.0,21.08077812194824,23.736045837402344,-79.78238490226192,40.45919127014125,345.6452307128906,-0.0270709190517664,0.013563483953475952,-0.5668874979019165,0.8232386708259583,-0.6666871846146111,8.19076087157745,0.5596155583306986,0.033568549901247025,0.24454355239868164,-0.16313090920448306,-1.0536515960097312,0.18737771663814784,-10.09872849225998
43.0,8.100000381469728,65.0,21.169673919677734,21.93894386291504,-79.78236670628804,40.45919783050113,345.5628942871094,-0.030810741707682613,0.015815971419215202,-0.5624390244483948,0.8261131644248962,-0.578641202169475,8.152617238122728,0.4385843550706583,-0.03747210279107094,-0.28455907106399536,-0.3547969460487366,-1.0229025506973266,0.14327775123529138,-10.551561430692674
43.1,8.100000381469728,65.0,21.536523818969727,16.484027862548828,-79.78235744605591,40.45920132746687,345.5058721923828,-0.0426970049738884,0.020040811970829964,-0.5600488781929016,0.8271158933639526,-0.5454355628184165,8.149808404133335,0.61864382197295,-0.1408805102109909,-0.2940284311771393,0.21107204258441925,-0.936543560922146,-0.010705776773393157,-10.729144878387453
43.2,8.100000381469728,74.0,21.332439422607425,19.47389411926269,-79.78234872461725,40.45920447882236,345.5128302001953,-0.054840799421072006,0.02554216794669628,-0.5579478144645691,0.8276680707931519,-0.4943880527042008,8.112373187184959,0.8524014641531474,-0.2031843364238739,-0.27321362495422363,0.15326206386089325,-1.206081783771515,0.061429056935012334,-10.282988290786744
43.4,8.199999809265138,67.0,21.496458053588867,16.921375274658207,-79.7823306813765,40.45921105546566,345.4609197998047,-0.07132451236248016,0.024345561861991882,-0.5535283088684082,0.8294134140014648,-0.425839102338428,8.135697570124663,1.1085094101684787,-0.15645553171634674,0.04885748028755188,-0.009615164250135422,-0.8338685005903245,0.13021736467257142,-9.613030108809472
43.61,8.100000381469728,67.0,21.421335220336914,18.686668395996094,-79.78231249385779,40.45921745156577,345.35932678222656,-0.07272284477949142,0.014265567995607853,-0.5502232313156128,0.8317225575447083,-0.3602148967898136,8.176480680425069,1.0271610665834514,-0.09879244118928908,0.14904049038887024,-0.08207882940769196,-1.09833879545331,0.473348917812109,-9.173713009357453
43.7,8.100000381469728,67.0,21.351221084594727,19.56931495666504,-79.78230371934934,40.459220652973855,345.3318685913086,-0.06481101363897324,0.009581861086189749,-0.5501891374588013,0.8324661254882812,-0.36412047755501203,8.196489493241078,0.814700776258889,0.09887587279081343,0.2334566414356232,0.12565548717975614,-1.2527716545760632,0.005210928954184057,-8.588028992414474
43.8,8.100000381469728,68.0,21.215999603271484,20.865455627441406,-79.78229497915636,40.459223887343825,345.2933630371094,-0.0509188286960125,0.0026858386117964983,-0.5516260266304016,0.8325315713882446,-0.4132747956947322,8.20199224301037,0.5724888169205359,0.07087226957082747,0.4277247488498688,0.03724399581551552,-1.2859227360785008,0.24847154539078475,-8.736136626005173
44.01,8.0,73.0,21.26357650756836,20.475818634033203,-79.78227719424864,40.4592305771637,345.2144598388672,-0.016292089596390724,-0.0017622254090383649,-0.5570175647735596,0.8303390741348267,-0.5232282505622271,8.107603209114089,-0.005184456290027589,0.2043574005365372,0.2418127804994583,-0.14174973964691162,-1.1059228534251453,0.21054792992770674,-9.441040692329407
44.1,7.800000190734862,73.0,21.38502693176269,18.217514038085934,-79.78226796819705,40.45923410795016,345.1639074707031,-0.006286511663347483,-0.0008506652666255832,-0.5581696629524231,0.8297026753425598,-0.573166839535328,8.039976662389938,-0.20799754509747292,0.1809258908033371,0.13571591675281525,0.16623982787132266,-1.0243636237084863,-0.3895290814340115,-9.777849669456485
44.31,7.699999809265138,73.0,21.07076072692871,24.483510971069336,-79.78225114349308,40.45924049376149,345.0787176513672,0.000421861361246556,-0.005017342511564493,-0.5585278868675232,0.8294704556465149,-0.5884296697387928,7.843652346815784,-0.4100427011010633,0.13723114132881165,0.25590717792510986,-0.06786789000034332,-0.99328837685287,0.02717776698991656,-9.812862796783447
44.5,7.699999809265138,79.0,21.172178268432614,21.135814666748047,-79.78224199461759,40.4592440579049,345.0315985107422,0.002467514714226127,-0.008858057670295237,-0.5570514798164368,0.8304270505905151,-0.5933514471162777,7.793413443152307,-0.3660306580482365,-0.1377461850643158,-0.08546193689107895,0.05078734457492829,-1.0592541056871414,0.0429773274064064,-10.199916898012162
44.6,7.599999904632567,80.0,21.31616401672364,19.489797592163086,-79.78222501065925,40.45925054770333,344.9362692260742,-0.009057305753231049,0.011788256466388702,-0.5542347431182861,0.8322277069091797,-0.4974091264657909,7.654814095686368,-0.18671459309819136,-0.03647330403327942,-0.4045947790145874,0.07119434326887131,-0.9129166435450315,0.14515261525288226,-10.57718509912491
44.7,7.599999904632567,80.0,21.408815383911133,18.241369247436523,-79.78221690199702,40.45925357140237,344.9227880859375,-0.02825396880507469,0.027395814657211304,-0.5527374148368835,0.8324257135391235,-0.4236017118636569,7.6192437392624415,0.08391576516546773,0.05504744499921799,-0.5388889908790588,-0.03325435519218445,-1.0897787640988827,0.1931699501909316,-10.1544033408165
44.9,7.5,80.0,21.34496116638184,19.386425018310547,-79.78220039634157,40.459259753207284,344.8294348144531,-0.06348055601119995,0.047183137387037284,-0.5496214628219604,0.8316611647605896,-0.3464958765265697,7.579011767396548,0.7658512803097197,-0.12955114245414734,-0.06371340155601501,-0.11746713519096375,-1.2814762209355832,0.20347365779802204,-9.472770608067512
45.01,7.5,64.0,21.26357650756836,21.15171813964844,-79.78219227126368,40.45926271201314,344.8061651611328,-0.070342518389225,0.04280836507678032,-0.5491548180580139,0.8316540122032166,-0.3160994368585178,7.59325089975488,0.9542178558025376,-0.17944230139255524,0.03376815468072891,-0.03999684378504753,-1.3286384005844594,0.06265853452496231,-9.4192475348711
45.2,7.5,64.0,21.36749649047852,18.980884552001953,-79.78217564579637,40.4592688030054,344.71046966552734,-0.0658959373831749,0.02731859870254993,-0.5497192144393921,0.8322982788085938,-0.2967652132443677,7.668400785398696,0.8915432298766159,-0.19438374042510986,0.11903905868530272,-0.12302516400814055,-0.8210338622331619,0.23993417199701075,-9.690693411827088
45.4,7.5,63.0,21.24604797363281,20.52352905273437,-79.78215895646541,40.45927489882428,344.62798828125,-0.05903085693717002,0.026166684925556183,-0.550986111164093,0.8320126533508301,-0.29927647191216306,7.719124596763617,0.6954050821989161,0.2951655983924866,0.012405766174197195,0.024925680831074715,-1.0180481922626496,0.2901718774437905,-9.606778265833857
45.5,7.5,63.0,21.2134952545166,21.8355712890625,-79.78215068949324,40.45927790026245,344.5952963256836,-0.05799862742424011,0.031697019934654236,-0.5522281527519226,0.8310688734054565,-0.3185008343432045,7.748178949646975,0.6587652812612177,0.2469571679830551,-0.0446397103369236,0.17337360978126526,-0.945094529092312,-0.05386290606111288,-9.513107040524483
45.6,7.599999904632567,66.0,21.3061466217041,19.720399856567386,-79.78214216976484,40.45928094690941,344.5379309082031,-0.05926500260829925,0.03596837446093558,-0.5530517101287842,0.8302577137947083,-0.3548813790250576,7.746956822851169,0.6896037056437103,-0.07353273034095764,-0.059005569666624076,-0.1553599089384079,-1.0969136097282173,0.13852290510199966,-9.618853935599327
45.8,7.599999904632567,64.0,21.32743263244629,19.6885929107666,-79.78212554195888,40.4592869569312,344.46972412109375,-0.057295091450214386,0.029935462400317192,-0.5542895793914795,0.8298097252845764,-0.3878814440216716,7.782947031878256,0.7446904078383179,-0.2608266770839691,0.14199814200401306,-0.04886686056852341,-1.1760277531296015,0.3141638072580099,-9.844932435750962
45.91,7.599999904632567,65.0,21.127103805541992,22.85339736938477,-79.78211702677291,40.45929010433607,344.41753143310547,-0.05511949583888054,0.02537839114665985,-0.5544531941413879,0.8299996852874756,-0.3882170269803024,7.787659380730702,0.6936291698391692,-0.0859193205833435,0.18451370298862452,0.004554371349513532,-0.9565448391437532,0.2814522171020508,-9.904910835027696
46.1,7.599999904632567,65.0,21.19095802307129,21.907136917114254,-79.78210009853784,40.459296204311684,344.3288626098633,-0.05470583587884903,0.0215785950422287,-0.552406370639801,0.8314979076385498,-0.3618039976451277,7.806952189557217,0.6251019418282466,-0.03781777247786522,-0.0814875140786171,0.27898722887039185,-1.0952745620906357,-0.11981138560920955,-9.934149252176283
46.3,7.5,68.0,21.289871215820312,20.66666030883789,-79.78208338267197,40.459302267684,344.2709326171875,-0.05562478303909302,0.028922243043780323,-0.5535911917686462,0.8304253220558167,-0.3758484209031108,7.84107339193018,0.6451563508813523,-0.028975978493690487,-0.05410259589552879,0.09785214811563492,-0.9250217686593531,0.2226220647990704,-9.725117139816282
46.4,7.599999904632567,69.0,21.244796752929688,20.905214309692386,-79.7820747947174,40.45930531908886,344.2150930786133,-0.05760276317596436,0.03163890913128853,-0.5540136694908142,0.8299095630645752,-0.3690869568599156,7.829629297848481,0.6835030095846373,0.09116058796644212,-0.06542646139860152,-0.003803117666393519,-1.2706411841511729,0.07161775711923839,-9.573457322716713
46.5,7.5,68.0,21.26608085632324,20.626901626586914,-79.78206640572962,40.45930835914001,344.1852850341797,-0.05946905538439753,0.030634090304374695,-0.5539780259132385,0.829839289188385,-0.3947887818428119,7.848175130787352,0.743539743611105,-0.21438713371753693,-0.1190958172082901,-0.039773344993591316,-1.1414547749608757,0.10405456468462944,-9.800363788604736
46.7,7.5,68.0,21.322423934936523,19.386425018310547,-79.78204929872129,40.45931459754181,344.10478729248047,-0.059831269085407264,0.02961190789937973,-0.5530495047569275,0.83046954870224,-0.37614120738372,7.890513930390979,0.8065459770941976,0.1959829181432724,0.17632509768009186,-0.0816829577088356,-0.9386807182431222,0.09498198833316564,-10.044302608966829
46.8,7.5,67.0,21.218503952026367,21.49364471435547,-79.78204083228756,40.459317671963326,344.0803503417969,-0.05865637212991715,0.02848062478005886,-0.5523863434791565,0.8310341238975525,-0.3833176329148831,7.919048836925103,0.8175812642878018,-0.10133643448352814,0.07616478949785233,0.15183313190937042,-0.921769108772278,0.13144761884585024,-9.870115224123
47.0,7.5,66.0,21.29237365722656,20.094133377075195,-79.78202364864279,40.45932391362867,344.00170654296875,-0.057532817125320435,0.02780767343938351,-0.5514442324638367,0.8317607641220093,-0.3755676050164315,7.9603085736217345,0.7797132664630053,-0.03021945431828499,-0.15140175819396973,0.19244128465652466,-1.1733233428001404,0.00483710914850235,-9.824829708337782
47.2,7.599999904632567,66.0,21.204730987548828,21.366416931152344,-79.78200642195752,40.45933023004656,343.9288000488281,-0.05581508204340935,0.029781779274344444,-0.551363468170166,0.8318630456924438,-0.3751512143357789,7.987465542504042,0.7627191956379993,-0.08169863373041153,-0.04340025037527085,0.10233604907989502,-1.2548500473797322,-0.06204154820647091,-9.619899417757988
