time,wind_speed,wind_angle,battery_voltage,battery_current,position_x,position_y,position_z,orientation_x,orientation_y,orientation_z,orientation_w,velocity_x,velocity_y,velocity_z,angular_x,angular_y,angular_z,linear_acceleration_x,linear_acceleration_y,linear_acceleration_z
0.0,0.5,269.0,25.52806282043457,-0.09542128443717957,-79.78279386684817,40.459082227184936,271.3267084231377,0.019550468772649758,0.006339922081679107,0.9130885004997252,0.4072432219982147,-0.007516860473354531,-0.0022199800229539767,-0.009442387144886648,0.0004331168020144105,0.0016352309612557292,-0.002445113379508257,0.25529002010822305,0.2892876139841974,-9.799599557518961
0.09,0.5,267.0,25.523054122924805,-0.08746951073408127,-79.78279385827439,40.4590822231624,271.325744556427,0.019563620910048485,0.006330544594675303,0.9130889773368835,0.4072417616844177,-0.008802684703876662,-0.003272728557870625,-0.00931630913912082,0.004878159612417221,0.0017365075182169676,0.0038844756782054897,0.26118587728589776,0.2733425492607057,-9.801992822885516
0.19,0.5,264.0,25.519296646118164,-0.11132483184337616,-79.78279391991028,40.459082112089945,271.31143640184405,0.01954214833676815,0.006329296622425318,0.9130930304527284,0.40723368525505066,-0.012317119467674394,-0.002086350789106524,-0.010004224024566305,0.004221163690090179,0.0019092583097517488,-0.0026137905661016703,0.25593144139274954,0.28776116179302336,-9.799152245521547
0.39,0.6000000238418579,264.0,25.520549774169922,-0.10337305814027786,-79.78279399864344,40.459082013759314,271.29750524663933,0.0195193812251091,0.006336412392556667,0.9130915999412536,0.4072378873825073,-0.010961354300050566,-0.001068584312102795,-0.010930252373076698,0.0023256654385477304,0.00257510831579566,0.0029059769585728645,0.2614784756116569,0.27298968806862833,-9.802725479006767
0.49,0.6000000238418579,264.0,25.513036727905273,-0.11927660554647446,-79.78279397598351,40.45908199914955,271.295267092228,0.019520249217748642,0.006328879855573177,0.9130911827087402,0.40723878145217896,-0.014074314254104322,-0.0031144895654448023,-0.010667024947026009,0.0008661747560836375,0.0015586258377879858,-0.001710326294414699,0.2563126798532903,0.28710426365956665,-9.798507882356645
0.69,0.6000000238418579,265.0,25.51428985595703,-0.15108370780944824,-79.78279407932105,40.459081879930025,271.2829061021805,0.01950792409479618,0.006298212800174952,0.9130932092666626,0.4072352945804596,-0.012201622142191828,0.0029782217629549506,-0.008671057216163512,0.005035648122429848,0.0014922062400728464,0.004262848757207394,0.2616821779869497,0.2722710835374892,-9.80220741569996
0.8,0.6000000238418579,264.0,25.51428985595703,-0.11132483184337616,-79.78279417183097,40.45908174141904,271.26894305849083,0.019502902403473854,0.006290238350629807,0.9131001830101012,0.40722012519836426,-0.011432792420670176,0.007189142065994876,-0.006997373318205299,0.003305538557469845,-0.0009089726372621953,-0.0006437835982069372,0.2560694904997945,0.28624914491549136,-9.799521789550784
0.99,0.6000000238418579,270.0,25.520549774169922,-0.08746951073408127,-79.782794168265,40.45908172895528,271.26823525333407,0.019518017768859863,0.006292500998824835,0.9130992293357848,0.4072215557098389,-0.01298905918262955,0.00626326306072552,-0.006854133462769967,0.0043163737282156936,0.001462909858673811,0.00474774232134223,0.2613510976731777,0.2722590419277549,-9.802756469249726
1.1,0.6000000238418579,269.0,25.51178550720215,-0.11927660554647446,-79.78279422967266,40.45908161071053,271.25276784801486,0.0194954015314579,0.006298780906945467,0.9130926728248596,0.4072372317314148,-0.01211605343636317,0.0036167679207038147,-0.008401134015138978,0.006158759817481041,0.0006200638599693775,0.00013850993127562106,0.2566029575653374,0.2842089782841504,-9.799684926867483
1.29,0.6000000238418579,269.0,25.51554107666016,-0.13518016040325165,-79.78279422241474,40.45908159986672,271.25191097164156,0.01951421983540058,0.006290396209806204,0.913092851638794,0.4072361290454865,-0.013902042466659478,0.0027114274633375807,-0.008269484484109326,0.0001424507499905303,0.0008380617946386338,0.008632920682430267,0.2600461818650365,0.2733442851528525,-9.801584102511406
1.39,0.5,269.0,25.51178550720215,-0.11927660554647446,-79.78279430210607,40.459081492373436,271.237670706749,0.019485387951135642,0.0062901503406465045,0.9130938053131104,0.4072352349758148,-0.00851790439961012,0.0016042723358148628,-0.006710264146347572,0.004241245333105326,0.00369421043433249,-0.00012624706141650677,0.2583230256848037,0.28041347751393914,-9.800178431868554
1.59,0.5,271.0,25.519296646118164,-0.11927660554647446,-79.78279429580473,40.459081485045466,271.2369847764969,0.019485387951135642,0.0062901503406465045,0.9130938053131104,0.4072352349758148,-0.010601452589007056,0.0008767257010940991,-0.006569693357482231,-0.0010623621055856347,0.002969244960695505,0.003175648162141443,0.2602235717698932,0.2740198578312993,-9.80106954753399
1.69,0.5,277.0,25.519296646118164,-0.10337305814027786,-79.78279435136538,40.45908132993653,271.22184328937533,0.019466323778033257,0.0062740221619606035,0.9130862355232242,0.4072534739971161,-0.013333503093475748,0.002350455802951449,-0.00576504963879036,0.006796400994062425,0.003946948796510696,0.001446044771000743,0.2593618931807577,0.2767983268015087,-9.801058437824251
1.89,0.5,281.0,25.52180099487305,-0.09542128443717957,-79.78279446609706,40.45908119553075,271.20459692382815,0.01944743096828461,0.006255756597965957,0.9130884408950806,0.4072496592998505,-0.007038080202213345,0.008101693857567633,-0.008820868602366635,-0.005481628701090814,-0.0006891822558827697,0.004020006395876408,0.2585129505582154,0.27666289066895844,-9.802200983762742
1.99,0.5,277.0,25.516794204711914,-0.10337305814027786,-79.78279446658773,40.45908117579914,271.20286409759524,0.019454725086688995,0.006265117786824703,0.9130883812904358,0.4072493612766266,-0.009117095310961885,0.0063226730620645,-0.00851238613662186,0.005046918056905271,0.0015996387228369713,0.004821466747671366,0.2608155292645097,0.27587850496172905,-9.801878217458725
2.19,0.4000000059604645,281.0,25.51428985595703,-0.11132483184337616,-79.78279451969867,40.459081025089546,271.18619229102137,0.0194592010229826,0.006242684554308653,0.9130911231040956,0.40724340081214905,-0.012208001882512488,0.007111931638765591,-0.009739327315465644,-0.001366803888231516,-0.001637813402339816,0.002164943376556039,0.2581779781915248,0.27733236031606795,-9.801969434022904
2.3,0.5,280.0,25.52430534362793,-0.10337305814027786,-79.78279455086383,40.459080880717046,271.17011611366274,0.019470250234007842,0.006269654724746943,0.9130946397781372,0.4072344601154328,-0.012379156087070887,0.0011044855527772394,-0.006859875202620575,0.007226727902889252,0.004789477214217186,0.002570606069639325,0.26015594506636264,0.2752018176577985,-9.801234439015387
2.49,0.5,284.0,25.52180099487305,-0.08746951073408127,-79.78279454100318,40.4590808710579,271.16941149735453,0.019471613690257072,0.006256009452044964,0.9131027460098268,0.407216340303421,-0.014936668787081346,0.00038883608508600876,-0.006522759019127088,-0.0007943196687847376,-0.0007433215505443512,0.0039117434062063685,0.25730800386518243,0.2775230891816318,-9.802424347400665
2.59,0.5,280.0,25.52180099487305,-0.10337305814027786,-79.78279461023534,40.45908073710623,271.15242870354655,0.01946612633764744,0.006286646705120802,0.913101315498352,0.4072193503379822,-0.007649159090176646,0.0004624396285365711,-0.005468229845038085,0.007345604710280895,0.0032589326146990056,0.0036361531820148225,0.260582280177623,0.2747501750662923,-9.801557205319405
2.8,0.5,282.0,25.523054122924805,-0.11132483184337616,-79.78279460353889,40.45908073100693,271.1518707742691,0.019465409219264984,0.0062851938419044035,0.9131007194519044,0.407220870256424,-0.01017056844141774,-0.00015313115942327532,-0.0052135494008805575,-0.004175990354269743,-0.002747089136391878,-0.0018250157590955496,0.258122722003609,0.2790360014140606,-9.801456048488618
2.89,0.5,282.0,25.516794204711914,-0.10337305814027786,-79.78279465159635,40.459080571976884,271.13703374767306,0.01944965124130249,0.0062818024307489395,0.913100004196167,0.4072231650352478,-0.009305417603373212,-0.00030752435124762733,-0.0005098047580119751,0.004913605283945799,0.002786036813631654,0.005172656383365393,0.26085253117606044,0.2733950097486377,-9.801515690088273
3.09,0.6000000238418579,284.0,25.520549774169922,-0.11132483184337616,-79.78279464269475,40.45908056523883,271.1369661560059,0.01944965124130249,0.0062818024307489395,0.913100004196167,0.4072231650352478,-0.011849370132213505,-0.0008982021585597189,-0.0001950063981088241,-0.004978930111974478,-0.00343636074103415,-0.0004905358655378221,0.25813500115647914,0.2827867161668837,-9.801506334543227
3.19,0.6000000238418579,283.0,25.520549774169922,-0.08746951073408127,-79.78279469086307,40.45908042042511,271.1209647228718,0.01943548396229744,0.0062725036405026895,0.9130922555923462,0.40724146366119385,-0.009104384769638506,-0.0013300837130674724,0.0010889804389244838,0.007119766902178527,0.002303380751982332,0.004373838659375906,0.2605634777247906,0.2728178530186415,-9.801364247202876
3.39,0.6000000238418579,283.0,25.520549774169922,-0.08746951073408127,-79.78279472675334,40.45908027672679,271.10411466860774,0.019401781260967255,0.00626758998259902,0.9130932688713074,0.4072407782077789,-0.008568853419430008,-0.0016177622991294619,0.0022201544962502217,-0.006107136141508818,-0.004283668007701635,-0.005760128609836102,0.25758139774203304,0.2842570350877941,-9.800875419974329
3.49,0.6000000238418579,286.0,25.516794204711914,-0.09542128443717957,-79.78279470722656,40.45908026726946,271.1044790914059,0.01943458430469036,0.006276835221797228,0.913095235824585,0.40723469853401184,-0.01035474798151992,-0.003530991293521255,0.002135712217941385,0.0075617912225425235,0.0026850167196244,0.003988162614405154,0.2615332749858499,0.2723180257156491,-9.80080993115902
3.69,0.6000000238418579,292.0,25.519296646118164,-0.09542128443717957,-79.78279471477346,40.45908009979927,271.0849848558903,0.0194455124437809,0.00628496240824461,0.9131114482879642,0.4071975648403168,-0.013761935084776586,-0.005033106126461176,0.00016536328766172004,0.003844102146103978,0.001469187787733972,0.0028346318285912275,0.2565213158167899,0.2874861233867705,-9.80045442044735
3.79,0.699999988079071,285.0,25.51554107666016,-0.11927660554647446,-79.78279474157489,40.459079935676385,271.06289498710635,0.01943278685212136,0.006276467815041542,0.9131109714508056,0.4071994721889496,-0.014226491645714809,-0.004847564209313668,-0.00507339109886181,0.007412908598780631,0.0013675186783075333,0.004530328791588546,0.2623214613832533,0.2726501110196114,-9.80148762345314
3.99,0.699999988079071,285.0,25.51053237915039,-0.08746951073408127,-79.78279472527291,40.45907992857063,271.0623349716664,0.019444148987531662,0.0062652374617755404,0.9131184816360474,0.4071823060512543,-0.01665291922730791,-0.0053727716761852,-0.004898653964321174,-0.008759966120123863,-0.00044673460070043797,-0.004095365293323994,0.2564005890861153,0.2903572159074247,-9.798926542997359
4.1,0.699999988079071,286.0,25.52180099487305,-0.09542128443717957,-79.78279477547734,40.45907975252718,271.04108871722224,0.01943507045507431,0.006254594307392836,0.9131274819374084,0.4071626365184784,-0.014348764212069815,0.0008126690098959914,-0.007578154008575246,0.001225567189976573,0.002365565625950694,0.002610009629279375,0.2608726309798658,0.2735354342870414,-9.802343655824664
4.29,0.699999988079071,286.0,25.519296646118164,-0.11132483184337616,-79.7827947642492,40.45907974199954,271.0402999391556,0.019425299018621445,0.006266128271818161,0.913132905960083,0.40715065598487854,-0.016634960605383452,0.00030205259676032234,-0.0073210244421384706,-0.00723240803927183,-0.0030243487562984232,-0.007685813121497631,0.25586891273036605,0.29270079821348194,-9.799299595355988
4.39,0.699999988079071,289.0,25.52180099487305,-0.11132483184337616,-79.78279480508475,40.459079571428965,271.0176808407307,0.01941557973623276,0.00625815661624074,0.9131322503089904,0.4071528613567352,-0.014421262935390476,0.0019228464529781988,-0.009605941517176595,0.0013842363841831686,-0.0010619214735925198,0.004474435001611711,0.2586544897221029,0.2731287238933146,-9.803247635364533
4.6,0.699999988079071,289.0,25.51428985595703,-0.11927660554647446,-79.78279479493283,40.4590795603576,271.0166863074303,0.01942860335111618,0.006270911544561386,0.9131290316581726,0.4071591794490814,-0.016540216483639358,0.0012718942722431403,-0.009398101979283662,-0.006361082196235657,0.0009601627243682742,-0.002693587448447943,0.255515960175544,0.2937507388740778,-9.799252817630768
4.69,0.699999988079071,287.0,25.519296646118164,-0.11927660554647446,-79.782794842556,40.4590793298917,270.991108553648,0.01941362023353577,0.006245883647352457,0.9131296873092652,0.4071589112281799,-0.0211753204048763,0.009223350393986007,-0.014527830637865053,-0.0010465969098731878,-0.00298894545994699,0.0007295520044863224,0.2584604535251856,0.2744640452228487,-9.800970144867897
4.89,0.699999988079071,283.0,25.519296646118164,-0.08746951073408127,-79.78279489758731,40.45907915345962,270.9649863710404,0.01939192973077297,0.006241153459995985,0.9131280183792114,0.4071637392044067,-0.018732337588590345,0.012164299620792223,-0.021795871534809136,-0.0061708083376288405,-0.00485366676002741,-0.007003939244896174,0.2571186454407871,0.2941879826970399,-9.798991447091105
4.99,0.699999988079071,284.0,25.52555847167969,-0.03180709481239319,-79.78279488846303,40.45907911355196,270.9605788906813,0.019390687346458442,0.006252557970583439,0.9131401181221008,0.4071363806724548,-0.02138632518468004,0.010642452356942202,-0.021624784910899367,-0.0013646995648741722,-0.0007609505555592477,0.0046820994466543215,0.2580239954218269,0.2745387982204557,-9.802296878099444
5.19,0.699999988079071,281.0,25.523054122924805,-0.09542128443717957,-79.78279493454872,40.45907900654123,270.93837893211844,0.01936762779951096,0.006266591139137745,0.9131432175636292,0.4071303904056549,-0.010676934480573526,0.005482111999296943,-0.02256600458418784,-0.003725707763805985,-0.0035864494275301686,-0.006667962297797203,0.256685439851135,0.29526893187314274,-9.800034590363502
5.3,0.699999988079071,279.0,25.52180099487305,-0.08746951073408127,-79.7827949453368,40.45907881975543,270.91365014219286,0.019357403740286827,0.0062616104260087005,0.913144826889038,0.4071272909641266,-0.013985296682574928,0.006040650682297497,-0.02365215638637233,-0.004435197450220585,0.0019219330279156566,-0.0005844511324539782,0.2593955877609551,0.2767961889132857,-9.800955526828766
5.49,0.6000000238418579,275.0,25.51804542541504,-0.09542128443717957,-79.78279494002894,40.45907880684775,270.91125808858874,0.019358668476343155,0.006270824931561947,0.9131389260292052,0.40714031457901,-0.01546540330910986,0.005221888248401413,-0.0235476252138956,-0.0030195789877325296,-0.002807938726618886,-0.0033996119163930416,0.2564661875367165,0.29518646785989405,-9.799363914728163
5.59,0.6000000238418579,272.0,25.51428985595703,-0.08746951073408127,-79.78279494590045,40.4590786147109,270.8860503008366,0.01936682872474194,0.006244994699954987,0.9131371974945068,0.4071442782878876,-0.017724732514889558,0.006112794045727696,-0.0243993447938957,-0.004092223010957241,-0.0029944500420242552,0.001434969948604703,0.2582308589480817,0.27999571222811936,-9.80182851612568
5.8,0.5,274.0,25.51178550720215,-0.10337305814027786,-79.78279493788641,40.459078599374884,270.8835688849688,0.019345281645655632,0.006250606849789619,0.9131374955177308,0.40714457631111145,-0.01881717029797097,0.005334187602803838,-0.024452575718056112,0.0030258686747401953,-0.0016807330539450054,-0.003466262947767973,0.25650086883455514,0.2937902258522809,-9.798603191971779
5.89,0.5,275.0,25.51804542541504,-0.11132483184337616,-79.7827949463447,40.45907842062236,270.85779831016066,0.019364630803465843,0.006234435364603996,0.9131388068199158,0.40714094042778015,-0.018121008373161714,0.004311704490584959,-0.025177332118785527,-0.005942191928625107,-0.005767502356320621,-0.002173478947952389,0.2581599614582956,0.28341324532404544,-9.800581889748576
6.09,0.5,276.0,25.523054122924805,-0.09542128443717957,-79.78279493653893,40.459078406227825,270.85522671991595,0.01936081610620021,0.006238764617592096,0.9131381511688232,0.4071423709392548,-0.0188039596229644,0.003414087365460289,-0.025335972596081842,-0.0006969271344132721,-0.0015418649418279526,-0.0016430655959993599,0.2558440255187452,0.2913164516352117,-9.798333635330199
6.2,0.5,279.0,25.519296646118164,-0.039758868515491486,-79.78279491203631,40.45907824040553,270.8328205888868,0.019378436729311943,0.0062388130463659755,0.913143277168274,0.40713009238243103,-0.02082114588770517,0.0005899605303584347,-0.022750994064473,-0.008291100151836872,-0.0035695906262844797,-0.000874978257343173,0.25718298308551313,0.28808337992057204,-9.798807259798052
6.39,0.5,280.0,25.51428985595703,-0.10337305814027786,-79.7827949013177,40.45907808584999,270.814453015268,0.01937654986977577,0.006238319445401429,0.9131340384483336,0.4071508944034576,-0.018363354589779654,-0.0015649510366373574,-0.016906345539558842,0.0020086076110601425,0.000500147812999785,-0.0013946358812972903,0.25633352883160115,0.2867169952578843,-9.798243003487588
6.49,0.5,279.0,25.51554107666016,-0.11132483184337616,-79.78279486744512,40.45907806165139,270.81094877997043,0.019378801807761192,0.00621608877554536,0.9131330251693726,0.4071536064147949,-0.02218267196006872,-0.002747795394969276,-0.01672975089177501,-0.010904435068368912,-0.0043334332294762135,-0.0078060426749289044,0.2566080373339355,0.2925656544417143,-9.798999048471453
6.69,0.6000000238418579,280.0,25.513036727905273,-0.12722837924957275,-79.7827949145827,40.45907793482693,270.7907015142739,0.019365843385458,0.006205616053193808,0.9131332635879515,0.4071536958217621,-0.01050373554670304,-0.0009639299397722656,-0.016044190766741517,0.005911339074373245,0.003160078311339021,0.00211435672827065,0.25891889350488784,0.2809370043128729,-9.799212471842766
6.8,0.699999988079071,280.0,25.50802993774414,-0.13518016040325165,-79.78279492863399,40.45907774487903,270.765459511593,0.019378213211894042,0.00619984045624733,0.913132905960083,0.4071540832519531,-0.01292827010208858,0.004185301634863107,-0.019140885890736446,-0.008005044423043728,-0.0031982918735593557,-0.009977325797080994,0.2558883181773126,0.295505013205111,-9.798943499922752
6.99,0.699999988079071,288.0,25.51554107666016,-0.11927660554647446,-79.78279492249575,40.45907773383822,270.76350751442465,0.019380103796720505,0.006200045347213745,0.9131364822387696,0.4071460068225861,-0.013247314306205044,0.0033379658582491697,-0.019312945849292686,0.004019623156636953,-0.00014339065819513053,0.0030571939423680305,0.2603458699397743,0.2771413208171725,-9.800625743865966
7.09,0.699999988079071,288.0,25.509281158447266,-0.11132483184337616,-79.7827949104549,40.459077556833954,270.73949039930113,0.019359178841114044,0.0061913151293993,0.9131269454956056,0.4071684181690216,-0.016970798871516764,0.004158826844283743,-0.020671696101654875,-0.0052257576026022426,0.00030414029606617987,-0.004375350195914507,0.2565083240345121,0.2962716014496982,-9.799289655089376
7.29,0.699999988079071,290.0,25.51428985595703,-0.10337305814027786,-79.78279490107502,40.459077542948286,270.7373733913303,0.019383246079087257,0.006186139304190874,0.9131265878677368,0.4071682989597321,-0.017467052756435987,0.0033475450480099397,-0.020888258003900703,0.005564112681895495,0.0016141390660777688,0.005797855090349914,0.26093667626380923,0.2739011958986521,-9.801474174857141
7.39,0.8000000119209291,288.0,25.51804542541504,-0.09542128443717957,-79.78279490259317,40.45907736527252,270.71306214311716,0.019364234060049057,0.006185954436659813,0.9131312966346741,0.4071585237979889,-0.01823959343740864,0.00630838733730016,-0.022336304951855568,0.0020311896223574877,-0.0021575922146439552,-0.006325013469904661,0.2566861342079937,0.29139109499752525,-9.798760482072833
7.59,0.8000000119209291,285.0,25.5042724609375,-0.14313192665576935,-79.7827948939882,40.45907734891985,270.7107878198624,0.01936517469584942,0.006177539937198162,0.9131320714950562,0.40715691447258,-0.0193259880806076,0.005711991076475242,-0.022441083985409224,0.003888426581397653,0.00203214748762548,0.0018033254891633987,0.26131577683612706,0.27202486094087364,-9.80201913535595
7.7,0.8000000119209291,286.0,25.516794204711914,-0.12722837924957275,-79.78279488581295,40.45907722319363,270.68860491195323,0.019341414794325832,0.00615719985216856,0.9131300449371338,0.4071629345417023,-0.01388603503379351,0.0008833444662207944,-0.01951274660159014,0.003609931794926524,0.002372438088059425,-0.0011957648675888775,0.25708361696451903,0.2865590290725231,-9.799596049189569
7.9,0.8000000119209291,285.0,25.520549774169922,-0.11132483184337616,-79.7827949123601,40.459077073177006,270.66468846255543,0.01934198848903179,0.0061338385567069045,0.913136065006256,0.40714964270591736,-0.009876737799235636,0.0038966658420957092,-0.021833406796462826,0.003326354781165719,0.0016447881935164332,0.0015222078654915097,0.2603170175850392,0.2733950097486377,-9.800980669856072
7.99,0.8000000119209291,287.0,25.519296646118164,-0.09542128443717957,-79.7827949022398,40.459077053744366,270.66029514575007,0.019328810274600983,0.0061280885711312285,0.9131361842155457,0.4071501791477203,-0.01255484979646128,0.0028126800279083177,-0.021684847567604658,0.002187090227380395,0.0013800481101498008,0.004613462369889021,0.2574884270131588,0.2823720023967326,-9.80114556133747
8.19,0.8000000119209291,288.0,25.523054122924805,-0.08746951073408127,-79.78279493916035,40.45907685923555,270.6342736577392,0.0193308349698782,0.006090240553021431,0.913132667541504,0.4071585237979889,-0.015362702191163376,0.013019027734239876,-0.027252052503915918,0.003905620193108915,0.0011565021704882386,0.003668221179395914,0.25936814239248634,0.2731833953596652,-9.802338978052141
8.29,0.8000000119209291,289.0,25.513036727905273,-0.10337305814027786,-79.78279493529969,40.45907668185017,270.6048311760426,0.01932253874838352,0.006097463425248861,0.9131315350532532,0.4071613252162933,-0.016840533874112603,0.011337156185442314,-0.03272174469627935,0.009703325107693672,0.0029094843193888664,0.0039114863611757755,0.2581776127405465,0.27955704314634205,-9.800338060855866
8.49,0.699999988079071,290.0,25.513036727905273,-0.11132483184337616,-79.78279493243642,40.45907666303482,270.6015477796793,0.019337251782417297,0.006090596318244934,0.9131325483322144,0.40715840458869934,-0.018992607158667768,0.01110049201324317,-0.03259843194250299,-0.0011750978883355856,0.0021747995633631945,0.003430442186072469,0.25912592148408303,0.2755411754362285,-9.802354180812836
8.6,0.699999988079071,288.0,25.51554107666016,-0.007951773703098297,-79.78279494012688,40.459076487080466,270.5728493651152,0.019340807572007183,0.0061061601154506215,0.913123905658722,0.4071773886680603,-0.017492035986070558,0.012169754424213796,-0.034086875753632166,0.004470027983188629,0.003710447112098336,0.004416569136083126,0.2591022037155926,0.27634973572567106,-9.800780695080755
8.79,0.8000000119209291,287.0,25.51428985595703,-0.02385532110929489,-79.78279493751799,40.45907646727532,270.56942418420317,0.01934804953634739,0.006101354025304318,0.9131242632865906,0.407176285982132,-0.019861851872275082,0.012015403257231229,-0.03407618184132302,-0.0019601674284785986,-0.0007475586608052254,0.0033465237356722355,0.2590907468274236,0.27668162003159524,-9.801691691279412
8.89,0.8000000119209291,287.0,25.50051689147949,-0.11132483184337616,-79.78279492390243,40.45907628809714,270.5420278480053,0.01934603229165077,0.006096458528190851,0.9131268858909608,0.4071706235408783,-0.020326218744368626,0.010583170068162884,-0.03212467380208728,0.006740210112184286,0.0014838317874819038,0.002984185703098774,0.2602394506148994,0.2745939813181758,-9.80142739713192
9.09,0.8000000119209291,286.0,25.49049949645996,-0.08746951073408127,-79.78279491747469,40.45907626735398,270.53878355228903,0.019346369430422783,0.006099767051637173,0.9131336808204652,0.4071553945541382,-0.022915441384072432,0.010355375178256784,-0.032079649791747995,-0.004973697010427713,-0.0009384332806803287,0.0007438422180712223,0.25781265512108803,0.2798133521899581,-9.801105800271037
9.19,0.8999999761581421,290.0,25.493003845214844,-0.08746951073408127,-79.78279487773706,40.459076115568706,270.51443828845026,0.01936520636081696,0.006095860619097948,0.9131457805633544,0.40712741017341614,-0.022464832234350158,0.005518841250152653,-0.02817851778273137,0.006949963979423046,0.0041578388772904856,0.0034977453760802746,0.2615101967565716,0.27301457528024914,-9.800820456147195
9.39,0.8000000119209291,295.0,25.4942569732666,0.05566241592168808,-79.78279486958985,40.459075979534894,270.4905423989296,0.019360903650522232,0.006097128614783287,0.9131471514701844,0.40712445974349976,-0.02076367622221223,0.004825842464225889,-0.02783777832132896,-0.007236725185066461,-0.0005654667038470508,-0.0006450130604207518,0.2567259500920773,0.28522339710965755,-9.800340984463693
9.5,0.8000000119209291,294.0,25.49926567077637,-0.007951773703098297,-79.78279484539395,40.459075945549934,270.484848993063,0.01939910463988781,0.006107786670327187,0.9131479263305664,0.4071209132671356,-0.022959929505036825,0.0037188136320435577,-0.027962342925948527,0.0033470757771283392,0.0022155134938657284,0.006763522978872061,0.26183685511350635,0.27219075741246346,-9.803158757686617
9.69,0.699999988079071,294.0,25.51178550720215,-0.015903547406196594,-79.78279486318186,40.45907577796998,270.4583099355698,0.01938849315047264,0.0061122695915400965,0.9131484031677246,0.4071201980113983,-0.023264521497394875,0.00953781741626502,-0.03084222240070319,-0.007915187627077103,-0.005533250514417887,-0.006247282028198242,0.25616317385807635,0.29143038097769025,-9.800080783367155
9.79,0.699999988079071,293.0,25.51178550720215,-0.02385532110929489,-79.78279486572106,40.45907559381328,270.4287536015511,0.01937022991478443,0.0061205611564219,0.9131444096565248,0.4071297645568848,-0.022984139053638417,0.013405797601999956,-0.033432318260069295,-0.0003229037974961102,-0.00010137483332073316,0.001257421332411468,0.2614048737846315,0.27329529644921424,-9.801864184141161
9.99,0.699999988079071,294.0,25.506776809692386,-0.03180709481239319,-79.78279486016271,40.45907556998987,270.42538298869135,0.019366074353456497,0.006106756161898375,0.9131435751914978,0.4071321189403534,-0.02520954208743366,0.013218487020303578,-0.03326924109646301,-0.00546118151396513,-0.001438576029613614,-0.007697112858295441,0.2567281976155937,0.29420864894986154,-9.79951945066452
10.1,0.699999988079071,295.0,25.516794204711914,-0.03180709481239319,-79.7827948407312,40.45907545584093,270.39967315101626,0.019348634406924248,0.006130988709628582,0.9131461381912231,0.4071269631385803,-0.017932972368598272,0.006307451035727493,-0.030545321509153213,0.0012356943916529415,-0.0013095001922920346,0.00504039926454425,0.2598121836036444,0.27463330384343865,-9.801777060627938
10.29,0.699999988079071,296.0,25.51804542541504,-0.007951773703098297,-79.78279483286596,40.45907543985623,270.39657877588274,0.019331492483615875,0.006137142423540354,0.9131452441215516,0.4071296155452728,-0.019863629674553667,0.005981600984385853,-0.030527737954339582,-0.001388752250932157,-0.002808294491842389,-0.006210457999259234,0.2564350328408182,0.29435466488823303,-9.799101959466935
10.39,0.699999988079071,294.0,25.513036727905273,-0.03180709481239319,-79.7827947891053,40.45907528693864,270.3725616207123,0.019367186352610588,0.0061391540803015215,0.913156032562256,0.4071035385131836,-0.022176863176157028,0.003625911352554632,-0.025681252597802892,-0.002192419022321701,0.001943507464602589,0.002381478436291218,0.25871325423941016,0.2758894502185285,-9.801739053726195
10.6,0.699999988079071,293.0,25.51428985595703,-0.02385532110929489,-79.78279477537721,40.45907526983693,270.36993231081965,0.01935060881078244,0.006150891073048115,0.9131585955619812,0.4070983827114105,-0.023797425682247485,0.003111934034352285,-0.025690762297648183,-0.004698901437222958,-0.003502656240016222,-0.006628647446632385,0.2562059681676329,0.29536314513534306,-9.798666341900828
10.69,0.6000000238418579,297.0,25.51178550720215,-0.05566241592168808,-79.78279472515361,40.45907516871402,270.34685449504855,0.019353542476892468,0.006172250956296921,0.9131676554679872,0.4070776998996735,-0.019057000087174314,-0.0040787980651347255,-0.0211293292398214,-0.004887249320745468,-0.0001513346942374483,0.0007228738395497202,0.25768840178847313,0.2789764694496989,-9.801658362150194
10.89,0.6000000238418579,295.0,25.51053237915039,-0.02385532110929489,-79.78279471352772,40.459075056300996,270.32644345068934,0.019322402775287628,0.006182646844536066,0.9131596088409424,0.4070971012115479,-0.012747326534796748,-0.004645271236701946,-0.01581328426193623,-0.0024457748513668776,-0.003734309924766421,-0.0036740528885275134,0.2564310128800571,0.2936361517198384,-9.799252232909202
10.99,0.6000000238418579,297.0,25.51178550720215,-0.03180709481239319,-79.78279468403977,40.459075043919356,270.323153393507,0.01932378113269806,0.006173564586788416,0.9131652116775512,0.4070845246315001,-0.015965670350273596,-0.005490009679367522,-0.015838446357034568,-0.00520125450566411,-0.0019734175875782967,-0.00248846597969532,0.25852007685229184,0.2841719215549529,-9.800912842154505
11.19,0.699999988079071,298.0,25.50051689147949,-0.039758868515491486,-79.78279466422538,40.45907491358388,270.3022136261464,0.01931082084774971,0.006182873621582985,0.9131607413291932,0.4070951044559479,-0.014860281007905363,-0.004382023895540014,-0.014148312467891491,0.0010154900373890996,0.0007097785128280518,-0.002020429586991668,0.2562988840788603,0.2902868117764592,-9.798917187452316
11.3,0.699999988079071,299.0,25.513036727905273,-0.015903547406196594,-79.78279461412124,40.459074778364894,270.280989812851,0.01933021284639836,0.006172579247504473,0.9131650924682616,0.4070844352245331,-0.017225832119595733,-0.005000730617036789,-0.009340965147839508,-0.006250199396163225,-0.002955013420432806,-0.002694617724046111,0.2569927658513189,0.2873135208897293,-9.801044404506683
11.49,0.699999988079071,297.0,25.509281158447266,-0.02385532110929489,-79.78279459626955,40.45907477006728,270.27998124265673,0.01932967267930508,0.006176259834319353,0.9131629467010498,0.4070891737937927,-0.017717273786378402,-0.005646686838936463,-0.009459439857335557,0.00231197290122509,-0.001997275510802865,-0.0010715567041188476,0.2569428452476859,0.2868627188354731,-9.79948378264904
11.59,0.699999988079071,298.0,25.509281158447266,0.0,-79.78279454422555,40.459074674188045,270.2605443468094,0.01934546232223511,0.0061962315812706965,0.913176417350769,0.4070581197738648,-0.013297086136688016,-0.011307565830212968,-0.003375892428957456,-0.00854369904845953,-0.0030818183440715075,-0.006771066226065161,0.25687240457162264,0.2915885116159916,-9.799158092737196
11.79,0.699999988079071,297.0,25.513036727905273,-0.09542128443717957,-79.78279452352307,40.459074672296474,270.2601203193665,0.019345061853528026,0.006199762690812349,0.9131749868392944,0.4070613384246826,-0.013723035417010036,-0.012108965611179157,-0.0036205163678449726,0.0035330445971339937,0.005395123735070229,-0.0012933972757309675,0.258228684514761,0.2818725039996207,-9.798863977789882
11.89,0.699999988079071,298.0,25.513036727905273,-0.10337305814027786,-79.7827944915812,40.45907458498221,270.24139361286166,0.01934706978499889,0.00620804727077484,0.9131813049316406,0.4070467948913574,-0.008529155895100327,-0.01409106099846076,0.0008544624762180963,-0.002998077543452382,-0.003991022706031799,-0.0052087092772126215,0.2567870534956455,0.29413981625810265,-9.799417709112168
12.09,0.699999988079071,299.0,25.51554107666016,-0.08746951073408127,-79.78279447192917,40.459074587879954,270.24140863323214,0.019359778612852097,0.006205548066645861,0.9131771922111512,0.4070554971694946,-0.008848265436133897,-0.014942786584146557,0.0007823346800861085,0.00524726090952754,0.004029943142086268,0.0020564617589116088,0.2588781274482608,0.2778508804365993,-9.800868403315542
12.2,0.699999988079071,296.0,25.52931404113769,-0.03180709481239319,-79.78279442422675,40.459074411377024,270.22120939397814,0.0193469412624836,0.0061783664859831324,0.9131774306297302,0.4070560336112976,-0.016525511297117622,-0.009114330264064205,0.002488815892362452,-0.005220461636781693,-0.0004426355590112507,-0.006306480150669813,0.2553911952115596,0.2957311177253723,-9.798288611769676
12.39,0.699999988079071,290.0,25.51554107666016,-0.11132483184337616,-79.78279440302974,40.459074405788726,270.2213738431931,0.01934613659977913,0.006175493355840445,0.9131758213043212,0.4070597290992737,-0.016892481179558657,-0.009713333151354088,0.002309717775212041,0.0074056265875697145,0.004557524807751179,0.003800927894189954,0.261361439935863,0.2752532183378935,-9.800833904743195
12.49,0.6000000238418579,289.0,25.51554107666016,-0.11927660554647446,-79.78279439061592,40.45907426839207,270.20108740234383,0.019362766295671463,0.006178522016853094,0.9131828546524048,0.4070431888103485,-0.016437699017430526,-0.0059742999265372035,0.0024091115288552107,-0.0016717460239306092,-0.0006277441279962659,-0.0016021457267925145,0.2548472214303911,0.2937294330820441,-9.798782116770745
12.69,0.6000000238418579,285.0,25.51554107666016,-0.07951773703098297,-79.7827943721829,40.45907414117779,270.1821539273262,0.019358886405825608,0.006170984823256731,0.913178563117981,0.4070529937744141,-0.014224502347473203,-0.004067640558514085,0.005010753137265108,0.005319010466337204,0.005572096910327673,0.006366030313074589,0.2618544515781105,0.2735315239615739,-9.801469497084618
12.8,0.6000000238418579,285.0,25.516794204711914,-0.10337305814027786,-79.78279433840342,40.45907405066625,270.16482983732226,0.019351961091160767,0.006203648634254932,0.9131816029548644,0.40704599022865295,-0.008161486380507548,-0.008186914438955216,0.009710548227408529,-0.0016864421777427194,0.0005691860569640994,-0.0008243565098382533,0.2568206018954516,0.29035394512116913,-9.799442852139473
12.99,0.6000000238418579,284.0,25.51554107666016,-0.11132483184337616,-79.78279432342623,40.459074049628406,270.1657424440384,0.019359707832336426,0.006203490775078535,0.9131911993026732,0.4070241153240204,-0.009337374050591516,-0.008852140584121244,0.009502906753121746,0.005970028694719076,0.003555415431037545,0.0035930883605033155,0.2615371122211218,0.27282799428328874,-9.801358984708788
13.09,0.6000000238418579,283.0,25.51554107666016,-0.10337305814027786,-79.78279424759918,40.459073951932105,270.14881907606133,0.019367458298802376,0.006203181110322475,0.9131927490234376,0.4070201814174652,-0.010098697479308177,-0.01459780818084832,0.013688596508119094,0.003776762168854475,0.0005300761549733579,-0.0008950484916567802,0.25655424294993284,0.2869936233758927,-9.799229428768161
13.3,0.6000000238418579,281.0,25.51804542541504,-0.08746951073408127,-79.78279422514694,40.45907395329685,270.150115000248,0.0193834938108921,0.006202677730470896,0.9131982326507568,0.4070073664188385,-0.011678333299488563,-0.015200378644883725,0.013704955864454438,0.00380371417850256,0.002198566449806094,0.004202190786600113,0.2609727462753654,0.2726944402232766,-9.802525504231452
13.4,0.6000000238418579,281.0,25.51053237915039,-0.10337305814027786,-79.78279416393937,40.45907387267057,270.133330034256,0.019378922879695892,0.00620043883100152,0.9132039546966552,0.4069945812225342,-0.009471164055520905,-0.01822407203206854,0.01550722897879328,0.004670956637710333,0.004024770576506853,0.0015765165444463491,0.2588162565976381,0.2817715298943222,-9.800938569903376
13.59,0.6000000238418579,280.0,25.51178550720215,-0.10337305814027786,-79.78279413861544,40.45907387649465,270.13479612970355,0.01939438283443451,0.006185310892760754,0.9132067561149596,0.40698787569999695,-0.011533273891888124,-0.01868985698800421,0.01540319181098852,0.0012547617079690099,-0.0003405266033951193,0.0030320845544338226,0.2601328302919865,0.27396748870611193,-9.801264259815218
13.69,0.6000000238418579,280.0,25.51428985595703,-0.11927660554647446,-79.782794141316,40.459073770099735,270.11614255809786,0.01936456933617592,0.006175135727971792,0.913219392299652,0.4069610238075256,-0.007172500369595432,-0.01281812930403496,0.014606568555010097,0.007438827771693469,-0.00031923971255309885,0.0033878120593726635,0.2605921656265855,0.2767194807529449,-9.801038557291033
13.9,0.6000000238418579,285.0,25.49550819396973,-0.12722837924957275,-79.78279410338536,40.459073658612496,270.09369169378283,0.01935751736164093,0.006158603355288506,0.913222074508667,0.4069556593894959,-0.008742499541008683,-0.01245737001348288,0.011257719229708594,-0.0017276506405323744,0.00010763246973510833,0.00047419383190572267,0.25947536570951346,0.2772299426794052,-9.801006982326507
14.0,0.6000000238418579,284.0,25.496761322021484,-0.10337305814027786,-79.78279406375304,40.45907366103211,270.09577875041964,0.01935090310871601,0.0061739319935441034,0.9132194519042968,0.40696170926094055,-0.010740202015477377,-0.013798282402971195,0.010907238359085188,0.006979428231716156,0.0008898015948943793,0.003818866796791553,0.2604738874174655,0.2743286456353963,-9.800537450909617
14.2,0.6000000238418579,287.0,25.51053237915039,-0.11132483184337616,-79.78279402961553,40.45907353803496,270.0754914751053,0.019340086728334427,0.006169018335640431,0.91322124004364,0.4069582223892212,-0.013329068234746251,-0.01108900264980063,0.011762332639619892,-0.002681420883163809,0.00025193963665515184,-0.0006298717926256359,0.2568480655364692,0.2785921246558428,-9.800543298125268
14.29,0.6000000238418579,289.0,25.51554107666016,-0.10337305814027786,-79.78279397380348,40.45907344587594,270.0570198764801,0.019311577081680298,0.0061689778231084355,0.913222312927246,0.4069570899009705,-0.011284088554019243,-0.013577880229132791,0.01149766901984422,0.003471612697467208,0.004979347810149193,0.004546677228063345,0.26044715467840435,0.2732454123906791,-9.80101926147938
14.49,0.6000000238418579,286.0,25.51554107666016,-0.11132483184337616,-79.78279395136144,40.459073445709684,270.0580981841088,0.019306838512420654,0.006171728018671274,0.9132195115089417,0.4069634675979614,-0.013799549571939877,-0.01386175787683354,0.011545045302337823,-0.0049401260912418365,-0.000546127266716212,-0.00436170632019639,0.25646525563672185,0.2817442672513425,-9.800279003977776
14.59,0.6000000238418579,288.0,25.505525588989247,-0.12722837924957275,-79.78279385179087,40.45907337985368,270.041617559433,0.01930070854723453,0.006162706296890974,0.9132177233695984,0.406967967748642,-0.01235853294729601,-0.021698908357283563,0.014436700380291776,0.0046000806614756575,0.0030183757189661264,0.006682917941361666,0.2606116441637278,0.27317953985184434,-9.80133618056774
14.79,0.6000000238418579,288.0,25.51178550720215,-0.08746951073408127,-79.7827938212838,40.459073383834756,270.0429645648003,0.019301246851682663,0.006156264804303646,0.9132183790206908,0.40696656703948975,-0.014943500096889462,-0.02192023697948954,0.014536054170142244,-0.007287268992513419,-0.006128072738647461,-0.004100142978131771,0.2560444388352335,0.2848356901668012,-9.801044989228249
14.89,0.5,289.0,25.509281158447266,-0.10337305814027786,-79.78279382142803,40.459073310216276,270.02484111690524,0.019282912835478783,0.006165863480418921,0.913216769695282,0.4069708585739136,-0.006053260896074803,-0.017003433781392588,0.013599475555053857,0.0026408052071928982,0.002359231002628804,0.0015984144993126392,0.260389029700309,0.2726522123627365,-9.800642116069792
15.09,0.5,292.0,25.519296646118164,-0.08746951073408127,-79.78279380016217,40.45907331580658,270.02612893486025,0.01929246447980404,0.0061730509623885155,0.913211226463318,0.4069827795028687,-0.00835031006502015,-0.017320541584667257,0.013598035664822414,-0.009587653912603857,-0.0018278848147019746,-0.0038434097077697524,0.2567474386096001,0.29033189015463,-9.798424851894382
15.19,0.5,294.0,25.51554107666016,-0.06361418962478638,-79.78279376583771,40.45907321658329,270.0052540173531,0.01925838366150856,0.006158770993351936,0.9132095575332642,0.4069883227348328,-0.00749949264151173,-0.014426250750911009,0.009970294972735957,0.002783303614705801,0.00010010650294134392,0.005405942443758249,0.2601547025330365,0.2735942718945444,-9.80122332930565
15.39,0.5,295.0,25.509281158447266,-0.08746951073408127,-79.78279372289997,40.45907312450521,269.985224770546,0.019243795424699783,0.006156747229397297,0.9132044315338136,0.4070004820823669,-0.008721811414372746,-0.014015631342343848,0.00837785290925072,-0.008077215403318405,-0.00025566323893144727,-0.004866781178861857,0.2562174616008997,0.2949554845690727,-9.799044656753539
15.5,0.5,292.0,25.516794204711914,-0.10337305814027786,-79.78279368190545,40.45907312923347,269.9867192974091,0.01927497796714306,0.0061623230576515215,0.913202702999115,0.4070029556751251,-0.01100455660849976,-0.014840995492185231,0.007967816487697009,-6.283145194174722e-05,-0.0005234808195382357,0.0018932935781776907,0.25886120706796645,0.2768597591109574,-9.800978915691378
15.69,0.6000000238418579,291.0,25.51554107666016,-0.07951773703098297,-79.78279366331289,40.45907305065323,269.9664050807953,0.019255993887782097,0.006180301774293184,0.913198709487915,0.4070125818252564,-0.007028037690854709,-0.014223542092309343,0.006534134164015664,-0.00301729328930378,-0.001978875370696187,-0.006528402678668499,0.2565960688143969,0.294756021425128,-9.799293748140336
15.89,0.5,286.0,25.509281158447266,-0.11927660554647446,-79.78279360037611,40.45907295899804,269.9490002264977,0.019271185621619225,0.006162726320326328,0.9131977558135986,0.4070144295692444,-0.008471606642400662,-0.013978234293928157,0.00849251144598825,-0.004903090186417103,-0.0034298181999474764,0.0014989767223596573,0.25851877950131896,0.28181015806272625,-9.800147441625596
15.99,0.6000000238418579,287.0,25.50802993774414,-0.07156596332788467,-79.78279355915862,40.459072963977384,269.9505322446824,0.0192648246884346,0.0061594913713634005,0.9132029414176941,0.4070030450820923,-0.010220319294074735,-0.01520110670354146,0.008177566669414733,0.006402172148227693,-0.001360053662210703,0.002893174532800913,0.26132516892626884,0.2724259799346328,-9.801150823831561
16.2,0.6000000238418579,287.0,25.51804542541504,-0.10337305814027786,-79.78279357027505,40.459072886955454,269.9277232756615,0.01924045011401176,0.006158036179840565,0.9132039546966552,0.4070018827915192,-0.0035245877375614226,-0.01162833291054767,0.0030904091572080163,-0.005688090808689593,-0.003936698194593189,-0.002447034697979689,0.2570281597785652,0.2858663715608418,-9.799429403543472
16.3,0.6000000238418579,288.0,25.520549774169922,-0.09542128443717957,-79.78279356392609,40.45907275380517,269.907820271492,0.019232578575611115,0.0061479895375669,0.9132102727890016,0.4069882929325104,-0.005396148893851477,-0.0005279811766679579,0.00030883933230377346,0.004751769360154867,0.0012886665062978866,0.006350040901452303,0.2617716952040792,0.2719170346297324,-9.802331376671793
16.5,0.6000000238418579,288.0,25.509281158447266,-0.10337305814027786,-79.78279355827371,40.45907274998828,269.90783785486224,0.019235825166106224,0.006153179798275232,0.9132198691368104,0.4069664478302002,-0.007720604678520439,-0.0007434145097951902,0.0004032489795746631,-0.0053079957142472284,-0.005102439783513546,-0.003278065472841263,0.25594021221622826,0.2890256587229669,-9.799853911399842
16.59,0.6000000238418579,286.0,25.51428985595703,-0.10337305814027786,-79.78279350914936,40.45907264285759,269.8874953260422,0.019229214638471603,0.006153377704322338,0.913221538066864,0.4069631397724152,-0.008546523039032052,-0.0009463898512439377,-0.0016589270612340776,0.001975925639271736,-4.01608167521772e-06,0.005801434628665447,0.2619345584325493,0.2740415656194091,-9.80195013821125
16.81,0.6000000238418579,283.0,25.51804542541504,-0.11132483184337616,-79.78279350095627,40.45907263731318,269.88729731941226,0.01923474855720997,0.006146319676190615,0.9132206439971924,0.40696489810943604,-0.01047324980142696,-0.0011295445010818988,-0.0016688097882492506,-0.005568450316786766,-0.003861977718770504,-0.005132787860929966,0.25685669017955665,0.2941181267425418,-9.7988014125824
16.89,0.6000000238418579,283.0,25.51053237915039,-0.10337305814027786,-79.78279344876188,40.459072554708854,269.86697201633456,0.01922970451414585,0.006163647398352623,0.9132163524627686,0.4069745540618897,-0.007883242457760932,-0.003517480344616469,-0.003002583803578105,-0.0002646276552695781,-0.002441567601636052,0.0021483651362359524,0.25939419904723765,0.2750139210373163,-9.80199691593647
17.09,0.6000000238418579,284.0,25.519296646118164,-0.11927660554647446,-79.7827934389947,40.45907255136532,269.8666326274872,0.01922970451414585,0.006163647398352623,0.9132163524627686,0.4069745540618897,-0.009477938203779205,-0.003869537314117379,-0.00307326030243878,-0.007062694057822228,-0.0016981883672997355,-0.006825138349086046,0.2560935554467142,0.29534174798056484,-9.798976829051973
17.19,0.6000000238418579,278.0,25.519296646118164,-0.07156596332788467,-79.78279335041739,40.45907244026479,269.84392081403735,0.01922895573079586,0.006162844598293304,0.9132152199745178,0.4069770574569702,-0.012872660111088258,-0.005698925531305874,-0.0073554130880025175,-0.0016192473703995347,-0.0011602428276091814,0.002634757198393345,0.2572032656148076,0.27663727255538106,-9.800704681277274
17.39,0.6000000238418579,282.0,25.51428985595703,-0.09542128443717957,-79.78279331188907,40.45907232992288,269.822550760746,0.01921840757131576,0.006157934665679932,0.913214385509491,0.406979501247406,-0.012798837797880642,-0.0014394846644295335,-0.011661062807148176,-0.00567909749224782,-0.001190082635730505,-0.010443842969834805,0.2559091123379767,0.29443025842309,-9.797755345702171
17.49,0.6000000238418579,283.0,25.51053237915039,-0.08746951073408127,-79.78279328810571,40.45907231376896,269.8200864067078,0.01922791264951229,0.0061320015229284755,0.9132056832313538,0.4069989025592804,-0.01552576779489959,-0.0020781770768905482,-0.01200253767911885,-0.0014635678380727768,0.0006795419030822814,-0.000397188967326656,0.2574988971836865,0.2784994645603001,-9.8008455991745
17.69,0.5,292.0,25.51428985595703,-0.09542128443717957,-79.78279327967438,40.45907221213747,269.798422621727,0.01920209638774395,0.006129069719463587,0.9131993055343628,0.4070144593715668,-0.009397979761168471,0.0029720587572229173,-0.016191768707366987,-0.0007714795647189021,-0.000516953121405095,-0.0014377422630786894,0.25573291014879945,0.29187712652608755,-9.798560507297516
17.79,0.5,287.0,25.51428985595703,-0.09542128443717957,-79.7827932317306,40.45907207018709,269.7774032225609,0.01918851025402546,0.006124753970652819,0.9132000207901,0.4070135653018952,-0.0134197819358291,0.007952393024183315,-0.016305460111218358,-0.007194568403065205,-0.004051909781992436,-0.002307459246367216,0.2570039303787053,0.28741549998521804,-9.799780236482619
17.99,0.5,288.0,25.51053237915039,-0.08746951073408127,-79.78279322870327,40.45907205667315,269.775740193367,0.019189806655049324,0.006123526021838188,0.9131981730461121,0.4070176184177399,-0.013689127571246592,0.0074513914958283705,-0.016535364116745884,0.004758576396852732,0.002129341242834925,0.000302861793898046,0.25734184462577103,0.2863888750970364,-9.799417124390603
18.09,0.5,287.0,25.49049949645996,0.2862638533115387,-79.78279316247173,40.45907198153842,269.7527081241608,0.01919026859104633,0.006125688552856445,0.9131954312324524,0.4070238173007965,-0.008476799655699092,0.0009366483523241073,-0.019597428465306325,-0.005603593774139881,-0.0027331933379173283,-0.0015427273465320466,0.25806037606671456,0.29562796918675305,-9.79894993185997
18.3,0.5,294.0,25.48423957824707,0.22264966368675232,-79.78279315683447,40.45907197545026,269.7507042756081,0.019196191802620888,0.006120337173342705,0.9131893515586852,0.4070371091365814,-0.009383167200396196,0.0007178119362537867,-0.01986065809165927,0.0041864006780087965,-0.001958430977538228,-0.004598515573889017,0.25518261406570675,0.2817860200256109,-9.794359867572783
18.39,0.5,288.0,25.486743927001953,0.2306014448404312,-79.78279308660305,40.459071863209,269.73111586475375,0.01916858181357384,0.006115403492003679,0.9132151603698728,0.4069807529449463,-0.011105811126689263,-0.00041296337255075904,-0.01833626904515021,-0.006423583254218102,0.001050065737217665,-0.019209669902920726,0.253659706749022,0.29376632535830144,-9.797924914956091
18.59,0.5,286.0,25.48924827575684,0.198794350028038,-79.78279307859549,40.45907185636297,269.7292249670029,0.019170314073562626,0.006117234937846661,0.9132093191146852,0.4069938659667969,-0.010737326527383531,-0.0012790995635914544,-0.018817172647636386,0.005350167397409678,0.0016289508203044536,0.008543618023395538,0.2599902495928109,0.2785117437131703,-9.79899554014206
18.69,0.5,282.0,25.493003845214844,0.198794350028038,-79.78279300216778,40.45907172773929,269.7095611562729,0.01916729472577572,0.0061138570308685285,0.9132176041603088,0.40697526931762695,-0.014277184069795903,0.00019020442923238246,-0.018153621810008014,-0.001802476006560028,-0.0006339650717563928,-0.004930006805807352,0.24886248657479884,0.287521060500294,-9.796630341410637
18.89,0.5,283.0,25.480484008789066,0.2544567584991455,-79.78279298254803,40.45907161941261,269.692106174469,0.019153082743287086,0.006098114885389805,0.9132323265075684,0.4069431126117706,-0.007142765293211523,0.005134552130214682,-0.017063409510990696,0.008710619062185287,0.001210309681482613,0.008795175701379776,0.2551068195328117,0.2753331972844899,-9.801903360486033
18.99,0.5,285.0,25.47797966003418,0.2942156493663788,-79.78279297965737,40.45907160112312,269.6886291971207,0.019163822755217552,0.0060781454667449,0.9132357835769652,0.4069351851940155,-0.010444159747602324,0.005070600009120386,-0.017539932157867352,-0.0023661605082452297,-0.0004838068853132427,-0.00046947656664997323,0.25768352301791314,0.2944084044545889,-9.797354811429976
19.19,0.5,284.0,25.479232788085927,0.3498780429363251,-79.78279293557928,40.459071492581344,269.66900710964205,0.019146701321005814,0.006069582421332598,0.9132380485534668,0.4069311022758484,-0.007288674406476561,0.006242797143988854,-0.02013711602060521,0.0008797421469353137,2.7749891160055995e-05,0.0029680172447115183,0.2643996349163353,0.2728908153064549,-9.799881978034973
19.3,0.5,283.0,24.47007942199707,9.041167259216307,-79.78279286745321,40.45907135113456,269.6489141454697,0.01916096918284893,0.006091978866606951,0.9132052659988404,0.4070035517215729,-0.011282112439304754,0.008844926438427016,-0.02183483098200968,0.0043887216597795495,-0.011818665079772472,0.010884811170399187,0.2637264376692474,0.2483119712211192,-9.800366712212565
19.49,0.5,285.0,25.475475311279297,0.2385532110929489,-79.78279286441007,40.45907133870824,269.6467520465851,0.01911767385900021,0.006115966010838747,0.9132328033447266,0.4069435894489288,-0.012319616909431277,0.007036138929353402,-0.021254299157106686,0.03282363340258598,0.050928696990013116,0.018489977344870567,0.26173854880034925,0.2864552958123386,-9.773906891942023
19.6,0.5,288.0,25.486743927001953,0.17493902146816254,-79.78279281116245,40.4590711866481,269.6259510984421,0.019135212525725358,0.006096754223108293,0.9132421612739564,0.4069220423698425,-0.013318407731491051,0.011132502573162652,-0.023258778762675642,0.02439951337873936,0.0086177047342062,-0.0007090301951393485,0.27850648121908306,0.2611677509173751,-9.805438587069512
19.79,0.5,285.0,25.42414093017578,0.9542128443717957,-79.78279280897135,40.45907116927727,269.6236650218964,0.01914895512163639,0.006141735706478357,0.9132186770439148,0.4069732427597046,-0.01730936261513092,0.009444130624041614,-0.02308204325582339,-0.01964648999273777,0.0117188086733222,0.008282577618956566,0.2338530129007995,0.2798507926426828,-9.788438392281533
19.89,0.6000000238418579,288.0,25.475475311279297,0.2385532110929489,-79.78279279500188,40.45907109652412,269.6014069786072,0.019079701974987984,0.006082589738070965,0.9132075905799866,0.40700238943099976,-0.005622281176157239,0.006195563878390836,-0.02393414538571269,-0.01859564334154129,0.04356938228011131,0.007450890727341175,0.26823615755885843,0.308308113142848,-9.797250730991363
20.1,0.6000000238418579,294.0,25.46420669555664,0.6361418962478638,-79.78279279822493,40.45907108894313,269.59901635551455,0.019097656011581414,0.006075606681406498,0.9132282733917236,0.4069551229476929,-0.00365170743593745,0.007571252229653325,-0.02369554378999364,0.0020217187702655792,0.020483586937189102,0.0006536863511428237,0.26680861467495565,0.26584227092564106,-9.809234014749528
20.19,0.6000000238418579,299.0,25.275148391723643,2.8308315277099614,-79.78279269895759,40.45907092319014,269.5784990062714,0.01908967457711697,0.00605980446562171,0.9132245182991028,0.40696433186531067,-0.016929407962143213,0.007577609458575916,-0.024090455628239256,-0.015606317669153212,0.000526715477462858,0.02326359786093235,0.25679898547008634,0.2671093260124326,-9.790256291627882
20.39,0.699999988079071,307.0,25.07231521606445,5.0732316970825195,-79.78279267351682,40.45907079605039,269.5598804225922,0.01907157525420189,0.00602829921990633,0.913232147693634,0.4069483280181885,-0.010369829747967602,0.01125835738765582,-0.0269022544712764,0.010627670213580132,0.0027935050893574953,-0.002862921915948391,0.25095611868426204,0.2633949188143015,-9.804688389301301
20.49,0.699999988079071,311.0,24.975908279418945,6.377322673797607,-79.78279267458987,40.459070781033155,269.55713717842104,0.019111130386590958,0.006071109790354967,0.9132280945777892,0.40695521235466,-0.0109497530392071,0.011382104873972013,-0.0284259017280362,0.0043609626591205606,-0.0119073074311018,-0.007401535287499428,0.2722242509946227,0.2425461049564183,-9.805471916198734
20.6,0.8000000119209291,310.0,24.876995086669922,7.784786701202393,-79.78279260997287,40.459070634389576,269.5376143922806,0.01902084425091744,0.00614899443462491,0.9131970405578612,0.4070278108119965,-0.01587577508517555,0.007918919079665986,-0.025353788426336482,-0.016987485811114308,-0.028020121157169342,-0.0009410284692421557,0.3149267227202654,0.3462710876762867,-9.85903825879097
20.79,0.8000000119209291,310.0,24.66164207458496,10.68718433380127,-79.78279258262876,40.45907051384907,269.5195856561661,0.01808836683630944,0.006563204806298018,0.9131301641464232,0.4072138071060181,-0.010304872584660549,0.0054307503180213035,-0.01861128765693081,-0.016931751742959026,-0.03693586587905884,0.021280562505126,0.24733709419146185,0.243427262082696,-9.824096467494963
20.9,0.8999999761581421,314.0,24.545202255249023,12.42067050933838,-79.78279258411679,40.459070505809215,269.51771311664584,0.01726406440138817,0.0070584146305918685,0.9132041931152344,0.4070753753185272,-0.012417449527043722,0.007377036014451334,-0.017673022251623708,-0.02688406035304069,-0.033130377531051636,0.10811629146337508,0.24668743198737506,0.2812472173757851,-9.822605427503586
21.09,0.8999999761581421,318.0,24.302305221557607,15.37873077392578,-79.78279258737709,40.459070499527016,269.51602356338503,0.01617073081433773,0.007715013809502125,0.9132028222084044,0.4071113765239716,-0.007411116417708446,0.007990431118284602,-0.016501203168245306,0.02195386402308941,0.03977480158209802,0.07364775240421295,0.26138435371220115,0.2295367627590895,-9.849398539066316
21.29,1.0,329.0,24.04312896728516,19.108112335205078,-79.78279251385304,40.45907039737835,269.5035936107636,0.01516279298812151,0.010674413293600079,0.9132232666015624,0.4070375263690949,-0.0019813380804544287,-0.009849485854177331,-0.0005698881405874906,0.030540153384208683,0.005455578211694956,-0.037350106984376914,0.21426942687481645,0.2168835708126426,-9.819859575033188
21.39,1.0,332.0,23.89664077758789,20.78593635559082,-79.7827924836478,40.45907028984977,269.49189906024935,0.015556186437606813,0.0101983230561018,0.9130987524986268,0.4073141217231751,-0.01672224564338741,-0.0008738717643534523,0.007022924833199016,-0.05665238201618195,-0.004991563968360424,0.006440664175897837,0.3019148589111865,-0.04829094808548689,-9.848924914598463
21.49,1.0,341.0,23.75891494750977,22.789783477783203,-79.78279241627085,40.459070234531886,269.497024225235,0.016233209520578384,0.002117104362696409,0.9123954176902772,0.4089823961257935,-0.057971758457412974,-0.003978452401502061,0.07864425540812521,0.04359598085284233,-0.0951504483819008,-0.09253734350204468,0.19424724485725164,0.03357643903233111,-10.343248525857923
21.69,1.0,345.0,24.1683349609375,17.191734313964847,-79.78279225958204,40.45907006963496,269.5102948417664,0.011945396661758423,-0.006808048579841852,0.9130551218986512,0.4076045751571655,-0.1051538890955548,0.019108854629578155,0.2906511914992085,0.10181897133588792,-0.10905584692955016,-0.04620901495218277,0.11974341172724964,0.16945002553984526,-10.804945843219755
21.89,1.0,352.0,24.02309608459473,18.662813186645508,-79.78279211243381,40.45906976068693,269.50934140586855,0.004018045030534267,-0.00750230113044381,0.9136257171630859,0.4064672291278839,-0.1065910665856202,0.05412543248211203,0.27999811625362675,0.141211599111557,-0.1405046582221985,0.03720327094197273,0.24672238737344745,-0.14131210919469595,-10.175715272426606
21.99,1.0,2.0,23.94922637939453,19.56931495666504,-79.78279206279892,40.4590696431487,269.5359075536728,0.0008488352177664638,-0.00534139247611165,0.9141183495521544,0.4054114520549774,-0.1288688835705838,0.06584972645212771,0.2500101493244694,0.05517213046550752,0.0413164347410202,0.010997607372701168,0.1327075293660164,-0.15462254645302892,-9.674091412425042
22.09,0.8999999761581421,9.0,23.981779098510746,19.03654670715332,-79.78279212572129,40.45906912863293,269.5293121805191,-0.002155399415642023,0.004727467428892851,0.9144460558891296,0.4046744406223297,-0.12961705476270516,0.10907963973151164,0.13097145921428216,0.04046493023633957,0.0542185977101326,-0.003685053205117583,0.16861645013093948,-0.046764596393331886,-9.534785592556
22.29,0.8999999761581421,11.0,23.91416931152344,20.038471221923828,-79.78279210343472,40.45906869831308,269.53818087482455,-0.002293181838467717,0.0112750930711627,0.9138603806495668,0.4058655798435211,-0.1183637840783438,0.12065721785015765,0.0532072025583269,-0.07702577114105225,0.10138528048992156,0.0022383721079677343,0.19715829944238067,-0.06373244876973333,-9.409879710674288
22.4,0.8000000119209291,17.0,23.75140190124512,21.859426498413086,-79.78279212953605,40.45906855438529,269.5423309078217,-0.0012415193486958742,0.011804284527897837,0.9135318994522096,0.4065940082073212,-0.1022035816884969,0.12880169773454347,0.031298723292700635,-0.018991708755493164,-0.02078917995095253,0.0195779986679554,0.2320117064192891,-0.009175880206748845,-9.583637325167656
22.59,0.699999988079071,18.0,23.78896331787109,20.80183982849121,-79.78279216815011,40.459068414076135,269.5463514795304,-7.43155032978393e-05,0.009684674441814423,0.9131252765655518,0.40756410360336304,-0.09551935300170658,0.12931955095999587,0.04694416552636335,-0.07851998507976532,-0.05775920674204825,-0.024849865585565567,0.2081592692434788,0.012034181943163276,-9.918851766586306
22.79,0.699999988079071,26.0,23.70758056640625,22.257015228271484,-79.7827922186311,40.45906790080673,269.5680568685532,0.0037545904051512475,0.005583815276622772,0.9125054478645324,0.4090092480182648,-0.0953076831364366,0.13424615384730956,0.11093579969079044,0.015119727700948715,0.0991622507572174,0.0774061307311058,0.08266893988475205,-0.12009766163304447,-9.892189632654187
22.89,0.6000000238418579,30.0,23.68253898620605,22.670507431030273,-79.78279205249311,40.45906766882904,269.58278219604495,0.0031963340006768703,0.007496287114918231,0.9121694564819336,0.4097322523593903,-0.10081456093688232,0.12109648086376094,0.13666222024507985,-0.02550588175654412,0.03021898865699768,0.04913812130689621,0.07432754871435464,-0.029030740493908525,-9.842655529975893
22.99,0.6000000238418579,41.0,23.66876602172852,22.400146484375,-79.78279211861535,40.45906740197668,269.613149928093,0.0024168326053768396,0.011405861005187036,0.9114790558815002,0.4111813008785248,-0.09188869218143447,0.12202985966783468,0.16346753651728754,-0.009481705725193024,-0.003230440430343151,0.028443699702620506,0.1580877526290715,-0.1353464508801699,-9.980718816518783
23.19,0.6000000238418579,43.0,23.67377471923828,22.344484329223643,-79.78279211572716,40.459067001711844,269.62943892383583,0.001461559790186584,0.011353692971169949,0.91120707988739,0.4117896556854248,-0.09094683668771854,0.13262982219417666,0.19530914245391467,0.055819693952798836,0.0771707072854042,-0.012216417118906977,0.2102853533998132,-0.11538142539560794,-9.943867324590684
23.29,0.6000000238418579,46.0,23.62744903564453,22.7977352142334,-79.78279226723755,40.45906671158037,269.670043753624,0.002060240600258112,0.010803337208926678,0.9112163186073304,0.41178131103515625,-0.07762842015750633,0.11402171967768007,0.2359109897943798,0.0256513524800539,-0.0007055086898617446,0.012168972752988337,0.11589829185046255,-0.051504120994359255,-10.060325149297713
23.49,0.6000000238418579,43.0,23.58613204956055,23.624719619750977,-79.78279230585792,40.45906659620035,269.69529216194155,0.0011633908143267035,0.013332161121070385,0.9114229083061218,0.4112532436847687,-0.07043451740988574,0.10977781499862273,0.2621125253804812,0.09270579367876053,0.08216752856969832,0.06021889671683312,0.2426400989480317,-0.17835283163934948,-10.067298538684843
23.7,0.5,46.0,23.47094345092773,24.57893371582031,-79.78279238742327,40.459066135290044,269.72151212596896,0.0016089128330349922,0.016026800498366356,0.9121963381767272,0.4094368815422058,-0.08175798052048315,0.1166772395921167,0.167150486999544,-0.02001109160482884,0.03585118800401688,-0.013769187033176422,0.1817090420611203,-0.06043819142505528,-9.052180386185649
23.79,0.5,48.0,23.49222755432129,24.57893371582031,-79.78279242779169,40.45906601265561,269.73193268680575,0.0023544160649180412,0.013296549208462238,0.9125064015388488,0.4088394641876221,-0.08503566670590929,0.11226586630479712,0.05757113545506986,-0.12857316434383392,-0.08467806875705719,-0.03487302362918854,0.2095017899572849,-0.0470207227114588,-8.963607348203663
23.99,0.5,51.0,23.208011627197266,27.91072654724121,-79.78279258562907,40.45906559586178,269.74133782291415,0.0059568658471107466,0.006223570089787246,0.9126814603805542,0.4085810482501984,-0.0490489861093932,0.09530815434299866,0.16352164295428984,0.07805956155061723,0.1586543321609497,-0.017977790907025337,0.11170976682566107,0.015542282927781344,-10.324647363424301
24.1,0.5,52.0,23.01644897460937,31.63215637207031,-79.78279260101276,40.45906524337068,269.78774278068545,0.00521863903850317,0.012519960291683674,0.9125977754592896,0.4086335599422455,-0.0849119624025843,0.10621923101678277,0.4516523017080117,-0.10654541105031967,-0.036888640373945236,-0.09834416210651398,0.27447827953845266,0.06966603419277817,-11.344209984540939
24.29,0.6000000238418579,43.0,23.09282302856445,29.84300804138184,-79.78279262446519,40.45906513676629,269.8427380194664,0.005304792895913124,0.013035389594733715,0.9126456975936892,0.408509373664856,-0.08873272706729858,0.11293606226165825,0.6464272091374195,-0.13348077237606049,-0.10216531157493593,-0.13093392550945282,0.3227604933455587,0.04109235410112888,-11.66891522526741
24.39,0.699999988079071,38.0,23.006431579589844,31.00396728515625,-79.78279264199924,40.459065003316496,269.89561687612536,0.004850736353546381,0.011385243386030195,0.9129071831703186,0.4079795181751251,-0.07302052857597112,0.11504179400896652,0.8259926399277924,0.0068319886922836295,-0.04928537458181381,0.015572632662951946,0.2988085073232651,-0.11725779689848426,-11.731820740699767
24.59,0.8000000119209291,28.0,22.64959716796875,35.647804260253906,-79.78279268201067,40.45906480605941,270.10150210762026,0.0035012373700737953,0.009095752611756323,0.9135022163391112,0.40671706199646,-0.05660987821962288,0.11191718404863996,1.2537167673769467,0.10697954148054124,0.053650155663490295,0.08886488527059555,0.2172014948911965,-0.11811560170724987,-12.14068495631218
24.7,0.8999999761581421,25.0,22.632068634033203,35.504669189453125,-79.78279270155521,40.45906448912064,270.3860946466923,0.005556628108024597,0.011580484919250013,0.9136362075805664,0.4063299298286438,-0.05901760423276101,0.11983391447677093,1.8296452063687951,0.040033310651779175,0.038711652159690864,0.009682121686637402,0.27036255234852435,0.10034038589335978,-12.703734401464462
24.79,1.100000023841858,28.0,22.5932559967041,36.94394302368164,-79.78279272584912,40.459064240152344,270.5385470261574,0.004905012436211109,0.012919259257614613,0.9133878350257874,0.406855970621109,-0.058276113769590486,0.14190203847425864,2.0702392120971016,0.04935736581683159,0.002656290307641029,0.04046621918678284,0.2629014686308801,0.054766785101965074,-12.624552576541905
24.99,1.2999999523162842,26.0,22.751012802124023,34.52660369873047,-79.78279277713473,40.459064075572115,271.00492690706255,0.0021333026234060526,0.01449902169406414,0.9127371311187744,0.4082844853401184,-0.048171599200443616,0.13978444793833478,2.567823362006234,0.1289374679327011,0.03039195016026497,0.08989321440458298,0.2442804987542332,-0.04420884695369751,-12.234678947925568
25.1,1.399999976158142,29.0,22.71846008300781,33.50082397460937,-79.78279283356147,40.45906379335047,271.18276207351687,0.0018129906384274364,0.016230102628469467,0.912523090839386,0.40869924426078796,-0.0660482528512285,0.1473300439799247,2.7216322658066803,-0.0278058759868145,0.0030890654306858787,-0.08163142204284668,0.2304029912129045,0.17181611962616444,-12.059270664453509
25.29,1.5,24.0,22.85493278503418,31.85480690002441,-79.78279290929805,40.459063494206646,271.6444133987427,0.005928921978920697,0.0187465250492096,0.9119111895561218,0.409916490316391,-0.051735428696974936,0.16200402726898455,2.9391642651991314,0.03664319962263106,0.054239265620708466,-0.014297205954790115,0.27544995887205004,0.00924484994262457,-11.270920983552935
25.49,1.7999999523162842,20.0,23.2180290222168,26.876995086669922,-79.7827929210557,40.45906344718197,271.94490854644783,0.008509358391165733,0.02015036717057228,0.911724090576172,0.4102204442024231,-0.05112097355211757,0.15352226579790024,3.052821909789225,-0.054450489580631256,-0.038202539086341865,-0.12858465313911438,0.2575529108382761,0.12072780875489116,-10.958457473516463
25.59,1.8999999761581416,16.0,23.25934600830078,25.859169006347656,-79.7827928465742,40.45906325963072,272.4080245962143,0.009550301358103752,0.01958450302481652,0.912136733531952,0.4093064963817597,-0.059758252452984925,0.139993752118096,3.0372680751662062,-0.10974247753620148,-0.12486973404884336,-0.05556846782565117,0.27446874126791954,0.2002153151482344,-10.224203892946244
25.7,2.0999999046325684,8.0,23.2856388092041,25.31049728393555,-79.78279279605772,40.45906323179607,272.71246879005434,0.008211358450353146,0.019572749733924862,0.912466824054718,0.4085998833179474,-0.048030273944985616,0.11159062851813024,3.0409981527849883,0.07116013765335083,-0.024881690740585327,-0.05576034635305405,0.21223028350621465,0.0876662536058575,-9.906825213432311
25.9,2.0999999046325684,4.0,23.33572196960449,24.9924259185791,-79.78279260206968,40.45906308431191,273.1606394519806,0.009048338048160076,0.02523783408105373,0.9126341342926024,0.40789738297462463,-0.08848431120328998,0.06582330188988518,2.8898812516314623,-0.15085022151470184,0.0379284955561161,-0.043949052691459656,0.1927067410759628,0.026193543551489708,-9.538538335561752
26.1,2.299999952316284,354.0,23.30316734313965,24.61074066162109,-79.78279247428151,40.45906308867423,273.4477648010254,0.013867723755538464,0.029001317918300632,0.9124748706817628,0.4078680276870728,-0.0859569604655949,0.0525534975488963,2.8560819899509675,-0.07518252730369568,0.12109681963920592,-0.034275494515895844,0.17529199697077275,0.007091959957033395,-9.475923426747322
26.2,2.4000000953674316,346.0,23.36201477050781,24.12568283081055,-79.78279214572156,40.459062946224435,273.58383147621157,0.01816708594560623,0.030897878110408783,0.9123445749282836,0.407851368188858,-0.07236707233598541,0.039339989355705283,2.7404369519125384,0.1027458757162094,0.11179913580417633,0.1037965714931488,0.3110802415385843,-0.2405582709051669,-9.59853603065014
26.29,2.4000000953674316,334.0,23.19423866271973,26.479406356811523,-79.78279148052033,40.45906291606715,273.96525566482546,0.012487342581152916,0.027057446539402008,0.9124711155891418,0.4080546200275421,-0.11088591456058623,-0.02364147740589819,2.573303601230569,-0.06664278358221054,-0.2255818098783493,-0.13577693700790405,0.30096505181863903,0.2428396169096232,-9.503536902666092
26.49,2.299999952316284,328.0,23.35074615478516,24.35628318786621,-79.78279090125115,40.459063036589434,274.47608463668826,-0.00033644778886809945,0.017288202419877052,0.9127901792526244,0.40806275606155396,-0.1110170927488017,-0.1274638498013384,2.5472956335870323,0.2284623831510544,-0.04554533585906029,0.0963054969906807,0.25531525449827314,-0.2947186723351479,-9.662682909965515
26.59,2.4000000953674316,327.0,23.22428894042969,25.87507247924805,-79.78279043308848,40.4590632768406,274.9099783172608,-0.005428018048405647,0.011457120068371296,0.9128663539886476,0.4080616235733032,-0.14190707050359547,-0.17930561903402994,2.591307053967793,-0.06767003983259201,-0.2214750498533249,-0.0006026970804668963,0.20074507288634771,-0.14407299997285009,-9.571924767494203
26.8,2.5,326.0,23.30442047119141,24.3721866607666,-79.78279013241266,40.45906336721096,275.16777269744875,-0.007106495089828969,0.007485756184905766,0.9128084778785706,0.4082576334476471,-0.1399997308874038,-0.21636247538640507,2.575573496898554,0.0583815798163414,0.061980415135622025,0.10019078850746156,0.15436905138194562,-0.16516282875090835,-9.698398287892342
26.99,2.5999999046325684,327.0,23.276874542236328,25.25483322143555,-79.78278902023028,40.45906380774982,275.86660568618777,-0.0024561171885579824,0.010652248747646809,0.9122969508171082,0.409383624792099,-0.1487909127519856,-0.2260024553209173,2.622314434297193,-0.1911213994026184,-0.03333309665322304,-0.08484995365142822,0.16023631202057004,0.05968904889654369,-9.618272722363473
27.09,2.5999999046325684,327.0,23.265605926513672,24.11773109436035,-79.78278872982833,40.459063892562476,276.1275743713379,-0.00029769758111797273,0.012477405369281769,0.9118576049804688,0.4103170037269592,-0.11986680543926888,-0.19662469179693404,2.601354183829791,0.08442185819149017,0.1396140605211258,0.059373196214437485,0.2684829831495881,-0.1879638817347586,-9.610162049531935
27.19,2.700000047683716,321.0,23.23305320739746,25.68422889709473,-79.78278779035898,40.459064238889326,276.79192488098147,-0.004544788040220738,0.011823124252259731,0.911238133907318,0.4116852581501007,-0.11594121257435787,-0.18329177382845785,2.6101780454279666,-0.023936079815030098,-0.13017302751541138,-0.17769141495227814,0.24175077399238945,0.1244946398958564,-9.43557120680809
27.39,2.799999952316284,321.0,23.230548858642567,25.159412384033203,-79.78278717664924,40.45906441827577,277.417215751648,-0.006740538869053125,0.006100321654230356,0.9111583232879642,0.41195639967918396,-0.12674642378119655,-0.1984225019724687,2.575682952137333,-0.1468566209077835,-0.11170247942209244,-0.032432906329631805,0.16624441746622326,-0.12929783519357446,-9.496112692952156
27.49,2.9000000953674316,320.0,23.17545890808105,25.5570011138916,-79.78278693429962,40.45906450458763,277.6734298934937,-0.0080298176035285,0.0038339570164680477,0.911116659641266,0.41205257177352905,-0.10456452663428707,-0.19464755795164806,2.554061243441625,0.04759878292679787,-0.0625704675912857,-0.015140349045395853,0.15686336394399406,-0.02331604650244117,-9.590420680046082
27.7,3.0,320.0,23.082807540893555,27.012176513671875,-79.78278655873578,40.45906459111365,278.04040758514407,-0.009737649001181127,0.0020667384378612037,0.9111458659172058,0.4119639992713928,-0.07874123632969325,-0.19356924683102592,2.5911088589910443,0.15907195210456848,0.09643418341875076,0.059351377189159386,0.1904316260106861,-0.3003277966752648,-9.726118183135986
27.89,3.0999999046325684,326.0,23.091571807861328,27.19506645202637,-79.78278601795769,40.459064781713735,278.699629234314,-0.007595134433358908,0.0016226605512201786,0.9112204909324646,0.4118458330631256,-0.08170166593207512,-0.16192647171491925,2.6907652097781547,-0.02845526859164238,-0.04556666314601898,-0.09261053800582886,0.20342402955517166,0.02100926510989666,-9.925152726173401
27.99,3.0999999046325684,327.0,23.16669464111328,26.39193725585937,-79.78278575335837,40.4590648891689,279.23868887329104,-0.0036288672126829616,0.002903173910453916,0.91126811504364,0.41178736090660095,-0.0652587559568722,-0.09491111717460696,2.6965461370072865,-0.06689400970935823,-0.00025204499252140517,-0.03892409056425095,0.3301353671774268,-0.20472114298492672,-9.860539823770523
28.09,3.0999999046325684,328.0,23.12788009643555,26.344226837158203,-79.78278534102303,40.45906521313128,279.6968569030762,-0.002361783990636468,0.004107639193534851,0.9111325144767758,0.4120863974094391,-0.051990948028113784,-0.08360700197195889,2.8093089637304534,-0.03995348885655403,-0.04429791122674942,-0.07101109623908998,0.3090996799618006,0.04218437187373639,-9.917568887472154
28.3,3.2000000476837163,328.0,23.17545890808105,25.54904937744141,-79.7827852393998,40.45906553818331,280.38886492156985,-0.0031030378304421893,0.0068599218502640716,0.91163432598114,0.4109332859516144,-0.03735289915965715,-0.017430602484641882,2.8948496272404047,-0.05665493756532669,-0.02749316580593586,-0.06590598076581955,0.33455030735582114,-0.13315867859870195,-9.949872415065766
28.49,3.2000000476837163,326.0,23.19048309326172,25.040136337280273,-79.78278520130225,40.459065550393184,280.67869989776614,-0.0051719052717089644,0.009830235503613949,0.9118459224700928,0.41038230061531067,-0.04808417928526125,0.004329289271872086,2.900963676922192,0.0486394390463829,-0.04144744575023651,-0.061019554734230035,0.2615555674955249,0.06164432583376767,-9.903535569906236
28.59,3.2000000476837163,327.0,23.22303581237793,24.89700508117676,-79.78278517859648,40.45906555294928,280.96906416320803,-0.005665328819304705,0.01158353965729475,0.9120066165924072,0.4099728465080261,-0.04704041507185641,0.029908127514732995,2.90234154281748,0.14760057628154755,0.1510467678308487,0.08839689195156097,0.31630545962601897,-0.3350147590041161,-9.841901239156725
28.69,3.0999999046325684,329.0,23.07028579711914,26.805429458618164,-79.78278511272092,40.459065579916526,281.6483663787842,-0.0017659232253208754,0.012247483246028423,0.9122469425201416,0.4094538390636444,-0.05649750258571419,0.059674614343946976,2.923714889710647,-0.018875336274504655,0.0009816027013584974,-0.0454128123819828,0.2318139243498445,-0.05104902489110828,-9.723826659321784
28.9,3.0999999046325684,332.0,23.19799613952637,24.97652244567871,-79.78278521717048,40.45906552805717,282.3144296875,0.0004985536215826869,0.012730436399579048,0.912018358707428,0.4099516570568085,-0.030310628295567188,0.1040024946636958,2.943836811016898,-0.07461851090192795,-0.024698887020349503,0.04350240901112557,0.3063176295720041,-0.2310545172169805,-9.75936252772808
29.0,3.0999999046325684,333.0,23.06653022766113,26.84518814086914,-79.78278525459413,40.459065511359896,282.6084264984131,0.0002854593622032553,0.012868868187069893,0.9119927883148192,0.4100044071674347,-0.03455373644441274,0.11259821293627015,2.934710102484192,-0.13725635409355166,-0.15618519484996796,-0.16168130934238434,0.3455331325158477,0.06695960474666209,-9.76050156533718
29.19,3.0999999046325684,334.0,23.147912979125977,25.5649528503418,-79.78278534071805,40.459065451368495,283.268271850586,-0.0022471905685961246,0.011585887521505356,0.9120975732803344,0.40980324149131775,-0.021174928527592302,0.12369917809515653,2.9724857215180016,0.0152146490290761,-0.0004266988835297525,0.0526052862405777,0.3336158857494593,-0.26119877770543104,-9.866969422101977
29.4,3.0999999046325684,336.0,23.11786460876465,25.827362060546875,-79.78278538292514,40.45906547132503,283.6275047531128,-0.003131716744974256,0.011868792586028576,0.912160336971283,0.4096497297286987,-0.04096001654330684,0.12565823905806475,2.99205502598776,-0.13681143522262573,-0.1044975146651268,-0.1508243829011917,0.24294488506391645,0.023594520147889854,-9.82676396727562
29.49,3.0999999046325684,335.0,23.23806190490723,23.56110572814941,-79.7827855340343,40.45906539986395,284.2264169921875,-0.001245316700078547,0.014795984141528606,0.9125527143478394,0.4086895287036896,-0.030072803432375887,0.14642632091950825,2.9928793374118943,0.028551759198307988,0.08932758122682571,0.021451197564601898,0.3279636747390032,-0.20409872515127064,-9.816399192810056
29.7,3.0999999046325684,336.0,23.09282302856445,25.81941032409668,-79.78278559102813,40.45906536996594,284.5822843780518,0.0013494095765054224,0.01632697880268097,0.9125611186027528,0.4086120426654816,-0.04356225879838977,0.16788535836653093,2.99754094194278,-0.16632676124572754,-0.008174515329301356,-0.2374693900346756,0.2623373950459063,0.22255948131904008,-9.71367179989815
29.79,3.0999999046325684,335.0,23.020204544067386,26.33627510070801,-79.78278572434427,40.45906529760685,285.23659078979495,0.004360387567430736,0.017323870211839676,0.9125533103942872,0.4085676372051239,-0.008606924527804136,0.1966983835169893,3.0036574552638853,0.002691731788218021,0.014595649205148218,-0.042513914406299584,0.3664859354496002,-0.2410990652628243,-9.833958381414414
29.99,3.0999999046325684,335.0,23.05401039123535,25.437725067138672,-79.78278580510006,40.459065245655175,285.5378860702515,0.0033252974972128872,0.017603471875190742,0.9124736189842224,0.408743292093277,-0.03089142804542998,0.19416644648266104,3.0102400313158824,-0.07337196171283722,-0.13286340236663818,0.0005377096822485328,0.32597419615834955,-0.048534685615450136,-9.84533121585846
30.09,3.0999999046325684,334.0,23.082807540893555,25.89097595214844,-79.78278587855172,40.459065192916576,285.83999674224856,0.001424162066541612,0.017472587525844574,0.9123393893241882,0.4090592861175537,-0.045023805746493256,0.19052761718129552,3.0237440811491894,-0.0889272391796112,-0.11071094870567323,-0.10197626799345016,0.2701511937752366,0.05968283166177571,-9.875203471183776
30.3,3.0999999046325684,333.0,23.00518035888672,28.16518402099609,-79.78278613266846,40.45906504912862,286.49840872192385,-0.0030535557307302947,0.015488903969526291,0.9117105007171632,0.4105300903320313,-0.020091699818909056,0.17384595291487115,3.0229101288318425,0.22401757538318634,0.08973009139299393,0.1875077933073044,0.2416672684438527,-0.5101988748461008,-9.728523142933843
30.4,3.0999999046325684,335.0,23.01644897460937,25.21507453918457,-79.782786132263,40.45906498245285,286.8434576263428,-0.004574249964207411,0.01629919558763504,0.9113662242889404,0.4112482070922852,-0.06895218194669761,0.16291967521630088,3.0286847661875647,-0.09253071248531344,-0.06657198071479797,-0.05595124512910843,0.27640354838222264,-0.03474936308339238,-9.771423579454424
30.49,3.0999999046325684,333.0,23.045246124267567,26.535070419311523,-79.78278628130894,40.45906487510556,287.45322935485837,-0.002958383643999696,0.019558431580662727,0.9110521674156188,0.4118162989616394,-0.05467778671271381,0.17187628395924176,3.0511654334072373,0.11282562464475633,0.09127695113420486,0.11338872462511065,0.3058196843415499,-0.491335574425757,-9.87316980957985
30.69,3.0999999046325684,332.0,22.998918533325195,26.10567283630371,-79.78278640315027,40.45906480333907,288.10862104797366,-0.0006978049059398472,0.02132304944097996,0.9114333987236024,0.4108942449092865,-0.07499566021630676,0.1884957171214608,3.0671500601336,-0.13397634029388428,-0.025373781099915504,-0.17818482220172882,0.2832633190602064,0.05004993673413992,-9.849868655204773
30.79,3.2000000476837163,330.0,23.159181594848643,24.849292755126953,-79.78278657641705,40.459064665325656,288.4525026550293,0.0008058807579800488,0.020800365135073662,0.9118966460227966,0.4098917841911316,-0.037485617861680004,0.2088721263721504,3.0456027414029405,0.1675894260406494,0.06905547529459,0.13369984924793246,0.3883818211778999,-0.4457228703796864,-9.709324979782103
30.99,3.2000000476837163,328.0,23.03147315979004,25.620615005493164,-79.78278665612298,40.45906461554843,288.7569708099365,0.0003275315393693745,0.020265106111764908,0.9122248888015748,0.4091883301734924,-0.03515209612122075,0.20174806895622693,3.0341103431464087,0.09561557322740556,0.03321874141693115,0.03910293057560922,0.3670053874701262,-0.3946233584359288,-9.707089589238167
31.19,3.2000000476837163,325.0,23.11911582946777,24.411945343017567,-79.78278683866363,40.45906445924732,289.4091543426514,-0.002280839951708913,0.021024953573942184,0.912344753742218,0.4088764786720276,-0.07662393360448495,0.19275238283112567,3.031301995735099,-0.1204509437084198,-0.12029965966939925,-0.2350669354200363,0.22945930542424325,0.062313539665192375,-9.707929834127427
31.29,3.2000000476837163,323.0,22.893747329711914,27.823257446289066,-79.7827868968774,40.459064410379895,289.71311323547366,-0.0034067207016050816,0.020887278020381927,0.9123262763023376,0.4089166820049286,-0.06895128170978237,0.18013215569580865,3.0342794450874213,0.10501404106616974,-0.003818953409790993,0.060100823640823364,0.2735023609735072,-0.15451296597719194,-9.788188131451609
31.39,3.2000000476837163,321.0,22.987651824951172,26.43964767456055,-79.78278698727317,40.45906434010188,290.36596243286135,-0.002749135484918952,0.018805701285600662,0.9126722812652588,0.40825021266937256,-0.07658367520251078,0.16119679386914376,3.0532419847186087,-0.05801336094737052,-0.023477934300899502,-0.05020035058259964,0.2748157004266977,-0.2681317482143641,-9.892283188104633
31.59,3.2000000476837163,320.0,23.049001693725586,25.898927688598643,-79.78278700970908,40.4590643351067,291.01237623596194,-0.0048834788613021365,0.018667975440621376,0.9127265810966492,0.408115029335022,-0.0835711474817678,0.1280527785161536,3.037969969516406,-0.04845670238137245,-0.07484612613916397,-0.1338130682706833,0.2511121297068894,-0.0011657155305147171,-9.676135014295578
31.79,3.2000000476837163,319.0,23.032724380493164,25.23892974853516,-79.7827870371224,40.459064303758346,291.3164324035645,-0.00532371224835515,0.01937051117420196,0.9124608039855956,0.4086706340312958,-0.07797460688164917,0.13431136544663164,3.038408270684968,0.1492621898651123,0.1339263617992401,0.004574899096041918,0.3923160471394658,-0.13382295884191991,-9.77669367492199
31.89,3.2000000476837163,320.0,23.09407615661621,24.70616149902344,-79.78278702300184,40.45906432636221,291.66669218444827,-0.005375884938985109,0.019620558246970177,0.9121522903442384,0.4093462824821472,-0.08431444847045802,0.13666934955075652,3.065020934843252,0.02250959537923336,0.0824621170759201,0.0759376510977745,0.2684173481538892,-0.4393151260167361,-9.899529057741166
31.99,3.2000000476837163,320.0,23.08781433105469,24.73796844482422,-79.7827870793548,40.459064264099744,292.280946182251,-0.005349787883460522,0.023013882339000702,0.9109304547309875,0.4118827879428864,-0.08158950681001442,0.14335792097965608,3.0596374315990635,0.1126379743218422,0.07748815417289734,0.17861942946910858,0.3274741896986961,-0.38661643713712696,-9.748717671632766
32.19,3.299999952316284,319.0,22.94883728027344,26.65434646606445,-79.78278719310075,40.459064196401954,292.91876165771487,-0.002263529459014535,0.02437442168593407,0.9102479219436646,0.4133395254611969,-0.10245602461995176,0.16146262978072906,3.0228635374385067,-0.14283235371112826,-0.06110936030745506,-0.12128680944442748,0.3108373262733221,0.028633467871695763,-9.685371860861776
32.29,3.299999952316284,319.0,22.826135635375977,28.332170486450195,-79.78278721679172,40.4590641770348,293.22166960144045,-0.0016731657087802887,0.0231027826666832,0.9105390310287476,0.4127736687660217,-0.060256159416989474,0.1501130043277667,3.026962171390745,0.15585465729236606,0.08601980656385423,0.15978285670280454,0.3306931550055742,-0.597881235703826,-9.822461585998537
32.49,3.299999952316284,319.0,22.932559967041016,27.05193519592285,-79.78278708323806,40.45906424171058,293.56491796875,-0.0014065619325265286,0.0219211969524622,0.9109615087509156,0.41190630197525024,-0.08583699228496894,0.11408071476861785,3.045895322244712,-0.13532505929470062,-0.09489117562770844,0.051562491804361336,0.2834103399887681,-0.2916918246075511,-9.8606731402874
32.69,3.299999952316284,321.0,22.887487411499023,27.61651039123535,-79.78278715423579,40.45906420952272,294.20832960510256,-0.003970670513808727,0.020970545709133148,0.9117274284362792,0.4102410674095154,-0.06307534078469379,0.09607250420595986,3.030557165034063,0.14248055219650269,0.032243900001049035,0.06306613236665726,0.2646221580170095,-0.1972067399695516,-9.69036479830742
32.8,3.299999952316284,317.0,23.069034576416016,25.056039810180664,-79.78278713592421,40.45906421804232,294.5108865966797,-0.005412369500845671,0.02064783684909344,0.9121666550636292,0.4092631638050079,-0.06659749761713654,0.07966414313476403,3.020579234973208,0.11139847338199617,0.0996805727481842,0.07362837344408035,0.16542960796505213,-0.4524697167053819,-9.71181530892849
32.89,3.299999952316284,317.0,22.859941482543945,28.348073959350586,-79.78278695945791,40.45906431532463,295.1581205596924,-0.004817251581698656,0.017587177455425262,0.9124174118041992,0.40885457396507263,-0.10414991125135306,0.042917401294116614,3.0421598409801667,-0.12477431446313858,-0.1172986850142479,-0.0439070537686348,0.18841842966154213,-0.29020456703379754,-9.787719184756279
33.1,3.299999952316284,316.0,23.03522872924805,25.262784957885746,-79.78278683969803,40.45906432634396,295.7985071411133,-0.006328136660158634,0.015916407108306885,0.9126858711242676,0.4083027839660645,-0.09033484554436506,0.02673806828932635,3.057277947358678,0.09587261825799942,0.07636900991201401,0.030222227796912193,0.20075444670394066,-0.22917129350826146,-9.821138945817948
33.19,3.4000000953674316,314.0,22.873714447021484,27.34615135192871,-79.78278677277679,40.45906433839925,296.1042932739258,-0.009739228524267672,0.017248038202524185,0.9128050208091736,0.4079152643680573,-0.08662177259469156,0.02061453553027643,3.059472739890062,0.21371619403362274,0.11937515437602995,0.07642970979213715,0.2464739537984133,-0.5030459028482437,-9.863528920412065
33.4,3.4000000953674316,315.0,23.006431579589844,25.89097595214844,-79.78278670173758,40.459064341107776,296.43990270996096,-0.011853978969156742,0.017766669392585754,0.91278874874115,0.4078732132911682,-0.11611226954795167,0.01808678400285095,3.0627188595261208,0.08253414183855058,0.05714597553014755,0.010355103760957718,0.2620182284340263,-0.5305080820620061,-9.851442725658416
33.59,3.299999952316284,314.0,23.001422882080078,25.23892974853516,-79.78278657893631,40.45906437855114,297.05170004272463,-0.013362322002649307,0.016755497083067894,0.9131236672401428,0.4071192145347595,-0.14033417139918875,0.018738185144764843,3.0479863386974704,-0.1811743527650833,-0.14051441848278046,-0.2038625180721283,0.18546589639037847,-0.045017795534804464,-9.718245491981508
33.69,3.4000000953674316,313.0,23.0076847076416,26.15338516235352,-79.78278653192892,40.459064495329436,297.6831220855713,-0.009738309308886528,0.013718205504119394,0.9128247499465942,0.4080050587654114,-0.06986684091081326,0.0059852354151761385,3.035502868154968,0.1697053760290146,0.16150352358818054,0.12428545206785202,0.2585856204852462,-0.3521873735636473,-9.715035955309867
33.8,3.4000000953674316,314.0,22.863698959350586,27.06783866882324,-79.78278692547902,40.45906446796821,297.9965528717041,-0.008238488808274269,0.014515072107315062,0.912653386592865,0.40839362144470215,-0.0723907716940051,0.05970824103711106,3.0226544326261715,-0.01419204380363226,0.07705814391374588,0.09130313247442244,0.20247022077441207,-0.3946726943179965,-9.73862186908722
33.99,3.4000000953674316,313.0,22.78356742858887,29.071685791015625,-79.78278697703306,40.45906446915446,298.5987486114502,-0.007073612418025731,0.017103230580687526,0.9121884107589722,0.4093529582023621,-0.07123670826113776,0.08970206765517291,2.997594381777332,-0.0835275873541832,-0.14603132009506226,-0.018367452546954155,0.2566800494492054,-0.14925283818505705,-9.728349480628967
34.19,3.4000000953674316,314.0,22.990154266357425,26.79747772216797,-79.78278695385788,40.45906444493331,298.92765371704104,-0.00718370173126459,0.017381154000759125,0.9119118452072144,0.4099549949169159,-0.06943159343094557,0.09498911430535843,3.0130668397428133,0.08914895355701448,0.062065709382295615,-0.12169214338064195,0.31105941083282235,0.02492609560489655,-9.819332156181336
34.29,3.4000000953674316,315.0,23.001422882080078,25.461580276489247,-79.78278697818202,40.45906444012656,299.2289385070801,-0.007533520925790071,0.016979672014713287,0.9116279482841492,0.4105965793132782,-0.0656823398128632,0.09948468294774827,3.00255465623004,0.06708106398582457,0.06723348796367645,0.12889522314071655,0.3219292750954628,-0.4146422879397869,-9.7232021766901
34.4,3.299999952316284,315.0,22.851177215576172,27.354103088378906,-79.78278694226293,40.45906450209595,299.85974256896975,-0.007253586780279875,0.0179232768714428,0.9113653898239136,0.4111439883708954,-0.07476215305384462,0.08512947386896913,3.005433992221477,-0.14546136558055878,-0.10967916250228882,-0.15208454430103302,0.3374820647388697,-0.06318256838712842,-9.787085346579556
34.59,3.299999952316284,318.0,22.867454528808594,26.996273040771484,-79.78278696680067,40.45906451411688,300.16064588928225,-0.007124666590243578,0.01836451701819897,0.9115172028541564,0.4107900559902191,-0.06676765839855807,0.08798481214407188,3.006011449998637,-0.02743900939822197,0.02592116966843605,-0.1446647197008133,0.2283142378740013,0.06588584125041963,-9.760374680757524
34.69,3.299999952316284,320.0,22.91878890991211,26.376033782958984,-79.78278705541716,40.45906456422154,300.78508703613284,-0.002679197350516916,0.018222497776150703,0.9122900366783142,0.4091304242610931,-0.048960808801702456,0.0918853211841978,3.014658670409104,-0.05264036729931832,0.023175006732344627,0.00035935221239924436,0.22566415183246136,-0.30158143971115353,-9.876719069480895
34.89,3.299999952316284,321.0,22.85493278503418,27.3620548248291,-79.78278702110799,40.459064577748116,301.1106523742676,-0.0017432586755603552,0.016834858804941174,0.9125913381576538,0.4085225760936737,-0.04823870118233503,0.08411646701550518,3.016089155621529,-0.11527960002422333,-0.0808575451374054,-0.1005229353904724,0.2688525454513729,-0.17978271340951324,-9.795544513463977
35.09,3.299999952316284,321.0,22.93130874633789,26.535070419311523,-79.78278702237432,40.45906460998322,301.7145666351318,-0.003239590208977461,0.01503345649689436,0.9131404757499696,0.4073551297187805,-0.05244156892043995,0.06566548997247637,3.033438111041628,-0.005724606104195118,0.005017815623432398,-0.19719792902469635,0.2399100156873465,0.04824588797986508,-9.925921050310137
35.19,3.299999952316284,320.0,22.97763442993164,25.588808059692386,-79.78278713382161,40.45906463459942,302.0429834594727,-0.0033887054305523643,0.01675647683441639,0.9132025241851808,0.4071472585201264,-0.04026368072663704,0.06649831420322293,3.0442097834914685,0.02477700635790825,0.03567133471369744,-0.048377539962530136,0.1810755510628224,-0.0225578636303544,-9.887269785404207
35.29,3.299999952316284,318.0,22.857437133789066,26.996273040771484,-79.78278715660188,40.4590646067948,302.6698965301514,-0.005287718027830124,0.01915205270051956,0.91306871175766,0.4073214828968048,-0.041331649543374566,0.09079410131496636,3.044319045667458,0.20398791134357447,0.06701864302158356,0.17381127178668976,0.3617116107791663,-0.5415749974921346,-9.886503800153733
35.49,3.299999952316284,317.0,22.98389434814453,24.96857070922852,-79.78278715504183,40.45906463406802,303.2831758728028,-0.005559454672038554,0.014122812077403069,0.9130485653877258,0.4075683355331421,-0.06279035992500538,0.06591516624139504,3.0841730485369983,-0.03539993241429329,0.023015642538666725,-0.04771094396710397,0.1873188790306449,-0.39475755203515295,-9.978494535684586
35.59,3.2000000476837163,316.0,23.03147315979004,24.74592018127441,-79.78278711514179,40.45906469257258,303.60711614990237,-0.006348224356770515,0.014354960061609743,0.9129363298416138,0.4078001976013184,-0.06422833268720926,0.04431544537141445,3.0681215155019403,-0.02814172580838204,-0.05217951536178589,-0.03204621747136116,0.2469452028349042,-0.2004528582841158,-9.792539629340173
35.79,3.2000000476837163,314.0,22.962610244750977,25.994348526000977,-79.78278709862704,40.45906470984525,303.9130586853028,-0.008523120544850826,0.015424391254782675,0.9127042293548584,0.4082408249378204,-0.07819865183310812,0.04416142459075805,3.0490200645008154,-0.08214247226715088,-0.14095133543014526,-0.06853909790515901,0.2298992901295424,-0.13971155268140134,-9.620020455121994
35.99,3.2000000476837163,311.0,22.95885467529297,25.596759796142567,-79.7827871076367,40.45906473853768,304.54298727416995,-0.008232430554926395,0.017179548740386963,0.9125787019729614,0.4084571301937103,-0.07878166079786744,0.043142737438108925,3.0465978713249653,0.12295210361480713,0.10144884884357452,0.11477154493331908,0.2675142274238169,-0.3867549430578947,-9.862601552009584
36.11,3.299999952316284,310.0,22.91878890991211,25.80350685119629,-79.78278710833591,40.459064733909116,305.1747507324219,-0.010268411599099636,0.014598376117646694,0.9124487638473512,0.4088016450405121,-0.08059874522742785,0.05409553433142583,3.0673109040527624,0.045615199953317635,-0.02957657165825367,-0.0005942830466665328,0.21746474750339986,-0.3903033258765936,-9.891889085769655
36.19,3.299999952316284,308.0,22.94758605957031,25.73194122314453,-79.78278709110084,40.45906474718663,305.4822000732422,-0.012061470188200474,0.01392056979238987,0.9124511480331421,0.4087709486484528,-0.09559684749062283,0.03673108972169512,3.075630586634204,-0.04083823785185814,-0.08419615775346756,0.07553879171609879,0.20080409321933987,-0.4505078662186861,-9.876735441684724
36.4,3.299999952316284,310.0,22.94758605957031,25.42977333068848,-79.78278727182915,40.45906476226822,306.1163477172852,-0.01236804574728012,0.012257867492735386,0.9124245643615724,0.4088744521141052,-0.09158794384450544,0.06406930788944151,3.0740418549884887,-0.04040125384926796,-0.018711598590016358,-0.06153718754649162,0.21902620989829305,-0.06917424224317074,-9.842361999750135
36.6,3.299999952316284,308.0,22.98389434814453,25.73989295959473,-79.78278730904128,40.45906476403579,306.42388098144534,-0.011990328319370748,0.010727867484092712,0.912209689617157,0.40940770506858826,-0.06804651284366782,0.0664042926364024,3.0700826854171037,0.09094322472810744,0.08170390129089355,0.1143876016139984,0.25420521542429925,-0.4246066743135453,-9.767601839303973
36.7,3.299999952316284,307.0,22.993911743164066,24.730016708374023,-79.78278730142094,40.45906476407284,306.75468771362307,-0.010816116817295551,0.01037344429641962,0.9119591116905212,0.41000744700431824,-0.07698796062647689,0.05560428257176105,3.056152718839125,-0.061759807169437415,-0.012673676013946531,0.042756617069244385,0.24256097881123426,-0.39584312416613104,-9.703305855989457
36.89,3.299999952316284,305.0,22.92129325866699,25.80350685119629,-79.78278741308681,40.4590647833643,307.390658782959,-0.008202756755053997,0.011405176483094692,0.9119558334350586,0.4100479781627655,-0.050290032857141335,0.06092414236233741,3.0528694119567104,0.1760331243276596,0.12261323630809785,0.14901059865951538,0.1920949213206768,-0.4350509709119797,-9.70485419869423
36.99,3.2000000476837163,303.0,22.946332931518555,25.40591812133789,-79.78278744932565,40.45906477626768,307.69549505615237,-0.007005091290920973,0.012368449941277504,0.9122294187545776,0.4094332158565521,-0.053299985737101006,0.06894562660702944,3.0442700814417543,0.04013784602284432,0.09852298349142076,0.021518750116229057,0.2138306481577456,-0.3464329459145665,-9.76003320336342
37.09,3.2000000476837163,302.0,22.873714447021484,26.646394729614247,-79.78278745183016,40.45906479656934,308.33510153198245,-0.006370890885591507,0.015264206565916538,0.9128788113594056,0.4078954160213471,-0.07732711769958325,0.07905824976451478,3.0548056433950745,-0.11980294436216354,-0.10822585225105286,-0.1617828905582428,0.18119315318763252,0.050172910988330835,-9.787113997936247
37.3,3.2000000476837163,302.0,22.97012138366699,25.11170196533203,-79.78278752668166,40.45906483628592,308.9746355285645,-0.007471543271094561,0.014122786931693554,0.9133411645889282,0.4068818092346192,-0.03910979944627856,0.06697366090644828,3.076342305876235,0.1872733980417252,0.0816740095615387,0.13825391232967374,0.2100603086873889,-0.48684772677719607,-9.859869732856751
37.4,3.2000000476837163,303.0,22.936317443847656,25.89097595214844,-79.78278754292586,40.45906484917105,309.2825922241211,-0.007131233345717193,0.01397920586168766,0.9134742617607116,0.4065939486026764,-0.051043171223409865,0.058382846487170285,3.07982195601632,0.015557905659079553,0.02850648202002048,0.08909370005130768,0.178641318641603,-0.476494208201766,-9.8287075817585
37.59,3.2000000476837163,301.0,22.900007247924805,25.994348526000977,-79.78278763436029,40.45906484161442,309.92056219482424,-0.004412150010466576,0.013308488763868807,0.9137120246887208,0.4061204493045807,-0.06822568238069147,0.06633072887027455,3.0795465106552715,-0.1515427678823471,-0.09947282820940018,-0.1613357663154602,0.201569420658052,0.10847418263554573,-9.801365416646004
37.79,3.0999999046325684,301.0,22.861194610595703,27.234825134277344,-79.7827876468491,40.45906484875236,310.228721069336,-0.00461618835106492,0.011918097734451294,0.9137611985206604,0.40605080127716064,-0.04822754852375303,0.06748956807346868,3.0782328970733914,0.04853644594550133,-0.01112488564103842,0.0034699095413088803,0.12504691855050626,-0.07795900767669083,-9.787316896319387
37.89,3.0999999046325684,300.0,22.987651824951172,24.769775390625,-79.78278767799952,40.459064895227954,310.5615343322754,-0.0059399050660431385,0.011378428898751736,0.913713037967682,0.4061573147773743,-0.033268623040653485,0.04844178696128374,3.076308890860938,0.14541654288768768,0.11229291558265686,0.13727861642837524,0.13262040585279464,-0.3578128701075912,-9.756364075541496
37.99,3.0999999046325684,301.0,22.90626716613769,25.60471153259277,-79.78278768857272,40.45906491268902,311.1771730651856,-0.006933438591659069,0.012631754390895368,0.9127981662750244,0.40815669298171997,-0.07206922212672823,0.04717621043498661,3.079877964300106,-0.14669987559318542,-0.09419004619121553,-0.17537514865398407,0.13925790924578907,0.04568155501037837,-9.805462560653687
38.19,3.0999999046325684,300.0,22.893747329711914,25.66037368774414,-79.7827878395336,40.459064901874754,311.81662313842776,-0.005498813930898905,0.012117701582610607,0.9118849039077759,0.41023048758506775,-0.037981328242142,0.0713864678883535,3.097762975709073,0.12554754316806793,0.1110595241189003,0.10367726534605026,0.20366988670080904,-0.4542618152126671,-9.890560598373414
38.4,3.0,301.0,22.9788875579834,25.44567680358887,-79.7827878020172,40.45906487155215,312.149260925293,-0.005271999631077051,0.012248121201992037,0.9116154909133912,0.4108279049396515,-0.07350880382036049,0.06204329715913346,3.1087091256344057,-0.12526273727416992,-0.0676211565732956,-0.1088857278227806,0.18688541762530805,0.01519582169596106,-9.817680902481081
38.49,3.0,302.0,22.943828582763672,25.286640167236328,-79.78278781059394,40.45906486693004,312.4594377746582,-0.0051008770242333395,0.01301832776516676,0.9113457202911376,0.4114042520523071,-0.06970110371911785,0.06821015478740387,3.0928046297626426,-0.028147567063570026,0.002181590534746647,0.09158671647310256,0.2272727574035525,-0.16209422824904324,-9.728997352123262
38.59,3.0,304.0,23.03522872924805,23.720142364501953,-79.78278782798078,40.45906490682912,313.09842626953133,-0.003972842823714018,0.015425680205225945,0.9112595915794371,0.4115242958068848,-0.06278158138906575,0.06741934458113405,3.0935568160235363,-0.01826004683971405,-0.007206224370747805,-0.1576920449733734,0.21857030980288986,-0.04324083583429456,-9.740734468102458
38.79,3.0,306.0,22.91878890991211,26.137481689453125,-79.78278781108166,40.45906493861011,313.7396806945801,-0.002925125416368246,0.0170929804444313,0.9118779301643372,0.41009521484375,-0.08529595865362205,0.07868829851113585,3.0765592815065945,-0.11882619559764862,-0.12258118391036987,-0.05630297586321833,0.29663381818681955,-0.11298013838008045,-9.673377467393877
38.9,2.9000000953674316,308.0,23.015195846557607,24.849292755126953,-79.78278779629349,40.459064936341186,314.0472177734375,-0.002881262451410293,0.017134953290224075,0.9122648835182192,0.4092322289943695,-0.06200458848937618,0.08010358902507586,3.0676884815067686,0.10983144491910933,0.11735812574625015,-0.06472707539796829,0.2969460960477591,-0.10111696008592844,-9.661835648417473
39.09,2.9000000953674316,309.0,22.91503143310547,26.04205894470215,-79.78278782790981,40.45906491688388,314.6836504211426,-0.003641334595158696,0.01816968806087971,0.913196861743927,0.4070972204208374,-0.08538835354572627,0.08531833018579334,3.04497755022604,-0.17032597959041595,-0.1427251547574997,-0.08611112087965013,0.2254691471904517,0.05672440092545002,-9.603938273191453
39.29,2.9000000953674316,310.0,22.910024642944336,25.70013236999512,-79.78278781949537,40.45906491935247,314.9872926940918,-0.0041488674469292155,0.0174615066498518,0.9134886860847472,0.40646830201148987,-0.06071281921147852,0.08593079023567017,3.0216820932504698,0.06556621938943863,0.02449122816324234,0.08202148973941803,0.2969935681298375,-0.2525586760416627,-9.584267655014992
39.39,2.9000000953674316,311.0,22.88873863220215,26.12952995300293,-79.78278781124608,40.459064924540336,315.2888635864258,-0.004843324422836304,0.015861062332987785,0.9136715531349182,0.4061150848865509,-0.054826045978675415,0.07578397690626096,3.009390447192772,0.044242121279239655,0.002156740054488182,0.008607585914433,0.2642844995856285,-0.3365527959913016,-9.681612101197244
39.49,2.9000000953674316,313.0,23.032724380493164,24.10977935791016,-79.78278795863359,40.459064932539796,315.92925207519534,-0.004627189133316279,0.01400988269597292,0.913221538066864,0.4071963727474213,-0.048865672189119885,0.07083641428901923,3.0309624506443864,0.0633058026432991,0.019320227205753326,0.112747922539711,0.2154616741463542,-0.268850809559226,-9.723861157894136
39.69,2.799999952316284,314.0,22.89124298095703,25.81941032409668,-79.78278811397878,40.45906487421024,316.55972998046883,-0.004673787858337164,0.012248175218701364,0.913042426109314,0.4076540172100067,-0.04510864052780294,0.07790927971545394,3.044539581691026,-0.11339571326971055,-0.12620490789413452,-0.02004664391279221,0.20980557108297945,0.013777172975242138,-9.808711858391762
39.8,2.799999952316284,314.0,22.97638320922852,24.403993606567386,-79.7827881504151,40.459064879018605,316.8640169372559,-0.006406750064343214,0.013400637544691564,0.9130098223686218,0.4076671898365021,-0.03651674217004326,0.07821253182128719,3.0382394921042906,0.004381360020488501,0.039278686046600335,-0.05725567415356636,0.16297567773610355,-0.04468095023185015,-9.720686119794848
40.0,2.799999952316284,316.0,22.80860710144043,26.50326156616211,-79.78278821688588,40.459064830712656,317.187102722168,-0.006214714143425226,0.0143028162419796,0.9131178855895996,0.4073972702026367,-0.03215023829162672,0.08851753310709108,3.030726155935864,0.05546043813228607,0.08475099503993988,0.0043714228086173534,0.2544257833622396,-0.3191371565312147,-9.750447862744332
40.19,2.799999952316284,317.0,22.89499855041504,25.49338722229004,-79.78278831981547,40.459064864555366,317.81338446044924,-0.001498925033956766,0.014538515359163284,0.9134252667427064,0.406744122505188,-0.021072810677993062,0.0959110485169479,3.0507899192517187,0.04393313452601433,0.09581233561038972,-0.0850437581539154,0.25229856630787256,0.05819382905960084,-9.827914699316024
40.29,2.799999952316284,317.0,22.993911743164066,25.040136337280273,-79.78278842740131,40.459064887021825,318.42179434204104,-0.0020175206009298567,0.013832989148795605,0.913574755191803,0.4064306616783142,-0.01683189547736628,0.10111161342059324,3.0234330018954965,-0.15066707134246826,-0.10553129762411118,-0.07282869517803192,0.2207824028469622,-0.08704177097417415,-9.63716624557972
40.39,2.700000047683716,315.0,22.87621879577637,26.566877365112305,-79.78278861384842,40.459064782272506,318.73351232910164,-0.0016124554676935075,0.01407363545149565,0.9136033058166504,0.40636008977890015,-0.006614945192823584,0.11882030161199544,2.9996504649206446,0.04019738733768463,0.06327857822179794,0.04583511129021645,0.2499684508703649,-0.2215521339699626,-9.651106592416763
40.59,2.700000047683716,320.0,22.91628456115723,25.461580276489247,-79.7827888102637,40.45906471061605,319.34893743896487,0.0003862861485686153,0.014925418421626091,0.9136458039283752,0.40623700618743896,-0.015927911603817218,0.12844746207947338,2.987874409457155,-0.04704330861568451,-0.024358078837394714,-0.1468876302242279,0.2019872773066163,0.16877194952219726,-9.663473453521727
40.79,2.700000047683716,321.0,22.966365814208984,25.382062911987305,-79.78278887823198,40.45906469540886,319.64721243286135,0.0007724763127043843,0.015191509388387203,0.9136087894439696,0.4063098728656769,0.004242327699318036,0.13322050442421055,2.9708373232922853,0.12369967252016068,0.13843144476413727,0.06582362204790115,0.27153992576524616,-0.2097763167321682,-9.631288039684296
40.91,2.700000047683716,321.0,22.84491729736328,26.02615547180176,-79.78278894451023,40.45906467864343,319.94357626342776,0.0003154486184939741,0.014723306521773338,0.9135483503341676,0.4064635634422302,-0.020694137852715896,0.13776320493957134,2.9511385944846635,-0.11216889321804048,-0.10254665464162828,-0.003217758145183325,0.21226766914129253,-0.1193054187297821,-9.612489826083184
41.09,2.5999999046325684,319.0,22.8712100982666,25.652421951293945,-79.78278910417012,40.45906464184204,320.54943029785164,-0.0009755330975167453,0.013777490705251694,0.9132025241851808,0.4072719812393189,-0.00408879478974274,0.123740945462548,2.943093218449287,0.02430649846792221,-0.014613575302064419,0.0178170595318079,0.2596351774223149,-0.26080993786454204,-9.806372387409212
41.19,2.5999999046325684,320.0,22.803600311279297,26.224950790405273,-79.78278920096494,40.45906458366813,320.8588098754883,-0.0022078349720686674,0.013445503078401087,0.913171887397766,0.4073470234870911,-0.018237617621809785,0.1197889958795906,2.951328226594588,0.008249099366366863,-0.043107714504003525,-0.05931596830487251,0.1977839332446456,0.033525869753211736,-9.838422145843506
41.29,2.5999999046325684,319.0,22.93381309509277,24.88109970092773,-79.78278931661806,40.459064563862974,321.45157949829104,-0.00023890395823400468,0.013637002557516098,0.9136264324188232,0.4063258469104767,-0.03401027339903233,0.10799086347199477,2.9706057187169965,-0.201809361577034,-0.08255219459533691,-0.09893772006034852,0.18464438086375595,0.011110047781839971,-9.883830453157426
41.5,2.5999999046325684,319.0,22.74224853515625,27.12350082397461,-79.78278941251621,40.459064511896266,322.05428259277346,0.003127798205241561,0.011703214608132841,0.9139724969863892,0.4055954217910767,0.004658883874560045,0.1077620172128654,2.9624203224947103,0.10737574845552443,0.06739309430122375,0.09113094210624696,0.2603621507808566,-0.3464129557460547,-9.849649969339367
41.69,2.700000047683716,316.0,22.927553176879893,25.37411117553711,-79.78278950565259,40.45906449570894,322.36077825927737,0.004190076608210802,0.010209411382675173,0.9140881299972534,0.4053655862808228,-0.014481485993512929,0.10409645649874967,2.9684148152796177,-0.1848969608545304,-0.11376530677080154,-0.07582629472017287,0.2281648049689829,0.011541800703853371,-9.858796184062962
41.8,2.700000047683716,314.0,22.80860710144043,26.7418155670166,-79.78278953969262,40.45906448078194,322.657561706543,0.0033810492604970928,0.009886162355542185,0.91411954164505,0.4053102135658264,-0.011395062057337531,0.10072581216293372,2.964756225950892,-0.04013034328818321,-0.05913475900888442,-0.13959936797618866,0.20576342744752765,0.183095617890358,-9.763291856646537
41.99,2.700000047683716,312.0,22.80234718322754,26.69410514831543,-79.78278966153114,40.45906441833214,323.25740759277346,-3.9854410715634e-05,0.011871837079524994,0.9139227867126464,0.4057145118713379,-0.024176494996537644,0.09812709347524796,2.9587378176992445,0.048576418310403824,0.005537169054150581,0.04372740536928177,0.25923997873440385,-0.22034453775733712,-9.828956673145292
42.09,2.700000047683716,312.0,22.900007247924805,25.09579849243164,-79.78278968616165,40.45906438713676,323.5534738769532,-0.0013622300466522574,0.013685167767107487,0.9136794209480286,0.4062029719352722,-0.05721353567988548,0.10683242875231568,2.959062156899804,-0.1193104162812233,-0.08279334753751755,-0.11959758400917052,0.19914532950147987,0.05929823105223477,-9.80001646399498
42.19,2.700000047683716,314.0,22.83615303039551,25.79555511474609,-79.78278962158964,40.459064321603215,324.15030996704104,-0.002421533223241568,0.015470302663743498,0.9132651090621948,0.4070649147033691,-0.04923795513338209,0.09280272632550103,2.9449184185047264,0.125588059425354,0.06220733746886253,0.12929345667362213,0.2527511225268245,-0.4454279514402151,-9.755218021273613
42.39,2.799999952316284,314.0,22.79608726501465,26.48735809326172,-79.7827896370236,40.459064191965545,324.7476839294434,-0.0014945382717996836,0.017155388370156288,0.913081705570221,0.4074129462242127,-0.06846414329226078,0.0972364746799404,2.9124474589561165,0.06775309890508653,0.11228764802217484,0.08358194679021835,0.27734891524538396,-0.2314661977440119,-9.680423362255095
42.59,2.799999952316284,316.0,22.7785587310791,26.137481689453125,-79.78278963060983,40.459064168111034,325.0391840209961,-0.0008651544922031463,0.016986556351184845,0.9132521748542786,0.4070397913455963,-0.07867891709483177,0.1002858512230778,2.913867216580853,-0.11732681840658188,-0.054278433322906494,-0.07545212656259538,0.2583170871064067,-0.08618256831541657,-9.763735075592995
42.69,2.799999952316284,317.0,22.82363319396973,25.517242431640625,-79.78278962528387,40.4590641113107,325.3462480773926,-0.0007104841060936451,0.016591759398579597,0.9134165644645692,0.4066873490810394,-0.07002234533753082,0.09534737456157022,2.9327352394165405,-0.027179252356290817,-0.06749950349330902,-0.06518290191888809,0.2643278786167503,0.001240084804594517,-9.880672956705093
42.89,2.9000000953674316,317.0,22.76478576660156,26.66229820251465,-79.78278959524515,40.459064077346675,325.9352602233887,-0.00012427792535163462,0.016753066331148148,0.91358482837677,0.4063030183315277,-0.06353950881503978,0.08271703675667053,2.9496442253790054,-0.0423356331884861,0.030000012367963787,-0.04062944650650024,0.22889459230005746,-0.23745120668783784,-9.846759105920793
43.0,2.9000000953674316,317.0,22.943828582763672,24.82543754577637,-79.7827895910513,40.45906400510138,326.53485052490237,-0.0013565152185037732,0.017339812591671944,0.9136257171630859,0.4061840772628784,-0.0614231700150709,0.08506367251219771,2.9444222503946267,0.08257372677326202,0.02457842417061329,-0.08389195799827576,0.24526853201910856,0.040131816454231736,-9.711879628300668
43.19,2.9000000953674316,316.0,22.73974418640137,27.46542739868164,-79.7827896284124,40.459063922262956,326.83690969848635,-0.002764776349067688,0.015828385949134827,0.9137979745864868,0.4058511853218079,-0.0620232002572283,0.0868711753551282,2.9146667890157434,0.043388627469539635,0.04524793103337288,0.03871333971619606,0.1871766820549965,-0.2772093495167792,-9.685020443201063
43.3,2.9000000953674316,316.0,22.73598861694336,27.139404296875,-79.78278959231409,40.459063913004776,327.41936437988284,-0.003114326857030392,0.013916632160544395,0.9137662053108216,0.4059900343418121,-0.061968508183255375,0.056749680440494436,2.9176030817341805,0.05036921799182892,0.034988712519407265,-0.10405264049768448,0.16262952256947755,0.0988568650558591,-9.84379339814186
43.49,3.0,315.0,22.71345138549805,27.855064392089844,-79.7827895620477,40.459063900820645,328.01985113525393,-0.0027728630229830733,0.012388416565954685,0.914320468902588,0.4047924876213074,-0.042779409484366385,0.03942103527928268,2.9481574121412093,0.03199296072125435,0.008831584826111794,0.13077080249786374,0.1698233885318041,-0.2636919756419957,-9.899220324754717
43.59,3.0,313.0,22.83615303039551,26.10567283630371,-79.78278953028594,40.45906386136281,328.3264383544922,-0.0019307970069348808,0.01226829830557108,0.9146514534950256,0.4040527045726776,-0.06365369883248781,0.035708547567592334,2.9545921541795837,-0.10355168581008913,-0.0226536076515913,-0.07510533183813095,0.2179813124611974,-0.12070452952757478,-9.876189311742785
43.69,3.0,311.0,22.667125701904297,28.25265312194824,-79.78278950040254,40.459063868150785,328.62256567382815,-0.0014327331446111202,0.011933071538805963,0.9149602651596068,0.4033651053905487,-0.06893726107203134,0.04053615140740596,2.972423546969364,-0.21950633823871613,-0.1274656355381012,-0.1336529105901718,0.18868816902861,0.003931686077266932,-9.958501735925672
43.89,3.0,311.0,22.83489990234375,25.978445053100586,-79.78278945883143,40.45906390512716,329.22798101806643,-0.0035818119067698717,0.011758537031710148,0.9151979088783264,0.40281742811203003,-0.06856885698566191,0.04091751560236713,3.029613910151425,-0.12375270575284958,-0.09553008526563644,-0.02830204553902149,0.18575535183772449,-0.0020261241775006056,-10.117562373876574
43.99,3.0,308.0,22.63832855224609,28.43554306030273,-79.78278943317774,40.45906390998008,329.5319284667969,-0.003994195722043514,0.01278095506131649,0.9151413440704346,0.40291085839271545,-0.07086159822400966,0.0404298562519131,3.050856513744752,-0.1436229944229126,-0.08029484748840332,-0.10947976261377336,0.2364055235311389,-0.0090437788143754,-10.042833788394928
44.19,3.0,307.0,22.837404251098643,26.01820373535156,-79.78278944539178,40.4590639252855,329.83556692504885,-0.003172822529450059,0.013588675297796726,0.9149007797241212,0.4034376442432404,-0.06579977662895438,0.04452092863937981,3.0504653375136437,-0.09423761814832687,-0.0571478009223938,-0.16255933046340942,0.2364040982723236,0.11494016161188485,-10.065089460611343
44.4,3.0,307.0,22.77480316162109,26.88494682312012,-79.78278943975664,40.45906393041325,330.44720404052737,-0.0015990425599738955,0.013095960952341557,0.9144630432128906,0.4044545292854309,-0.031361435573853486,0.05689307536153049,3.011856443474401,0.1395515352487564,0.06264767795801163,0.11875391006469728,0.2446780911460519,-0.2821439609862864,-9.730629310011864
44.49,3.0,307.0,22.83615303039551,25.81941032409668,-79.78278942599167,40.45906394012286,330.7475694885254,-0.0011426081182435155,0.011893346905708313,0.9141700267791748,0.4051550030708313,-0.02387711074798908,0.04975050252963966,2.9928253675863723,0.14810553193092346,0.08052483946084976,0.1999823898077011,0.20900963712483644,-0.43712724409997467,-9.670239851474763
44.59,3.0,308.0,22.75727462768555,26.86109161376953,-79.78278946286926,40.45906392669828,331.35853903198245,-0.003600219497457147,0.012893016450107098,0.9136711359024048,0.4062339961528778,-0.06422549900515392,0.053729940928410436,2.9691602537567467,-0.17357103526592255,-0.14816290140151978,-0.0787830725312233,0.20264779340475805,0.06356867191381753,-9.62333231806755
44.79,3.0,308.0,22.73849296569824,26.876995086669922,-79.78278944790473,40.459063935695056,331.94961492919924,-0.0052939667366445065,0.014963068999350073,0.9134539365768432,0.4066327810287476,-0.04019895996471092,0.05411102173223742,2.9435596284104517,0.16087350249290466,0.13752715289592746,0.09454373270273207,0.2419850646145642,-0.3798453614115716,-9.7210486471653
44.99,3.0,308.0,22.632068634033203,28.23674964904785,-79.7827894251793,40.459063963856075,332.2700876464844,-0.00401141494512558,0.015355345793068409,0.9135804176330566,0.4063485562801361,-0.06059504328198952,0.051324822111107234,2.9677261638708345,-0.12712007761001587,-0.009884622879326344,-0.00876599084585905,0.16787332383915782,-0.1120108892954886,-9.761676855683326
45.09,3.0,307.0,22.678394317626953,27.656269073486328,-79.7827894226544,40.45906398881099,332.56680242919924,-0.0031357186380773787,0.01563800312578678,0.9137730598449708,0.4059119820594788,-0.04376835686935311,0.05162302944919119,2.968945551860537,-0.13656452298164368,-0.13235488533973694,-0.045399539172649384,0.19961688917130235,-0.08203959675505758,-9.832628724575043
45.2,3.0,304.0,22.794836044311523,26.58278083801269,-79.7827894026197,40.45906404957857,333.18706457519534,0.0013139467919245362,0.01133959274739027,0.9139581918716432,0.4056480526924133,-0.003608883736167308,0.04522753972078415,3.0023666782528746,0.00530810235068202,-0.0351417139172554,0.025905875489115715,0.18728452663868667,0.009807918537408113,-9.832345719337463
45.39,3.0,305.0,22.66837882995605,28.07771301269531,-79.78278940307649,40.45906411352756,333.8085283508301,0.0016407601069658995,0.008138042874634266,0.913903534412384,0.4058467149734497,0.02953054920356912,0.02942919637055765,3.0179433780349965,0.05357961356639862,0.05761395767331124,0.10092628002166748,0.16963505337014795,-0.28196856278926136,-9.893153253793717
45.49,3.0,308.0,22.773550033569336,26.360130310058594,-79.7827894069485,40.45906414808741,334.1108240356445,0.00014231861860025674,0.008325895294547081,0.9140822887420654,0.40544331073760986,0.022343094355731875,0.026613612021662368,3.0262342373799487,0.048598133027553565,0.005737406201660633,0.08534988015890121,0.1849764478951693,-0.26827193520963194,-9.891766294240952
45.69,3.0,309.0,22.67964744567871,27.89482307434082,-79.78278947752041,40.459064180158784,334.42943899536135,-0.00205357070080936,0.010723982006311415,0.9142675399780272,0.40496382117271423,0.007964780269381981,0.03626864850874762,3.0363170162346704,-0.1060819923877716,-0.050846803933382034,-0.13114517927169805,0.1997574781626463,0.05279491212219,-9.879774824380878
45.89,3.0,313.0,22.807355880737305,25.88302421569824,-79.78278953575244,40.45906424264885,335.0371088256836,-0.0013349460205063224,0.01357749942690134,0.9142187237739564,0.4049913883209229,0.006864461733036311,0.06290015972881112,3.0348052328239654,0.14222471415996552,0.1058414950966835,0.05101601406931877,0.27164720389992003,-0.07326480813324451,-9.777517547607422
45.99,3.0,312.0,22.7497615814209,26.75771903991699,-79.78278969190224,40.45906431883832,335.65180914306643,0.0015072905225679278,0.010487541556358336,0.9144184589385986,0.40463170409202576,0.01385598205606318,0.07672312076651268,2.995936750806259,-0.1757352501153946,-0.1425209641456604,-0.06469003856182097,0.2407980432920158,-0.008595297373831273,-9.638077241778372
46.2,3.0,315.0,22.65335273742676,28.76951789855957,-79.78278967968113,40.459064356599455,336.26971380615237,0.001407109317369759,0.009060085751116276,0.9142149090766908,0.4051262140274048,0.0319631101849427,0.0572468572433027,2.9666270476581778,0.1642976999282837,0.10469450056552887,0.16193430125713348,0.1995009863935411,0.055352000026032334,-9.600915262699127
46.39,3.0,317.0,22.82363319396973,25.708086013793945,-79.78278971335996,40.45906437144701,336.5664209594727,0.000756814843043685,0.010087274946272371,0.9141650199890136,0.4052160382270813,0.01660517459640599,0.0656632661444652,2.9673549909067742,0.028731113299727436,0.08171438425779343,0.034690000116825104,0.20264037474989893,-0.2282557839900255,-9.761045941114428
46.49,2.9000000953674316,318.0,22.8424129486084,25.453628540039066,-79.78278980655679,40.45906444142661,336.8967966308594,0.0008519171969965098,0.012151425704360008,0.9139136672019958,0.4057259857654572,-0.007332169887731461,0.07663443902450989,2.99837237669408,-0.17508892714977264,-0.08710126578807831,-0.04047548770904541,0.23545750714838504,-0.03144252508878708,-9.796230976581574
46.69,2.9000000953674316,320.0,22.70594024658203,27.72783470153809,-79.78278991132822,40.459064468727725,337.5123972167969,0.0010817238362506034,0.0143671166151762,0.9131159782409668,0.4074454009532929,0.005493707854527721,0.09285470373033024,2.9950636853165955,0.08258596062660217,0.11801738291978835,0.1164141520857811,0.2172501912340522,-0.3253907536715269,-9.766717740297318
