time,wind_speed,wind_angle,battery_voltage,battery_current,position_x,position_y,position_z,orientation_x,orientation_y,orientation_z,orientation_w,velocity_x,velocity_y,velocity_z,angular_x,angular_y,angular_z,linear_acceleration_x,linear_acceleration_y,linear_acceleration_z
0.0,0.8999999761581421,297.0,23.75265312194824,-0.07951773703098297,-79.78279015091722,40.459051437813905,265.9984552574158,0.0005163727910257876,-0.00045381256495602434,0.9912081956863404,0.13230998814105988,-0.05341778219130957,-0.024476900846215538,0.010314053535222877,0.0021436281967908144,0.0019683227874338627,0.003334806300699711,-0.03381871932651848,-0.04844966801349074,-9.807044232487677
0.2,0.8000000119209291,295.0,23.75015068054199,-0.08746951073408127,-79.78279008264694,40.459051476792155,266.00234839439395,0.00047008885303512216,-0.0004476684262044728,0.991205632686615,0.13232935965061188,-0.05523651464616789,-0.02369187680193529,0.013244540935036887,-0.004298112820833921,-0.004228590056300163,-0.008171464316546917,-0.02923653507605195,-0.06291080533526837,-9.808937560915947
0.3,0.8000000119209291,294.0,23.74764633178711,-0.12722837924957275,-79.7827900149731,40.45905148432182,266.0036725711824,0.00044374525896273553,-0.00046267322613857687,0.9912023544311525,0.13235405087471008,-0.059569764332180815,-0.02601105760044309,0.013163240940034716,0.0060357796028256425,0.006640679202973843,0.006267447490245104,-0.028001381575595587,-0.06027267410885542,-9.80902702331543
0.5,0.8000000119209291,293.0,23.748897552490234,-0.09542128443717957,-79.78278998584936,40.459051500685945,266.00863680362704,0.00043657928472384816,-0.0004907248076051474,0.9911959767341614,0.13240157067775726,-0.05705580453992162,-0.020561232273537303,0.015527916109695832,0.00017868020222522316,0.0010070184944197538,-0.00137214211281389,-0.032110233718995004,-0.05394314082339406,-9.808016624450683
0.6,0.8000000119209291,293.0,23.75015068054199,-0.07951773703098297,-79.78278998363402,40.459051550861396,266.011516661644,0.00037325991434045136,-0.0004901064676232637,0.9911947250366212,0.13241112232208252,-0.0497497251665711,-0.02267324530585011,0.016461259958896395,0.0035703475587069993,0.0005019011441618204,0.004262680187821388,-0.027406712891533968,-0.06326447051949799,-9.809058013558387
0.8,0.8000000119209291,293.0,23.75015068054199,-0.08746951073408127,-79.78278984520523,40.459051567276454,266.01482340812686,0.00036170045495964587,-0.00048365470138378436,0.9911911487579346,0.1324380487203598,-0.0608658038175982,-0.027160498447387684,0.01653001272807603,0.006254717241972685,0.005853122100234032,0.003325625788420439,-0.03453259583562613,-0.04228707273490727,-9.805677153468134
0.9,0.8000000119209291,294.0,23.75140190124512,-0.08746951073408127,-79.78278985809605,40.459051571137024,266.01826772212985,0.00034398437128402293,-0.0004983781254850328,0.991190493106842,0.13244248926639554,-0.054612607530141764,-0.019989398126044243,0.01785061127873736,-0.004004053771495819,-0.0041663218289613715,-0.00028739200206473464,-0.032094514758791784,-0.05537110397592187,-9.80878436386585
1.1,0.8000000119209291,293.0,23.75140190124512,-0.08746951073408127,-79.78278979809807,40.459051614930026,266.02356371402743,0.00030398982926271856,-0.0005044128047302365,0.9911856651306152,0.13247954845428467,-0.05059461731346093,-0.0222881003398915,0.018594852810462227,0.005322445183992386,0.0015230864519253373,0.00700374273583293,-0.034018276117276404,-0.043654361888766285,-9.806603937149047
1.2,0.8000000119209291,292.0,23.74514198303223,-0.10337305814027786,-79.78278972947801,40.45905162235461,266.0254270744324,0.0003293221816420555,-0.0004828860401175916,0.9911855459213256,0.13248009979724884,-0.057610702073934414,-0.024100330054866462,0.018785621435726832,-0.0034172560553997755,-0.002862099092453718,-0.00781091582030058,-0.03378517549484968,-0.0437946676556021,-9.806443723440172
1.4,0.8000000119209291,293.0,23.75140190124512,-0.07951773703098297,-79.78278974025201,40.45905168360608,266.029182047844,0.00025857266155071557,-0.000493133207783103,0.9911848306655884,0.13248589634895325,-0.04553011046937624,-0.026245929685645653,0.016473771368778898,-0.004680974408984184,-0.004643171094357967,-0.00010283011215506122,-0.029869580680970106,-0.05724628776311875,-9.8078178191185
1.5,0.8000000119209291,295.0,23.74514198303223,-0.07951773703098297,-79.78278967704013,40.45905169609964,266.0308242750168,0.0002608408685773611,-0.000495289743412286,0.9911834597587584,0.13249562680721286,-0.0511287574963008,-0.028604926030337662,0.016498661871614244,0.001083063194528222,-0.0003541438200045377,-0.00464363396167755,-0.03466118204640225,-0.04165782096795738,-9.806154286265373
1.7,0.8000000119209291,293.0,23.75390625,-0.07156596332788467,-79.78278959186528,40.459051716243614,266.03450557708743,0.00023366820823866874,-0.0005190185038372874,0.9911853671073914,0.13248148560523987,-0.055026340187572034,-0.02610612785020917,0.014878862549103757,-0.007721010595560074,-0.0028065941296517853,-0.006690290290862322,-0.026859776673372842,-0.06337147913407534,-9.809615837931632
1.8,0.8000000119209291,295.0,23.75390625,-0.06361418962478638,-79.782789522312,40.45905172622329,266.0359810304642,0.0002183256729040295,-0.0005220832535997033,0.9911843538284302,0.13248880207538605,-0.0592356538795265,-0.02837411710914354,0.014652813491947556,0.001960742752999068,0.004416824784129858,0.0019581890664994717,-0.030431080120615663,-0.052327084620483216,-9.806924364566804
2.0,0.8000000119209291,297.0,23.75390625,-0.07156596332788467,-79.78278950264519,40.45905176699248,266.0399064731598,0.00021852835197933013,-0.0005222064210101962,0.9911823868751526,0.1325039118528366,-0.05389416035405836,-0.027420486372090595,0.013878436455895529,-0.002175539033487439,-0.0019072602735832327,-0.007304257713258266,-0.028758401856757706,-0.06128537074662745,-9.808869733214381
2.1,0.8000000119209291,297.0,23.75390625,-0.05566241592168808,-79.78278953040423,40.45905175858117,266.042451710701,0.0001555480994284153,-0.000559103034902364,0.9911796450614928,0.13252456486225128,-0.043934260579875664,-0.01825115632852272,0.01269180495110125,0.0053640161640942105,0.004829428158700464,0.006928073242306709,-0.026404422470368446,-0.061855620453134176,-9.808854530453683
2.3,0.8000000119209291,297.0,23.748897552490234,-0.08746951073408127,-79.7827894086643,40.459051769490856,266.04500231266024,0.00015099380107130858,-0.0005382447270676494,0.991177260875702,0.1325421780347824,-0.05496181476056393,-0.022059237997833842,0.012740352023707857,-0.0008956602541729807,0.002585044363513589,0.002441611140966416,-0.03377240526722744,-0.050448936112225055,-9.805736210346224
2.4,0.8000000119209291,295.0,23.756410598754893,-0.06361418962478638,-79.78278947398208,40.459051798900546,266.04758510112765,0.00010020077752415092,-0.0005524622392840683,0.9911764860153198,0.13254807889461515,-0.03940503588715417,-0.019707421272911918,0.01216388099083861,0.0038309984374791375,-7.382839726233216e-07,0.0017883448163047433,-0.02927955550840125,-0.062472186503000564,-9.80954859495163
2.6,0.699999988079071,295.0,23.75390625,-0.06361418962478638,-79.78278936134086,40.459051815084656,266.0500435543061,8.227339276345447e-05,-0.0005575936520472169,0.9911758303642272,0.1325531154870987,-0.04952644812372832,-0.02372754060988784,0.012206045976466013,0.00711139291524887,0.006355540826916696,0.008958915248513222,-0.03515393330482766,-0.03966365091037005,-9.806314499974249
2.7,0.699999988079071,297.0,23.75265312194824,-0.06361418962478638,-79.78278941946994,40.4590517963309,266.049729795456,4.223821088089608e-05,-0.000589915900491178,0.9911739826202391,0.13256654143333435,-0.0395873873345834,-0.01347227773264886,0.007885425071226103,-0.00794463325291872,-0.004335384350270033,-0.0029071215540170674,-0.033494532331824305,-0.05223099385388196,-9.806846596598623
2.9,0.699999988079071,296.0,23.75015068054199,-0.05566241592168808,-79.78278936812269,40.45905181062332,266.0520488929749,1.032927684718743e-05,-0.0005802778759971263,0.9911715984344482,0.13258388638496402,-0.03848575512774954,-0.013713461407183386,0.006010505663409843,0.002669627079740167,0.0007605109713040293,0.006511097308248282,-0.032777480967342856,-0.046080271163955334,-9.806358354091644
3.0,0.699999988079071,296.0,23.75265312194824,-0.06361418962478638,-79.7827893165184,40.45905181357593,266.0526581716539,9.323975064035041e-06,-0.0005820879014208912,0.991171419620514,0.13258595764636993,-0.04463147503606598,-0.015504093658908615,0.006226768589780702,-0.005070433020591736,-0.004110115580260754,-0.007721006870269775,-0.035454873049166065,-0.04135113450698555,-9.80616598069668
3.21,0.699999988079071,292.0,23.75265312194824,-0.06361418962478638,-79.78278931599577,40.45905182919268,266.0545369100571,-3.7255151255521917e-05,-0.0005817700293846427,0.9911702275276184,0.1325943022966385,-0.03485984837293847,-0.012553182702640078,0.004238126224065943,-0.00454029580578208,-0.0014359329361468556,0.000776341010350734,-0.02806282530538737,-0.058616240140981976,-9.808614794611932
3.3,0.699999988079071,296.0,23.75265312194824,-0.07951773703098297,-79.7827892734677,40.459051832240185,266.0549623680115,-5.7280270993942395e-05,-0.0005605740589089692,0.9911679625511168,0.1326114535331726,-0.03929141251243239,-0.014503761768042918,0.0042366345530266535,0.001010694308206439,0.002067328430712223,0.0004196322988718748,-0.033514083959162236,-0.042849634266458464,-9.805915135145188
3.51,0.699999988079071,294.0,23.75265312194824,-0.007951773703098297,-79.78278921272627,40.45905184745892,266.0593117189408,-1.6297370166284963e-05,-0.0005583064630627632,0.9911642670631408,0.13263919949531555,-0.040447698654386126,-0.01466042367082431,0.006070926578365154,-0.00718956347554922,-0.005298337433487178,-0.004690971225500107,-0.02693202861584723,-0.06395716457627712,-9.809941527843476
3.6,0.699999988079071,294.0,23.75140190124512,-0.04771064221858978,-79.78278916203624,40.45905185084982,266.05991098403933,-3.568380270735361e-05,-0.000571191543713212,0.9911615252494812,0.1326597034931183,-0.044297251521117915,-0.016860753496420217,0.005900592901291195,0.007216867059469223,0.0010361099848523736,0.0067582931369543076,-0.028820836872328073,-0.0566795144090429,-9.808261622786523
3.8,0.699999988079071,291.0,23.75390625,-0.07951773703098297,-79.7827891439674,40.459051862275466,266.06180450439456,-9.001388389151543e-05,-0.0005756285972893237,0.9911622405052184,0.1326543092727661,-0.04033920092583476,-0.01494377325333435,0.0039094467284694,-0.0045264423824846745,0.0014728716341778634,-0.00548339681699872,-0.030601476207375525,-0.0587367613054812,-9.808466275334359
3.9,0.8000000119209291,293.0,23.755157470703125,-0.05566241592168808,-79.78278916571709,40.45905185431466,266.0636952829361,-9.05873384908773e-05,-0.0006045859190635383,0.991161286830902,0.1326616406440735,-0.03055513015463282,-0.008587513041585566,0.0028559544593751217,0.007728529628366231,0.0032797802705317736,0.006417418364435434,-0.026014525105711075,-0.06416172119323164,-9.810169569253922
4.1,0.8000000119209291,293.0,23.75015068054199,-0.06361418962478638,-79.78278910874155,40.45905186471871,266.0666323614121,-0.00013301215949468315,-0.000617148878518492,0.991158127784729,0.13268494606018064,-0.029099189888364664,-0.00896822467784568,0.0022210911498812234,0.005059570539742708,0.003964151721447706,0.0049716331996023655,-0.03450491749215871,-0.045130820386111735,-9.806323855519297
4.2,0.8000000119209291,296.0,23.75015068054199,-0.07156596332788467,-79.78278906906358,40.45905186552051,266.0668611240387,-8.75300684128888e-05,-0.0006032782257534564,0.9911574721336364,0.13268935680389404,-0.03503179472014981,-0.010538866517471329,0.0022588039292028078,-0.0034620140213519326,-0.001293672132305801,0.00242460030131042,-0.031254125973209736,-0.05890540779568256,-9.80781548023224
4.41,0.8000000119209291,294.0,23.74639320373535,-0.07156596332788467,-79.782789015959,40.45905185927413,266.06970378875735,-0.0001337416033493355,-0.0006297024665400388,0.9911558032035828,0.13270214200019834,-0.03276544555951806,-0.007518575989687504,0.0016338146216443845,0.006912921089679003,0.0024182647466659546,0.008333269506692886,-0.0348893810575828,-0.040775001039728524,-9.805461975932122
4.5,0.8000000119209291,295.0,23.748897552490234,-0.07156596332788467,-79.78278897261104,40.45905185794764,266.069879026413,-0.0001119180669775233,-0.0006162890349514782,0.99115389585495,0.1327163130044937,-0.039057811061583333,-0.008975111271495953,0.0018117410816286719,-0.004086640663444996,-0.0046609248965978605,-0.007749660406261682,-0.03549474603496492,-0.04499545734375717,-9.805415198206903
4.71,0.8000000119209291,294.0,23.75390625,-0.06361418962478638,-79.78278893229816,40.45905185012518,266.07311603546145,-0.00016707829490769655,-0.000647573615424335,0.991153120994568,0.13272200524806976,-0.03539168724764778,-0.0057600675603861045,0.0014275908432942034,-0.002109208842739463,-0.0037983951624482866,0.00021033459051977843,-0.030468538845889268,-0.05462664378806949,-9.807183980941774
4.8,0.8000000119209291,296.0,23.76141929626465,0.0,-79.78278889007879,40.45905184697462,266.0732545566559,-0.00019420521857682618,-0.000627264438662678,0.9911491870880128,0.13275176286697388,-0.04011838608956003,-0.007405032064268391,0.0014078227030070649,-0.004683735314756632,-0.002585494890809059,-0.004843060858547688,-0.03408560817595571,-0.04005552856251598,-9.806149608492852
5.01,0.8000000119209291,295.0,23.74514198303223,-0.06361418962478638,-79.7827888056822,40.459051855332774,266.07873329639443,-0.00018713873578235507,-0.0006064241169951856,0.991146683692932,0.1327703893184662,-0.042381739533434985,-0.009506583882102623,0.003594454117671071,-0.008801332674920559,-0.0031710600014775987,-0.005876181647181511,-0.026947841222863644,-0.06393150078132749,-9.809669632315638
5.1,0.8000000119209291,296.0,23.75015068054199,-0.07156596332788467,-79.7827887853404,40.459051889949926,266.08388921737674,-0.00024335827038157729,-0.0005912414635531602,0.991142988204956,0.13279752433300018,-0.0319888846816769,-0.01452932956254104,0.005704802363637881,0.006929086521267891,0.004697048105299473,0.0022062091156840324,-0.030102569384034723,-0.052817131541669365,-9.807631877660752
5.3,0.8000000119209291,298.0,23.74764633178711,-0.04771064221858978,-79.78278869442708,40.45905190029506,266.0850500774384,-0.00023754604626446957,-0.0005851510795764625,0.9911460280418396,0.13277539610862732,-0.04191073580265011,-0.017887455915393317,0.005843022529071966,-0.0026286703068763018,0.0011127025354653595,-0.005718093831092118,-0.03027855458669365,-0.05977002369705588,-9.808255775570867
5.4,0.8000000119209291,297.0,23.76016616821289,-0.05566241592168808,-79.78278870688607,40.45905188655392,266.09355768680575,-0.0002743556105997413,-0.0006322348490357398,0.9911450147628784,0.13278266787528992,-0.03022483699311768,-0.008511424975171787,0.012076783911933156,0.004898130428045988,0.004950264003127813,0.0077352337539196014,-0.02618024570401758,-0.06332898175343872,-9.809416447877883
5.6,0.8000000119209291,298.0,23.748897552490234,-0.02385532110929489,-79.78278859928795,40.459051914159524,266.1024570178986,-0.0002784215612336993,-0.0006371139315888286,0.9911386966705322,0.13282935321331024,-0.03403351579854265,-0.013703721858482691,0.015072292412922728,0.004427018109709024,0.0069223614409565926,0.004492053762078285,-0.034408632579725235,-0.04624307500664145,-9.806329118013384
5.7,0.8000000119209291,302.0,23.74764633178711,-0.07951773703098297,-79.78278855280269,40.45905191787584,266.10397371768954,-0.00026629350031726057,-0.000631409406196326,0.99113792181015,0.13283555209636688,-0.03947239331049058,-0.015122386038824232,0.015122837594512703,-0.000494256557431072,-0.0007039118208922446,0.0023078417871147394,-0.03075858815107495,-0.05994595636613668,-9.80872823059559
5.9,0.8000000119209291,303.0,23.75015068054199,0.015903547406196594,-79.7827884469108,40.45905193291153,266.114202709198,-0.0002978233096655458,-0.0006181883509270848,0.9911348819732666,0.13285809755325315,-0.040440623074082964,-0.01573869762243385,0.019083454754222483,0.00492374412715435,0.003569571534171701,0.008522966876626016,-0.035112573390360925,-0.04014960021246225,-9.806678781509401
6.0,0.8000000119209291,301.0,23.75265312194824,0.02385532110929489,-79.78278839241234,40.45905193695595,266.11613056182864,-0.00029130169423297053,-0.0006183097721077503,0.9911344647407532,0.132861390709877,-0.04647008911203221,-0.017177852018268457,0.01933299606828914,-0.008222149685025215,-0.0043675038032233715,-0.007039295975118876,-0.03473087126389146,-0.04651839206926525,-9.805976530909538
6.21,0.8000000119209291,302.0,23.74514198303223,0.05566241592168808,-79.78278827185598,40.459051949992315,266.12737915039065,-0.0003319655370432884,-0.0006353555363602936,0.9911330938339232,0.1328708678483963,-0.04736455602294029,-0.01716149713334785,0.022855920300776,0.0004456419846974313,-0.0035312206018716093,0.0018445992609485984,-0.03023392845410854,-0.05318787242285908,-9.807343025207519
6.3,0.8000000119209291,301.0,23.74388885498047,0.015903547406196594,-79.78278821355123,40.45905195392052,266.1296649885178,-0.00035434600431472063,-0.000633355462923646,0.9911336302757264,0.1328674703836441,-0.05182058447112792,-0.01880573845807884,0.022879164800506058,-0.0055061355233192435,-0.0002816840133164078,-0.002259519649669528,-0.03504640849074349,-0.04040430583991112,-9.806032079458237
6.5,0.8000000119209291,300.0,23.737628936767567,0.13518016040325165,-79.78278817991037,40.459051982879465,266.14191469669345,-0.00038072207826189697,-0.000620623875875026,0.9911348819732666,0.1328575760126114,-0.040034833128257764,-0.01857083753259892,0.025992134527499617,-0.0049658906646072865,-0.00348931853659451,-0.0028469236567616463,-0.027858376039657743,-0.06381830234080553,-9.809248048067094
6.6,0.8000000119209291,301.0,23.738882064819336,0.007951773703098297,-79.7827881581178,40.45905200790053,266.14964029312137,-0.0004462720826268196,-0.00063849869184196,0.9911318421363832,0.13288046419620514,-0.029686778394528775,-0.01782958631353449,0.024517558082452536,0.006771531887352468,0.0026581608690321445,0.0029812769498676053,-0.03189643576042727,-0.05140702980570496,-9.80651681363583
6.81,0.8000000119209291,300.0,23.738882064819336,0.02385532110929489,-79.7827880701742,40.45905202506021,266.15459880352023,-0.0004634267825167626,-0.0006457205745391548,0.9911293983459472,0.1328980177640915,-0.039124459525957486,-0.020929877533913132,0.02489913166518355,-0.003144443966448307,-0.005531167611479759,-0.00732417916879058,-0.0298191827069968,-0.0610274902638048,-9.809590694904328
6.92,0.8000000119209291,301.0,23.737628936767567,0.015903547406196594,-79.78278801347237,40.45905202229263,266.1628579807282,-0.0004632052150554955,-0.0006564984214492142,0.9911282658576964,0.13290661573410034,-0.036577841578730536,-0.01615194551787321,0.024023686424779343,0.005551122594624758,0.004470729269087315,0.009236764162778854,-0.02638060191879049,-0.06225869460962712,-9.809020006656647
7.1,0.8000000119209291,300.0,23.74514198303223,0.03180709481239319,-79.78278792848022,40.45905207049566,266.17426917076114,-0.0004991134628653526,-0.000664949999190867,0.9911251664161682,0.1329299956560135,-0.032608066893462746,-0.020008394847870824,0.0237710464147084,0.00580613175407052,0.0018919201102107765,0.00015588787209708244,-0.034464619669597595,-0.0502569098956883,-9.807171117067336
7.2,0.699999988079071,300.0,23.74514198303223,0.015903547406196594,-79.78278788217695,40.4590520801014,266.1766601514817,-0.0004833497223444283,-0.0006704620318487287,0.9911229610443116,0.13294588029384613,-0.03708160069569645,-0.021475081508523248,0.023825960688151463,0.0042881607078015796,-0.0005794000462628901,0.001345353783108294,-0.02844616967719048,-0.06139614350628107,-9.80837271988392
7.41,0.699999988079071,298.0,23.74388885498047,-0.007951773703098297,-79.782787787347,40.459052117904136,266.1905882072449,-0.0005099658155813813,-0.0006700491649098692,0.991118311882019,0.13298067450523374,-0.03514032668054802,-0.02212804200011215,0.0265429019295422,0.0027031817007809877,0.0037916447035968304,0.009853826835751534,-0.03467429945245385,-0.03920263450127095,-9.806575870513916
7.5,0.699999988079071,295.0,23.737628936767567,0.0,-79.7827877371243,40.459052128590386,266.1932624292374,-0.0004912077565677464,-0.0006740397657267749,0.9911160469055176,0.13299736380577087,-0.04074907686653079,-0.02332069773707025,0.02679589553598478,-0.005636386107653379,-0.0059888260439038285,-0.005517114419490099,-0.03436334178317338,-0.05011635744944215,-9.806791632771493
7.7,0.699999988079071,294.0,23.74138641357422,-0.015903547406196594,-79.7827876596492,40.45905210299968,266.2078729581833,-0.0005020709941163659,-0.0007067383266985416,0.9911136031150818,0.13301587104797366,-0.03964380083949877,-0.011906716538503509,0.02888090233623852,0.0009727751021273432,-0.00041057035559788346,0.0038474104367196564,-0.03150978634133935,-0.04871750246733427,-9.807552355527882
7.8,0.699999988079071,294.0,23.74138641357422,0.015903547406196594,-79.78278761069386,40.459052104110924,266.2107656908036,-0.0005213170661590993,-0.0006902893655933442,0.9911118745803832,0.1330285519361496,-0.04419648837040182,-0.013399416643606488,0.02905431554241367,-0.005613453686237335,-0.002207570942118764,-0.007601527962833644,-0.0343823452340439,-0.039383445940911775,-9.806596920490266
8.0,0.699999988079071,291.0,23.74764633178711,0.02385532110929489,-79.78278751172556,40.4590521517172,266.22325423479083,-0.0005022373516112566,-0.0006904017645865679,0.9911103248596193,0.13304023444652555,-0.04330415577278845,-0.0181979072376938,0.027960678180507542,-0.0070290439762175074,-0.00486749317497015,-0.0077443448826670655,-0.026689474233426155,-0.06310313761699947,-9.809517604708672
8.1,0.8000000119209291,289.0,23.748897552490234,0.09542128443717957,-79.78278753313442,40.45905215837259,266.2311199617386,-0.0005663671181537211,-0.0007105881231836975,0.9911065101623536,0.1330680400133133,-0.026334637153496186,-0.0078257593166639,0.02144678819715208,0.004470027517527342,0.0056232744827866546,0.00318122236058116,-0.030454400461167094,-0.051530602485872816,-9.807438334822654
8.3,0.8000000119209291,290.0,23.737628936767567,0.007951773703098297,-79.78278745996845,40.45905215937823,266.23543092727664,-0.0005697517190128566,-0.0007089665741659701,0.9911027550697328,0.13309632241725922,-0.0353531757892919,-0.010439039620618628,0.02165210193170428,-0.0017765356460586192,-0.0029585454612970352,-0.006638250779360533,-0.02912829991662875,-0.06128174821380526,-9.808635259866717
8.4,0.699999988079071,291.0,23.74764633178711,0.007951773703098297,-79.78278739900739,40.45905219018793,266.2456416201592,-0.0005597536219283938,-0.0007140121888369322,0.9911013841629028,0.13310614228248596,-0.03252909261899396,-0.010676093724168452,0.01935524883925376,0.00807754322886467,0.005278743337839842,0.0052877007983624935,-0.02647458905819804,-0.06341586772352457,-9.809457963109015
8.6,0.699999988079071,295.0,23.73512458801269,-0.04771064221858978,-79.78278731924036,40.459052227015356,266.25911566734317,-0.0005973601364530622,-0.0006982565391808747,0.991099774837494,0.1331181675195694,-0.02950397464065115,-0.01041277275790212,0.017692084523775926,0.007514079101383686,0.008477181196212769,0.004342286847531796,-0.03470144560793415,-0.04662502152845264,-9.807421377897263
8.7,0.699999988079071,294.0,23.73011779785156,-0.06361418962478638,-79.78278727931361,40.45905222886332,266.26089611768725,-0.000565876776818186,-0.0006974025163799522,0.9911003112792968,0.13311442732810974,-0.03436633593429863,-0.011663981178462112,0.017753054745455042,-0.0013157266657799482,0.0026470599696040162,0.0008722860366106032,-0.0308895680657588,-0.060900939158163976,-9.808196133971217
8.91,0.699999988079071,294.0,23.73512458801269,-0.11132483184337616,-79.78278718002453,40.45905226791176,266.27433553457263,-0.0006139539764262736,-0.0006768523599021138,0.991092324256897,0.13317421078681946,-0.03341567243341285,-0.012652530610911568,0.016746345283986237,0.007784679066389798,0.0056534246541559705,0.004419884644448757,-0.0354958332516253,-0.04105530650820583,-9.805335676074026
9.02,0.699999988079071,293.0,23.738882064819336,-0.13518016040325165,-79.78278713484211,40.4590522708511,266.27603241920474,-0.0006028441712260246,-0.0006628811825066805,0.9910913705825806,0.1331811100244522,-0.0388649669996259,-0.013766415713161098,0.017009879709345643,-0.008499085903167725,-0.003990970551967621,-0.005842118058353663,-0.03388225754722953,-0.04802099401596933,-9.806902145147324
9.2,0.699999988079071,293.0,23.732622146606445,-0.13518016040325165,-79.78278704017133,40.45905230839458,266.291883559227,-0.0006196005269885062,-0.0006798181566409768,0.9910879135131836,0.1332063227891922,-0.035723185560043495,-0.013482411104817224,0.01899669604697485,-0.002383534563705325,-9.421934009878896e-06,0.0008652175310999155,-0.031070404630154376,-0.05299216428771615,-9.807393895983695
9.3,0.699999988079071,294.0,23.73136901855469,-0.17493902146816254,-79.78278699637258,40.45905231191887,266.2937925767899,-0.000650879112072289,-0.00067708152346313,0.9910851120948792,0.13322743773460388,-0.03958138562934189,-0.01501302958454608,0.01916674392207492,-0.0011084782890975477,-0.00010055175516754389,-0.0049344878643751144,-0.03469820679863915,-0.04073589321691543,-9.806698077321052
9.5,0.8000000119209291,295.0,23.73637771606445,-0.15903547406196594,-79.78278690563214,40.45905237162015,266.310690612793,-0.000648953253403306,-0.0006629506242461503,0.9910832047462464,0.13324160873889926,-0.03603234850062847,-0.017335739708094364,0.020947486598400213,-0.006455348338931799,-0.0034192237071692944,-0.007296603173017502,-0.027461455164011567,-0.0630970208812505,-9.808642276525498
9.6,0.699999988079071,297.0,23.7251091003418,-0.15108370780944824,-79.78278688578084,40.45905241020858,266.32617351531985,-0.000720830459613353,-0.0006681482191197574,0.991081178188324,0.13325642049312592,-0.023699378629620314,-0.013052231617810585,0.022053244935126292,0.0039350795559585094,0.006867344956845045,0.0010137984063476324,-0.030344602998811764,-0.05424458763096482,-9.808152279853822
9.8,0.699999988079071,297.0,23.73011779785156,-0.17493902146816254,-79.7827868152406,40.459052421809616,266.3306283068657,-0.0007294361712411046,-0.0006803905125707388,0.9910789132118224,0.13327276706695554,-0.03208072025906317,-0.015877418354908475,0.022330644770415662,-0.003547309199348092,-0.002804814139381051,-0.0058376584202051145,-0.031020088882651183,-0.059640973820351065,-9.808897215127946
9.9,0.699999988079071,296.0,23.73011779785156,-0.16698725521564484,-79.78278676889201,40.459052475557336,266.34562596797946,-0.0007250331109389662,-0.0006880665896460414,0.9910774230957032,0.13328410685062408,-0.02486966230005351,-0.01618190248462913,0.022723622244179287,0.0048401253297925,0.004039538558572532,0.0061238212510943395,-0.0275787055422552,-0.06378120449837298,-9.807931255102158
10.1,0.699999988079071,295.0,23.74388885498047,-0.15903547406196594,-79.78278663360442,40.45905255133618,266.3648428630829,-0.0007199725368991494,-0.0006865750765427947,0.991074562072754,0.1333054155111313,-0.02874677086199288,-0.021953487033367827,0.026134670045303125,0.00468878634274006,0.005960869137197733,0.005868805572390556,-0.03503476430894807,-0.044725009915418924,-9.805719253420829
10.2,0.699999988079071,295.0,23.73637771606445,-0.14313192665576935,-79.78278659101716,40.459052563414936,266.36748346805575,-0.0007179026142694057,-0.0006727417348884046,0.991073727607727,0.1333118975162506,-0.033571773580655564,-0.0231595981192396,0.026428698978341048,-0.004436201881617308,-0.0035125624854117628,-0.0009019813733175397,-0.03131410104688257,-0.05799069313332439,-9.808815938830376
10.41,0.699999988079071,295.0,23.73512458801269,-0.15903547406196594,-79.78278645133227,40.45905259232758,266.3892206859589,-0.0007414985448122027,-0.0007035912130959332,0.9910721778869628,0.1333225965499878,-0.0365105590907557,-0.0177640462973341,0.032304312141021564,0.0030936605762690306,0.001277969335205853,0.0037929120007902384,-0.03391050462378189,-0.04220993060152978,-9.807026106119157
10.5,0.699999988079071,296.0,23.726360321044922,-0.16698725521564484,-79.7827864013246,40.459052599071285,266.39246609926226,-0.0007347671198658644,-0.0006913265096955001,0.9910684823989868,0.13335034251213074,-0.04157146396860728,-0.019058567970106542,0.03251778419133348,-0.007390444166958331,-0.0020014294423162933,-0.010942586697638037,-0.03485779010457918,-0.043688778234645724,-9.805630960464477
10.71,0.699999988079071,297.0,23.73011779785156,-0.14313192665576935,-79.78278632945934,40.45905264482288,266.4153530311585,-0.0007616523653268813,-0.0007279084529727697,0.9910637736320496,0.1333848237991333,-0.03348931020180567,-0.015404591367383626,0.03693309106657648,-0.0044913459569215775,-0.001662650960497558,0.001973832957446575,-0.02984667147276923,-0.05614335671067238,-9.808311324119568
10.81,0.699999988079071,299.0,23.732622146606445,-0.16698725521564484,-79.78278628671819,40.45905265056953,266.4190540623665,-0.0007764939218759537,-0.0007187496521510184,0.9910607933998108,0.13340722024440765,-0.03706478553379443,-0.01699332551753796,0.03703749657845837,-0.003909003455191851,-0.0004279953718651087,-0.003128987736999989,-0.03468463257886468,-0.04215508097782731,-9.806310991644859
11.0,0.699999988079071,296.0,23.737628936767567,-0.13518016040325165,-79.78278614549573,40.45905271069149,266.4405954194069,-0.0007842460181564093,-0.0007447070092894138,0.9910586476325988,0.13342265784740448,-0.039475231724021766,-0.019354381405072143,0.038900002260012286,-0.007514247670769691,-0.002086304361000657,-0.007502002641558647,-0.02692943848203868,-0.06354799652472139,-9.808952178955078
11.1,0.699999988079071,299.0,23.73387336730957,-0.16698725521564484,-79.78278609330997,40.459052752553404,266.457216770649,-0.000827062816824764,-0.0007532495073974133,0.9910566806793212,0.13343684375286102,-0.029152123997072538,-0.014940863380036444,0.0368695503271,0.001900694100186229,0.005565025843679905,0.005520991981029511,-0.03171850453130901,-0.052203744915314015,-9.806285263895989
11.31,0.699999988079071,298.0,23.728864669799805,-0.17493902146816254,-79.78278601034765,40.4590527647143,266.4646387410164,-0.0008278859895654023,-0.0007500030915252862,0.9910532236099244,0.13346275687217712,-0.03725794656870247,-0.017356802984285942,0.03729678874839703,-0.006418367847800255,-0.0009478292195126414,-0.009681475348770618,-0.030667392143514008,-0.06122623621020466,-9.808438793420793
11.4,0.699999988079071,301.0,23.732622146606445,-0.15903547406196594,-79.78278594774818,40.45905280561593,266.4798875164986,-0.0008492056513205171,-0.0007471910794265567,0.9910533428192142,0.1334618479013443,-0.030066877241708888,-0.014779627820483763,0.03354092279468466,0.007260354701429605,0.004941288847476244,0.008557693101465702,-0.027448129907716067,-0.06227389737032354,-9.809176127314569
11.6,0.699999988079071,299.0,23.73387336730957,-0.15108370780944824,-79.78278584643208,40.4590528892112,266.49934241294864,-0.0008777103503234682,-0.0007450815755873919,0.991049349308014,0.13349130749702454,-0.02605216854705793,-0.01946602547922803,0.030945764839406413,0.0007333828834816812,0.0026027990970760584,-0.00105939619243145,-0.033588953444268564,-0.05238081505056471,-9.807793845534325
11.7,0.8000000119209291,299.0,23.728864669799805,-0.14313192665576935,-79.78278580833032,40.45905289992322,266.5024603915215,-0.0008585011819377543,-0.0007407816592603923,0.991049349308014,0.13349173963069916,-0.029552568417333013,-0.02081497462444183,0.031134926469865605,0.0016885263612493873,0.0024537022691220045,0.003885783953592181,-0.02761562522733584,-0.06328464798163623,-9.809543332457542
11.9,0.8000000119209291,298.0,23.726360321044922,-0.15108370780944824,-79.78278567668458,40.4590529638894,266.5216957640648,-0.0008652581018395723,-0.0007344232290051877,0.9910471439361572,0.13350774347782135,-0.03091117609267352,-0.022071490275576783,0.029839136648405595,0.008046528324484825,0.0013488831464201212,0.0073611605912446984,-0.03316701973322779,-0.04203631854616106,-9.806529092788695
12.0,0.8000000119209291,298.0,23.756410598754893,0.039758868515491486,-79.7827856317608,40.45905297550266,266.5247034740448,-0.0008621218730695546,-0.0007437446620315312,0.9910478591918944,0.13350288569927216,-0.035461874781644975,-0.023097398507119983,0.030070512410289275,-0.0057955672964453715,-0.0012814042856916785,-0.0011520396219566464,-0.03193069907370955,-0.05699190190527589,-9.808433530926703
12.2,0.8000000119209291,299.0,23.73387336730957,-0.16698725521564484,-79.78278550570032,40.45905304856277,266.54443922758105,-0.0008678496815264225,-0.0007349642110057175,0.99104642868042,0.1335129588842392,-0.034180388659004635,-0.02385047651219493,0.028624462585969238,0.006068710703402758,0.003225113730877638,0.01084831077605486,-0.034242987355683,-0.04114930506795645,-9.80580169916153
12.3,0.8000000119209291,301.0,23.732622146606445,-0.17493902146816254,-79.78278545934366,40.45905306099164,266.5473223638535,-0.000886236026417464,-0.0007280680583789947,0.9910464882850648,0.13351231813430786,-0.038750027899853635,-0.02479239373269336,0.028905987899467637,-0.005956682376563549,-0.004844545852392912,-0.0060066217556595785,-0.03391434642719105,-0.04848874842748047,-9.806965295076367
12.5,0.8000000119209291,300.0,23.728864669799805,-0.15903547406196594,-79.78278536386509,40.459053110550414,266.5669232916832,-0.0009057564311660826,-0.0007389028323814273,0.991046667098999,0.13351081311702728,-0.034243187511332214,-0.02107319204360885,0.02789430549426464,-0.0014668244402855635,0.001018887385725975,0.0024137343280017376,-0.032085019885562366,-0.04921762669924647,-9.80668989121914
12.6,0.8000000119209291,301.0,23.73136901855469,-0.16698725521564484,-79.78278527221778,40.459053192893656,266.58683464050296,-0.0009306679130531847,-0.0007140595116652548,0.9910440444946288,0.13353051245212555,-0.032401784991590785,-0.024527265212362915,0.03057831647272675,-0.0066789533011615285,-0.008542393334209919,-0.0074225980788469315,-0.032882995801046484,-0.04046693500131369,-9.806292865276335
12.8,0.8000000119209291,300.0,23.73136901855469,-0.18289080262184146,-79.78278517743071,40.459053221176,266.59298566102984,-0.0009211250580847263,-0.0007184241549111903,0.9910427927970886,0.13354021310806274,-0.03924160254438317,-0.027264533486937845,0.0308657909340324,-0.005807040259242058,-0.004258164204657078,-0.0011096367379650474,-0.02735015250043944,-0.0599428180558607,-9.809426388144493
12.9,0.8000000119209291,301.0,23.73637771606445,-0.14313192665576935,-79.78278509471785,40.45905327139796,266.6123443555832,-0.0009341841796413064,-0.0007206498994491994,0.9910417199134828,0.13354776799678802,-0.035998281071582934,-0.023909043898987285,0.03203589997730188,0.002710846252739429,0.0018891113577410574,-0.00157107412815094,-0.033321073309052734,-0.043944137105718255,-9.806124465465548
13.1,0.8000000119209291,301.0,23.73637771606445,-0.14313192665576935,-79.78278501562752,40.459053363329225,266.633325548172,-0.0009627757244743408,-0.0007277919794432819,0.9910380244255066,0.13357488811016086,-0.02695114700808451,-0.02471025220172478,0.030062780913710355,-0.005389018449932337,-0.002941249404102564,-0.006824193522334099,-0.027466155777219683,-0.06280391549225897,-9.808852776288989
13.21,0.8000000119209291,302.0,23.73512458801269,-0.14313192665576935,-79.78278497582518,40.459053378821174,266.6363334965706,-0.0009430326172150671,-0.0007312513771466911,0.9910345077514648,0.13360127806663513,-0.029207421710175874,-0.026521251017237967,0.02994163848938532,0.006959178484976293,0.0022120450157672167,0.005723447073251009,-0.030062063711229717,-0.05588014064356685,-9.808026564717293
13.4,0.699999988079071,303.0,23.74138641357422,-0.17493902146816254,-79.78278494316814,40.459053425399816,266.6563654255867,-0.0010112166637554765,-0.0007665854645892978,0.9910321235656738,0.13361799716949466,-0.01935840338203717,-0.016923528503278964,0.027380707382874462,-0.006180013995617628,-0.003214026335626841,-0.005452031269669533,-0.032021872240584344,-0.05858641020487995,-9.807787998318672
13.5,0.699999988079071,306.0,23.718849182128906,-0.15108370780944824,-79.78278491404228,40.45905343562553,266.6591189217569,-0.0009866683976724744,-0.0007659645634703338,0.9910305738449096,0.13363006711006165,-0.02199748135376881,-0.01835710642887665,0.02745147501097944,0.008587142452597618,0.0008764353115111588,0.005942431278526783,-0.026501705520786345,-0.06336564562283456,-9.809461471438407
13.7,0.699999988079071,307.0,23.73387336730957,-0.17493902146816254,-79.78278484185131,40.459053465763716,266.67726889371875,-0.0010193942580372095,-0.0007947164704091848,0.9910306930541992,0.13362853229045868,-0.020836042407122748,-0.010013229693088585,0.021934096792125005,0.003908704034984112,0.004610362928360701,0.003276978619396686,-0.03383949293056504,-0.048263708283193416,-9.808180931210519
13.8,0.8000000119209291,309.0,23.72761344909668,-0.20674611628055573,-79.78278481375497,40.459053469278494,266.6794838023186,-0.0010296994587406516,-0.000804128882009536,0.9910301566123962,0.13363240659236908,-0.02450078737884845,-0.011067810981805641,0.02215453587701197,-0.0007707836339250207,0.002966881496831775,0.002751492895185948,-0.02925063919974492,-0.06143927585799248,-9.809226998090743
14.01,0.8000000119209291,305.0,23.726360321044922,-0.16698725521564484,-79.78278468808804,40.459053556040686,266.7006203246117,-0.0010190929751843212,-0.0007853443385101857,0.9910252690315248,0.1336686611175537,-0.02743574428526271,-0.016708225722934327,0.0229407835186354,0.010885912925004959,0.0035505923442542553,0.007465888746082783,-0.034543305833358316,-0.04045886767096818,-9.806296958327296
14.1,0.8999999761581421,306.0,23.7251091003418,-0.17493902146816254,-79.78278465928122,40.45905360569152,266.71739885330203,-0.0010752655798569322,-0.0007961572846397758,0.9910242557525636,0.13367554545402527,-0.017534924478154332,-0.01083721321053269,0.01938408714673249,-0.005268261767923832,-0.004639891907572746,-0.004471075255423784,-0.03387146303895861,-0.04978769368026406,-9.806171827912332
14.3,0.8999999761581421,308.0,23.73011779785156,-0.16698725521564484,-79.78278460749037,40.45905361721836,266.72127130746844,-0.001082352828234434,-0.0007983983377926053,0.991025984287262,0.13366279006004333,-0.023245616742235044,-0.013349320429169326,0.01937302124523764,0.001537565840408206,0.000384654093068093,-0.00136728142388165,-0.03214332758914678,-0.05015842085704208,-9.806491085886956
14.4,0.8999999761581421,312.0,23.728864669799805,-0.198794350028038,-79.78278459282309,40.459053688886094,266.73885399222377,-0.001116017694585025,-0.0007848572568036616,0.9910250902175904,0.13366958498954773,-0.011793732106956174,-0.012421788589205007,0.01757811911940984,-0.004909345880150795,-0.0021736579947173595,-0.004656239878386259,-0.034200709245633336,-0.04026430157013237,-9.806720296740533
14.6,0.8999999761581421,310.0,23.737628936767567,-0.16698725521564484,-79.78278447119402,40.45905374166736,266.7590235185624,-0.0011111896019428966,-0.0008011621539480982,0.9910264611244202,0.13365903496742249,-0.02113288393085574,-0.00963805592481854,0.017026774526340736,-0.00869086664170027,-0.003994687926024199,-0.005477006547152996,-0.026836652762722225,-0.06397879927419127,-9.809225828647614
14.7,0.8999999761581421,308.0,23.73136901855469,-0.16698725521564484,-79.7827844428995,40.45905374553557,266.76073026776317,-0.0011110700434073806,-0.0008014505147002637,0.9910240173339844,0.13367706537246704,-0.02314705451143561,-0.011323419598024765,0.016965840561112104,0.005484872031956911,0.003546120598912239,0.0028410314116626982,-0.02999037821777165,-0.0537554589053616,-9.807173455953599
14.91,1.0,311.0,23.73136901855469,-0.13518016040325165,-79.78278434187222,40.459053819644254,266.7818982613087,-0.0011305299121886492,-0.0008178684511221945,0.991020441055298,0.13370350003242493,-0.024670496146296725,-0.013733426200807548,0.01897169792732617,-0.0014512992929667234,-0.004468476865440607,-0.005516185890883207,-0.03040333782322705,-0.05995216903276743,-9.807981541156767
15.0,1.0,310.0,23.72761344909668,-0.13518016040325165,-79.78278430783362,40.4590538257908,266.7838013482094,-0.001114404178224504,-0.000826600007712841,0.9910203218460084,0.13370442390441895,-0.02709991655223911,-0.014970066747369656,0.018930087378628304,0.004871450364589689,0.00531409401446581,0.0067242691293358785,-0.026651142993941904,-0.06396303463261575,-9.809307689666747
15.2,1.0,311.0,23.68754768371582,0.7713220715522766,-79.78278424091802,40.45905392656615,266.8038503837586,-0.0011490520555526018,-0.0008470746106468141,0.991013526916504,0.13375432789325714,-0.02017246051863224,-0.018959459210969167,0.017972937813470303,0.005764962173998356,0.009090970270335674,0.0020570531487464905,-0.03395870303967968,-0.04318374782335013,-9.806147854328156
15.3,1.0,315.0,23.715091705322266,0.14313192665576935,-79.78278421091586,40.45905393763377,266.80567327260974,-0.0011618229327723384,-0.000833433645311743,0.9910197257995604,0.13370858132839206,-0.024240357434639183,-0.01944901114097316,0.01833202855090445,-0.008244960568845272,-0.005416058469563723,0.002928505651652813,-0.03660682249814272,-0.04769219320267439,-9.808204904794692
15.5,1.0,315.0,23.72135353088379,0.2306014448404312,-79.78278413557389,40.459054006195494,266.82600471496585,-0.0011488106101751328,-0.0008387739071622491,0.991016149520874,0.13373541831970215,-0.02239501777829281,-0.016308255426034878,0.017256975924373526,-0.0011117467656731606,-0.001515923417173326,0.008064430207014084,-0.03387657935265452,-0.05183130468707532,-9.80697289645672
15.6,0.8999999761581421,318.0,23.728864669799805,0.2306014448404312,-79.78278410536583,40.45905401517161,266.827755035162,-0.0011684959754347801,-0.0008298762841150165,0.9910170435905457,0.13372802734375,-0.025913136315267576,-0.017346080985471822,0.017467627375620094,-0.003505383851006627,0.002573247067630291,-0.014527181163430212,-0.02808631238294765,-0.046479421290569006,-9.808664495944976
15.8,0.8999999761581421,318.0,23.73512458801269,0.22264966368675232,-79.78278402004378,40.4590540895189,266.8488103759289,-0.0011828404385596516,-0.000831923505757004,0.9910141229629515,0.13375012576580048,-0.025795267839716432,-0.01587888316226078,0.01744785340840217,-0.002849608426913619,-0.0019984329119324684,-0.006255303043872118,-0.029735715987626463,-0.06444993410725147,-9.809140459299087
15.9,0.8999999761581421,318.0,23.73387336730957,0.2703603208065033,-79.78278397393305,40.45905418293836,266.86930039644244,-0.0012005434837192295,-0.0008141834405250847,0.9910101890563964,0.133778914809227,-0.018792795079335647,-0.018874222270481817,0.01961413794864513,0.0020107629243284464,0.002579865045845509,0.0036093043163418774,-0.03498238147934899,-0.05077403673436493,-9.805154997110368
16.1,0.8000000119209291,322.0,23.71759605407715,0.3101191818714142,-79.78278391490555,40.45905429577195,266.89079794406894,-0.0012319078668951988,-0.0008175545372068883,0.99100923538208,0.13378556072711945,-0.01355795056410245,-0.02075909180612033,0.018411426026486752,-0.006224110256880522,-0.001953587867319584,-0.00015668974083382636,-0.03607190733309836,-0.042891647424548866,-9.80468605041504
16.3,0.8000000119209291,324.0,22.61078453063965,28.30036354064941,-79.7827838662341,40.459054326158686,266.89452794313445,-0.001246460247784853,-0.0008214052650146186,0.9909971356391908,0.13387516140937805,-0.018594906993121416,-0.021634908709701976,0.01965270791313418,-0.009365238249301909,-0.01285001914948225,0.008035574108362198,-0.02528900669887662,-0.06737031226046382,-9.80812538266182
16.4,0.8000000119209291,327.0,23.59113883972168,2.0674612522125244,-79.78278380738509,40.45905441646195,266.91871467351916,-0.0014744650106877089,-0.0009223883971571922,0.9909865856170654,0.13395026326179504,-0.017701802123850453,-0.020050163905607044,0.024792886287875727,0.001613666070625186,-0.017269330099225044,-0.025735190138220787,-0.06438263630960138,-0.04723013069014997,-9.793459981083867
16.6,0.8000000119209291,324.0,23.73011779785156,0.1908425688743592,-79.78278377440128,40.45905449553682,266.94218048572543,-0.0014804564416408539,-0.000998304458335042,0.9909894466400146,0.13392849266529086,-0.01133584146419774,-0.014895497076514806,0.024897266291120226,-0.011669025756418705,0.03144826740026474,-0.0039195846766233436,-0.05446388562675567,-0.10036361943930387,-9.797247222661973
16.7,0.8000000119209291,325.0,22.60953140258789,18.60715103149414,-79.7827837577762,40.45905450517692,266.94464564442643,-0.001479428494349122,-0.0009182342328131199,0.9909886121749878,0.13393482565879822,-0.012588102734295758,-0.013476258512030223,0.02502716685194524,-0.0016732178628444672,0.0014454660704359412,0.017776470631361008,-0.0025591207249090076,-0.0781672325078398,-9.813254560232163
16.91,0.8000000119209291,325.0,23.716344833374023,0.3657816052436829,-79.78278367871047,40.4590545759877,266.9668214631081,-0.0014934699283912778,-0.0009383929427713156,0.9909940958023072,0.1338943988084793,-0.013807650356555779,-0.012848519060697424,0.02110038422995326,-0.007869496010243894,0.0330134741961956,0.010144817642867563,-0.0151673987461254,-0.05571688912343234,-9.79782317340374
17.01,0.8000000119209291,327.0,23.7251091003418,0.17493902146816254,-79.78278365635047,40.45905458105721,266.9689996552468,-0.0014668968506157398,-0.0008690572576597332,0.9909859895706176,0.13395491242408752,-0.018986666474903626,-0.014245488171592128,0.02272312711126125,-0.0013780544977635145,0.036288391798734665,-0.02222382463514805,-0.03958598344121129,-0.07787354696542025,-9.801116909980774
17.2,0.699999988079071,328.0,23.67753028869629,1.7096314430236816,-79.78278355664082,40.45905467439858,266.99289518713954,-0.0013832651311531665,-0.0008649015217088162,0.9909918308258056,0.13391265273094174,-0.019949474208832533,-0.012969196345428069,0.01989010795128,0.002627586247399449,-0.005244209431111814,-0.00229852763004601,-0.02574900212930516,-0.0349563910625875,-9.812799646854401
17.31,0.699999988079071,329.0,23.526033401489247,3.6180572509765625,-79.78278353058445,40.45905468066804,266.99498842775824,-0.0013854373246431349,-0.000850754848215729,0.990994155406952,0.13389524817466736,-0.02193062316167783,-0.012407322905520737,0.02088803411042229,-0.0009177137399092317,-0.004741706885397434,0.0027222679927945137,-0.042903949418105186,-0.05570508962497117,-9.810028066635134
17.5,0.699999988079071,330.0,23.459674835205078,5.765036106109619,-79.78278346761185,40.45905479209261,267.0219532114268,-0.0015053222887218,-0.0009005132596939803,0.9909799695014954,0.1339987963438034,-0.014720681840913172,-0.014434030505387132,0.023055098072016302,0.023771289736032486,-0.0028469879180192947,-0.008878298103809357,0.004446547119878233,-0.0273309366311878,-9.811985714435576
17.6,0.699999988079071,330.0,23.390811920166016,6.96575403213501,-79.78278338005019,40.459054894051256,267.0433176469803,-0.0015567549271509053,-0.0008861832902766764,0.9909801483154296,0.1339968889951706,-0.017387863861720143,-0.015577094779909612,0.017081191995498388,-0.018681012094020844,-0.03171255812048912,0.01604459434747696,-0.054109073840081685,-0.014897430972196162,-9.801987560391426
17.8,0.699999988079071,326.0,23.27311897277832,9.247913360595703,-79.78278332616732,40.459054912369844,267.0469318491221,-0.0017707032384350894,-0.0009707086719572543,0.990960419178009,0.1341395378112793,-0.024523491516294432,-0.01722219619262827,0.017998692874391486,-0.0023601746652275324,-0.05433956161141396,0.023278607055544853,-0.08568760151043535,-0.04723077479749918,-9.763188945651057
17.9,0.699999988079071,326.0,23.19423866271973,10.73489475250244,-79.78278327557534,40.45905501828018,267.07167104005816,-0.0019744723103940487,-0.0009424301679246127,0.9909588098526,0.1341489553451538,-0.01544802599334689,-0.020982321551406245,0.017030077199796895,0.024834340438246727,-0.037554323673248284,0.04336110875010489,-0.05170583166182041,0.12016293117776515,-9.783903876543043
18.1,0.699999988079071,325.0,23.04023742675781,13.50211238861084,-79.78278322231299,40.45905504608372,267.07602352023133,-0.0027274445164948693,-0.00034017872530967,0.9909361600875854,0.13430549204349518,-0.013663192665766882,-0.02351517141378169,0.023400274115815176,0.02506657876074314,0.024618098512291908,0.0038325856439769272,0.004236216377466917,-0.0921109506301582,-9.882104355096818
18.2,0.699999988079071,332.0,22.943828582763672,15.323068618774414,-79.78278314177507,40.45905516558022,267.101061591208,-0.003656542394310236,0.0006888753268867731,0.990920066833496,0.13440126180648804,-0.01416063393133951,-0.026509070909323543,0.03709595507081146,-0.026404481381177902,0.09490366280078888,0.10405383259058,-0.051078882236033685,-0.14067015800625088,-9.931584663391114
18.4,0.699999988079071,333.0,22.769794464111328,18.376548767089844,-79.78278300278869,40.45905530351901,267.13297262161973,-0.004331443924456835,0.003982812631875277,0.9909312129020692,0.13424110412597656,-0.03307102242814418,-0.025680252651672383,0.03576632152422367,-0.053931575268507004,-0.013847662135958672,0.06511005759239198,0.06286108572967351,-0.0778089991863817,-9.919539399147034
18.5,0.8000000119209291,332.0,22.69467163085937,19.728351593017575,-79.78278295835395,40.459055312692925,267.1365438562632,-0.002593214390799403,0.003066343953832984,0.9908781051635742,0.13470126688480374,-0.03675665236894311,-0.02221520817475589,0.038897094953647335,-0.061985820531845086,0.06794054061174393,0.014512072317302229,0.19907572936266665,-0.29145998250693084,-9.838686439990996
18.7,0.8000000119209291,332.0,22.47055435180664,23.736045837402344,-79.78278291366486,40.4590554277804,267.17348905399444,0.008099248632788658,-0.0031004787888377905,0.9907580018043518,0.13536426424980166,-0.058818646763434464,0.02649238699245995,0.1965793755857224,-0.22291812300682068,-0.03945668414235115,-0.01959991082549095,0.11054322903044522,-0.2371234154328704,-10.260491713285447
18.8,0.8999999761581421,331.0,22.754770278930664,17.549564361572266,-79.78278286095133,40.45905537747069,267.19982729785147,0.011098479852080343,-0.00912955030798912,0.9907171130180359,0.13517822325229645,-0.06241455031792701,0.05168777518728207,0.3219360746399744,0.025590447708964348,-0.05196559801697731,-0.025473369285464287,0.04077069785445929,0.005818596272729338,-10.881970045566561
19.0,0.8999999761581421,327.0,22.70218276977539,18.31293487548828,-79.78278280472206,40.45905538282442,267.2782315400243,0.004628542810678482,-0.0037601434160023928,0.9909003973007202,0.13446547091007233,-0.09750607318455294,0.0942618579434898,0.33265312063396585,0.019726680591702458,0.030734680593013763,-0.08295191824436188,0.0389499023091048,-0.12337301602587104,-10.372324390411377
19.1,1.0,327.0,22.74600601196289,17.581371307373047,-79.78278268684274,40.459055271338656,267.31363441169265,0.0035589367616921663,0.0014761178754270075,0.990912675857544,0.1344519406557083,-0.10489157837436576,0.1182765742098737,0.2611746520242211,-6.316068174783139e-05,0.02982320822775364,0.0132800480350852,0.184548175893724,-0.07222210797015577,-9.518270131945613
19.3,1.0,330.0,22.632068634033203,19.31485939025879,-79.78278252612036,40.45905502559097,267.35723148405555,-0.0031180952209979296,0.013763382099568844,0.9908804297447203,0.13400326669216156,-0.09762490537680604,0.12532568003300315,0.17400549350991662,0.09756603837013243,0.04681868851184845,-0.014728100039064884,0.2293504558503628,0.06151592006441206,-9.460048236250877
19.4,1.100000023841858,335.0,22.59951591491699,20.197505950927734,-79.78278252002984,40.459054721575434,267.3893256348372,-0.005959858652204275,0.016915271058678627,0.9908318519592284,0.13390582799911502,-0.07877871498007298,0.16281174920192154,0.13360185919087694,0.028466431424021717,0.007047090679407121,-0.0043832757510244855,0.29961279183626177,-0.04213333207648248,-9.572818222045901
19.6,1.100000023841858,339.0,22.55819702148437,20.714370727539066,-79.78278244965122,40.459054424010795,267.41552949070933,-0.0018478743731975555,0.013148199766874313,0.9908984899520874,0.13395492732524872,-0.06692868126426914,0.14537623269536518,0.1265917671142881,-0.04193025082349777,0.013900150544941424,-0.02396417409181595,0.2175094238854945,-0.007804287867620587,-9.686627258062364
19.7,1.2000000476837158,344.0,22.52439308166504,21.06424903869629,-79.78278220209168,40.45905443480414,267.46371792376044,-0.00016733726079110056,0.012490131892263893,0.9909223914146424,0.1338540017604828,-0.0633621913597067,0.12304649599987312,0.1457804871081105,0.040121935307979584,0.042033445090055466,0.012194796465337276,0.17317219857126476,0.03459701570682228,-9.864631705284117
19.9,1.2000000476837158,345.0,22.54692840576172,20.603046417236328,-79.78278221849541,40.459054221156826,267.53049248576167,-0.0019564179237931967,0.008421462960541248,0.9909693598747252,0.1338099092245102,-0.05244648327027504,0.14140735679000369,0.18009157458345373,-0.04132084548473358,-0.01994371972978115,0.016873978078365326,0.2713142780587077,0.01664001544006169,-9.995994082689288
20.0,1.2999999523162842,345.0,22.471805572509766,22.28087043762207,-79.78278220224769,40.45905408917992,267.5488156986237,0.0009073225082829596,0.007949640974402428,0.9909172654151917,0.1342349350452423,-0.04729717059971959,0.13813662433475524,0.18367133565283145,-0.0200435034930706,0.05326339229941368,-0.0075162872672080985,0.12321298504248265,0.049178011813201014,-9.859495511054993
20.2,1.2999999523162842,348.0,22.486831665039066,20.603046417236328,-79.78278231782559,40.45905377196579,267.6162727785111,0.0003627765108831227,0.012579036876559258,0.9907134771347046,0.1353830248117447,-0.029062690040063174,0.1792998246011309,0.25388256220552696,0.05495636165142058,0.0664905309677124,0.016142670065164566,0.17567709093913436,0.16748563516885046,-10.111635636091233
20.3,1.2999999523162842,351.0,22.575725555419922,19.116064071655273,-79.78278233955878,40.45905361328384,267.64241618037227,-0.0010125336702913046,0.014099924825131891,0.9906302094459534,0.13583803176879886,-0.023192544699059608,0.18270702264231808,0.2578253515492864,0.07838024944067001,0.024946155026555058,0.02044096775352955,0.2354744092561305,-0.04690447275526822,-9.875240893363953
20.51,1.2999999523162842,352.0,22.469301223754886,21.119911193847656,-79.78278255789199,40.459053333970935,267.71607795476916,-0.002042359672486782,0.01825500838458538,0.9905170202255248,0.13615672290325165,0.005159002405089169,0.17576589139318494,0.24276464589049584,-0.0135088125243783,0.1080193892121315,0.005938692018389703,0.213928461112082,0.0007413858314976098,-9.719369326829913
20.6,1.2999999523162842,356.0,22.491838455200195,20.26907157897949,-79.78278274131097,40.459053163525454,267.759261341095,-0.002120054792612791,0.022807497531175613,0.9904466867446899,0.13598127663135529,0.03482311896608961,0.19601342470698185,0.2654251778683226,-0.044325951486825936,0.05641778185963633,0.03280823677778244,0.28554313017055394,0.0012351101031526925,-9.909675146341323
20.7,1.2999999523162842,356.0,22.50060272216797,16.348846435546875,-79.78278284877662,40.45905301874312,267.7867303800583,-0.0010018650209531188,0.02470918372273445,0.990436851978302,0.13573282957077026,0.04037518826235908,0.18159171399040186,0.26314789963848423,-0.09151946753263474,-0.003006793325766921,-0.0001292506931349635,0.3152937816828489,-0.05983130068983882,-9.778828493356707
20.9,1.2999999523162842,358.0,22.3641300201416,24.26086235046387,-79.78278280446206,40.45905280286768,267.85188922405246,0.004695579875260592,0.017767755314707756,0.9906602501869202,0.13510940968990326,0.018560291139483653,0.15406840277009134,0.05361224032901225,-0.0985834002494812,-0.22200369834899905,-0.05747470632195473,0.3747646060958505,0.09683550087735056,-9.012708172202109
21.1,1.2999999523162842,358.0,22.18759155273437,26.272661209106445,-79.78278287354837,40.459052688031285,267.85887399435046,0.006895872764289379,0.01048562116920948,0.9907986521720886,0.13476137816905975,0.0222785614122088,0.13764953215780246,0.09108022186910003,-0.011200616136193277,-0.1304108202457428,-0.03043236769735813,0.21784927502274515,0.04627406981773675,-9.952967931032182
21.2,1.2999999523162842,356.0,22.10996437072754,27.78349876403809,-79.78278304120455,40.45905269316171,267.89886167764666,0.007688789162784816,0.008165282197296621,0.9908825159072876,0.13426147401332855,0.030332750585219944,0.09311537122866502,0.2376710738897577,0.0203237384557724,-0.05341903865337372,0.06574371457099915,0.22432205138728026,-0.060723882727324964,-10.704441561698914
21.41,1.2999999523162842,354.0,22.083669662475586,28.96831321716309,-79.78278311579109,40.45905252175419,268.054652364254,0.0060570421628654,0.012272894382476808,0.9910773038864136,0.13258418440818787,0.001278807695024732,0.10518623696050668,0.7135260164420342,-0.03174269199371338,-0.025686414912343025,-0.15590772032737732,0.2722552412375808,0.08578775335103274,-11.467909001111984
21.5,1.2999999523162842,347.0,22.00604248046875,29.19891357421875,-79.7827831416788,40.459052447790704,268.13555571556094,0.004809045232832432,0.012047054246068,0.9912004470825196,0.1317330300807953,0.009802809642613977,0.10234154450273128,0.903907562245038,0.1765812486410141,0.10432226210832596,-0.04697172716259957,0.2339701582118869,0.14596539650112392,-11.648455817699435
21.7,1.2999999523162842,344.0,21.850788116455078,30.900592803955078,-79.78278312578595,40.45905245843911,268.2572010469437,0.003708447329699993,0.012136203236877918,0.991361141204834,0.1305454969406128,0.002812643181710104,0.10485509835791976,1.1011896465285844,0.05466997995972634,0.05815194547176361,0.009607408195734024,0.2419059627503157,-0.0463193766027689,-11.885790792703625
21.8,1.399999976158142,338.0,21.82073974609375,32.506851196289055,-79.78278313787986,40.459052325580174,268.5264985275269,0.003114601131528616,0.010306663811206821,0.991724967956543,0.12792834639549255,-0.016796967044207082,0.1069204619597844,1.585181401337971,-0.0658482015132904,-0.07230345159769057,-0.07830554991960527,0.24575651871040466,-0.002024196423590184,-12.195013775825501
22.0,1.5,333.0,21.778169631958008,32.618175506591804,-79.78278312686605,40.4590523340858,268.91036912918094,-0.0013355670962482686,0.010768916457891464,0.9917170405387878,0.12798312306404114,-0.02266927449015237,0.09361839517214399,2.0579454300236284,0.04339474067091942,0.02963200770318508,0.08819622546434402,0.23386245980858805,-0.06748138194903731,-12.176724854707718
22.1,1.600000023841858,322.0,21.9497013092041,29.03192710876465,-79.78278309497357,40.45905242542583,269.15230319023135,-0.0012578720925375821,0.013497915118932724,0.9914873242378236,0.12949559092521667,-0.039667519177016636,0.09414044030607938,2.268029753829914,-0.08724623918533325,0.032270051538944244,0.0176206436008215,0.19511217596009373,-0.08341872652061284,-11.9540161049366
22.2,1.7999999523162842,317.0,21.699291229248047,33.755279541015625,-79.78278307908845,40.45905238374978,269.38888213157657,0.00041764380875974904,0.014846390113234518,0.9911978840827942,0.13155308365821838,-0.03612735784207337,0.10090950808916456,2.466310909994005,0.04362804442644119,0.05380082130432129,-0.0017443246906623244,0.2643320995755494,-0.01689748479053378,-11.875836492776873
22.41,2.0,303.0,21.962221145629886,28.66614532470703,-79.7827829640657,40.459052615828384,270.0017919254303,0.0039256862364709395,0.012948826886713505,0.990670382976532,0.1356065422296524,-0.02752748945307352,0.0861770906953748,2.9149293608982934,0.07517815381288527,0.013730418868362905,0.07188309729099274,0.21031638018786908,-0.009657199701759964,-11.696200672388075
22.51,2.0999999046325684,294.0,22.216388702392575,24.435800552368164,-79.78278291380892,40.45905261088756,270.29998752593997,0.00127852289006114,0.011366629041731358,0.9903531670570374,0.13809409737586975,-0.025571323995040272,0.06959310263457945,3.0323594537433523,0.19458939135074613,0.037354066967964165,0.06808736175298691,0.21244697766378529,-0.02842417409643531,-11.081210410594943
22.7,2.299999952316284,283.0,22.098695755004886,25.827362060546875,-79.7827826889994,40.45905316162797,270.77831837654116,-0.0005860098171979189,0.011424534022808077,0.9900277256965636,0.14040809869766235,-0.05486261240418959,0.016016908241457142,3.199354484544536,0.046349264681339264,0.09779495000839232,0.12326402962207796,0.10968779051676393,-0.2344073472172022,-10.617612748146056
22.91,2.4000000953674316,277.0,22.12248420715332,25.262784957885746,-79.78278248246706,40.459053243286576,271.4279215049744,0.003799725323915481,0.016630565747618675,0.989556849002838,0.14313049614429474,-0.07964354897472482,0.014998035639980766,3.278571664073277,0.08229779452085495,0.06792011857032776,0.0825088769197464,0.21809898767620325,-0.19889753546565767,-10.132353490591047
23.0,2.5999999046325684,273.0,22.141263961791992,26.455551147460927,-79.78278232378682,40.459053789945116,271.925144405365,0.004408182576298714,0.017723724246025085,0.9895003437995912,0.1433720588684082,-0.07188178303582468,-0.004837100833713172,3.3718714092053856,0.04979492351412773,0.04741969704627992,0.11932355910539627,0.21168064523488286,-0.22382319252938032,-9.964974603652957
23.2,2.700000047683716,269.0,22.191347122192386,23.592912673950195,-79.78278207481831,40.45905422302531,272.6401927185059,0.002966726664453745,0.021403059363365173,0.989573895931244,0.14239628612995148,-0.09637096378074704,-0.041793982172466895,3.3946970964767123,0.061464183032512665,0.0735362246632576,0.040668405592441566,0.16608301604166628,-0.16340161085128785,-9.823387784957887
23.3,2.5999999046325684,263.0,22.098695755004886,25.68422889709473,-79.78278168665754,40.45905450784064,273.3157274436951,0.0027000571135431532,0.022646497935056686,0.9899104237556458,0.13984709978103638,-0.11716215310012648,-0.06714434512757722,3.3641442026049653,0.03964432328939438,0.040812570601701736,0.018406547605991364,0.1684355153515935,-0.16576651722192765,-9.617440078854562
23.4,2.4000000953674316,263.0,22.09619140625,26.805429458618164,-79.782781742579,40.45905483471015,273.6652157020569,0.003312835702672601,0.02131255529820919,0.9901236295700072,0.13852842152118686,-0.1171062410944882,-0.08996329790645652,3.351336685586899,-0.07895877212285995,-0.09971609711647034,-0.07311014831066133,0.2289557139761746,-0.0023466429580003023,-9.72040019094944
23.6,2.200000047683716,258.0,22.078662872314453,25.76374816894531,-79.78278153335313,40.45905502956253,273.99976417541507,0.003917788621038199,0.02060920931398869,0.990207850933075,0.13801588118076324,-0.1014875180422216,-0.12398898901790895,3.355839250239085,0.12717321515083313,0.035138189792633064,0.09195680916309357,0.19413934545591474,-0.17504665145650508,-9.814324600696565
23.8,2.0999999046325684,257.0,22.01981544494629,25.914831161499023,-79.78278115962,40.45905580350392,274.97464200973513,0.004867239855229855,0.01716362126171589,0.9903398156166076,0.1375098079442978,-0.09290041265099536,-0.19548388590949264,3.3400931117863166,0.09340193122625352,0.07174921780824661,0.09149476885795592,0.17772774601355196,0.18719429679214955,-9.78045518875122
23.9,1.8999999761581416,264.0,22.061134338378906,25.159412384033203,-79.78278136556416,40.459056138628405,275.290050239563,0.001843294478021562,0.016502782702445984,0.9903638958930968,0.1374904364347458,-0.08094816176334221,-0.20404917639461345,3.3169125171734244,0.01650989055633545,-0.08803543448448181,0.06376010924577713,0.3043905152007937,-0.08668941227719189,-9.845682048797608
24.0,1.7999999523162842,270.0,21.99602699279785,27.43362045288086,-79.78278115141217,40.459056395829116,275.6210457992554,-0.0018664202652871609,0.01523718610405922,0.9903049468994141,0.13805991411209104,-0.0960356575551068,-0.21668755687211225,3.3256898494996685,0.14373661577701569,-0.005057944916188717,0.046525049954652786,0.22639602223411204,-0.05453050277195872,-9.872220221757887
24.2,1.600000023841858,282.0,22.052370071411133,25.723989486694336,-79.78278093590534,40.459056658774884,275.95366165161136,-0.003666694276034832,0.013251032680273056,0.990283727645874,0.13838084042072296,-0.12053395762161373,-0.2362306503700341,3.341525129862017,0.014486960135400297,-0.0521867498755455,0.024479171261191368,0.2554071654193104,-0.07585790666285902,-9.963378313779833
24.4,1.5,288.0,22.06989860534668,25.64447021484375,-79.78278092515644,40.45905716563472,276.5814072799683,-0.0026718436274677515,0.012669083662331104,0.990362584590912,0.13789275288581848,-0.10816072204290923,-0.2526185576156648,3.3126521618617817,-0.1382523477077484,-0.04498833045363426,-0.0050801136530935756,0.1984446503408253,0.0019464832730591297,-9.83805143237114
24.5,1.5,299.0,22.171314239501953,23.083999633789066,-79.78278116886435,40.45905762420471,277.21862384796145,-0.000680193305015564,0.012979712337255478,0.9904541969299316,0.1372285932302475,-0.0445825442157541,-0.21855657317115507,3.2872395736775104,0.02394869178533554,-0.056261632591485984,0.0591871403157711,0.3117679837346077,-0.09241436630487444,-9.728749430179596
24.71,1.5,306.0,22.06989860534668,25.27868843078613,-79.7827810217692,40.45905821115633,277.79836532592776,-0.0025563046801835303,0.009571786038577557,0.9903039336204528,0.13856405019760132,-0.042400939634320685,-0.22273930563414948,3.18286413581865,-0.0087467972189188,-0.086423359811306,-0.021429184824228287,0.27452394263818863,-0.15649529999122025,-9.542057189941406
24.9,1.7999999523162842,313.0,22.034839630126953,25.898927688598643,-79.78278091032824,40.4590584764542,278.1164853286744,-0.001888038939796388,0.007922695018351078,0.9902985095977784,0.13871759176254272,-0.04379500002831719,-0.2330247171347765,3.17527847943222,-0.011415164917707443,-0.02714038826525212,0.04175954312086105,0.2715114023163915,-0.13941091443412007,-9.707615253925324
25.0,1.8999999761581416,318.0,22.021068572998047,26.36808204650879,-79.7827805480657,40.4590590258127,278.39496776580813,-0.0008760497439652681,0.007017567753791809,0.9903536438941956,0.13838227093219754,-0.057305303026959076,-0.2512456890125025,3.1277245905512974,0.021428178995847702,-0.003528374712914228,0.015994369983673096,0.26188926078379154,-0.032930970378220084,-9.703853740096092
25.1,2.299999952316284,321.0,22.079914093017575,25.75579643249512,-79.78278092967778,40.45905935274072,279.014116973877,-0.002409621374681592,0.008288534358143806,0.99042946100235,0.13775013387203214,-0.019782852482915992,-0.20294762499056745,3.1026400999040877,0.083860382437706,0.07232681661844254,-0.08449767529964447,0.2407665962353349,0.13352899921126665,-9.774782804846764
25.3,2.299999952316284,319.0,22.08617401123047,23.545202255249023,-79.78278084600008,40.459059561830884,279.3235127639771,-0.004609326366335154,0.009578806348145008,0.9904398322105408,0.1375359445810318,-0.026826203894868426,-0.1906359692678543,3.0882971061564684,-0.02874167263507843,-0.02483576536178589,0.045119568705558784,0.2860618330165744,-0.10462718982249496,-9.702773759365082
25.4,2.5999999046325684,323.0,22.04110145568848,25.23097801208496,-79.7827807553394,40.45905987145564,279.8761841964722,-0.0023646850604563947,0.008938823826611042,0.99053692817688,0.13693469762802124,-0.05762287039740203,-0.15244408638502202,2.9987277180279297,-0.1629524827003479,-0.09761431068181993,0.007956079207360744,0.2122028564102948,-0.09711450442671776,-9.645978584289553
25.6,2.700000047683716,323.0,22.02607536315918,26.02615547180176,-79.78278067224215,40.45906004555439,280.17534706115725,0.001858070259913802,0.00911381933838129,0.9906025528907776,0.13645586371421814,-0.03425149398500762,-0.1508201883767795,2.990412132643016,-0.05803954973816872,0.05411776155233383,0.05493052303791046,0.2394281868450344,-0.13742014763876798,-9.698207668662073
25.7,2.9000000953674316,323.0,22.03984832763672,25.42182159423828,-79.78278125982158,40.45906020553182,280.8308083724976,0.0031119370833039284,0.011207709088921549,0.9906218647956848,0.13613618910312653,0.02902504316323757,-0.07901500111518643,2.9968633628172405,0.14594373106956482,0.04705336689949036,0.0591219998896122,0.311935469917953,-0.1098686430696398,-9.818740417957308
25.91,3.0,322.0,22.07240104675293,24.82543754577637,-79.78278121724486,40.459060330764224,281.13061019897464,0.00016430200776085258,0.009977552108466623,0.990631103515625,0.13620032370090485,0.015800621247424085,-0.0716174638017579,3.0031505046289437,0.06162942573428154,-0.056163202971220016,0.029759136959910393,0.3271891379356384,-0.1501909143012017,-9.897066210508347
26.0,2.9000000953674316,320.0,22.05612564086914,24.849292755126953,-79.7827815546724,40.45906049139223,281.7847840499878,-0.00677302572876215,0.007995596155524254,0.9904307723045348,0.13761235773563385,0.000879032790632036,-0.05276142030946238,2.9880657929650645,0.04011677950620651,-0.03909426927566528,0.05733798071742058,0.28668856317177416,-0.16916289070621135,-9.771728804111481
26.2,2.9000000953674316,327.0,22.021068572998047,25.859169006347656,-79.78278182931989,40.45906069916139,282.44438049316415,-0.006210383959114552,0.0050600371323525906,0.9902234077453612,0.13926059007644653,0.007639131831915965,-0.02393640563645151,3.010930521150404,-0.05554670467972755,-0.028440739959478382,-0.036302369087934494,0.25051869213581085,-0.1427193786855787,-9.848403342962266
26.31,2.9000000953674316,329.0,22.07615852355957,23.839418411254893,-79.78278187481502,40.45906076376471,282.74590847015384,-0.0034680042881518602,0.005996926687657833,0.9901745915412904,0.13966545462608335,0.01987852338501509,-0.01870808878941704,3.018507134969316,-0.09634973108768463,0.04481669142842293,-0.03912266716361047,0.258094892911613,0.04872258680406958,-9.846197773218156
26.4,2.799999952316284,331.0,22.061134338378906,25.33435249328613,-79.78278229284865,40.459060697846304,283.0830447387696,-0.0006200139177963138,0.007698786910623313,0.9901481866836548,0.13981090486049652,0.06306808581133433,0.03561736980413236,3.007592459341668,-0.04106941819190979,0.0729665458202362,-0.024743348360061646,0.24755433652549985,0.07130006144754589,-9.790374405384066
26.6,2.700000047683716,335.0,22.017311096191406,25.708086013793945,-79.78278297377737,40.45906062493809,283.7221781921387,0.0033472154755145307,0.00770328752696514,0.9899911284446716,0.14087940752506256,0.1216751908631568,0.108936232755901,3.0088920287030083,-0.10017438977956772,-0.048435963690280914,0.0457208976149559,0.2596763089299202,-0.029975394727662207,-9.844510266780851
26.71,2.5999999046325684,339.0,22.1062068939209,24.04616355895996,-79.7827831322707,40.45906060350493,284.0234648895264,0.004642277490347624,0.007757873740047214,0.9900051951408386,0.14074116945266724,0.13841853420271513,0.11184522495872898,3.0077468491663564,0.015654174610972404,0.041292235255241394,-0.0031194624025374647,0.23244405319914224,-0.01682732733897865,-9.798904323577881
26.91,2.5,345.0,22.03609275817871,24.18929672241211,-79.7827841182974,40.459060459393314,284.67412635803225,0.005950063467025757,0.010822292417287828,0.9902139902114868,0.13901016116142273,0.19236636160350373,0.16961816272030958,3.0080938962241093,-0.0030390331521630287,0.00705273263156414,-0.06414063274860382,0.2270401661284268,0.03978487556800246,-9.85512530207634
27.1,2.4000000953674316,346.0,22.027328491210934,25.54904937744141,-79.78278433529329,40.45906040181843,284.97570297241214,0.0062638395465910435,0.01117748860269785,0.9903466105461121,0.13802005350589752,0.19052785642213216,0.1825232462138993,3.0106118955462464,0.0849585309624672,0.007003417238593102,0.03077402524650097,0.2779944661259651,-0.07894062727689742,-9.831930567026141
27.2,2.200000047683716,347.0,22.05612564086914,24.435800552368164,-79.78278454846709,40.45906033914854,285.27748367309573,0.005486767739057541,0.009564444422721865,0.9904637336730956,0.13733190298080444,0.18317562466905687,0.1908950174744096,3.015744337971755,0.0977100133895874,-0.031650759279727936,0.028587931767106056,0.2478556143119932,0.013026013614144178,-9.85410203933716
27.3,2.200000047683716,347.0,22.07740974426269,24.865196228027344,-79.78278497126449,40.45906034645075,285.923203201294,0.003215117147192359,0.004831160884350538,0.9907140135765076,0.13583895564079285,0.15305670134966215,0.17538486387062802,3.0047265602149964,-1.6697280216249055e-06,-0.04631870985031128,0.02724456787109375,0.24862185537815096,-0.09052343158051372,-9.686362963914874
27.5,2.200000047683716,347.0,22.01981544494629,24.66640281677246,-79.78278505868703,40.459060491675636,286.5666205596924,0.0023824970703572035,0.004988615401089192,0.9907662868499756,0.13546814024448395,0.1201584083360508,0.1422518846830107,3.0059851015395265,0.035577770322561264,0.0005320798954926431,-0.0347524993121624,0.2638380281254649,-0.014960775047075003,-9.814994691610336
27.7,2.200000047683716,345.0,22.02983283996582,24.348331451416016,-79.7827851399375,40.45906064743515,286.91020462036136,0.0020321619231253862,0.007760660722851753,0.9906674027442932,0.1360655277967453,0.09992928500733353,0.13894367547351288,3.0205634638298764,0.06326193362474443,0.08602006733417511,0.008661927655339241,0.26316963655874137,-0.06009654500987381,-9.853601517677307
27.8,2.200000047683716,337.0,21.994773864746094,25.23892974853516,-79.78278526646106,40.45906057275561,287.2130286407471,0.0030558325815945864,0.011075940914452076,0.9904817938804626,0.13716399669647214,0.08730681509556479,0.15950761962492313,3.0295997744359893,0.038728278130292886,0.05040814727544785,0.055626362562179565,0.2473304978013039,-0.07634443155024201,-9.877755196094514
28.0,2.200000047683716,338.0,22.047361373901367,23.74399757385254,-79.78278567073954,40.45906041447436,288.15042182922366,0.002526806900277734,0.012446984648704529,0.9903145432472228,0.1382601410150528,0.08035399997679578,0.19588938932793545,3.0114716679379443,0.10717488825321198,-0.07659351080656053,-0.02998142689466476,0.2210561621747911,-0.10533049109391868,-9.76844208419323
28.1,2.200000047683716,332.0,21.955961227416992,26.185192108154297,-79.78278578630409,40.45906047451515,288.4821192932129,-0.0020489306189119816,0.012969981878995895,0.990329086780548,0.13811537623405454,0.06290377983428892,0.17851982671269515,3.015302050558072,0.14036622643470764,-0.007083774078637362,0.1065867841243744,0.2765702671185136,-0.21349342826753856,-9.830862865448001
28.2,2.299999952316284,328.0,21.945945739746094,25.98639678955078,-79.78278587499716,40.45906039931173,288.78532287597665,-0.003217263612896204,0.013518187217414379,0.9902570843696594,0.13855673372745514,0.02646334924724596,0.17651626903886308,3.042487639960208,0.03188812360167504,0.02312977612018585,0.05484163388609886,0.21227304127067328,-0.11654038921929895,-9.985432841777802
28.4,2.4000000953674316,324.0,22.033588409423828,24.23700714111328,-79.7827860971883,40.459060413858154,289.4254824829102,0.0032973275519907475,0.01088404655456543,0.9902532696723938,0.13881340622901914,0.029403622811725438,0.16840194513452572,3.0653435115233965,-0.03973320126533508,0.06199394166469574,-0.008789132349193096,0.21052547296509147,-0.044731894098222265,-9.86108010649681
28.6,2.5,320.0,21.997278213500977,24.523271560668945,-79.7827861754002,40.45906033932676,289.73293563842776,0.004871109034866096,0.011248200200498104,0.9902751445770264,0.13858193159103396,0.04604225624881557,0.1669885462851122,3.0793635467033864,-0.056791964918375015,-0.0042144232429564,-0.08101287484169006,0.23615703513845804,0.09915667190216483,-9.924088532924651
28.7,2.700000047683716,319.0,22.058629989624023,24.69820976257324,-79.78278635058818,40.459060311088436,290.3814265441895,0.0001653197250561789,0.012425645254552364,0.990408182144165,0.13761243224143982,0.02566455906234877,0.1844677900733549,3.1001363174845666,0.03739767521619797,-0.004134205169975758,0.03728135675191879,0.25294433645904063,-0.13619169331155714,-9.922903887033463
28.9,2.700000047683716,319.0,22.047361373901367,23.70423889160156,-79.78278623124437,40.459060403777634,291.0227725219727,-0.00047034432645887136,0.014641768299043182,0.9905037879943848,0.13670286536216736,-0.0120222698994472,0.17224424951266912,3.1127948942839385,0.051102641969919205,0.08067210763692856,0.08395187556743622,0.3151852061972022,-0.2086442957818508,-9.966574401855473
29.0,2.700000047683716,319.0,22.01605987548828,25.00832939147949,-79.7827862626597,40.45906032583992,291.3339144897461,0.0005738044274039568,0.016696255654096603,0.99042946100235,0.13700495660305026,-0.008103961149381344,0.17638864838347085,3.1032851556723298,0.008094373159110546,0.0582413300871849,-0.05078774318099022,0.2644713363982737,-0.025742111094295986,-9.762153988480568
29.1,2.700000047683716,321.0,22.05111694335937,23.131710052490234,-79.78278623628994,40.459060335711094,291.6587378692627,0.0008084450964815915,0.01865568943321705,0.9903642535209656,0.13722266256809235,-0.012423198529860218,0.195738988195868,3.071566355058875,-0.002394897863268852,0.028469815850257874,-0.011751999147236349,0.32708246279507874,-0.05828879149630666,-9.640518454313279
29.3,2.700000047683716,323.0,22.104955673217773,22.20135307312012,-79.78278628573369,40.459060178405686,292.2675311279297,0.0016150610754266381,0.02039954997599125,0.9901803731918336,0.13828973472118378,-0.02624770368315207,0.195198218276396,3.0007358235308637,-0.048732805997133255,0.03517400473356247,0.11565019935369493,0.2476177788153291,-0.16208543915301565,-9.427760496139527
29.5,2.700000047683716,325.0,21.928415298461914,26.98036956787109,-79.7827863391011,40.45906031795907,292.60119125366214,0.003649397986009717,0.02148002758622169,0.9899571537971495,0.13967876136302948,-0.021225887450367617,0.19164442143935725,2.9832881998247527,-0.12626543641090393,-0.008205629885196686,-0.024670099839568138,0.2592665104754269,0.04112701255828143,-9.497887907624245
29.6,2.799999952316284,323.0,21.991018295288086,23.77580451965332,-79.7827863552982,40.45906038125053,293.23877021789554,0.004752060864120722,0.020730003714561462,0.9896949529647828,0.14160369336605072,-0.010689051354063828,0.1703864886033567,3.0174451300243414,0.02661503665149212,0.01489215437322855,0.08099598437547684,0.22124257871881128,-0.15097706330940128,-9.839552997350694
29.8,2.9000000953674316,324.0,21.978498458862305,24.984474182128906,-79.782786308749,40.459060317989135,293.83991500854495,0.004677425138652325,0.02025032974779606,0.9897110462188721,0.1415633261203766,-0.035963937184293415,0.1411721198441352,2.984621527262337,-0.08749829977750777,-0.07578731328248978,0.03443658724427223,0.2492141052335501,-0.1076290955208242,-9.671730891466144
29.9,2.9000000953674316,323.0,21.962221145629886,25.23892974853516,-79.78278633430568,40.45906045911311,294.1792666625977,0.004177041817456486,0.019232684746384617,0.9898223280906676,0.14094167947769165,-0.030027443332571364,0.12764044371696606,3.0062154790830697,0.0026438836939632893,0.012677440419793129,0.02718976512551308,0.223886762727052,-0.08788975428789854,-9.765750026106836
30.1,2.9000000953674316,322.0,21.929668426513672,25.708086013793945,-79.78278628218631,40.459060450109355,294.4801299285889,0.003108594100922346,0.01919426023960113,0.9899181127548218,0.1403002142906189,-0.0498102926143409,0.11217830032701373,3.0067375457535097,-0.020121196284890168,-0.035856153815984726,-0.01351394969969988,0.2011300754919648,-0.04495751439593733,-9.766881462335585
30.2,2.9000000953674316,319.0,22.0135555267334,24.22905540466309,-79.78278622262967,40.45906044663109,294.78074523925784,0.0011804152745753527,0.01892510615289212,0.9900147914886476,0.13968276977539062,-0.055114449082264455,0.0969968005914968,3.005194436419834,0.020254293456673626,-0.06533750146627426,0.0758989080786705,0.26002094747498633,-0.12911499093286696,-9.823926898241043
30.4,2.799999952316284,319.0,21.97974967956543,24.24495887756348,-79.78278614848934,40.459060840141504,295.743178100586,-0.005941013805568218,0.017260687425732613,0.99016535282135,0.13870611786842346,-0.07802195555123699,0.06198721154427739,3.0330532454057413,0.005342110991477965,-0.01083303615450859,0.03244248032569885,0.183814039696008,-0.04233950124587864,-9.791483037471775
30.5,2.799999952316284,316.0,21.987262725830078,25.24688148498535,-79.78278610329076,40.45906087260421,296.04675361633304,-0.005556972697377205,0.015968691557645798,0.990198254585266,0.13864165544509888,-0.07708921664870334,0.05385575275344831,3.033990896871505,-0.03895252197980882,-0.0656859278678894,0.0028533125296235085,0.2753023166768253,-0.10436733590438962,-9.831952786445617
30.61,2.799999952316284,313.0,21.978498458862305,24.904956817626953,-79.78278606354674,40.45906090930737,296.3499343109131,-0.004801418166607618,0.013917219825088978,0.9902200102806092,0.1387362778186798,-0.06626563451775516,0.04289299019043585,3.0268513724644124,-0.08056588470935823,-0.08128755539655685,0.029453614726662636,0.2810116294026375,-0.13379275431856513,-9.770210282206536
30.81,2.799999952316284,311.0,21.95721244812012,24.94471549987793,-79.78278590565142,40.459061165924616,296.9802825164795,-0.003245278494432569,0.012491856701672077,0.9902063012123108,0.1390143483877182,-0.061523143716947976,0.021443193842824858,3.0230211301501235,-0.043876387178897865,-0.0341653935611248,-0.031513944268226624,0.19893287457525727,-0.055373634723946456,-9.7680152374506
31.0,2.799999952316284,310.0,21.97974967956543,24.268814086914066,-79.78278590031071,40.45906137540178,297.3063246917725,-0.002475335728377104,0.013357280753552914,0.9902302622795104,0.13877885043621066,-0.04818139760537799,0.02250641895748581,3.0286374930759123,-0.052880994975566864,-0.025736035779118538,0.09844093769788742,0.2726579682156444,-0.234918759316206,-9.836484378576278
31.1,2.799999952316284,309.0,21.962221145629886,24.78567886352539,-79.7827858655961,40.45906141175389,297.6091716003418,-0.002161341020837426,0.013803837820887566,0.99029940366745,0.1382455974817276,-0.046826422515476966,0.033558098268490835,3.0271221609961634,-0.021731499582529068,0.023905212059617043,0.031927838921546936,0.23193943848833445,-0.11753245158120992,-9.77029565155506
31.31,2.700000047683716,309.0,21.964725494384766,24.55507850646973,-79.78278575347069,40.45906172367656,298.23155662536624,-0.003324743825942278,0.01330695953220129,0.9905676245689392,0.1363368183374405,-0.039785905066129834,0.02220510145604741,3.0151336017668666,0.05832959711551666,0.04478101432323457,-0.06807718425989151,0.2851184578612447,0.02776585984043777,-9.794685557484627
31.4,2.700000047683716,311.0,21.93968391418457,25.10375022888184,-79.78278574177664,40.45906194217036,298.8559615325928,-0.0029634570237249136,0.01497668121010065,0.990623652935028,0.13576331734657288,-0.035178378704871484,0.02995320629426356,3.035451020744073,-0.043350204825401306,-0.011210588738322258,0.04455821216106415,0.2803188439831138,-0.13628622634336354,-9.92389323592186
31.5,2.700000047683716,311.0,21.98350715637207,24.29266929626465,-79.78278572792661,40.459061985964226,299.1600024414064,-0.002302402630448341,0.015737168490886688,0.9905183911323548,0.13645677268505094,-0.0234931847600868,0.037259209587765366,3.043369218517292,0.06642240285873413,0.03450141474604606,0.12674908339977264,0.2842217507958412,-0.18142064642161126,-9.898145606517794
31.71,2.700000047683716,312.0,22.01105117797852,23.88712882995605,-79.78278600280036,40.45906221028734,299.77832672119143,-0.0025807786732912072,0.013552322983741759,0.9902629852294922,0.1385246068239212,0.013263520673493377,0.06321132108008479,3.0201035458209726,0.0371275432407856,-0.004052808042615652,0.05788378044962882,0.30605176398530604,-0.14213439216837287,-9.765097476840019
31.8,2.700000047683716,314.0,21.952205657958984,25.000377655029297,-79.78278603123684,40.45906223907424,300.0801417541504,-0.002863857662305236,0.012730183079838751,0.9901317954063416,0.13953077793121338,0.009993202662669093,0.055954300856299086,3.0163023712844046,0.04358435422182083,0.02951477654278278,-0.02738968655467033,0.2498136458359659,-0.058698621927760535,-9.764816225767136
32.01,2.700000047683716,313.0,21.96347427368164,24.97652244567871,-79.78278607516208,40.45906242071889,300.3991801452637,-0.0027362450491636987,0.012623587623238564,0.990011751651764,0.14039215445518494,0.008402521246114994,0.0524628249952556,3.010602359754455,0.013116251677274704,-0.02305544540286064,-0.055936094373464584,0.2723441371880472,-0.04868457533419133,-9.75050925850868
32.21,2.700000047683716,314.0,21.95345687866211,24.316524505615234,-79.78278619743205,40.459062706643714,301.31303665161136,-0.00015393213834613562,0.013043555431067944,0.9898927807807922,0.14121681451797485,0.013315907580142129,0.042449875783823525,2.996582237215926,-0.014580219984054562,0.04632239788770677,0.016780609264969826,0.2142996131256223,-0.06822778816334904,-9.720501932501794
32.3,2.5999999046325684,313.0,21.97974967956543,23.83146667480469,-79.78278622218977,40.45906274220247,301.61231109619143,0.0014570016646757722,0.014826287515461443,0.9898956418037416,0.14101339876651764,0.01082753967334747,0.04247172240528668,2.9875938843980694,-0.05511291325092317,-0.023123838007450104,-0.049120061099529266,0.19010785471647976,-0.03229420402552933,-9.70692820608616
32.5,2.5999999046325684,311.0,21.94344139099121,24.435800552368164,-79.78278629160003,40.459062936372064,301.92648574829104,0.0028641121461987487,0.016289792954921722,0.9898822903633118,0.14092420041561127,0.020750086702436884,0.04283111058329342,2.978251222066305,-0.004779181443154812,0.04348133131861687,0.02655639499425888,0.22550344476476314,-0.12185436621308328,-9.739224132299425
32.6,2.5999999046325684,303.0,21.982254028320312,24.74592018127441,-79.78278629969894,40.45906298300115,302.2247073364258,0.003009495558217168,0.016112010926008224,0.9899320006370544,0.14059174060821533,0.014718463404485675,0.04929827000154887,2.988518921063533,-0.015586815774440762,-0.039189469069242484,-0.01824337244033813,0.23320044536143544,-0.02811931489035488,-9.851964297294616
32.8,2.5999999046325684,297.0,21.92340850830078,24.68230628967285,-79.78278633237355,40.45906322426145,302.8404948425293,-0.00025780365103855735,0.011310539208352566,0.990134298801422,0.13966423273086548,0.009042691296372356,0.009581603338362395,2.9972097450745245,0.02826274372637272,0.022611197084188458,0.05050278827548027,0.08068603942170739,-0.07533014063257724,-9.836574425697329
32.9,2.5999999046325684,289.0,21.942188262939453,25.42182159423828,-79.78278634470145,40.45906347602632,303.4552561950684,-0.0021882853470742702,0.011927070096135141,0.9903025627136228,0.13839711248874664,-0.012427707031770131,-0.007000169995251743,3.0108262190049,-0.009444329887628557,-0.01963581703603268,0.04288287833333016,0.17948529113084075,-0.1897749288752675,-9.892004860639572
33.11,2.5,286.0,21.925912857055664,24.70616149902344,-79.78278631606787,40.459063611441216,304.05565521240237,-0.0015393625944852831,0.008017795160412787,0.9904757738113404,0.13744528591632846,-0.02051488670824551,-0.014974322517013687,2.9844969120460427,-0.08921010792255403,-0.11108604073524476,0.047708485275506966,0.17384038913995029,-0.013111641062423587,-9.729157565832141
33.2,2.5999999046325684,280.0,21.938432693481445,24.563030242919922,-79.78278625648484,40.45906385624957,304.36838790893563,0.00014299040776677432,0.005417115986347199,0.9904757142066956,0.13758116960525513,-0.022643822513375145,-0.02961114342088,2.9782759885615224,-0.03494169935584068,-0.005161759443581104,0.09045740962028503,0.16325391383841634,-0.15300725312903524,-9.746232604980467
33.4,2.5999999046325684,276.0,21.997278213500977,24.97652244567871,-79.78278622226917,40.45906391747661,304.6660792541504,0.0010638523381203413,0.004593079444020986,0.9904327392578124,0.1379162222146988,-0.02471724181432976,-0.03559132076850939,2.9730415500355267,-0.09655840694904327,-0.035887282341718674,-0.07487136870622635,0.16882835688069464,0.08357561462558806,-9.704648376703263
33.5,2.5999999046325684,270.0,21.93467712402344,24.42784881591797,-79.78278626928147,40.45906415511158,305.26927825927737,-0.001982204848900437,0.0063546672463417045,0.9903095364570618,0.13871878385543826,-0.0181224395867575,-0.017101892017026967,2.9577345351718884,0.07808395475149155,0.06927525252103807,-0.02130718529224396,0.18325806085020305,-0.07917060557752847,-9.756660529375075
33.7,2.5999999046325684,268.0,21.950952529907227,23.55315399169922,-79.78278623611847,40.45906418978254,305.5645510864258,-0.003983978182077408,0.007217176258563995,0.9902310371398926,0.13919295370578766,-0.036710373635733005,-0.006960281765118146,2.950833466789558,0.025016063824296,-0.035839322954416275,-0.015212947502732275,0.21719774901866915,-0.10610131856985393,-9.782367812991145
33.8,2.700000047683716,264.0,21.93968391418457,25.175315856933594,-79.78278617640018,40.45906446546688,305.88753387451175,-0.005039858631789684,0.008244029246270657,0.990104615688324,0.13999855518341064,-0.05005516184945336,-0.014490731407713398,2.9687522063673173,0.09713178873062134,0.06159864366054535,0.08928598463535309,0.1875890752114356,-0.2434027951397001,-9.805779479742053
34.01,2.700000047683716,268.0,21.922155380249023,24.66640281677246,-79.78278597291276,40.459064800126,306.80725738525393,-0.008317206054925919,0.011401727795600893,0.9899800419807434,0.14050109684467316,-0.056804835115603525,-0.00196937233364115,2.9942279754269547,0.10355893522500992,0.053044818341732025,0.07443702965974808,0.2356538274139166,-0.2225901609286666,-9.848574081659315
34.1,2.700000047683716,274.0,21.945945739746094,24.35628318786621,-79.78278594300619,40.45906484797247,307.1066348266602,-0.010187688283622265,0.011461442336440086,0.9900423884391784,0.13993176817893982,-0.06406983945875386,0.003709958832451641,2.9955955827459357,0.01583048515021801,-0.0563308596611023,-0.008625398389995098,0.19004430279135706,-0.14704029746353628,-9.841792480945589
34.3,2.5999999046325684,278.0,21.91339111328125,25.032184600830078,-79.78278599601344,40.45906502097943,307.4248377990723,-0.00953071191906929,0.01102005410939455,0.9900742769241332,0.13978853821754456,-0.05447158028313365,0.00945835949052344,3.0040380292780133,0.008276152424514294,-0.002502438146620989,0.09649711102247238,0.26760394563898443,-0.2590309225022793,-9.874235172271732
34.4,2.5999999046325684,284.0,21.950952529907227,23.67243003845215,-79.78278600009347,40.45906506386402,307.7251574707032,-0.0069806999526917934,0.0103406785055995,0.9900840520858764,0.1399211436510086,-0.04206594254547562,0.012748984415499395,3.0017819105561423,-0.024626249447464943,0.04747549816966057,0.08560245484113692,0.2158610389754176,-0.2331967725791037,-9.821887389421462
34.61,2.5999999046325684,284.0,21.93968391418457,24.523271560668945,-79.78278595384502,40.45906527038896,308.6423327636719,0.0017241478199139235,0.009281004779040812,0.9901235699653624,0.1398797333240509,0.004209837792015181,0.023257274791625874,2.989045661539045,0.06124942377209664,0.07199425250291824,-0.0430682897567749,0.2422765117697418,-0.2277601411007345,-9.787955996990203
34.71,2.5999999046325684,286.0,21.90713119506836,24.87314796447754,-79.78278596299872,40.45906540759237,308.95424148559573,0.0003339857212267817,0.011215740814805027,0.9901745319366456,0.13938601315021515,0.0022944421298255364,0.03436768037436518,2.988263549539277,0.06795872747898102,0.03053194470703602,-0.11840181797742845,0.22540146566927435,0.03311762446537614,-9.764630869030954
34.8,2.5999999046325684,288.0,21.9497013092041,23.903032302856445,-79.78278595303337,40.45906542704272,309.25350830078133,-0.0022865827195346355,0.012417107820510864,0.9902608394622804,0.1386510282754898,-0.00998740487896577,0.04558270839874157,2.9949858768602766,0.03801510483026505,-0.03796117752790451,0.03582243248820305,0.29642251443117856,-0.17783769194036722,-9.873521811962126
35.0,2.5999999046325684,292.0,21.954710006713867,24.63459587097168,-79.78278605027086,40.459065404303054,309.8705355834961,-0.004283143673092128,0.012184707447886469,0.9901878833770752,0.13914446532726288,-0.035513469711601325,0.08142139788823237,3.0091015902693496,-0.062203980982303626,-0.05950157344341276,-0.04308381304144858,0.22394470497965813,-0.09192893777042628,-9.82916249513626
35.11,2.5999999046325684,296.0,21.93968391418457,24.157489776611328,-79.78278605932476,40.45906539749146,310.17210266113284,-0.004159616306424141,0.01220394391566515,0.9900960326194764,0.13979902863502502,-0.03152791920840247,0.08071328192482198,3.0204089871625777,0.011054499074816706,-0.004634404554963112,0.049173038452863686,0.2501481613889337,-0.18797515589743846,-9.912875912189484
35.3,2.5999999046325684,300.0,21.914644241333008,24.42784881591797,-79.78278611512044,40.459065556961114,310.48128387451175,-0.0048707635141909105,0.013141032308340073,0.9899981021881104,0.14038319885730746,-0.029911772782521683,0.07664423026601533,3.0282756643784188,0.016787663102149963,0.012971699237823486,0.05023550614714623,0.2562903873436153,-0.17854880472645165,-9.928496164083482
35.5,2.5999999046325684,302.0,21.90462684631348,25.382062911987305,-79.78278626041309,40.4590656255376,311.39632293701175,-0.003510707058012485,0.013879173435270786,0.9901046752929688,0.13959895074367526,-0.03112392617812143,0.10504150044738478,3.036958793092962,-0.0621386468410492,-0.059083588421344764,-0.013730538077652454,0.2521111447736621,-0.1900844293087721,-9.86268692135811
35.6,2.5999999046325684,301.0,21.914644241333008,24.157489776611328,-79.7827862810718,40.459065612193534,311.70066329956063,-0.002864835783839225,0.014122057706117632,0.9901825785636902,0.1390354484319687,-0.024083554256267244,0.09895613021411462,3.045081276537048,-0.04356236755847931,-0.0365426242351532,0.07117607444524765,0.2704422023892403,-0.1643244842067361,-9.897813484668733
35.7,2.5999999046325684,302.0,21.948448181152344,23.767852783203125,-79.78278635010611,40.45906564685053,312.01034423828133,-0.003333396278321743,0.01511881873011589,0.9902099967002868,0.1387249231338501,-0.015032461962384431,0.11380580993967215,3.0272502187151087,0.011837564408779144,0.05764218419790267,-0.017096495255827904,0.2577079899609089,-0.023903472404927014,-9.781837470531462
35.9,2.700000047683716,301.0,21.955961227416992,24.69025802612305,-79.78278638200456,40.45906575590365,312.6272875976564,-0.0003136907471343875,0.01611635647714138,0.9903202056884766,0.13786272704601288,-0.029854071019764214,0.11005220739893892,2.9989724829680404,-0.060150813311338425,-0.01401557307690382,0.013037282042205334,0.3318606612458825,-0.1783677785843611,-9.658606231212618
36.1,2.700000047683716,300.0,21.82699966430664,25.5570011138916,-79.78278638676201,40.45906572903946,313.22717544555667,-6.994190334808081e-05,0.014343534596264362,0.9903880953788756,0.13757139444351196,-0.013993441800710292,0.09794069147404204,3.0079891888044017,0.01882309466600418,-0.055932946503162384,0.1330695003271103,0.2573692899942398,-0.1631941443309188,-9.736899864077568
36.2,2.700000047683716,301.0,21.924659729003906,23.266889572143555,-79.7827864568722,40.459065828783935,313.5468508911133,-0.001147867413237691,0.015657952055335045,0.9903711676597596,0.13754495978355408,-0.01415377409776562,0.09599340813289316,3.0236824302452003,0.09852619469165802,0.0857003778219223,0.0507376454770565,0.19483865417540075,-0.1706802431680262,-9.844158264398576
36.3,2.700000047683716,302.0,22.111215591430664,19.37052154541016,-79.78278644771571,40.45906581760735,313.8484980773926,-0.0018312602769583466,0.017049001529812813,0.9903785586357116,0.13731816411018372,-0.029724314913675123,0.10043922562928152,2.9963451721048417,0.020261069759726524,-0.00747409975156188,-0.08635114133358003,0.2589674071222544,-0.08726807649247349,-9.552154161930083
36.5,2.700000047683716,304.0,22.23641967773437,18.805944442749023,-79.78278648978292,40.45906589374797,314.4466540527344,-0.0032015349715948105,0.01851875707507133,0.9902493953704834,0.1380327194929123,-0.037274721019671976,0.10557287163425903,2.8030809776597185,-0.0076463483273983,-0.03693077340722084,-0.01305862981826067,0.2536061681807041,-0.08121296491473913,-8.71986031651497
36.6,2.700000047683716,305.0,22.127492904663086,20.26907157897949,-79.782786483912,40.45906588869376,314.72108337402346,-0.003361294977366925,0.017841802909970284,0.9901905059814452,0.13853970170021054,-0.03330742312217785,0.09950022523985808,2.684189153769562,0.017381852492690086,-0.02429063990712166,0.07914773374795914,0.2889393209293485,-0.16396250501275064,-8.667866874933242
36.8,2.700000047683716,306.0,22.18508720397949,20.507625579833984,-79.78278645166958,40.459065939625575,315.27135345458987,-0.0025165325496345767,0.017665883526206017,0.9900591969490052,0.13951486349105835,-0.032199881935782035,0.07895495973186922,2.448487825070949,-0.023203460499644283,-0.0006112115806899965,-0.050601374357938766,0.2439370296522975,-0.013270365558564664,-8.363635659813884
37.01,2.5999999046325684,308.0,22.23516845703125,19.116064071655273,-79.78278642041799,40.459066043730786,315.76550552368167,-0.0014955914812162519,0.017721233889460564,0.9899392127990724,0.14037185907363892,-0.019087583174674,0.06694844655865509,2.221163180558815,0.017232751473784447,0.030948834493756294,-0.03720007464289665,0.2569715879671276,-0.14686261519789698,-8.500573357343674
37.1,2.5999999046325684,310.0,22.150028228759766,20.674612045288086,-79.78278641188514,40.45906605234914,315.98200485229495,-0.0014974187361076474,0.017607199028134346,0.9899070262908936,0.14061295986175534,-0.021028000727473,0.06180935721515692,2.1096985149246184,-0.0057925614528357965,-0.04011368378996849,0.02660271525382996,0.2704440844617784,-0.08579666121862829,-8.664478998184205
37.3,2.5,310.0,22.191347122192386,19.028594970703125,-79.78278636550634,40.45906614951713,316.2153308105469,-0.0005901298718526959,0.017286254093050957,0.9898401498794556,0.14112921059131622,-0.024815424600521285,0.0556367207063946,2.0571126149133057,0.0011387444101274016,-0.006667496636509895,-0.0363311804831028,0.285758874155581,-0.05348039765842258,-8.892392939329149
37.4,2.5,311.0,22.153785705566406,20.539432525634766,-79.78278626591542,40.45906628118324,316.6596324157715,0.0008735113078728317,0.01538750249892473,0.9895368218421936,0.14345531165599826,-0.029265298375804362,0.03719613448067514,1.9719562791132164,0.013201354071497915,-0.012590253725647926,0.08485844731330873,0.30803526744246484,-0.1710758803971112,-9.1284836268425
37.6,2.4000000953674316,312.0,22.190093994140625,19.163774490356445,-79.78278618799726,40.459066316446794,317.0388743591309,-0.0037583003286272287,0.018186526373028755,0.9893895983695984,0.14409516751766205,-0.04427236631945889,0.030107893427540264,1.8079727936893164,0.07432465255260468,0.02974504418671131,-0.01064014621078968,0.27880615102127193,0.017594564259052276,-9.038988482952119
37.7,2.299999952316284,314.0,22.190093994140625,19.80786895751953,-79.78278609324602,40.459066495919664,317.2960192871094,-0.0064301001839339724,0.019246330484747887,0.9895002245903016,0.14309999346733093,-0.05505174921783322,0.0225806273897562,1.7908531011074968,0.03442710638046265,-0.03690803050994873,-0.05590995028614998,0.3118897885456681,-0.11211988504976036,-8.939154292345046
37.9,2.299999952316284,315.0,22.193851470947266,18.55944061279297,-79.78278604149031,40.45906652142905,317.47143814086917,-0.0070489002391695985,0.01772635243833065,0.9896682500839232,0.14210201799869535,-0.06566376817783581,0.024187965550234104,1.7207324487338334,0.007027921732515097,-0.02093719318509102,-0.08392337709665297,0.31808670423924923,-0.14596171458251775,-9.059927946925164
38.0,2.299999952316284,319.0,22.18132972717285,19.74425506591797,-79.78278585996235,40.45906673422667,317.90662261962893,-0.005964343436062336,0.013742461800575256,0.989980936050415,0.14040420949459076,-0.05971615225489148,0.0013276371459667645,1.6629776853941285,0.02123183012008667,-0.009797725826501845,-0.0780901238322258,0.2835147493332625,-0.17109926925972105,-9.111734862327575
38.2,2.299999952316284,318.0,22.24518585205078,18.304983139038086,-79.78278572239968,40.459066874671095,318.1521632385254,-0.006025045644491911,0.013996658846735954,0.9900477528572084,0.13990463316440582,-0.05557929424181837,-0.01543330449136496,1.6664347356954958,0.02479201927781105,0.03906046599149704,-0.01225521881133318,0.283530975356698,-0.10617024262435734,-9.010683866143227
38.3,2.200000047683716,317.0,22.212631225585934,18.83775329589844,-79.78278561085472,40.45906694094162,318.46606704711917,-0.005953946150839329,0.014689668081700804,0.990068793296814,0.13968724012374878,-0.06341293040840122,-0.0022417670882099467,1.4739821204869643,-0.02839209325611592,0.02340802364051342,0.0364743247628212,0.3661306440085173,-0.2056512888148427,-8.891019428372383
38.5,2.200000047683716,317.0,22.243932723999023,19.799917221069336,-79.78278556939605,40.45906702104037,318.68620178222665,-0.005635828245431185,0.01496983878314495,0.9901223182678224,0.13929104804992676,-0.057757431079981075,-0.002344194277323887,1.3862250450860676,0.01827554777264595,-0.004727901890873909,0.029815465211868286,0.25542286153882743,-0.10914013481698932,-8.093363319039344
38.61,2.200000047683716,315.0,22.294015884399414,17.899442672729492,-79.78278550789845,40.459067041528826,318.8088595581055,-0.007921849377453327,0.015386419370770453,0.9915450811386108,0.12860380113124847,-0.07391246346670942,-0.004823642376755239,1.0768625377850918,0.09276460856199263,-0.010009840130805973,-0.5854126811027527,0.2252455460093916,-0.17320282336324455,-7.1899176299572005
38.8,2.0999999046325684,312.0,22.163801193237305,20.475818634033203,-79.78278537057751,40.45906705193678,318.9916979980469,-0.011739556677639484,0.01300922315567732,0.9990164041519164,0.040733929723501205,-0.11216013969419196,-0.007279461085584137,0.7539131877079698,-0.020404061302542686,0.015430864877998829,-1.181604266166687,0.2368253901600837,-0.1929227043315768,-8.244167103767396
38.9,2.0999999046325684,314.0,22.124988555908203,20.897262573242188,-79.78278520766051,40.45906699018799,319.10283157348636,0.010827452875673773,-0.014700090512633325,-0.9962711930274964,0.08432416617870331,-0.103309587986754,0.007274500214804329,0.6041307194988977,0.03826230391860008,-0.04718806222081184,-1.3236347436904907,0.19172899525612594,-0.2796922417357564,-9.137384843230247
39.1,2.0999999046325684,315.0,22.15629005432129,19.8635311126709,-79.78278510843153,40.45906700041343,319.1622874450684,0.011029817163944244,-0.015153663232922552,-0.9877610802650452,0.15484492480754852,-0.08530288396934352,0.018563807592845344,0.5776371620329824,0.12150418013334276,-0.038305528461933136,-1.4208543300628662,0.2003796949982644,-0.2163095569610596,-9.364407668709756
39.2,2.0999999046325684,299.0,22.207622528076172,19.624977111816406,-79.78278502256764,40.45906701162974,319.2184397888184,0.013311702758073808,-0.014576242305338384,-0.9734827876091005,0.2279070615768433,-0.07051748965120967,0.0252877504547425,0.539119344573896,0.12703837454319,0.02256961353123188,-1.5584579706192017,0.28521215949207546,-0.05849418865051121,-9.403857078552246
39.4,2.0,288.0,22.107460021972656,20.61894989013672,-79.78278451039063,40.45906670184127,319.34962722778323,0.021273121237754825,-0.01060781441628933,-0.8947672843933105,0.4458996951580048,0.0009925536303731011,0.04765196134753101,0.5115085402480518,0.11017313599586487,-0.02280342951416969,-1.5907635688781738,0.2566432668082416,-0.009014341738075018,-9.544291995763775
39.5,2.0,294.0,22.104955673217773,21.318706512451172,-79.78278451278271,40.459066664912655,319.4007899475098,0.02337210439145565,-0.008530953899025917,-0.8565852642059326,0.5154052376747131,0.03765932227796402,0.03812125470914705,0.5117661666277347,0.08294200897216797,-0.053597122430801385,-1.5639822483062744,0.272842813320458,-0.02801668711937964,-9.79737059891224
39.7,2.0,298.0,22.11246681213379,20.833646774291992,-79.78278460622687,40.459066581766145,319.4514376831055,0.024480614811182026,-0.007012298330664636,-0.8129354119300842,0.5817968845367432,0.07842529567725394,0.020376223967962792,0.5321918221233998,0.06844982504844667,-0.04613582044839859,-1.5328766107559204,0.2269784231856465,0.06763939381577075,-9.911155661344527
39.8,2.0,284.0,22.21388435363769,19.00473976135254,-79.78278420011499,40.459066144386696,319.6078211975098,0.024798188358545303,-0.006093492265790701,-0.714629590511322,0.6990368962287903,0.1766663566736105,-0.014003450847571123,0.5926593013827112,0.060431748628616326,0.017489014193415642,-1.3806337118148804,0.2376708244532347,0.2328127018734813,-9.736205799579619
40.0,1.8999999761581416,279.0,22.15253257751465,20.8256950378418,-79.78278376920744,40.45906581490311,319.66547653198245,0.020408928394317627,-0.006301554385572672,-0.6350458860397339,0.7721791863441467,0.2615588568721779,-0.05524005963503832,0.5583848742814443,-0.01724199205636978,-0.06753898411989212,-0.9367621541023254,0.32348160121589903,0.294445972815156,-9.620705748796462
40.1,1.8999999761581416,290.0,22.004791259765625,22.304725646972656,-79.78278383048506,40.45906550826869,319.72326156616214,0.016773609444499016,-0.006337153725326061,-0.6105886101722717,0.7917449474334717,0.30374644615819,-0.09451445178180508,0.5736315696024957,-0.07798819988965988,-0.025179151445627213,-0.4452512562274933,0.2554526640661061,0.2750162233784795,-9.921850218772887
40.3,1.8999999761581416,297.0,21.96096992492676,24.01435661315918,-79.78278391951893,40.459065260156,319.65218231201175,0.002191239735111594,-0.01410853024572134,-0.5945019721984863,0.8039673566818237,0.2772150410529731,-0.09499488273426407,0.5689631296700256,-0.4257211089134216,-0.2679101526737213,-0.3919075131416321,0.4652514377608896,0.3026455233246088,-10.134673665761948
40.4,1.8999999761581416,294.0,21.908382415771484,24.809534072875977,-79.78278383646949,40.4590645825286,319.6621691894532,-0.06628604233264923,-0.0025744987651705733,-0.5830845832824707,0.8096987009048462,0.32841330465504903,0.00048728332354794346,0.6306329666347684,0.1038193479180336,-0.6023489832878113,0.1350545883178711,0.2618322687037289,0.4962080226838589,-10.561969474554065
40.52,1.8999999761581416,291.0,22.007295608520508,22.11388397216797,-79.78278362872355,40.459064390406226,319.7311885070801,-0.08344060182571411,0.021218078210949898,-0.584717333316803,0.8066554665565491,0.30044799856408394,0.09895739997360067,0.7226869548379607,0.2286970764398575,-0.4637266993522644,-0.02814272977411747,0.1220629199501127,0.5890160893276334,-10.639442743062974
40.7,1.8999999761581416,304.0,22.06989860534668,21.366416931152344,-79.78278324311366,40.45906427458768,319.80736801147464,-0.08887556195259094,0.04127757251262665,-0.5892140865325928,0.8020125031471252,0.2613499025254513,0.2375750287692601,0.8235896423545281,0.26608747243881226,-0.1843922734260559,0.035351600497961044,0.04461472137831152,0.4269003908336163,-10.578006048202516
40.9,1.8999999761581416,311.0,22.05988121032715,21.565210342407227,-79.78278188701431,40.45906411695592,319.87139770507815,-0.0921204313635826,0.05571148172020912,-0.600395143032074,0.7924240231513977,0.1994876939980084,0.6222280730640295,0.9364383668452648,0.015231483615934847,-0.060438927263021476,0.11145411431789398,0.1260824056249112,0.180514784809202,-10.189051601886751
41.0,2.0,313.0,22.07740974426269,21.42207908630371,-79.78278097232406,40.45906405971277,319.84488555908206,-0.0972697287797928,0.057052064687013626,-0.6054820418357849,0.7878293991088867,0.18492737672992154,0.8344449294874039,0.9339748720160086,-0.022920005023479455,-0.13968747854232788,0.17299754917621613,0.16543329901993276,0.11425649419426916,-10.032419897317887
41.1,2.0,319.0,21.98600959777832,23.441829681396484,-79.78277803040315,40.45906439397897,319.9910227966309,-0.10718067735433576,0.05674696713685989,-0.6126769185066223,0.7809731960296631,0.13992713797126233,1.2878491871905529,1.049680168690407,-0.08965954929590225,-0.09105388820171356,0.04208141565322876,0.0030313016613945365,0.25464881809428336,-10.038006327152253
41.3,2.0999999046325684,332.0,22.0035400390625,22.7977352142334,-79.78277444747742,40.459064892997695,320.02250930786136,-0.12315543740987778,0.05421151965856552,-0.615389347076416,0.776652991771698,0.07769499178155975,1.7453972500128514,1.1205985791235145,-0.10363715887069702,-0.2265815138816833,0.04106667637825012,0.08546556263230741,0.11521393007598818,-10.009190078973768
41.41,2.200000047683716,338.0,21.987262725830078,22.63870048522949,-79.78277279113316,40.459065257223095,319.95347091674813,-0.13332754373550415,0.05594644322991371,-0.6145415306091309,0.7755207419395447,0.04055373413352968,1.9387915271279048,1.1352128863200484,-0.0235492903739214,-0.1313306838274002,-0.09012889117002487,-0.04985594165045768,0.33662661708891395,-10.082811201810838
41.6,2.4000000953674316,352.0,21.96347427368164,23.115806579589844,-79.78276721797171,40.45906640081178,320.071734161377,-0.1465267837047577,0.06397356837987901,-0.6093112826347351,0.7766448259353638,-0.04532408082024751,2.443835549582372,1.3617116317228488,-0.0391596257686615,-0.1355983316898346,-0.14521212875843048,-0.15615857345983386,0.42354204252362254,-10.121226239204407
41.8,2.5,355.0,21.92716407775879,24.69820976257324,-79.78276127343692,40.45906795772732,320.0450198364258,-0.15634766221046448,0.07427168637514114,-0.6028327941894531,0.7788658142089844,-0.10227442232477237,2.939073991924213,1.5381912179357926,0.041193682700395584,-0.04513492062687874,-0.15249556303024292,-0.1899735149368644,0.2505880730040372,-10.14371580004692
41.9,2.799999952316284,5.0,21.87457847595215,24.06206703186035,-79.78275788073891,40.45906907481467,319.999037475586,-0.15930671989917755,0.07752389460802077,-0.5999600887298584,0.7801662087440491,-0.15288994072561926,3.1848912552384405,1.6427470234412886,0.08571131527423859,-0.0393979586660862,-0.031077174469828606,-0.4017081007361412,0.3743956833332777,-10.253493765592577
42.0,3.0,10.0,21.90462684631348,23.282794952392567,-79.78275372718909,40.459070129144116,320.04639312744143,-0.1594960391521454,0.07901903986930847,-0.5980604290962219,0.7814351916313171,-0.1723236571445732,3.467066423835616,1.783829325278061,-0.07096561789512634,-0.0572461448609829,-0.004895187448710203,-0.5237542556226253,0.3684000945836306,-10.288342001438142
42.2,3.4000000953674316,15.0,21.91965103149414,24.04616355895996,-79.78274470041742,40.459072966036956,320.05311843872073,-0.1564028561115265,0.07662171125411987,-0.5956630706787109,0.7841254472732544,-0.2420346403098524,4.0210235694537175,1.932743952801224,-0.007696025073528291,0.12003861367702486,-0.2642798125743866,-0.561420995593071,0.6046815109625459,-10.018671923875806
42.4,3.5999999046325684,19.0,22.1062068939209,19.394376754760746,-79.78273960210707,40.45907435118117,320.0945269775392,-0.15582126379013062,0.07388323545455933,-0.5949566960334778,0.7850398421287537,-0.2607564260853373,4.303216588666346,1.9924622411456487,-0.07475324720144272,0.027967160567641255,-0.09131241589784622,-0.4713268775492907,0.3241565891727805,-10.033724995851518
42.51,4.099999904632568,26.0,21.991018295288086,22.41604995727539,-79.78273443770121,40.45907624508539,320.0722987365723,-0.15346327424049375,0.07199776917695999,-0.5942162275314331,0.786239504814148,-0.30787169783715224,4.5479850225818925,1.9981270548935959,0.15777960419654846,0.09167573601007464,0.141752228140831,-0.5752939167246223,0.19666413662955165,-9.810778849124908
42.7,4.300000190734863,28.0,22.031084060668945,20.94497299194336,-79.78271695140884,40.45908195549156,320.1089083862305,-0.14765392243862152,0.07652436941862106,-0.5910971164703369,0.7892696857452393,-0.4406421772641879,5.275483953891964,2.061157744209296,0.14771078526973724,0.0759965255856514,0.0189775712788105,-0.7706954750418663,0.2360676275566221,-9.729500212669372
42.8,4.800000190734863,34.0,22.071149826049805,21.326658248901367,-79.78271058483699,40.45908384550528,320.12787887573245,-0.14618615806102753,0.07605092972517014,-0.5903738141059875,0.790129542350769,-0.4566740437191955,5.511557355320661,2.09467947727802,-0.1080581396818161,-0.032234594225883484,-0.015390793792903425,-0.7180739694088698,0.32679554723203186,-9.747227216362953
43.0,5.099999904632568,34.0,22.10245132446289,20.55533599853516,-79.78270418674931,40.459086461550044,320.114100189209,-0.14560005068778992,0.07691625505685806,-0.5882307887077332,0.7917506694793701,-0.5040282942522095,5.711347674099728,2.1071405656835345,0.0437990128993988,0.023728696629405015,-0.0066079702228307715,-0.8175635397434236,0.11593508362770084,-9.678260477185251
43.1,5.599999904632568,37.0,22.133752822875977,19.442087173461914,-79.78269033583975,40.45909068151946,320.1329142761232,-0.14662961661815646,0.07679817825555801,-0.586669921875,0.7927296161651611,-0.4837622997041928,6.143862581793791,2.1686416645477027,0.0006968056550249457,0.1567670702934265,-0.05868057906627655,-0.7720122680068017,0.25492679838091137,-9.607688677310943
43.3,5.800000190734862,39.0,21.99978256225586,23.03628921508789,-79.78268326670575,40.45909374490503,320.1216914367676,-0.1450439840555191,0.07557771354913713,-0.5850731730461121,0.7943171262741089,-0.554246742957426,6.319900073064791,2.205011823523881,0.06943013519048691,0.14192858338356018,-0.14961285889148712,-1.0545411767810584,0.5630906680226326,-9.592254366874695
43.4,6.300000190734862,41.0,22.126239776611328,19.77606201171875,-79.78267582883781,40.459096062418425,320.12231704711917,-0.13953958451747894,0.07573933154344559,-0.585293710231781,0.795124888420105,-0.5387848337445387,6.516389725945624,2.2253364877316604,0.02185049094259739,0.14809493720531464,0.09128963202238084,-1.0895840518176556,0.15475467525422573,-9.82019637465477
43.6,6.5,43.0,22.104955673217773,20.05437469482422,-79.78265201045775,40.45910425657307,320.10648986816415,-0.13691498339176178,0.08109506964683533,-0.5843550562858582,0.7957431674003601,-0.6246812745558482,7.111521393719598,2.1675304530309853,-0.04347946122288704,-0.1990835666656494,0.09830226749181747,-1.341467484086752,0.053662794241681695,-9.367023128271104
43.71,7.0,45.0,22.061134338378906,20.937021255493164,-79.78264363641375,40.459107742854975,320.10118743896487,-0.1407521814107895,0.0826721340417862,-0.5831267237663269,0.7958123683929443,-0.6844164426929031,7.25729100380249,2.2645207207737528,0.14301612973213196,0.05512240156531334,0.02654034085571766,-1.1514292477816344,0.19800548790022726,-9.388897562026976
43.9,7.199999809265138,46.0,21.997278213500977,21.891233444213867,-79.78263525082257,40.45911044691477,320.0862605285645,-0.14255695044994354,0.0828612670302391,-0.5835750699043274,0.7951425313949585,-0.6911535326958524,7.406903785408048,2.3714601599072442,-0.10653695464134216,0.0027682671789079905,0.016124360263347626,-1.4424097220599652,0.3285515026375652,-9.707564967870713
44.0,7.699999809265138,46.0,22.138761520385746,19.322811126708984,-79.78261775172938,40.45911689139706,320.08347579956063,-0.12829959392547607,0.07044453918933867,-0.5844751000404358,0.7981013059616089,-0.7467867921555449,7.685839959154934,2.496682045952878,0.1935068964958191,0.4863129556179047,0.007987063378095627,-1.5668244378268719,0.2176015723496676,-10.074550255537034
44.2,8.0,46.0,22.151281356811523,18.91727066040039,-79.78260023082359,40.459123888888406,320.0799967956543,-0.10861866176128387,0.06346072256565094,-0.5844758152961731,0.8016002178192139,-0.889538637917101,8.014343262873997,2.0848677958274395,-0.006116208154708147,-0.07712363451719284,0.0256959181278944,-1.2946200308203697,0.34932077609002593,-9.849113194942477
44.3,8.399999618530272,47.0,22.220144271850586,17.652938842773438,-79.7825912004568,40.45912692799485,320.067770690918,-0.10729125142097473,0.060037322342395776,-0.583723247051239,0.8025904893875122,-0.8467943232499302,8.129525406786454,1.9593010755205256,-0.023126496002078056,0.11249128729104996,0.16995498538017273,-1.5086592601239681,0.0805401879362762,-9.381712503433226
44.5,8.600000381469728,47.0,22.114971160888672,20.046422958374023,-79.7825817187493,40.45913068499707,320.05663558959964,-0.10562165826559068,0.05271770432591438,-0.5817810893058777,0.8047333359718323,-0.8795840266210977,8.23564728095528,1.9079102628129072,-0.19687701761722565,0.06823211908340454,0.045039255172014236,-1.4673216381669043,0.5208133985102177,-9.357358265519142
44.6,8.899999618530273,53.0,22.17381858825684,19.839675903320312,-79.78256280955095,40.4591375035126,320.01739379882815,-0.09642615169286728,0.03727133199572563,-0.5803799629211426,0.8077573776245117,-0.8441493664952076,8.402314086727316,1.725905288330844,-0.06146786361932755,0.09693706780672072,-0.03357498720288277,-1.5258081203699112,0.4200774941593409,-9.610398277044297
44.81,9.100000381469727,54.0,22.07490539550781,20.610998153686523,-79.78255352750735,40.459140700325946,320.0003077697754,-0.0903576761484146,0.03445025533437729,-0.5817416310310364,0.8076047301292419,-0.8233076448663196,8.472496294889545,1.5901106488194847,-0.0121163846924901,0.012825440615415571,-0.004588887561112642,-1.4835969243943692,0.6328984560817479,-9.643995793461801
44.91,9.600000381469727,54.0,22.07615852355957,20.51557731628418,-79.78253395635316,40.45914746716569,319.9382655334473,-0.08477722853422165,0.02952304668724537,-0.5819157361984253,0.808279275894165,-0.8501409464601757,8.555941817858903,1.4743634184556842,-0.19874954223632807,0.1939525008201599,-0.08108455687761308,-1.4030317944288255,0.5466280150786043,-10.216949837207792
45.1,9.800000190734863,54.0,22.145021438598643,19.704496383666992,-79.78252458357366,40.45915069119535,319.92894622802737,-0.08604660630226135,0.02466043829917908,-0.5812048316001892,0.8088194727897644,-0.84642856116806,8.552186619088907,1.4604550119051027,-0.21920284628868106,-0.07079946994781494,-0.06666406244039537,-1.6200922800600532,0.5116103196144104,-10.1469364464283
45.2,10.0,59.0,22.09493827819824,18.5037784576416,-79.78251521535908,40.45915391753526,319.9229495239258,-0.08940358459949492,0.0181876290589571,-0.5806315541267395,0.8090385198593141,-0.8292961537778236,8.550078843944345,1.4654005765976883,-0.07244236022233963,0.1036328822374344,-0.021472394466400143,-1.538451700955629,0.7533004470169544,-9.99984973669052
45.31,10.300000190734863,59.0,22.266469955444336,16.460172653198242,-79.78249571270091,40.459160508572566,319.8472087097168,-0.08618254959583282,0.007027542218565941,-0.5798306465148926,0.8101356029510498,-0.8162483449475784,8.546346516115332,1.4231184964653631,0.09982853382825853,0.1837247908115387,0.004619926679879427,-1.9137216161191464,0.39185707725584507,-9.750197601914406
45.41,10.399999618530273,58.0,22.15629005432129,18.97293281555176,-79.78248572136589,40.45916406045188,319.7908351135254,-0.07933557778596878,0.0013341286685317757,-0.5803059339523315,0.8105239868164062,-0.8533444162084628,8.555098279910695,1.2916304528436895,0.008533887565135956,0.0928722694516182,0.19308969378471366,-1.8258632540702824,0.3666842291504145,-9.719748226404187
45.6,10.5,60.0,22.161296844482425,18.16185188293457,-79.78247645605276,40.459167355120286,319.78462860107425,-0.06858848780393599,-0.0039914795197546465,-0.5813489556312561,0.8107485771179199,-0.9155400742914594,8.518348002080781,1.157132555712981,-0.039285950362682336,0.1352759301662445,-0.14386874437332153,-1.810264198333025,0.7890526624023915,-9.87558704853058
45.81,10.600000381469727,65.0,22.14877700805664,20.022565841674805,-79.7824573277166,40.45917416253115,319.7307002258301,-0.04426069557666778,-0.0108168488368392,-0.5844215750694275,0.8101701140403748,-0.9808684422002354,8.438063577319394,0.7396854993409236,0.20661333203315727,-0.04397187381982803,0.3039466738700867,-1.5847794829308988,0.18272179808467628,-9.967421078681946
45.9,10.699999809265137,65.0,22.22890853881836,17.382577896118164,-79.78243870412824,40.459180908089095,319.69706985473636,-0.034893445670604706,-0.014195724390447141,-0.5870693922042847,0.8086597323417664,-1.0932340350865084,8.297483738924113,0.5145330737574448,-0.04317014291882515,0.04391714185476303,0.05772966518998146,-1.3678293634951115,0.4016496651247144,-10.102602857351304
46.1,10.699999809265137,65.0,22.22264862060547,17.470046997070312,-79.78242987038955,40.459184180951816,319.701258392334,-0.030302310362458236,-0.0159015916287899,-0.5879601240158081,0.8081657290458679,-1.1348145575074258,8.182649248242742,0.4513902724983504,0.13880294561386108,-0.08812586963176727,0.27437531948089605,-1.4973783731460573,0.3257655967399478,-9.954049665927887
46.2,10.699999809265137,70.0,22.1988582611084,18.77413749694824,-79.7824211685608,40.45918743594228,319.7081706237793,-0.025792500004172325,-0.01797022670507431,-0.5884606838226318,0.8079145550727844,-1.1527714978988997,8.06183017176157,0.4014731389967783,0.17082497477531433,0.032343890517950065,0.243850439786911,-1.6787708432972432,0.2468543334491551,-9.945676453113558
