time,wind_speed,wind_angle,battery_voltage,battery_current,position_x,position_y,position_z,orientation_x,orientation_y,orientation_z,orientation_w,velocity_x,velocity_y,velocity_z,angular_x,angular_y,angular_z,linear_acceleration_x,linear_acceleration_y,linear_acceleration_z
0.0,0.4000000059604645,278.0,24.50138092041016,-0.07951773703098297,-79.78276905007489,40.459090622424256,270.3175906225145,-0.012736065313220024,0.0008498472743667662,-0.9993411898612976,0.03397442772984505,-0.04122529323126998,-0.00401966225394748,0.01653570799923365,0.012054442428052424,0.0042956736870110035,0.0047966395504772654,-0.035653621279634534,0.182178208027035,-9.806517398357393
0.1,0.4000000059604645,279.0,24.50638771057129,-0.07156596332788467,-79.78276893688408,40.4590906375971,270.32073747581245,-0.012772157788276672,0.0008351393043994904,-0.9993396401405334,0.034006696194410324,-0.05413258102373397,-0.00654111595146495,0.017269639938270034,-0.0008866898715496062,-0.0019085820531472566,-0.005212050396949053,-0.040301974997855726,0.2012355629168451,-9.803790256977084
0.3,0.4000000059604645,278.0,24.50638771057129,-0.08746951073408127,-79.78276908620623,40.45909050644897,270.34000896131994,-0.012717291712760924,0.0008541967836208643,-0.9993404746055604,0.03400469943881035,-0.04091075389972318,-0.005246390487390741,0.015242365242126287,0.004722699057310821,-0.0022151488810777664,0.007495739962905645,-0.03653273188043386,0.1752108851261437,-9.80610692381859
0.41,0.4000000059604645,277.0,24.505136489868164,-0.06361418962478638,-79.78276915694539,40.45909037702225,270.3609878740311,-0.012658314779400829,0.0008557651890441775,-0.9993404150009156,0.034027937799692154,-0.036896315175867694,-0.004588199615207604,0.014057444068304779,0.009129449725151062,0.004747108556330204,-0.001657346379943192,-0.03850740969646722,0.1897808491811156,-9.80484100162983
0.6,0.4000000059604645,277.0,24.50764083862305,-0.09542128443717957,-79.78276910942569,40.45909038413765,270.36230877256395,-0.012679221108555794,0.0008439252851530911,-0.9993400573730468,0.03403117507696152,-0.04330465458826674,-0.005817052874477006,0.014323371971952003,-0.005085533950477839,-0.0005214298726059496,0.002603934146463871,-0.038728375062346464,0.17871115632355214,-9.804450407624245
0.7,0.4000000059604645,275.0,24.50638771057129,-0.07951773703098297,-79.78276916987272,40.45909026978018,270.3816152832508,-0.012666342779994013,0.0008581595029681921,-0.9993407130241394,0.03401561826467514,-0.041122898539822685,-0.007686744085561686,0.011067727043052223,0.00909732561558485,0.003788687288761139,0.002305273432284593,-0.03696890675928444,0.17831643272191286,-9.804895965456963
0.9,0.4000000059604645,276.0,24.50638771057129,-0.07156596332788467,-79.78276911730745,40.45909027993638,270.38263653433324,-0.0126902274787426,0.0008485867874696853,-0.9993404150009156,0.0340157188475132,-0.048571963425637736,-0.008791791008277839,0.011552845154910693,-0.010169893503189087,-0.002069489099085331,0.002397686243057251,-0.04045331738423556,0.18806761499494315,-9.80440304517746
1.0,0.4000000059604645,273.0,24.50638771057129,-0.05566241592168808,-79.7827692364363,40.459090135410364,270.4037631175518,-0.01266644708812237,0.0008466251892969012,-0.9993415474891664,0.033992256969213486,-0.03959435022699887,-0.0069993161458637475,0.010710710936016613,0.0047098598442971715,0.0002720992488320917,0.006420362740755081,-0.03787418136605993,0.17503756999969486,-9.805567225813864
1.2,0.4000000059604645,271.0,24.51264953613281,-0.06361418962478638,-79.78276918617736,40.45909014492084,270.40474492526056,-0.012672985903918743,0.0008406198467127979,-0.9993416666984558,0.03398497402667998,-0.04678076943106885,-0.008236017457888272,0.011131436213638128,-0.010616306215524672,-0.0026727430522441864,-0.0050767436623573295,-0.04039720695465803,0.20161937780678274,-9.803402586579324
1.3,0.4000000059604645,269.0,24.508892059326172,-0.07951773703098297,-79.78276924429136,40.4590900369026,270.4252389839888,-0.012645263224840164,0.0008355040336027741,-0.9993429780006408,0.033957310020923615,-0.04578140279197988,-0.009887014470260766,0.011185989367859505,-0.004267252050340176,-0.000648462912067771,0.002452766289934516,-0.038066648407839236,0.1818465064466,-9.80502168059349
1.5,0.4000000059604645,269.0,24.508892059326172,-0.07156596332788467,-79.7827693246129,40.45908990881834,270.44386698520185,-0.012620091438293457,0.0008482572156935929,-0.9993443489074708,0.033925198018550866,-0.04159587188861639,-0.008573209798404455,0.008503121501220824,0.0071975854225456715,0.0046831252984702604,0.008289732038974762,-0.040457017575390636,0.2035017609782517,-9.803304938077927
1.6,0.4000000059604645,269.0,24.51014518737793,-0.06361418962478638,-79.78276927199983,40.45908991980331,270.44462736165525,-0.0126462634652853,0.0008427979773841798,-0.9993440508842468,0.03392484039068222,-0.04880531225709838,-0.009718482575867476,0.008986849886373436,-0.008703252300620079,-0.003976066131144762,-0.003512555733323097,-0.04102396451868117,0.19613448852673174,-9.804138751029967
1.8,0.4000000059604645,265.0,24.508892059326172,-0.07156596332788467,-79.78276937523582,40.45908980115867,270.4631009868384,-0.012603901326656342,0.0008438443765044213,-0.9993460178375244,0.033882394433021545,-0.04320878083714697,-0.010916816397044029,0.006644743625627836,0.000705583777744323,-0.0020545506849884987,0.005941709969192743,-0.0395221985410899,0.19246223609894514,-9.803865101337431
1.91,0.4000000059604645,265.0,24.5001277923584,-0.07156596332788467,-79.78276952723957,40.459089619179615,270.4827799222469,-0.012524249032139778,0.0008638536091893911,-0.9993470907211304,0.033880390226840966,-0.03307482541237749,-0.002969632232577745,0.006890262785193236,-0.008024271577596664,-0.001923251082189381,-0.00881430134177208,-0.042034308565780526,0.20563899138942365,-9.802642448544503
2.1,0.4000000059604645,266.0,24.50764083862305,-0.07156596332788467,-79.7827694859488,40.459089624572,270.4833964726925,-0.012543522752821444,0.0008605267503298817,-0.9993467926979064,0.033881552517414086,-0.03705363948763588,-0.004382269879313838,0.007129202944698234,0.012157361954450607,0.005919633898884058,0.002965925727039576,-0.0358702606195584,0.17964338522404433,-9.805985301733015
2.2,0.4000000059604645,266.0,24.50764083862305,-0.07156596332788467,-79.7827695834295,40.45908949553176,270.50326618766786,-0.012506605125963688,0.0008525294251739979,-0.9993469715118408,0.03388964012265205,-0.034267967026448284,-0.004672523484561392,0.007653939811963399,0.00576701806858182,0.0012787091545760634,-0.00019034433353226632,-0.04059645996429026,0.1986271200142801,-9.803804875016212
2.4,0.4000000059604645,264.0,24.508892059326172,-0.05566241592168808,-79.7827695398057,40.459089502509755,270.50395913636686,-0.012540509924292564,0.0008598500862717627,-0.9993467926979064,0.03388303145766258,-0.03959490762004267,-0.005903317828535629,0.007921497009418379,0.004747587721794844,0.0015817468520253895,0.0049663353711366645,-0.036696369408164176,0.17511838948354125,-9.804860297441484
2.5,0.4000000059604645,265.0,24.50638771057129,-0.07156596332788467,-79.78276962666256,40.45908936426447,270.52563712215425,-0.012503382749855518,0.0008708109962753953,-0.9993473291397096,0.03388044238090515,-0.03696878683326337,-0.005304383072043808,0.010784440240979158,0.011051490902900696,0.0004946935805492103,0.003989892546087503,-0.04066789192613215,0.2037211594730616,-9.803103793859485
2.7,0.4000000059604645,268.0,24.51014518737793,-0.06361418962478638,-79.78276957913585,40.459089371968176,270.5266358277798,-0.012522025033831595,0.0008654480334371327,-0.999347686767578,0.033864039927721024,-0.043575923326869416,-0.006384756625291904,0.01114421996746902,-0.0072021610103547564,-0.003913549706339836,0.002756473375484348,-0.04015621030703187,0.1826820370182395,-9.804379071593283
2.8,0.4000000059604645,270.0,24.50263214111328,-0.07156596332788467,-79.78276965943628,40.459089209787294,270.54636404132845,-0.012477545998990536,0.0008784760721027851,-0.9993483424186708,0.03386002033948898,-0.04063663148332615,-0.0028902898744817395,0.010393817812186424,0.011929814703762531,0.0037433814723044643,0.005550524685531855,-0.0369756196369417,0.1763916389644146,-9.806115694642068
3.0,0.4000000059604645,271.0,24.505136489868164,-0.07951773703098297,-79.78276980344863,40.45908903834878,270.56516516423227,-0.012395953759551048,0.0008949809125624598,-0.99934983253479,0.03384615108370781,-0.03254677841221771,0.0004542629362111408,0.009096593926536316,0.004623800050467253,0.003340736497193575,0.0006153139984235168,-0.04127710784319789,0.1938232303597033,-9.803437669873238
3.1,0.4000000059604645,274.0,24.51139640808105,-0.07156596332788467,-79.78276976142284,40.45908904063971,270.5660073778629,-0.012416686862707138,0.0008776658214628696,-0.9993494153022766,0.03385110944509506,-0.03779281381796264,-0.0008168456276270032,0.009467930319610364,0.004950575530529022,0.0047766431234776965,0.0019390358356758952,-0.03810392897576094,0.1757656397111714,-9.806365955471993
3.3,0.4000000059604645,275.0,24.51139640808105,-0.07951773703098297,-79.7827698476852,40.45908889475352,270.58528915262224,-0.012366808950901031,0.0008990627829916775,-0.9993500709533693,0.03384820371866226,-0.03794387100408154,0.0015606906861226116,0.011481148029717652,-0.011496035382151605,-0.002030838979408145,-0.007245050277560947,-0.04049277695361525,0.20308337442576888,-9.803591451644898
3.4,0.4000000059604645,277.0,24.50388526916504,-0.07156596332788467,-79.78276993174383,40.459088757013866,270.60666719293596,-0.012363561429083349,0.0008842351962812244,-0.9993506669998168,0.033832523971796036,-0.03398194096400007,0.0003280452828333838,0.015924087213633517,-0.003496459452435375,-0.0023957616649568077,0.003499543061479926,-0.038733358900062735,0.1815017765387893,-9.805621604919434
3.61,0.4000000059604645,276.0,24.50138092041016,-0.06361418962478638,-79.78276988863301,40.459088759566214,270.6081866345406,-0.012363970279693605,0.0008658139267936349,-0.9993511438369752,0.03381923958659172,-0.039363965578750285,-0.0010081584266811282,0.016265992842148053,-0.005220139864832163,-0.0015089982189238071,-0.004768952261656523,-0.040836497303098435,0.20557196768000724,-9.802731910943983
3.7,0.4000000059604645,275.0,24.50138092041016,-0.07156596332788467,-79.78276996826025,40.45908862101175,270.62702241754533,-0.012345573864877224,0.0008769279811531304,-0.9993514418601992,0.03381876274943352,-0.037959566047344066,-0.0012446135330464296,0.016368930937620464,-0.010425440035760404,-0.003059219103306532,0.0015190121484920382,-0.04033042992465198,0.1871431702002883,-9.805479517579078
3.91,0.4000000059604645,277.0,24.50638771057129,-0.07156596332788467,-79.78277007647715,40.45908844882014,270.64741552090646,-0.012295029126107693,0.0008880618261173368,-0.9993526339530944,0.033799611032009125,-0.031153023044637573,0.00501386384888157,0.01940869153105873,0.011447785422205923,0.0012960793683305385,0.006934403907507658,-0.04056657521054149,0.2027787344902754,-9.804190791249276
4.0,0.4000000059604645,276.0,24.51264953613281,-0.06361418962478638,-79.78277003518501,40.45908844693635,270.6492930970192,-0.012307880446314812,0.0008768170955590904,-0.9993525147438048,0.0337982140481472,-0.03766201243765333,0.003873229891836256,0.019899379417130682,-0.015079826116561891,-0.0019912407733500004,-0.005632434505969286,-0.04122837495524437,0.1960673734545708,-9.803969766497612
4.2,0.4000000059604645,277.0,24.520160675048828,-0.02385532110929489,-79.78276998806305,40.45908844656653,270.651196005106,-0.012298683635890484,0.0008694107527844608,-0.9993533492088318,0.03377848863601685,-0.04153792546852096,0.002294185552416593,0.02012143953202692,0.006398038472980261,-0.00010293385275872424,-0.0003759987594094128,-0.04077437977306545,0.1947986555658281,-9.80414869129658
4.3,0.4000000059604645,277.0,24.50638771057129,-0.08746951073408127,-79.78277004754877,40.45908832493932,270.668266715765,-0.012269348837435246,0.0008630056399852037,-0.9993542432785034,0.033761635422706604,-0.044816957163935627,0.00034200379899930705,0.01961418740416996,-0.009233237244188786,-0.002760052680969239,-0.004047497641295196,-0.040157142207026486,0.2028082994744181,-9.803161681294444
4.5,0.4000000059604645,278.0,24.50764083862305,-0.07156596332788467,-79.78277019680907,40.4590881644745,270.68657478904726,-0.012210367247462273,0.0009166141389869152,-0.999354898929596,0.03376317769289017,-0.03313485189070766,0.006231492006336104,0.023953013736399745,0.013574225828051569,0.006020781118422747,0.0022966281976550817,-0.03766865173587576,0.1865815816819668,-9.804252771735193
4.6,0.4000000059604645,278.0,24.508892059326172,-0.07951773703098297,-79.78277010349836,40.45908815990767,270.69125217413904,-0.012212550267577171,0.0009271837770938873,-0.9993541240692142,0.03378407657146454,-0.04415150664628622,0.004005157098180293,0.02464689907631181,-0.005652158055454493,-0.0018294707406312227,-0.003050873521715402,-0.040687132920138536,0.2049970219284296,-9.802254778146743
4.8,0.4000000059604645,278.0,24.50638771057129,-0.08746951073408127,-79.78277026829734,40.45908803626249,270.7067953965664,-0.012174930423498155,0.0009400249109603462,-0.9993547797203064,0.03377711772918701,-0.03260852745448696,0.002364603000179018,0.02455699015607168,0.009066390804946423,0.004381665028631686,0.00473624374717474,-0.0368451764783822,0.17995350692421205,-9.805669552087783
4.91,0.4000000059604645,277.0,24.49762344360352,-0.07951773703098297,-79.78277034160286,40.459087876733534,270.7241815350056,-0.012155725620687008,0.0009573302813805641,-0.9993550777435304,0.033775925636291504,-0.03595460648783968,0.007538030069636342,0.0251443529387092,0.0014337579486891627,-0.0013286800822243097,-0.0054882625117898,-0.04152373700402677,0.2009141487814486,-9.803455211520195
5.1,0.4000000059604645,278.0,24.508892059326172,-0.07156596332788467,-79.78277029526093,40.45908787272467,270.72661826229097,-0.012180136516690254,0.0009705281117931008,-0.999354898929596,0.03377101197838783,-0.04004540319479847,0.006356616183456074,0.025472132565878085,0.008031667210161686,0.006060817278921604,0.005974964238703251,-0.0363430308457464,0.17509887440130115,-9.806973481178284
5.2,0.4000000059604645,279.0,24.508892059326172,-0.05566241592168808,-79.78277038195897,40.45908775613558,270.742881210804,-0.012150614522397518,0.0009544649510644377,-0.9993560910224916,0.03374741226434708,-0.039144275429525664,0.003466546184323427,0.02531753553651591,0.007110211066901685,0.002129765460267663,0.001038818503729999,-0.039337024530395864,0.1906583152525127,-9.804726396203044
5.4,0.4000000059604645,282.0,24.5001277923584,-0.04771064221858978,-79.78277033142038,40.45908775602662,270.7453312895298,-0.012170683592557907,0.0009599083568900825,-0.9993560314178468,0.033743951469659805,-0.04447398391510544,0.002335476506678216,0.0256934787249414,0.0009812203934416175,3.95128081436269e-05,0.0043571810238063335,-0.0391837041405961,0.1766168298572302,-9.805199435949326
5.5,0.4000000059604645,283.0,24.50263214111328,-0.05566241592168808,-79.78277049916797,40.459087616445046,270.7584458909035,-0.012115227989852428,0.0009538133745081725,-0.9993575811386108,0.03371579200029373,-0.031999021374069354,0.0033863570531688482,0.02126193556008385,0.009993726387619972,0.003126557683572173,0.002752794651314616,-0.0371002566930838,0.18044472785666585,-9.805794682502746
5.71,0.4000000059604645,283.0,24.50388526916504,-0.05566241592168808,-79.78277045688777,40.45908761594721,270.7605126819611,-0.012109974399209024,0.0009767255978658798,-0.9993577003479004,0.03371450677514076,-0.03818068157645803,0.002553492617201225,0.021760089535719875,-0.01152948569506407,0.0015031446237117052,-0.00021673487208317963,-0.0401608972158283,0.18712688935920604,-9.80428376197815
5.81,0.4000000059604645,280.0,24.5001277923584,0.007951773703098297,-79.78277060707006,40.459087501917146,270.7729365549088,-0.012043239548802376,0.0009502999600954354,-0.9993594288825988,0.03368707001209259,-0.03181578307211198,-2.211372123937208e-05,0.01864738576167347,0.005949919112026691,-0.0006895557162351906,0.008224331773817541,-0.03663014512276277,0.17599499674513938,-9.805775386691094
6.0,0.4000000059604645,280.0,24.50263214111328,-0.015903547406196594,-79.78277076230353,40.4590873993871,270.7833465061188,-0.011997969821095468,0.0009481763700023293,-0.9993600845336914,0.03368459641933441,-0.029273547251871063,-0.003247332588006382,0.016972597938732088,-0.011507917195558548,-0.004610058851540089,-0.005704053677618504,-0.0414510716451332,0.20054796690121293,-9.803697870969774
6.11,0.4000000059604645,281.0,24.491363525390625,-0.015903547406196594,-79.78277068478447,40.45908741150251,270.78665259695055,-0.012012368999421595,0.0009597891476005317,-0.9993596076965332,0.0336931049823761,-0.0374531862872788,-0.005685264006181603,0.017629574420189236,-0.004721978213638067,0.00040071134571917366,0.0062470389530062675,-0.039676048834808166,0.1793711425177753,-9.80514213323593
6.3,0.4000000059604645,281.0,24.495121002197266,-0.015903547406196594,-79.78277089116933,40.45908729526956,270.7968595943451,-0.011947637423872948,0.0009640505886636672,-0.9993609189987184,0.03367674723267555,-0.02494122149212195,-0.0050752004322610405,0.01619977852955712,-0.00147942709736526,-0.0007795911515131593,-0.004548945464193821,-0.041720938920043416,0.2051696792431176,-9.804648043513296
6.4,0.4000000059604645,282.0,24.49386787414551,0.0,-79.78277101600571,40.45908718901864,270.80800894117357,-0.011925071477890016,0.000965914747212082,-0.9993616938591005,0.033663585782051086,-0.02470290495128783,-0.004697479047524,0.015665791779352997,-0.00958432164043188,-0.003639057045802474,-0.0031065538059920073,-0.04074735924135894,0.1921895731240511,-9.804741598963735
6.61,0.4000000059604645,281.0,24.49637222290039,-0.039758868515491486,-79.78277098530927,40.45908719544671,270.809523375988,-0.011931024491786957,0.0009474692633375523,-0.9993616938591005,0.033661432564258575,-0.02800413940670165,-0.00607731742206309,0.01587184630336834,0.007017163094133139,0.003455419559031725,-0.002258453285321593,-0.040593033861368887,0.1957214741036296,-9.803814815282824
6.7,0.4000000059604645,278.0,24.49637222290039,-0.007951773703098297,-79.7827711225867,40.45908704859836,270.8242688498497,-0.011916802264750006,0.0009873458184301849,-0.9993627071380616,0.033633213490247726,-0.02628921392723121,0.0015552023276510214,0.021690520144129536,-0.008783191442489624,-0.000996040878817439,-0.004888502880930901,-0.03771498863585294,0.17461255051195626,-9.805502906441687
6.91,0.4000000059604645,277.0,24.49637222290039,-0.007951773703098297,-79.78277108937728,40.45908704933025,270.8263819537163,-0.011933215893805029,0.0009735954226925967,-0.9993628263473512,0.03362424671649933,-0.0289893603624262,0.00035749429623212404,0.021881666726425632,0.013151388615369795,0.00322686624713242,0.0034030992537736893,-0.03707780429860577,0.1839419292658568,-9.805024604201318
7.02,0.4000000059604645,275.0,24.49762344360352,0.0,-79.78277118766327,40.459086959926076,270.8408112845421,-0.011918465606868269,0.0009968174854293468,-0.9993643164634703,0.033586423844099045,-0.03390790059123114,-0.003873729878910229,0.02623029674200936,-0.0011286985827609894,-0.002740155206993223,-0.006424399092793465,-0.04207410617731512,0.2039140262268484,-9.803316632509233
7.21,0.4000000059604645,273.0,24.50388526916504,0.02385532110929489,-79.78277114514698,40.4590869660286,270.84336546278,-0.011947199702262878,0.0010059938067570329,-0.9993639588356018,0.033584337681531906,-0.03721314633948832,-0.005001579444650377,0.026505594012274127,0.011587316170334816,0.004509650636464357,0.005692967213690281,-0.035757432198151945,0.17600506491959095,-9.806458341479305
7.3,0.4000000059604645,273.0,24.498876571655273,0.007951773703098297,-79.78277122040467,40.4590868356773,270.85690012788774,-0.011916481889784336,0.001035672496072948,-0.99936443567276,0.033581431955099106,-0.040711328157295605,-2.0909074805463848e-05,0.02865912136218648,0.008592166937887669,0.002722853794693947,-0.0004964960389770566,-0.03985316921956837,0.1938990066200495,-9.80453460752964
7.5,0.4000000059604645,273.0,24.505136489868164,0.007951773703098297,-79.7827714190216,40.459086729671675,270.86480358457567,-0.011881203390657902,0.0010585617274045944,-0.999364972114563,0.033577557653188705,-0.02764704388515553,-0.0003294910721657064,0.026119790268935943,-0.000502066919580102,0.001171959564089775,0.004327154252678156,-0.03863905884325505,0.1761381438933313,-9.806245502829553
7.6,0.4000000059604645,273.0,24.498876571655273,-0.007951773703098297,-79.78277134246247,40.45908673583163,270.8699428162575,-0.011898844502866268,0.001058712019585073,-0.9993656277656556,0.03355036675930023,-0.03535343503423677,-0.002454836447791367,0.026685809166659347,0.010548874735832214,0.002999377204105258,0.004365491215139628,-0.03785808781860397,0.18339450197294355,-9.805235688686373
7.81,0.4000000059604645,273.0,24.50388526916504,-0.007951773703098297,-79.7827715284739,40.4590866267863,270.87772181844707,-0.011858283542096615,0.0010596733773127198,-0.9993658065795898,0.03355994820594788,-0.02742617303922796,-0.0016593411676444599,0.02531603891708005,-0.005054153501987457,-0.003456042381003499,0.0037452150136232376,-0.03942519414704293,0.18325190300121905,-9.805343277454378
7.9,0.4000000059604645,273.0,24.49386787414551,0.0,-79.78277170984595,40.45908650534079,270.8879481277466,-0.011780125088989736,0.0010936168255284429,-0.999367892742157,0.03352642059326172,-0.016657011207288245,0.001904160895917009,0.024099510958265208,0.00925986748188734,0.0033524429891258483,0.004736253991723061,-0.03618908690521494,0.1769626561179757,-9.80674251616001
8.1,0.5,274.0,24.487607955932607,-0.07951773703098297,-79.78277168625122,40.45908650509092,270.8903365454674,-0.011784135363996029,0.0011089981999248266,-0.9993681907653807,0.033512681722640984,-0.022165708906221854,0.0012109769420859038,0.02455029172464441,-0.012778107076883316,-0.002750040264800191,-0.002524258103221655,-0.04067637952510268,0.19529380509629848,-9.80359729886055
8.21,0.5,275.0,24.488859176635746,-0.07156596332788467,-79.78277180994219,40.45908639559228,270.8986931166649,-0.011767597869038582,0.0011468656593933706,-0.9993695020675659,0.03347930684685707,-0.02239010127159751,0.002364846339557596,0.02195143434385658,0.0003191063879057765,-0.0015169295947998762,0.004973717965185642,-0.0372155473404564,0.17647965783253314,-9.805342108011246
8.4,0.5,277.0,24.487607955932607,-0.13518016040325165,-79.78277194111996,40.45908630206894,270.906838508606,-0.011736382730305195,0.001158014638349414,-0.9993714690208436,0.033430900424718864,-0.02043910567089588,0.0006702194198746418,0.01917106710924258,0.010468412190675735,0.0018184946384280922,0.002343865344300866,-0.04023173075169325,0.2041612172685564,-9.804100744128226
8.5,0.5,280.0,24.48134803771973,-0.17493902146816254,-79.78277191319927,40.45908630308075,270.9087277970314,-0.011748782359063624,0.0011509761679917574,-0.9993717670440674,0.033418864011764526,-0.02561947982034904,9.695017562802802e-05,0.01966414080421645,-0.008638698607683182,-0.0024635577574372287,0.0011949313338845964,-0.039506666874513034,0.1826910453848541,-9.804929879307748
8.7,0.5,281.0,24.487607955932607,-0.15903547406196594,-79.78277188069819,40.459086305032976,270.9106436095238,-0.01173083670437336,0.001137432176619768,-0.9993726015090942,0.033399246633052826,-0.029388113186405117,-0.0007894823078888138,0.02000135023576473,-0.00027116862474940717,-0.000731334206648171,-0.004964863415807486,-0.040819755080156034,0.2034262222610414,-9.804159216284752
8.8,0.5,285.0,24.487607955932607,-0.18289080262184146,-79.78277209096912,40.45908621098321,270.9152261338234,-0.011682757176458836,0.0011360638309270144,-0.9993743300437928,0.0333658829331398,-0.01921236050204607,-0.00195189323869947,0.013969437880989395,-0.009794160723686218,-0.003565664868801832,-0.0035851520951837297,-0.04124771188013256,0.19516010485589505,-9.804635179638863
9.0,0.5,286.0,24.48510360717773,-0.15903547406196594,-79.78277228723614,40.45908611141478,270.9192483148575,-0.011642273515462877,0.0011419905349612234,-0.999375343322754,0.03334803879261017,-0.01003719714456054,-0.0016390242794773106,0.0093624618631096,0.0078122527338564405,0.00275671249255538,-0.0004231626226101071,-0.04104150159750133,0.19477192282676692,-9.803741725087166
9.1,0.5,287.0,24.487607955932607,-0.16698725521564484,-79.78277225383701,40.4590861173599,270.921121152401,-0.011633153073489666,0.0011470934841781855,-0.9993765950202942,0.03331456705927849,-0.018488340690791014,-0.003124280824259585,0.0100907850531645,-0.005958360619843006,-0.0032108661253005266,-0.003497888334095478,-0.04048078102525324,0.20470329070463772,-9.803938776254654
9.3,0.5,287.0,24.492616653442386,-0.18289080262184146,-79.78277242666391,40.459086010153385,270.92539265966417,-0.011588433757424356,0.0011758166365325447,-0.9993779063224792,0.033289313316345215,-0.012028952615556006,0.0001554655665162619,0.007583781653841936,0.01058888342231512,0.002290328033268452,0.004708864726126194,-0.03612055114237592,0.1820933137647808,-9.805402919054034
9.4,0.5,290.0,24.49637222290039,-0.14313192665576935,-79.78277256670727,40.459085920869455,270.92829874372484,-0.01156358513981104,0.001190344919450581,-0.9993796944618224,0.033243533223867416,-0.013674670613049776,-0.00047796945283956036,0.002331779393997552,0.001152404583990574,-0.0011586525943130257,-0.003336551133543253,-0.04112872104160488,0.20305530779063705,-9.803797858357429
9.6,0.5,291.0,24.48510360717773,-0.14313192665576935,-79.78277254867673,40.45908592252457,270.9285139164925,-0.011567712761461737,0.001186847104690969,-0.9993798136711121,0.03323933482170105,-0.016402790015448268,-0.0012599509345449715,0.0026669918584593198,0.007862238213419914,0.003124173497781157,0.004894821438938379,-0.03605913025327027,0.17582464177161455,-9.806971727013588
9.71,0.5,289.0,24.48510360717773,-0.17493902146816254,-79.78277274844895,40.45908579385001,270.9330104908944,-0.011522102169692516,0.0011956951348111033,-0.9993807673454284,0.033225882798433304,-0.007675683212607419,0.00555858883656281,0.002197566815483784,0.00578746385872364,0.0017137420363724232,-0.003420855384320021,-0.0394966078363359,0.1924464486166835,-9.804114777445793
9.9,0.5,289.0,24.48009490966797,-0.18289080262184146,-79.78277273624121,40.45908578969958,270.93322697496416,-0.011543862521648407,0.0012055240804329517,-0.999380588531494,0.03322314843535423,-0.011622217312107034,0.00490911083173389,0.0025318771611213165,-0.0016387819778174162,0.00024237901379819962,0.0062853218987584105,-0.03870828439481557,0.17687823694199326,-9.805402919054034
10.01,0.5,290.0,24.487607955932607,-0.17493902146816254,-79.78277285988996,40.45908574290047,270.93477341747285,-0.01151236891746521,0.0012039801804348824,-0.9993824958801272,0.03317771852016449,-0.016884585707012692,-0.005269756624623451,-0.0013992175638243855,0.008155290968716145,0.0007558513316325842,0.007193183992058039,-0.03709011771250517,0.18015498004853725,-9.80556196331978
10.2,0.5,290.0,24.491363525390625,-0.15903547406196594,-79.78277283745756,40.45908574902956,270.9346183857918,-0.01153100561350584,0.0012106281938031314,-0.999382257461548,0.033178888261318214,-0.02180560231556229,-0.005789887126388029,-0.000896799494653666,-0.011492431163787842,-0.004352668300271034,0.0010675430530682206,-0.04120520536322147,0.188597080372274,-9.804396028518678
10.3,0.5,289.0,24.487607955932607,-0.15903547406196594,-79.78277300570129,40.459085665783725,270.9368139228821,-0.011518123559653759,0.00121332798153162,-0.9993833899497986,0.03314831107854843,-0.017310865576717273,-0.005730368049161197,-0.0023407437201722553,0.006122634280472994,-6.422816659323871e-05,0.0033184692729264498,-0.036892646276392035,0.1760749026015401,-9.806112186312676
10.5,0.5,289.0,24.492616653442386,-0.15108370780944824,-79.78277320584455,40.459085559477394,270.93880543327333,-0.011450478807091713,0.001227691420353949,-0.9993839859962464,0.033151842653751366,-0.008712706419637239,-0.0008682626654978548,-0.004350839190294736,-0.009345686994493008,0.00030573044205084443,-0.004457754548639059,-0.0404047854943201,0.20223889030516148,-9.803264592289926
10.6,0.5,288.0,24.48134803771973,-0.16698725521564484,-79.78277318017679,40.45908556380079,270.9379247746468,-0.01147609017789364,0.0012418474070727825,-0.9993835687637328,0.03315618634223938,-0.014669637596208669,-0.0022612579450735203,-0.003841399254276743,-0.004684599582105875,-0.0010668894974514842,0.0014834541361778975,-0.0401063947705552,0.1816007772088051,-9.805728024244306
10.8,0.5,287.0,24.48385238647461,-0.18289080262184146,-79.78277334682534,40.459085474665926,270.93962124204637,-0.011442728340625765,0.0012519623851403596,-0.9993844628334044,0.033140238374471664,-0.013036739542600229,-0.0015397759586112205,-0.005246350829968964,-0.004398498684167862,0.0022095625754445787,-0.003841793164610863,-0.041003965213894836,0.2042165282741189,-9.804271482825277
10.9,0.4000000059604645,286.0,24.48134803771973,-0.15108370780944824,-79.78277353254515,40.459085384240154,270.9427829704285,-0.011407746002078056,0.0012640694621950386,-0.9993850588798524,0.033133652061223984,-0.009087042178919823,-0.0012020180767031113,-0.002539157683286741,-0.010331637226045132,-0.003608845407143235,-0.00045735237654298544,-0.040131798181682825,0.1940010222606361,-9.80418435931206
11.1,0.4000000059604645,284.0,24.488859176635746,-0.15108370780944824,-79.78277352108861,40.45908538630041,270.9425112328529,-0.011396462097764015,0.0012815255904570222,-0.9993855357170104,0.03312315791845322,-0.011182717508990792,-0.002010346828113107,-0.0023791432333522553,0.0041602253913879395,-0.0007912811706773938,-0.0017323298379778864,-0.039970040442422035,0.19526811389252546,-9.80466850876808
11.21,0.4000000059604645,285.0,24.49762344360352,-0.12722837924957275,-79.78277369561191,40.459085301506,270.94401428318025,-0.011367571540176868,0.0012742386898025868,-0.999385952949524,0.03312008455395698,-0.009981705476012737,-0.0021042980280882475,-0.003404156866079859,-0.007154725026339293,-0.0023594212252646685,-0.0033153127878904343,-0.040498098833486436,0.20319712104275825,-9.804061567783355
11.4,0.4000000059604645,287.0,24.48385238647461,-0.15903547406196594,-79.78277368324322,40.45908530438026,270.9436549267769,-0.011366880498826505,0.0012903279857710006,-0.9993869662284852,0.033089470118284225,-0.011474720431959635,-0.002876788433054517,-0.003292262182612335,0.012242929078638557,0.0016974245663732288,0.0015987305669113994,-0.03784555741818622,0.18362647198140625,-9.805061441659927
11.5,0.4000000059604645,286.0,24.49386787414551,-0.15108370780944824,-79.78277383927288,40.45908522077547,270.9466743192673,-0.011344573460519314,0.0013068632688373327,-0.999387502670288,0.033081475645303726,-0.013315486782165143,-0.002044047577363334,-0.0012985586973974785,0.00041594100184738636,0.002487399149686098,-0.006368665024638176,-0.04034724980592728,0.2022145329974592,-9.804364453554154
11.7,0.4000000059604645,286.0,24.495121002197266,-0.18289080262184146,-79.7827738221594,40.459085223701,270.94652757263185,-0.011353952810168266,0.0012948514195159078,-0.9993877410888672,0.033071327954530716,-0.01560031860946554,-0.002618184913002614,-0.0010517139727985003,0.00663609104231,-0.00026678777066990733,0.004098195116966964,-0.036297756037674836,0.1752733406983316,-9.806734914779664
11.8,0.4000000059604645,283.0,24.50263214111328,-0.12722837924957275,-79.78277397889882,40.45908509268793,270.951900990963,-0.01132318936288357,0.0013312416849657893,-0.9993895292282104,0.03302574157714844,-0.014802228224833503,0.005012285111609733,0.003790508892880307,0.008599583059549332,0.0017966339364647863,-0.0005299088079482316,-0.03974295834079385,0.19142362441867591,-9.805486534237863
12.01,0.4000000059604645,283.0,24.4901123046875,-0.16698725521564484,-79.78277420994371,40.45908501040982,270.95402309513094,-0.011286013759672642,0.001320936600677669,-0.9993907809257508,0.03300114721059798,-0.003918628443615868,0.003062486831837643,0.00288960057112173,-0.002195722656324506,-0.001433203462511301,0.003872355446219444,-0.03791072646388784,0.17806931477040053,-9.807143635153775
12.1,0.4000000059604645,282.0,24.48635482788086,-0.16698725521564484,-79.78277419316333,40.45908500666466,270.95462492322923,-0.011295046657323836,0.001342379255220294,-0.9993916153907776,0.03297078236937523,-0.009001103515987591,0.002033774894014776,0.003466186073010265,0.00797233637422323,0.002146848477423191,0.003940509632229805,-0.0411254685278982,0.20523482087999584,-9.803960410952568
12.31,0.4000000059604645,283.0,24.488859176635746,-0.18289080262184146,-79.7827743541711,40.45908492522311,270.9569813332558,-0.011272719129920006,0.0013378261355683208,-0.9993923902511596,0.032955974340438836,-0.01016208086791065,0.0017529377701800569,0.003172052494935437,-0.007940257899463177,-0.00550403818488121,-0.0006344059947878122,-0.04061634506564588,0.18948402989655733,-9.80484100162983
12.41,0.4000000059604645,283.0,24.495121002197266,-0.15903547406196594,-79.78277450939403,40.45908481334007,270.9613321146965,-0.01125691458582878,0.0013546657282859087,-0.9993926882743835,0.03295153379440308,-0.009244051536499456,0.007473218538965978,0.0060591800667256935,0.004295888356864452,-1.040181700773246e-06,0.006084139458835125,-0.03797146213240922,0.17488501248881222,-9.80660861492157
12.6,0.4000000059604645,282.0,24.478843688964844,-0.1908425688743592,-79.78277449562272,40.45908480750064,270.9619295320511,-0.011257943697273731,0.0013638288946822286,-0.9993935227394104,0.032926265150308616,-0.013391066119970287,0.007074585891674769,0.0064880088111652435,-0.008632458746433258,-0.00147458934225142,-0.0052982973866164676,-0.042140042670071126,0.20292431188747287,-9.803621272444726
12.7,0.4000000059604645,282.0,24.488859176635746,-0.15108370780944824,-79.78277463133449,40.45908470606365,270.9664070925713,-0.011258441023528576,0.0013902487698942425,-0.999393880367279,0.03291228041052818,-0.015884401282211937,0.008164786617242584,0.008374015585240086,-0.007126187905669212,-0.003146819770336151,-0.0006283592083491385,-0.04000002569518984,0.18322292273864152,-9.804983088970182
12.91,0.4000000059604645,282.0,24.473834991455078,-0.198794350028038,-79.78277482511876,40.45908462398026,270.9686426243782,-0.011218315921723844,0.001387199736200273,-0.9993953108787536,0.03288353234529495,-0.009014318298714168,0.005108022948349084,0.005995898093174075,0.007145705167204143,0.002924668835476041,0.004924645647406578,-0.04122996009886265,0.20230267977342006,-9.804457424283028
13.01,0.4000000059604645,280.0,24.478843688964844,-0.1908425688743592,-79.7827748115393,40.45908462015397,270.9692355117798,-0.01122061349451542,0.0013886786764487624,-0.9993960857391356,0.03286084532737732,-0.01338863863904348,0.0049000658616720726,0.006417515552692995,-0.010055906139314176,-0.004444800782948732,-0.003586999606341124,-0.04175012474879623,0.1984565640427172,-9.803113734126093
13.2,0.4000000059604645,282.0,24.488859176635746,-0.15903547406196594,-79.78277479461063,40.45908461690014,270.9698534331322,-0.011221145279705523,0.0013844218337908387,-0.9993962049484252,0.03285592794418335,-0.014748652898892812,0.004181052649824074,0.006602471027507943,0.01000464614480734,0.0052006025798618785,0.0017660236917436125,-0.03900553765241057,0.1880458706617356,-9.805225748419762
13.3,0.4000000059604645,281.0,24.4901123046875,-0.1908425688743592,-79.78277497698336,40.45908451922356,270.97409549570085,-0.011186275631189345,0.0013951691798865795,-0.9993976950645448,0.032821878790855415,-0.012140705418791652,0.005702203311139126,0.008555858296639608,-0.004066222347319126,-0.0025338425766676664,-0.0026765014044940467,-0.040211987262591724,0.20438693806529049,-9.804504786729813
13.5,0.4000000059604645,282.0,24.491363525390625,-0.17493902146816254,-79.78277517254766,40.45908441037025,270.9756903371811,-0.011162013746798037,0.0013978970237076285,-0.9993975758552552,0.03283237665891646,-0.004491438743794221,0.010680397431962023,0.005844576939603954,0.008003180846571922,0.0033006577286869287,0.0077823279425501815,-0.036636773489881314,0.17699465135112405,-9.806277077794077
13.61,0.4000000059604645,281.0,24.47633934020996,-0.22264966368675232,-79.7827751519325,40.45908439253688,270.97688594675066,-0.011180163361132143,0.0013751357328146696,-0.9993982315063475,0.032807432115077965,-0.010365271401340291,0.009986923463748156,0.006450860683842086,0.0036280255299061532,-0.00028367366758175194,-0.0008244842174462974,-0.03976438290439546,0.19508246479555968,-9.804381995201114
13.8,0.4000000059604645,282.0,24.487607955932607,-0.1908425688743592,-79.78277532740587,40.45908431987365,270.9784856758118,-0.011188404634594916,0.0013739482965320349,-0.9993977546691896,0.032819457352161414,-0.008704234292411192,0.006859953304443872,0.004872082587607423,0.0035143978893756858,-0.0014333020662888885,0.004724903032183647,-0.03868453464936465,0.17615910250693562,-9.805269602537157
13.91,0.4000000059604645,282.0,24.48635482788086,-0.18289080262184146,-79.78277547250744,40.45908420101148,270.9806191644669,-0.011172192171216013,0.0013960638316348195,-0.9993992447853088,0.032779108732938766,-0.01117753818767376,0.011798811989697428,0.003857132778561993,0.011992362327873709,0.003700790693983436,0.004118443001061678,-0.036893272111192345,0.18136975737288602,-9.805488873124123
14.1,0.4000000059604645,282.0,24.48385238647461,-0.16698725521564484,-79.78277545569614,40.45908419121449,270.98100409126283,-0.01119713205844164,0.0013930589193478227,-0.9993990063667296,0.03277857974171638,-0.01536622561756656,0.011747950183859204,0.004497888318540753,-0.009994414635002613,0.0015912491362541914,0.001789937959983945,-0.03964577122125775,0.18563502710312607,-9.80624199450016
14.2,0.4000000059604645,282.0,24.491363525390625,-0.14313192665576935,-79.78277565325617,40.4590841108356,270.98492512321474,-0.011173831298947334,0.0014076574007049205,-0.9993999600410458,0.0327555313706398,-0.006764872409462415,0.007251198830522656,0.006856047023650368,0.005373259074985981,0.002963038394227624,0.007501554675400256,-0.03741869011893869,0.17588283983990552,-9.806446062326431
14.4,0.4000000059604645,282.0,24.4901123046875,-0.12722837924957275,-79.7827756423288,40.45908410489281,270.9856111726761,-0.011162064969539642,0.0014088557800278068,-0.9994003772735596,0.032748449593782425,-0.010823119352911623,0.007161723345374236,0.007361739220318439,-0.00879480317234993,-0.0012317188084125519,-0.0025348609779030085,-0.04009969788137824,0.2011435058154166,-9.804567351937292
14.5,0.4000000059604645,282.0,24.491363525390625,-0.15903547406196594,-79.78277577477637,40.45908400652488,270.9915941081047,-0.011168300174176693,0.001417991821654141,-0.999401032924652,0.032724708318710334,-0.014271622754004974,0.008162255490226755,0.011612547573671844,-0.0028950648847967386,-0.001758362865075469,0.003236187854781747,-0.03899987773038447,0.17876107692718507,-9.805692356228828
14.7,0.4000000059604645,282.0,24.48385238647461,-0.15903547406196594,-79.78277575574376,40.45908400027223,270.99273112630846,-0.011169773526489736,0.0014021394308656454,-0.9994009137153624,0.032728102058172226,-0.017150508308804747,0.007809730328426316,0.011924067578782248,-0.004618423525243998,-0.001102857175283134,-0.005520780570805073,-0.04096389808226377,0.2057958246767521,-9.80403642475605
14.8,0.4000000059604645,281.0,24.45630645751953,0.556624174118042,-79.78277595899868,40.45908389952647,270.99699196434017,-0.011166181415319444,0.0014171686489135027,-0.9994025230407716,0.032679636031389236,-0.011594683873935622,0.008402118246934287,0.012122845552700209,-0.008606468327343464,-0.00026198747218586504,-0.0006460811127908528,-0.0411348332092166,0.1914159134030342,-9.804409477114678
15.0,0.4000000059604645,282.0,24.48134803771973,0.22264966368675232,-79.78277611583226,40.4590838047609,271.00038638925554,-0.011125831864774229,0.0014098703395575285,-0.9994027614593506,0.03268594667315483,-0.011295514084343629,0.009363766521154738,0.01189740238267759,0.005309413652867079,0.002877046354115009,3.0150340535328723e-05,-0.04204040702898056,0.19534641176462167,-9.802495098710061
15.1,0.4000000059604645,282.0,24.4901123046875,0.22264966368675232,-79.78277608054772,40.459083789782355,271.0027786216736,-0.011150714941322805,0.001405448652803898,-0.9994041323661804,0.03263773396611214,-0.017360879894130116,0.008948430517622934,0.01272893551138874,-0.007720084395259619,-0.00011776626342907549,-0.0014182080049067734,-0.04125344946049154,0.20181197047233584,-9.79984046280384
15.3,0.4000000059604645,282.0,24.491363525390625,0.20674611628055573,-79.78277628860647,40.459083682472894,271.00469705677034,-0.01109753269702196,0.001423090579919517,-0.9994043707847596,0.032646626234054565,-0.00781709540818142,0.011878535913997665,0.009412805508971252,0.008245055563747883,0.0014001646777614953,0.003508470254018903,-0.03525376309175045,0.1890366082638502,-9.805905194878578
15.41,0.4000000059604645,281.0,24.488859176635746,0.2306014448404312,-79.78277646906919,40.459083579690244,271.0113364777565,-0.011043146252632141,0.0014171856455504894,-0.999406397342682,0.03260290250182152,-0.005081791716350915,0.01103144910307251,0.013718077755579604,-0.0005926415324211121,0.0007688624900765718,0.00172882410697639,-0.04378176266793162,0.20884333865717056,-9.801456048488618
15.6,0.30000001192092896,282.0,24.48385238647461,0.2703603208065033,-79.78277646045096,40.45908356998585,271.012702914238,-0.011053725145757198,0.0014197720447555187,-0.9994058609008788,0.032616045325994485,-0.006662018967071924,0.010839531781965452,0.013959493298904856,0.00473410077393055,0.0016653080238029359,0.0050555700436234466,-0.03981270009186119,0.17388385953381658,-9.805790589451787
15.7,0.30000001192092896,282.0,24.478843688964844,0.326022744178772,-79.78277658291142,40.459083446425325,271.0195553622246,-0.011067560873925686,0.0014089922187849881,-0.9994060397148132,0.032606203109025955,-0.013546996599555595,0.014472784717847643,0.016726360902706575,0.010405640117824078,0.0021803046111017466,0.0034096860326826572,-0.03656119594350457,0.1950554579682648,-9.803399078249932
15.9,0.30000001192092896,282.0,24.386192321777344,14.989093780517578,-79.78277656332294,40.459083434388816,271.0212074837685,-0.01107802428305149,0.00139896001201123,-0.9994059205055236,0.03260665014386177,-0.016462936336066058,0.01431023881241071,0.01711620132984308,-0.0019558519124984733,0.0005055766669102013,-0.00021034869132563472,-0.03911370200570674,0.18083020554855467,-9.804252771735193
16.0,0.30000001192092896,280.0,24.26599502563477,3.482877016067505,-79.78277677513495,40.45908332157524,271.0264146051407,-0.010864981450140476,0.0015727793797850607,-0.9994147419929504,0.03239957615733147,-0.006918581047223957,0.012967048797823058,0.015299930972158381,0.034234922379255295,0.01084615383297205,-0.004894512705504893,-0.03091955103445798,0.15555793650448324,-9.809732197523116
16.2,0.30000001192092896,281.0,24.48134803771973,0.17493902146816254,-79.78277676101648,40.45908331133201,271.0279286823273,-0.01088522095233202,0.00156846409663558,-0.9994140863418579,0.032412387430667884,-0.015392677516091384,0.01264466176047364,0.016316174262583926,-0.03659836947917938,0.005581458564847708,0.006911189761012793,-0.04953748309984803,0.2259575724229217,-9.796946091055867
16.31,0.4000000059604645,282.0,24.46757507324219,11.355133056640625,-79.78277696742806,40.45908320366381,271.0328439793587,-0.010920396074652672,0.0015001908177509904,-0.9994142651557922,0.03240069001913072,-0.0064869156345750715,0.011016275603420313,0.01604577045091049,-0.010276238434016705,-0.008088604547083378,0.012251016683876514,-0.04412942075170577,0.20904101109132173,-9.810230380296707
16.5,0.4000000059604645,283.0,24.465070724487305,0.4771064221858978,-79.78277711122746,40.45908311799783,271.0373840055466,-0.010820939205586909,0.001586826518177986,-0.9994192123413086,0.03227626532316208,-0.01192093101250215,0.008691201868030837,0.01409590172646626,0.02295714430510997,0.008463926613330841,-0.002480818191543221,-0.04635902803391218,0.1726307281292975,-9.797800369262696
16.61,0.4000000059604645,285.0,24.48134803771973,0.17493902146816254,-79.78277707620154,40.45908310482071,271.04018733119966,-0.010889284312725069,0.001531186862848699,-0.999418079853058,0.032290611416101456,-0.016967267370941067,0.008482412855764995,0.014938873160205403,-0.0036466389428824186,0.002755619585514069,-0.00907667726278305,-0.038800236429087816,0.20418995998799802,-9.79483758509159
16.8,0.4000000059604645,284.0,24.45129776000977,1.0973447561264038,-79.78277725292367,40.459082992183035,271.04814675664903,-0.010922524146735668,0.001510492293164134,-0.9994152784347534,0.03236731514334678,-0.01266923030403956,0.009372687989990977,0.01763538284128564,0.0012365824077278376,0.0063780141063034534,-0.009082255885004996,-0.035923659859690815,0.1767033869214356,-9.801765366196632
16.9,0.4000000059604645,287.0,24.328598022460927,3.4431180953979488,-79.78277750022961,40.459082889506114,271.0529828987122,-0.010867839679121971,0.0015071544330567126,-0.9994174242019652,0.03231913596391678,-0.00022171837491682475,0.008452981472993285,0.01573211043657611,0.010889419354498386,0.007984074763953686,0.007922612130641937,-0.04741775779053569,0.18859962025657293,-9.79957499921322
17.1,0.4000000059604645,288.0,24.209651947021484,5.470820426940918,-79.78277749606876,40.45908288095519,271.0545657000542,-0.010851430706679821,0.0015312383184209464,-0.9994189143180848,0.032276347279548645,-0.006131978386165066,0.007900911630857668,0.016079576225281857,-0.012003893032670021,0.014087039045989512,0.016872406005859375,-0.03235374055802822,0.17302802816033366,-9.811386959552763
17.22,0.5,291.0,24.130773544311523,6.902139663696289,-79.78277765993171,40.45908275712522,271.06095162248613,-0.010722034610807896,0.0016500592464581132,-0.9994253516197203,0.03211398795247078,-0.0048956476833359385,0.012564811326735191,0.01564905225684591,-0.003454246325418353,-0.006390316411852837,0.0043180533684790134,-0.047990136248990886,0.205647195763886,-9.794411323070527
17.4,0.5,292.0,24.03561782836914,9.478514671325684,-79.78277765046951,40.45908274606632,271.0625000319481,-0.010648122057318687,0.0017276552971452475,-0.999428689479828,0.0320310965180397,-0.011737945833578949,0.011818287471295515,0.014673294633598575,-0.0030309129506349572,-0.03491710498929024,0.014617138542234898,-0.03547342197038233,0.20147034689784046,-9.809218227267266
17.5,0.5,292.0,23.950477600097656,11.068869590759276,-79.78277780616399,40.45908263539537,271.0688197336197,-0.010404765605926514,0.001955860527232289,-0.9994370341300964,0.031839169561862946,-0.016841802998341582,0.011718972426168988,0.017887991254229938,-0.05632689967751502,0.03506443277001381,0.04417652264237404,-0.14942991745658218,0.32995940253138545,-9.7787343531847
17.7,0.5,292.0,23.79772758483887,13.995121955871582,-79.78277779393584,40.45908262597521,271.0704136810303,-0.01011263020336628,0.001873742323368788,-0.999440610408783,0.03182366490364075,-0.009806591551992077,0.010229246760022131,0.013751343701174307,0.06495983898639679,0.01345162931829691,-0.10512936115264893,0.005167824011296034,0.20645341716706755,-9.79390904724598
17.8,0.6000000238418579,290.0,23.70507621765137,15.90354824066162,-79.78277804346807,40.459082535457924,271.07597986078264,-0.00846796203404665,0.0017440227093175056,-0.9994613528251648,0.031659096479415894,-0.007008697541353678,0.004192387447550332,0.02258220414769749,0.004512305837124586,0.0149128632619977,0.002707389183342457,-0.05076910771429539,0.16166886158287527,-9.850521204471589
18.0,0.6000000238418579,290.0,23.51601600646973,19.27510070800781,-79.7827782538205,40.459082455591314,271.07793525075914,-0.007121296599507331,0.0008213749388232827,-0.999472975730896,0.03166282922029495,0.004188798965050096,-0.0036845236611535406,0.021300867272010682,0.02030002884566784,-0.0020081468392163515,-0.02434972301125526,-0.12938918880186975,0.20634283170104029,-9.814690636396408
18.1,0.6000000238418579,291.0,23.420860290527344,20.984731674194336,-79.78277824501535,40.45908246161292,271.08338049268724,-0.006020684260874987,-0.0013946318067610266,-0.9994863271713256,0.031449440866708755,-0.01603332600289216,0.002160053363000685,0.0277766181486803,-0.0561014860868454,-0.032930057495832436,-0.024922152981162068,0.018633315267506983,0.030754412873648107,-9.775026633739472
18.3,0.6000000238418579,291.0,23.221784591674805,25.21507453918457,-79.78277843707724,40.45908239194478,271.0850937685966,-0.008072211407124994,-0.0008010956807993352,-0.99947327375412,0.03142538294196129,-0.017782566730546845,0.011020960390145622,0.02323577611218235,0.02033202536404133,-0.024093374609947205,0.05264803767204285,0.10435015970841052,-0.11341286888346075,-9.870930325984958
18.4,0.6000000238418579,295.0,23.1103515625,26.94856262207031,-79.78277862635215,40.45908230314635,271.0884196481705,-0.019268408417701718,0.003339225426316261,-0.999286651611328,0.032310068607330315,-0.06260879743251932,0.044231470078041735,0.1248135617350164,-0.061779748648405075,-0.16211572289466858,0.007294816896319389,0.1864518283121288,-0.1995346261560917,-10.515150818824768
18.6,0.699999988079071,295.0,23.328208923339844,22.082077026367188,-79.78277851473473,40.45908225868394,271.1077925286293,-0.02356598526239395,0.0061688655987381935,-0.9990944862365724,0.03488205745816232,-0.09978607915348668,0.06589826998053623,0.2769492575537548,-0.05371195077896118,-0.06179581955075264,-0.17714671790599826,0.08133400227874517,0.4280326310545206,-11.025533223152161
18.71,0.699999988079071,295.0,23.380794525146484,20.56328773498535,-79.78277821583748,40.45908211087719,271.16208431339265,-0.009032679721713066,0.005136069376021625,-0.999222457408905,0.03803496807813645,-0.13905908710216894,0.09549863689217038,0.3085208403745864,0.14185366034507751,0.06607283651828766,-0.07854185253381729,0.008397798528894782,0.05114482786506415,-9.90304791212082
18.9,0.8000000119209291,294.0,23.41209602355957,20.022565841674805,-79.78277785318124,40.45908179504054,271.1952314696312,0.0038958170916885133,-0.0043824217282235605,-0.999307096004486,0.03675699979066849,-0.16398046354600426,0.10774683275003108,0.13662563346602766,0.09395556151866913,0.07116765528917313,0.03481248766183853,0.12881737679243088,-0.20982989184558395,-9.634521549940107
19.01,0.8000000119209291,290.0,23.26310157775879,22.81363868713379,-79.7827776501814,40.459081710503504,271.20551178073885,0.0073138782754540435,-0.008983586914837359,-0.9993093013763428,0.035308778285980225,-0.15741213291818326,0.10382999912148083,0.0738491047544514,0.10729840397834778,0.16104111075401306,0.06518718600273132,0.0726165666198358,-0.07752979463897645,-9.20097623705864
19.2,0.8000000119209291,294.0,23.13664436340332,26.10567283630371,-79.78277744901568,40.459081628044316,271.2106685957909,0.009154036641120907,-0.012362534180283543,-0.9993178844451904,0.033572904765605927,-0.15926366582058124,0.09627423449012253,0.024444682408882548,0.04698248580098152,0.09129396826028824,0.05329006165266037,0.05600290933158249,-0.12860072831623254,-9.279804890155793
19.3,0.8000000119209291,293.0,23.26435470581055,22.400146484375,-79.78277740585641,40.45908134162836,271.23353752708437,0.005138160195201635,-0.00951683521270752,-0.9994488954544068,0.031386006623506546,-0.13946042949684914,0.09361912308176333,0.02070920975871528,-0.07442577928304672,0.04811854660511017,0.05773146823048592,0.18080400271341204,-0.1966919474489987,-9.657450236678123
19.5,0.8000000119209291,293.0,23.015195846557607,26.28061294555664,-79.78277711292738,40.459081040426575,271.2660350522995,0.0006504648481495677,-0.0073349811136722565,-0.9994881749153136,0.03113346174359322,-0.15763487916464672,0.09693478081902678,0.031886097244310005,-0.12253232300281525,-0.08463970571756363,-0.024456333369016647,0.11732624586671593,-0.011509476564824579,-9.708387086391447
19.6,0.8999999761581421,289.0,23.08656311035156,25.18326759338379,-79.78277675151284,40.45908087786192,271.279969783783,0.0011264460626989605,-0.0043592629954218864,-0.9995057582855223,0.03111413307487965,-0.15464614988266276,0.10726981955075998,0.11566694187439412,-0.04120200127363205,-0.0430593304336071,0.012507920153439043,0.1266724353656173,-0.12805585004389286,-10.217750905752183
19.8,0.8999999761581421,289.0,23.172954559326172,22.662555694580078,-79.78277670256239,40.45908061556726,271.29675755119325,0.002423128811642528,-0.00467356713488698,-0.9994862079620358,0.031617555767297745,-0.18001662449108274,0.12389642030855635,0.1542594499800438,-0.04418032988905907,-0.08002504706382751,-0.12167850881814955,0.1291969889961183,0.1692786107584834,-10.041850286722184
19.9,0.8999999761581421,286.0,23.152921676635746,24.34037971496582,-79.78277656199901,40.45908022207725,271.3241749725342,0.006699357181787491,-0.006033979821950197,-0.9994428753852844,0.03213724121451378,-0.14528182073885934,0.13792882318734434,0.14955277269281556,0.0324387289583683,0.018715094774961468,-0.06729204207658768,0.11649364803917707,-0.0057363075617468,-9.80947258114815
20.11,0.8999999761581421,285.0,23.020204544067386,26.46350288391113,-79.78277638317013,40.45908010804586,271.3387440166473,0.008193143643438816,-0.008822978474199772,-0.999396562576294,0.03258398175239563,-0.1265550166333132,0.14083153806610998,0.13468170879817906,0.17792567610740662,0.04413863271474838,0.035451233386993415,0.24607075173407794,-0.2792192019894719,-9.767430515885351
20.2,0.8999999761581421,282.0,23.099082946777344,24.61869239807129,-79.78277633684014,40.4590798918352,271.36877808189394,0.012727109715342522,-0.015375516377389431,-0.9992531538009644,0.03308907896280289,-0.09772142824879886,0.10977068908499688,0.15285999653010288,0.20485976338386536,0.10776077210903168,0.07851719856262207,0.28502281934022905,-0.2204803393408656,-9.9154767537117
20.4,0.8999999761581421,281.0,23.09031867980957,25.85121726989746,-79.78277621073815,40.4590798067335,271.38494155025484,0.014233618043363094,-0.017064949497580528,-0.9992018938064576,0.03319498151540756,-0.11603773156253518,0.10641162514495707,0.14398730170831348,-0.20339453220367432,-0.08215541392564774,-0.11369550973176955,0.2389298761636019,0.19063810581341387,-9.589320234060288
20.51,0.8999999761581421,277.0,22.87872314453125,29.83505630493164,-79.78277620521895,40.45907961650942,271.4021057806015,0.013936618342995644,-0.017135044559836388,-0.9992061853408812,0.03315622732043266,-0.09430278802379788,0.0947945787454767,0.016965403841797653,-0.056327622383832925,-0.09375131875276567,-0.001992036821320653,0.2834581044316292,-0.228804216273129,-9.390263471603395
20.71,0.8999999761581421,275.0,22.728477478027344,31.95022773742676,-79.78277598433195,40.45907948351051,271.4023139200211,-0.0004952166345901787,-0.012631935067474842,-0.9993408918380736,0.0340307243168354,-0.10061901063033556,0.07445909661080458,0.03560855897361949,-0.3033411204814911,-0.05012472346425057,-0.17810018360614774,0.2138421781361103,0.3344081103801728,-10.077128877639769
20.8,0.8999999761581421,269.0,22.59575843811035,34.431182861328125,-79.78277571836298,40.459079107938905,271.4659542760849,-0.001707745948806405,-0.009482541121542456,-0.9993401765823364,0.03502121940255165,-0.07960708867575225,0.08691094611751853,0.3394794991758187,0.03125225752592087,-0.035626012831926346,-0.030217876657843583,0.17908587148413066,0.1559352463670075,-11.246270291805267
21.0,1.0,266.0,22.603271484375,34.39937210083008,-79.78277567965758,40.45907899871079,271.4909891805649,0.004845782183110714,-0.009427242912352085,-0.9993246793746948,0.03518308326601982,-0.05398799646460723,0.07715028654681008,0.4902544617788394,0.2006598860025406,0.030760213732719418,-0.018591566011309624,0.2064151544496417,0.05795229793991893,-11.670616765022281
21.2,1.100000023841858,262.0,22.251445770263672,42.017173767089844,-79.78277552647606,40.459078883901356,271.62770173168184,0.009742985479533672,-0.009088095277547836,-0.99930602312088,0.034786783158779144,-0.05531882375114136,0.08254934946812675,0.8818674893867193,0.07792486995458603,0.06209594011306763,0.06119721755385399,0.24685990657657386,-0.13869681408628826,-11.820308994054795
21.3,1.2000000476837158,261.0,22.369138717651367,37.21430206298828,-79.78277566745193,40.4590787686566,271.72193667507173,0.00810926128178835,-0.00916231982409954,-0.9993287324905396,0.03453173488378525,-0.051097208273144505,0.08844861874328161,1.0944485631451086,-0.007767405826598406,-0.017861787229776382,0.00764911249279976,0.2724828806519509,-0.07982461664825677,-12.080919395685196
21.4,1.2999999523162842,263.0,22.260210037231445,40.97549057006836,-79.78277580590644,40.4590785914489,271.9915209732056,0.0031358180567622185,-0.00967540591955185,-0.9993767738342284,0.03380275517702104,-0.03136006902847364,0.10454180085588112,1.5871645790730324,-0.06568416953086853,-0.1037367433309555,0.05702250823378562,0.3059788930602372,-0.1187411532830447,-12.26180535078049
21.6,1.399999976158142,259.0,22.362876892089844,36.93598937988281,-79.7827757872835,40.45907853612685,272.1638394317627,0.001996799372136593,-0.008929366245865822,-0.999405026435852,0.033255744725465775,-0.022596879072544814,0.11304872139171053,1.8471060270158337,-0.008030637167394161,-0.11854279786348346,-0.00718736695125699,0.4259368427842856,-0.002495865728706121,-12.324124975204468
21.7,1.600000023841858,258.0,22.22515296936035,40.71308135986328,-79.78277598162434,40.459078342900355,272.56983551597597,-0.0011135831009596586,-0.004748716950416565,-0.9994672536849976,0.032270900905132294,-0.020558846614471514,0.12276770997288625,2.3078709881137223,-0.05142141878604889,-0.15954050421714785,0.07048659026622772,0.368273648545146,-0.005405471072299406,-12.129051336050036
21.9,1.7000000476837158,258.0,22.336584091186523,37.62779235839844,-79.78277594909447,40.459078275180566,272.8135271987915,-0.003103043185546994,-0.0043821283616125575,-0.9994702339172364,0.03210170939564705,-0.017137298379140197,0.12344894389709835,2.5503418802404907,0.002108982298523188,-0.12064310908317565,0.04323318973183632,0.3358172528073192,0.00519824780523777,-12.141017078161239
22.0,1.8999999761581416,255.0,22.461790084838867,32.952152252197266,-79.78277620571647,40.45907807582041,273.0579234085083,-0.00407405523583293,-0.005110150668770075,-0.9994606375694276,0.03218467906117438,-0.005391853732379146,0.1362003887212347,2.7520487663969777,0.036570537835359566,-0.1069236472249031,0.004871916491538286,0.3814810103550553,0.13043685453012585,-12.036329698562625
22.2,2.0,257.0,22.62705993652344,29.715778350830078,-79.78277608864663,40.45907789794282,273.64359149551393,-0.006861456669867039,-0.006533749401569367,-0.9994125962257384,0.032934874296188354,-0.025562318542897186,0.15661114368647114,3.0539375264269,-0.0007679672562517228,-0.0985921323299408,-0.014472836628556253,0.3614533100277186,0.01744234136422165,-11.122360775470732
22.3,2.0999999046325684,257.0,22.86495018005371,27.15530776977539,-79.78277622348841,40.45907754697024,274.2477508506775,-0.007824473083019257,-0.010370666161179544,-0.9993435740470886,0.03381795436143875,-0.03704226984371658,0.1692310083447753,3.1146595925491365,-0.08155545592308044,0.018216507509350777,-0.06394170224666595,0.2689249047450721,0.12924997025169432,-10.034666397571565
22.51,2.0,259.0,22.534408569335927,32.554561614990234,-79.78277637793481,40.45907727950007,274.52481803512575,-0.008239625953137875,-0.012741141952574251,-0.9992961287498474,0.034307993948459625,-0.04742099616725609,0.18318788108799752,3.0594602009105234,-0.1035834401845932,0.04734215885400772,-0.103765107691288,0.23033525487408044,0.22400913398712874,-9.73451946258545
22.6,1.8999999761581416,259.0,22.693418502807607,30.43939018249512,-79.78277611988489,40.459077084573615,275.13887366867067,-0.0066517372615635395,-0.0178015548735857,-0.99921452999115,0.034775007516145706,-0.0634783943055844,0.1973581363053687,3.0941388887755084,0.009492018260061741,0.061623547226190574,-0.02115768939256668,0.13937946737743914,0.013356502354145051,-9.884797582626344
22.8,1.7999999523162842,262.0,22.791078567504893,26.932659149169922,-79.78277630804315,40.45907676378784,275.40107497787477,-0.006131469272077085,-0.01959325559437275,-0.99919331073761,0.03451424464583397,-0.06976797942417022,0.20600010238924926,3.0822026813124865,0.08212929219007492,0.12446007877588272,0.07207676768302917,0.1880881350673735,-0.15529599951580167,-10.130340878963473
22.91,1.600000023841858,271.0,22.67588996887207,30.38372802734375,-79.7827762415878,40.45907646788449,275.99602088546754,-0.007581017911434174,-0.0230731088668108,-0.9991275668144226,0.033976860344409936,-0.07242233666421632,0.19273573588763954,3.042064054344264,0.15428733825683594,0.03696794807910919,0.05041123181581497,0.1860753041692078,-0.07747330505400897,-9.676195825338363
23.1,1.5,276.0,22.74475288391113,29.914573669433594,-79.7827760761311,40.459076426137315,276.29954251861574,-0.006175018381327391,-0.021776460111141205,-0.9991780519485474,0.03363005444407463,-0.09092585452962196,0.18140764709187668,3.0204093562696515,0.04659012705087662,0.05453124269843102,-0.011923545971512794,0.1788442718423903,0.18625406451523305,-9.569839065670967
23.21,1.2999999523162842,289.0,22.71720886230469,29.88276672363281,-79.7827759027174,40.45907640083081,276.59939965820314,-0.004099918995052576,-0.018885182216763496,-0.99925035238266,0.033545464277267456,-0.09105253183572012,0.15183028747968874,2.9719469880590803,0.2191227823495865,0.013986528851091862,0.14594197273254395,0.17338441595435145,-0.1838806979544461,-9.439668350815772
23.4,1.2000000476837158,299.0,22.658361434936523,29.97818756103516,-79.78277498716444,40.4590757211417,277.3361149749756,-0.0006100742612034082,-0.015965690836310387,-0.9993122816085817,0.0334613062441349,-0.1487157081361075,0.13408766835431166,2.979739689919365,0.15302351117134094,0.02190837636590004,0.07687666267156601,0.19228590600192547,-0.21327161779627204,-9.641851034760476
23.51,1.0,320.0,22.82363319396973,26.137481689453125,-79.78277508055949,40.45907574995275,277.7627407035828,0.0031872994732111692,-0.017311662435531616,-0.999315083026886,0.03255079314112663,-0.16470066727076604,0.09520843839470312,2.8476065800755697,-0.12787111103534698,-0.043763525784015656,-0.11297564208507538,0.19983235906809568,0.17400637697428467,-9.590087973475457
23.7,0.8999999761581421,332.0,22.667125701904297,28.817228317260746,-79.78277491546818,40.45907576230971,278.04538163757326,0.0044910688884556285,-0.016965808346867558,-0.9993164539337158,0.03253689408302307,-0.16408975085311273,0.08947061767039648,2.8020854472098606,-0.14638271927833554,-0.10964452475309372,-0.10011116415262222,0.2349090748652816,0.24577614342793824,-9.412517974376676
23.8,0.8000000119209291,353.0,22.58574295043945,30.48710060119629,-79.78277444145873,40.459075530648434,278.7265807113648,0.004561401437968016,-0.01421801559627056,-0.9993633031845092,0.032406624406576164,-0.12876251690963225,0.07211730084928669,2.7833624740718097,0.18154461681842804,-0.001464329194277525,0.106199711561203,0.21642288330942394,-0.2546419110707939,-9.681256590485573
24.0,0.8000000119209291,1.0,22.67588996887207,30.741558074951172,-79.78277378452422,40.45907545619434,279.1528206787109,0.00402983371168375,-0.013578855432569979,-0.9993677735328674,0.032611522823572166,-0.1570168333276142,0.05243620042618434,2.832874973245308,0.03855786472558975,0.06990554183721542,0.08022556453943253,0.1713232176192105,-0.10218886435031893,-9.719576902985573
24.2,1.0,13.0,22.624555587768555,29.206865310668945,-79.7827734941159,40.459075533678494,279.7174902877808,0.004322504624724388,-0.014479068107903004,-0.9993207454681396,0.033613231033086784,-0.13858408673803432,0.04170391763204409,2.8192550663835343,-0.10422099381685256,-0.027255551889538758,-0.02850084751844406,0.22803256653249265,0.053553259447216985,-9.763537439703944
24.3,1.0,11.0,22.74350166320801,27.84711265563965,-79.78277315329194,40.45907556975149,280.2162524185181,0.004624610301107168,-0.01478777825832367,-0.9992976784706116,0.034119389951229095,-0.12482854126980206,0.030332195264743605,2.9192762065778437,-0.09165016561746596,-0.009090092964470388,-0.08431864529848099,0.23658901646733285,0.15774857757613064,-9.784486259222033
24.4,1.2000000476837158,19.0,22.64709281921387,30.431438446044922,-79.78277298826667,40.459075792135785,280.9126177749634,0.004708609078079462,-0.015150094404816628,-0.999275267124176,0.03460078686475754,-0.10114047501179327,0.0031115766753716106,2.9337553815021735,-0.15447308123111725,-0.03164146468043326,-0.13450244069099426,0.23714978272095324,0.36611540470272297,-9.634474187493325
24.6,1.2000000476837158,22.0,22.73974418640137,27.3620548248291,-79.78277292942325,40.45907587615135,281.2058430633545,0.005286014638841152,-0.014366064220666884,-0.9992902278900146,0.034421395510435104,-0.08016010727878027,-0.0019339987858101946,2.9414823172351268,-0.05050315335392952,-0.10968828946352004,-0.050950892269611366,0.219051700104028,0.15009969773702325,-9.803099116086964
24.71,1.2000000476837158,28.0,22.714704513549805,28.51506042480469,-79.78277289083378,40.45907596348628,281.5007925949097,0.0061826417222619065,-0.013192915357649326,-0.9993130564689636,0.03407537192106247,-0.0728771832329863,-0.007799657567844191,2.9561225066105004,-0.15622639656066895,-0.09407946467399596,-0.13652120530605316,0.20865975435823209,0.273805429469794,-9.831358709335328
24.9,1.2000000476837158,29.0,22.68340301513672,29.342044830322266,-79.7827732876713,40.459076244389095,282.19715413665773,0.005842986050993204,-0.009671480394899843,-0.9993853569030762,0.033186331391334534,-0.009835030614802023,-0.04567633267002057,2.971258015377124,-0.02112814225256443,-0.024192675948143,-0.034680649638175964,0.23354417027905586,0.10844163008965553,-9.693714083433152
25.01,1.2000000476837158,28.0,22.66963005065918,28.91264915466309,-79.78277349925563,40.45907621134078,282.8590165100098,0.002293000463396311,-0.008045846596360207,-0.9994277358055116,0.032775692641735084,0.03995234950053328,-0.04023499306459002,2.9666997357562948,0.1809689700603485,0.06630560010671616,0.17982421815395355,0.2366490052454173,-0.31538923747837544,-9.644264180660251
25.2,1.2999999523162842,24.0,22.63582420349121,28.77746963500977,-79.78277356199284,40.45907628523128,283.1549435577393,0.0010855251457542179,-0.008560665883123875,-0.9994460344314576,0.032144520431756966,0.03104993456476188,-0.033645458370164964,2.9550164914012096,-0.11461018770933153,-0.029314216226339337,-0.02086695097386837,0.16929235171526671,0.0006354827061295509,-9.655841667652133
25.3,1.399999976158142,24.0,22.64709281921387,29.723730087280273,-79.78277362177231,40.45907631917007,283.8035403213501,-0.0016930249985307455,-0.009449712932109831,-0.9994475841522216,0.03182002902030945,0.05342776480091175,-0.017313894966880333,2.9674679962041144,-0.145636186003685,-0.031503960490226746,-0.12055528163909912,0.1916087436117232,0.306461635529995,-9.748284977674484
25.51,1.399999976158142,22.0,22.76603889465332,26.76567077636719,-79.78277381794587,40.459076470541504,284.1521149597168,-0.0010716764954850078,-0.010928046889603138,-0.9994255304336548,0.032062895596027374,0.08301316157212445,-0.02626980155651797,2.992393032182194,0.0330754853785038,0.08287514746189117,0.002253984799608588,0.16361086808145048,0.22499071704223755,-9.841838089227675
25.61,1.2999999523162842,17.0,22.66462135314941,28.713855743408203,-79.78277399755336,40.45907659784636,284.7504445037842,-0.0009568146197125317,-0.010677488520741464,-0.9993659853935242,0.03395180776715278,0.09633404717780658,-0.009809999510985457,2.9788265774656324,0.2038716077804565,0.08250442147254944,0.07406038045883179,0.2191472838073969,-0.15489078747108578,-9.683955665230751
25.8,1.2000000476837158,13.0,22.448017120361328,33.11118698120117,-79.78277421277781,40.459076618940294,285.0873928985596,-0.00027145762578584254,-0.010382076725363731,-0.9993384480476379,0.034855011850595474,0.10232677372694864,-0.009646919538089112,2.9790058432306177,0.19184161722660065,0.08975618332624435,0.07910982519388199,0.26257694816216826,-0.1934716847911477,-9.726065558195117
25.9,1.2999999523162842,10.0,22.573223114013672,30.0736083984375,-79.78277443496135,40.459076681195256,285.71397027587886,-0.0015516525600105526,-0.010836591944098473,-0.9992882609367372,0.03609948605298996,0.09055733913461064,-0.0015815284315360454,3.0383791820750297,0.04392245039343834,0.04390401393175125,0.02701963670551777,0.2100893072225153,-0.09427374433726073,-10.0955230486393
26.1,1.399999976158142,7.0,22.69091415405273,26.78952598571777,-79.78277453615381,40.459076733020794,286.0190459213257,-0.002485062927007675,-0.010703014209866524,-0.9992901086807252,0.036036118865013116,0.09792050350756623,0.003164151062644234,3.0592136339444256,0.060414910316467285,0.04922419786453247,0.007030491251498461,0.21767098976299168,0.03610390713438392,-9.983987410068512
26.21,1.5,1.0,22.614540100097656,30.009994506835927,-79.78277469585733,40.45907675535521,286.6443673095703,-0.0035998711828142405,-0.011778057552874088,-0.9993136525154114,0.034935757517814636,0.10279151064729936,0.01564460729039792,3.001789736556936,0.0854247435927391,0.07536439597606659,0.12144576013088225,0.27099220611155034,-0.08239873456768693,-9.57625229179859
26.4,1.600000023841858,355.0,22.52689552307129,30.924448013305664,-79.78277478153643,40.459076794839355,286.94406327819826,-0.003031009575352073,-0.010494997724890707,-0.9993337988853456,0.03482365608215332,0.10103270258573976,0.022106899300336758,2.995780085278831,0.1313435584306717,-0.03743928670883179,0.055756621062755585,0.290464402679354,-0.20023671230301265,-9.766313112974169
26.5,1.7999999523162842,349.0,22.622053146362305,29.75553894042969,-79.7827750763354,40.459076824177,287.56820115661617,-0.0012300239177420735,-0.00817083939909935,-0.9992948770523072,0.03662656992673874,0.09932309477772908,0.01040463819766265,3.0360651074972904,0.09540455043315887,0.03315093740820885,0.02350711636245251,0.2718053710833192,-0.19019472241401672,-9.980915282964707
26.71,1.7999999523162842,347.0,22.6132869720459,28.729759216308594,-79.78277516809871,40.45907685563861,287.87342271423336,-0.0027804314158856873,-0.009319450706243515,-0.9992440342903136,0.03764127194881439,0.08859084482567017,0.012711124824873007,3.0713753284754954,0.022306948900222785,0.02647839672863484,0.07432980090379715,0.22045305842533708,-0.2537451674602926,-10.119385535717011
26.8,1.7999999523162842,348.0,22.72221565246582,26.95651435852051,-79.78277548390001,40.45907690030688,288.5028000793457,-0.0042324932292103785,-0.011302424594759941,-0.999196469783783,0.03822145611047745,0.12377093474816625,0.03602673926649118,3.0730303313976446,0.21065141260623926,0.029223149642348286,0.07280422002077103,0.2950041443668306,-0.04627893945202232,-9.744855585694314
27.0,1.7999999523162842,351.0,22.61579132080078,28.83313179016113,-79.78277563202755,40.459076993169454,289.1219311676025,-0.0032583908177912235,-0.007384204305708407,-0.9992778301239014,0.037131745368242264,0.11575769007537715,0.02911840467121086,3.0142936612750137,0.1795993447303772,-0.005790058989077807,0.15579034388065338,0.20124886533245445,-0.04127782504074276,-9.536830948591232
27.11,2.0,351.0,22.515628814697266,30.01794624328613,-79.78277572685613,40.45907701021615,289.42363748168947,-0.003507807618007064,-0.006364263594150543,-0.9993215203285216,0.03610603883862496,0.1022421661819764,0.023699911235723282,3.0208714630201365,-0.0009766602888703346,0.017782174050807953,0.07836293429136276,0.19822696946561336,-0.14158769577741626,-9.82621900677681
27.3,2.0999999046325684,352.0,22.448017120361328,31.93432426452637,-79.78277590080177,40.45907695293489,289.7465802154541,-0.0041025513783097284,-0.007281586993485689,-0.999364972114563,0.03463979810476303,0.11793930839600705,0.03830952337550597,3.0332168445624847,0.05955024063587189,0.0516655296087265,0.0943179726600647,0.2809479312971234,-0.111601584199816,-9.846333428621293
27.4,2.200000047683716,348.0,22.41546440124512,32.22058868408203,-79.7827761193283,40.45907696175668,290.37098893737794,-0.005347488448023796,-0.0077361282892525205,-0.9994237422943116,0.03261549025774002,0.11534089186817532,0.06260665715706809,3.079243952227477,0.09128640592098236,0.04449816793203354,0.10572952777147293,0.2762722053006291,-0.07980064306408167,-10.108417328596117
27.6,2.200000047683716,346.0,22.82238006591797,22.821590423583984,-79.78277619903776,40.45907694101594,290.68137368774416,-0.005165264941751957,-0.008533834479749203,-0.9994322061538696,0.03218346834182738,0.10335530860982936,0.06941359007331876,3.1215976459445085,0.045443881303071976,0.0970323085784912,0.002505362965166569,0.2299715215153993,0.08745199883356691,-10.154202196598053
27.7,2.200000047683716,343.0,22.936317443847656,20.420154571533203,-79.78277626527246,40.45907691289946,290.9936905822754,-0.004660951439291239,-0.009236780926585196,-0.9994297623634338,0.032143644988536835,0.09133530868696366,0.08257392876616587,3.1064920107767944,0.07031594216823578,0.06921721249818802,-0.0014281055191531775,0.2675893824175,0.21507400374859573,-9.687143567204476
27.9,2.200000047683716,341.0,22.92254447937012,20.674612045288086,-79.782776290163,40.45907688149421,291.59852799987794,-0.000994290690869093,-0.010344496928155422,-0.9993960857391356,0.03315882384777069,0.058619711593121376,0.08707666268024768,2.8417718562235783,-0.002335025928914547,-0.003595224348828197,-0.03265777975320816,0.16416964262723924,-0.010670615821145476,-8.487910627126695
28.0,2.299999952316284,339.0,22.86620140075684,23.354360580444336,-79.78277637380491,40.45907674185655,292.1771374664307,-0.00028090531122870743,-0.01091553084552288,-0.9993412494659424,0.03461094945669173,0.03741601912991584,0.10863690202688098,2.5587837772749285,-0.04389237985014916,-0.02719049528241157,-0.05874909833073616,0.20398956494405868,0.041096643581986426,-8.156147797107696
28.21,2.299999952316284,340.0,22.91628456115723,22.169546127319336,-79.78277641558684,40.45907668968855,292.4254418334961,-0.0005468919989652932,-0.01176401972770691,-0.9993029236793518,0.03542567044496536,0.04086122479072722,0.10799532488340853,2.4032147572594504,0.008313738740980625,0.01435414142906666,-0.042358554899692535,0.2673502495698631,0.025219095926731827,-8.22167286515236
28.31,2.299999952316284,338.0,22.76478576660156,24.809534072875977,-79.78277648127974,40.45907662501974,292.89919862365724,-0.0012957063736394048,-0.014534358866512775,-0.9992604851722716,0.035576798021793365,0.02252633032242943,0.11853489903725516,2.1177826613155064,-0.11183257400989532,-0.0003055434790439904,0.004599803127348423,0.2762449792027474,0.1079985664598644,-8.40712140262127
28.5,2.299999952316284,335.0,22.83489990234375,23.441829681396484,-79.78277652559713,40.4590766217841,293.1259709320068,-0.0019069140544161198,-0.015090754255652428,-0.9992630481719972,0.03524216264486313,0.032606882682223164,0.1179834419655097,2.0294260855669366,-0.009744560346007349,0.045028433203697205,0.03657006099820137,0.2256175385601819,0.08187338965013624,-8.650942693948746
28.6,2.299999952316284,331.0,22.86495018005371,23.61676788330078,-79.78277658394161,40.45907651150016,293.51074227905275,0.00020225958724040538,-0.01866154745221138,-0.999176561832428,0.036027923226356506,0.042728697732362535,0.11359046241368073,1.8150088282378267,0.09500517696142197,0.06816470623016357,-0.01871671341359616,0.24943220637738706,-0.08023607790470122,-8.723456354141236
28.8,2.299999952316284,331.0,22.831144332885746,24.42784881591797,-79.78277656214448,40.459076515335376,293.7266827545166,0.0014957791427150367,-0.01946524158120156,-0.9991267323493958,0.03694351390004158,0.0286327762019283,0.11522087113556673,1.7543159873276273,0.07134675979614258,-0.03530498966574669,-0.04274650663137436,0.3037543381378055,-0.03514555534115062,-8.801464642882348
28.9,2.299999952316284,333.0,22.72096443176269,25.39796638488769,-79.78277649952109,40.45907650490221,294.1237641296387,0.004023496061563492,-0.018391996622085568,-0.9990912675857544,0.03823937475681305,0.015810017106883078,0.10145036984883547,1.6421068019485463,0.034624792635440826,-0.0010941578075289726,0.035572994500398636,0.21788647793233398,-0.1002911779191345,-8.982369309067726
29.11,2.299999952316284,335.0,22.76603889465332,25.46953201293945,-79.7827765257953,40.45907647159947,294.28513917541505,0.003974124789237976,-0.016846302896738052,-0.9991254210472108,0.038065116852521896,0.019364296631578518,0.09061093506306264,1.582483529053999,-0.011707216501235962,-0.11059143394231796,0.02950238063931465,0.2788569669798017,-0.07627398630604149,-9.176231989860533
29.2,2.200000047683716,338.0,22.79608726501465,25.52519416809082,-79.78277656392659,40.459076443192075,294.44095811462404,0.003612716682255268,-0.015457869507372381,-0.9991830587387084,0.03716661036014557,0.0409117482431622,0.07809409304682075,1.5285994369123417,0.10502661019563676,0.03502114862203598,0.0600745864212513,0.2772480690479279,-0.11593454458750785,-9.224626470208168
29.4,2.200000047683716,340.0,22.730979919433594,25.437725067138672,-79.78277639220086,40.45907648194461,294.8440304718018,0.0037332084029912953,-0.012486702762544157,-0.999307096004486,0.0348639078438282,0.034218743590411334,0.0686193145479371,1.5250520674782473,0.07808677852153778,-0.008857005275785923,0.0691949725151062,0.2798366131447256,-0.07858444961719216,-9.407472996711732
29.5,2.200000047683716,345.0,22.76228141784668,23.83146667480469,-79.78277618350613,40.459076514618246,295.0857239685059,0.0049903877079486856,-0.011797698214650154,-0.9993389844894408,0.03402458503842354,0.003351489542726153,0.0755596080388447,1.5742772302835184,-0.0037266081199049954,0.07210304588079453,-0.008398164995014671,0.24156156174838544,0.12062783050350845,-9.352093432545665
29.71,2.0999999046325684,346.0,23.430877685546875,13.53391933441162,-79.78277624589832,40.459076438433605,295.3912049255371,0.0065813730470836145,-0.01103285886347294,-0.99935382604599,0.03357074037194252,0.01635162443196659,0.07969877345757227,1.4615500978152558,-0.08722474426031113,-0.010553515516221523,-0.028600212186574936,0.2846927622891963,0.06385179592296482,-9.096104085445404
29.8,2.0,350.0,22.96135711669922,22.209304809570312,-79.7827760006921,40.459076474208175,295.75350389099117,0.0047670118510723105,-0.008778250776231289,-0.9979758262634276,0.06280568242073059,-0.027743658957148497,0.0766622416581827,1.0115815822152716,-0.03782770782709122,-0.033903807401657104,-0.8227118253707886,0.16502540091052653,-0.14694184496998788,-7.2414818859100345
30.0,2.0,349.0,22.91503143310547,22.52737617492676,-79.78277607197799,40.459076481802896,295.850195022583,0.003550630528479815,-0.0075485361739993095,-0.9940377473831176,0.10871707648038864,-0.015362989546434178,0.06916376495380684,0.8504468033837729,0.052329957485198975,-0.05329759418964386,-1.0078623294830322,0.129472703486681,-0.30676700636744497,-7.8132775962352765
30.2,1.7999999523162842,352.0,22.7597770690918,24.63459587097168,-79.7827760309402,40.4590763919806,295.99420938110353,0.0043721627444028854,-0.008014582097530365,-0.9733676910400392,0.2290675789117813,0.007623445017634495,0.06153471048042707,0.6072446586160792,0.06828584522008896,0.03240654245018959,-1.402146339416504,0.18627591848373407,-0.05579507279209793,-8.666903838515282
30.3,1.7999999523162842,353.0,22.816120147705078,23.79170799255371,-79.78277619122909,40.45907637385874,296.01510247802736,0.006381089799106121,-0.008497134782373905,-0.9546916484832764,0.2974071502685547,0.033241695783974165,0.05324224634167626,0.5338947720350311,0.0999753475189209,0.07507456094026567,-1.41489839553833,0.1046132113225758,0.042036277432926,-8.938302353024483
30.4,1.600000023841858,342.0,22.71595573425293,26.717960357666016,-79.7827762767803,40.45907627395108,296.0793381652832,0.009692443534731865,-0.008579706773161888,-0.899122416973114,0.4375057816505432,0.07508173478374587,0.035367400132945565,0.4711062759068251,0.10585842281579973,-0.03761507198214531,-1.5199927091598509,0.15456191813573242,0.027790970890782776,-9.477379968166352
30.6,1.600000023841858,333.0,22.73724174499512,25.453628540039066,-79.78277633204263,40.459076205145394,296.1263161621094,0.01056709699332714,-0.00761268101632595,-0.8625270128250122,0.505843460559845,0.08560174901464622,0.016912184607216676,0.4712676425614973,-0.07282320410013199,-0.06440594047307968,-1.6073462963104248,0.0949287603981793,0.30410151656717066,-9.669411885738374
30.71,1.399999976158142,343.0,22.75602149963379,25.636518478393555,-79.78277648632532,40.45907586506976,296.1896763763428,0.01375284604728222,-0.003917934373021126,-0.7731810808181763,0.6340240836143494,0.14327121897083844,-0.03349089465841544,0.4947660112218765,-0.0638284683227539,-0.04054814204573631,-1.6091383695602417,0.05018708591815085,0.24558683982118965,-9.811990392208099
30.9,1.399999976158142,347.0,22.68089866638184,27.43362045288086,-79.78277661467321,40.45907572764949,296.2391606292725,0.014842690899968147,-0.003831288544461131,-0.7247667908668518,0.6888238191604614,0.19485296530904767,-0.06949952946404048,0.5025907112365666,0.14544746279716492,0.008467311970889568,-1.354962706565857,0.1470891582593322,0.08136926829814911,-9.917502229213717
31.0,1.2999999523162842,328.0,22.628313064575195,27.15530776977539,-79.78277652348825,40.459075373915226,296.3128167114258,0.015869736671447754,-0.0031734309159219265,-0.6806070804595947,0.7324699163436891,0.21701045107870395,-0.08452307621570111,0.5734835528974581,-0.023349449038505558,-0.07896240055561066,-1.1196200847625732,0.16638606626540425,0.3830608183890581,-10.123913619518278
31.21,1.2999999523162842,327.0,22.501855850219727,28.37988090515137,-79.78277678712767,40.459074877124095,296.4328690490723,0.01492939330637455,0.0012699362123385072,-0.6202295422554016,0.7842772603034973,0.2826469537141077,-0.1467256612070184,0.6442065950981717,-0.06647743284702301,-0.05244525521993637,-0.5800686478614807,0.13610689954832195,0.41681346874684105,-10.131162997484207
31.3,1.2000000476837158,341.0,22.59701156616211,28.26060485839844,-79.78277673149219,40.45907427259064,296.3891449890137,0.001591995358467102,0.00026792794233188044,-0.5978302359580994,0.8016210794448853,0.33160261745270553,-0.1011472265230988,0.6178758261677696,-0.18437997996807096,-0.3747648000717163,-0.08260336518287659,0.4977868074551225,0.28162460032850506,-10.018993520736695
31.5,1.2000000476837158,348.0,22.630817413330078,26.376033782958984,-79.78277724854004,40.459073959242296,296.2760849914551,-0.02239103987812996,0.014000332914292812,-0.5961292386054993,0.8024541139602661,0.3796217661927106,-0.06144116669647647,0.5641256437895439,-0.05371474102139473,-0.6426748633384705,0.048088129609823234,0.4034572952985764,0.34738140083849434,-10.102365460395813
31.7,1.2999999523162842,350.0,22.578229904174805,27.51313781738281,-79.78277687418131,40.459073287617066,296.39418801879884,-0.06997092813253403,0.0529743991792202,-0.600047767162323,0.7951355576515198,0.4380724703326047,0.10342514619980868,0.6307357657651665,0.2925741374492645,-0.3670511245727539,0.2003696858882904,0.03269387948792428,-0.01300948837772012,-10.18803184747696
31.8,1.2999999523162842,345.0,22.65460586547852,27.95048522949219,-79.78277700485731,40.45907316176846,296.3244362792969,-0.08491794019937515,0.06432252377271652,-0.6037790775299072,0.7900016307830809,0.4215956944234083,0.2329168721604237,0.6380944573151514,0.08959502726793289,-0.2765840291976929,0.1747867465019226,-0.014618669534102085,-0.1363930111192167,-10.174369243383408
31.9,1.399999976158142,358.0,22.55945014953613,27.99819564819336,-79.78277605206695,40.4590728178694,296.3208199462892,-0.10426071286201476,0.0704369992017746,-0.6115130782127379,0.7811658978462219,0.4205092806753381,0.6291657097859239,0.7337805535054226,0.18442100286483765,-0.007781424559652803,0.27972179651260376,0.008274895080830902,-0.2386845306493342,-10.287804057598112
32.11,1.5,4.0,22.674638748168945,25.89097595214844,-79.782774887421,40.45907268484419,296.3785534820557,-0.11022654920816424,0.07011452317237854,-0.6146854758262634,0.7778791785240173,0.37972590922618,0.8785198559291695,0.8260608620290415,-0.21757832169532776,-0.13517114520072934,0.09954507648944856,-0.05222782813478261,0.11002157516777517,-10.308982672691345
32.2,1.7000000476837158,9.0,22.63582420349121,25.914831161499023,-79.78277236632931,40.45907275787693,296.37841806030275,-0.12050273269414905,0.07175923883914948,-0.6182456612586975,0.773370623588562,0.33689957803215725,1.3547620249461019,0.909811626998058,0.11480770260095595,-0.0743330791592598,0.09212019294500352,-0.08894760696217419,0.058544607181102035,-10.006319096088411
32.41,1.7999999523162842,14.0,22.614540100097656,27.131452560424805,-79.78277034623241,40.45907284540241,296.4302960357666,-0.1283416450023651,0.07393482327461243,-0.61733078956604,0.7726350426673889,0.29732095230391353,1.6205966153499498,0.9910247912210408,-0.0888017937541008,-0.20375443994998926,0.0313662625849247,-0.0432977502560243,-0.019642862174659968,-10.139944345951081
32.5,2.0999999046325684,23.0,22.5744743347168,28.061809539794922,-79.78276877124604,40.45907320556232,296.37703523254396,-0.13640734553337094,0.07651069015264511,-0.6153027415275574,0.7726200819015503,0.23794493630194,1.8442751826681425,1.0620138948759936,-0.20867544412612915,-0.2290351390838623,-0.2287256866693497,-0.1884631060436368,0.3686597475036979,-10.237168339490893
32.7,2.200000047683716,27.0,22.445512771606445,29.071685791015625,-79.78276323586883,40.45907385387571,296.47471246337886,-0.14857010543346405,0.07895279675722122,-0.6082178950309753,0.7757347822189331,0.18749184485911274,2.3777959781969926,1.2958119802307455,-0.08234958350658418,-0.05110172554850578,-0.02668612264096737,-0.2849803356640041,0.2184794404171408,-10.158105797767641
32.8,2.5999999046325684,32.0,22.573223114013672,26.36808204650879,-79.7827573932305,40.45907525943001,296.4617997131348,-0.15403050184249878,0.08483398705720901,-0.6013264060020447,0.7794129252433777,0.1184023441376327,2.8997968495831525,1.4858923484704667,-0.06289053708314896,-0.1612904667854309,-0.06328748911619186,-0.3355668823421001,0.13180360464379193,-10.243464621305467
33.0,2.799999952316284,33.0,22.47055435180664,29.56469535827637,-79.78275469096704,40.45907637491886,296.39905938720705,-0.1530037522315979,0.08887974917888641,-0.5995340347290039,0.7805442214012146,0.06693312901335854,3.121400249412294,1.5155358691370586,0.10392436385154724,0.027939818799495697,0.014025449752807615,-0.4218809216469527,0.08128781841136516,-10.008820534944537
33.1,3.299999952316284,38.0,22.55444145202637,27.05193519592285,-79.78275058380913,40.45907719876632,296.4331894836426,-0.1505729705095291,0.09253449738025664,-0.5991606116294861,0.7808789014816284,0.0478728080560286,3.4090505513602625,1.6048821780913174,0.10244673490524292,0.0037523368373513217,-0.04914281517267227,-0.4315469538420439,0.005724935755133629,-10.051829144954684
33.3,3.5,40.0,22.513124465942386,27.823257446289066,-79.78274243499294,40.45907971134757,296.4103966674805,-0.1536419540643692,0.09387121349573137,-0.59702467918396,0.7817569971084595,-0.06677036387619646,3.9338143616042807,1.7475861978107587,0.012682659551501274,0.010114170610904694,-0.16650454699993136,-0.5380369934812188,0.3380742415040732,-10.045842765569688
33.41,4.099999904632568,41.0,22.66963005065918,24.793630599975586,-79.7827329388833,40.45908270490396,296.39673814392086,-0.15342094004154205,0.08802496641874312,-0.595668613910675,0.7835129499435425,-0.1616140191737253,4.430512878523367,1.8631415610402229,-0.07416631281375885,0.05586046725511551,0.04357938840985298,-0.6784192492067814,0.13675369296222925,-9.837117047309876
33.6,4.400000095367432,44.0,22.53691291809082,27.298439025878906,-79.78272740458827,40.45908406990565,296.4123974761963,-0.15140028297901156,0.08629400283098221,-0.5958935022354126,0.7839275002479553,-0.1687232313388248,4.700861911281559,1.8811285683371168,0.006641981191933155,0.11759177595376967,-0.009072522632777693,-0.7667611759901047,0.16821025136858225,-9.682279268503187
33.71,4.900000095367432,47.0,22.5744743347168,27.187114715576172,-79.78271605584682,40.45908770937042,296.39357766723634,-0.14797396957874298,0.0837319865822792,-0.5950046181678772,0.78553307056427,-0.29912189897699004,5.173372369688803,1.96954626121133,-0.06453120708465576,0.03534043207764625,-0.0760519728064537,-0.7677174150198699,0.14687741596251727,-9.960848808288574
33.9,5.199999809265137,48.0,22.66086578369141,23.871225357055664,-79.78270975721131,40.45908938047649,296.40288362121584,-0.14355464279651642,0.08252735435962677,-0.5954319834709167,0.7861564755439758,-0.2972978177987373,5.396913537323376,2.0095753458208283,0.11319692432880404,0.20863015949726105,-0.21071532368659973,-1.0054291699826718,0.2684589547477663,-9.906019467115405
34.0,5.699999809265138,51.0,22.68966293334961,25.06399154663086,-79.7827037877212,40.459092103800344,296.38643846130367,-0.13248133659362793,0.07644768804311752,-0.5946877598762512,0.7892724871635437,-0.4304282781926053,5.560377414690845,2.0256376780676617,0.12108155339956285,0.3103934824466705,0.2579084038734436,-1.2171564102172852,-0.025282022017054262,-9.900556998252867
34.2,6.0,54.0,22.920040130615234,20.55533599853516,-79.78269031007568,40.45909594522121,296.40175637817384,-0.10381729900836943,0.05281331017613411,-0.5985386371612549,0.7925808429718018,-0.4598926970852011,5.993386025520289,1.7094429567150309,-0.00233800639398396,0.3345124423503876,-0.13041359186172485,-0.8559294605255128,0.2663762861676514,-9.711722338199616
34.3,6.5,54.0,22.900007247924805,19.02064323425293,-79.78267661907144,40.45910135658283,296.3685036621094,-0.08827424794435501,0.04423319548368454,-0.5981144905090332,0.795305073261261,-0.6297140806268468,6.275755159146245,1.2488167484394757,-0.10017477720975876,0.026208972558379173,0.08414466679096222,-1.214684792160988,0.11152365177869797,-8.951142253875735
34.5,6.800000190734862,54.0,22.80109596252441,21.97075080871582,-79.78266920174191,40.459104186030665,296.35331735229494,-0.08586995303630829,0.0402064360678196,-0.5972886085510254,0.7964020371437073,-0.7213497480135277,6.386512974311372,1.1250375067261251,-0.16225911676883698,-0.06343688070774077,-0.03394891694188118,-1.3037149362266065,0.2909015003219247,-8.798343399167061
34.6,7.199999809265138,62.0,22.826135635375977,21.4379825592041,-79.782654913837,40.459108752995185,296.3113881072998,-0.08407522737979889,0.02669477090239525,-0.5973031520843506,0.7971498370170593,-0.74698528893893,6.508254913748544,0.9506693755858387,0.0544518381357193,0.1205308958888054,0.1953030675649643,-1.2175682734698057,0.049808866996318105,-9.277636157870292
34.8,7.400000095367432,66.0,22.77229881286621,23.0203857421875,-79.78264723219273,40.459111520913225,296.265930267334,-0.07859239727258682,0.02403031289577484,-0.5970323085784912,0.7979964613914491,-0.8004652205111904,6.575926529323428,0.886299134106563,0.10159406810998917,0.11244954913854599,0.10781658440828323,-1.1776168801635505,0.2096339735761285,-9.401572571396828
34.9,7.699999809265138,66.0,22.76228141784668,22.89315795898437,-79.78263195539002,40.459116698035494,296.1962338409424,-0.06327352672815323,0.026658756658434868,-0.5970284938812256,0.7992765307426453,-0.8638522826447763,6.679399854188852,0.7280750636112981,0.04378281161189079,0.1130807027220726,-0.2418069243431092,-1.1601265425235034,0.5717313178628683,-9.469033067822458
35.11,7.900000095367432,66.0,22.862445831298828,20.99268341064453,-79.78262465256537,40.45911916297988,296.1684723815918,-0.05806394293904305,0.02595025859773159,-0.5969321727752686,0.7997670173645021,-0.8693133838012645,6.699314154356973,0.6347439756606319,-0.045462612062692635,-0.03915293514728546,0.026216337457299232,-1.1810994087159634,0.3009206677973271,-9.436120845079422
35.2,8.100000381469728,70.0,22.754770278930664,23.39411926269531,-79.78260924530308,40.4591246574848,296.09733781433107,-0.0508851632475853,0.01784403994679451,-0.5955680012702942,0.8014931082725525,-0.9056691011381768,6.7436600576404855,0.4963701010449338,0.01657457463443279,0.0929574966430664,-0.11976352334022522,-1.0867463249713183,0.26388423940166833,-9.532246731519699
35.4,8.199999809265138,70.0,22.8424129486084,21.35846519470215,-79.78260193558611,40.459127182010505,296.0671521148682,-0.04494030028581618,0.014355262741446497,-0.5955438613891602,0.8019363880157471,-0.9042151625446888,6.725041452707735,0.4166998333682623,-0.02677293121814728,0.04302483052015305,-0.0010000559268519282,-1.1892168789356947,0.05204581070691349,-9.60735830962658
35.51,8.399999618530272,70.0,22.767290115356445,23.06014442443848,-79.78259412585466,40.45912999916527,295.99583062744136,-0.0378585048019886,0.009696277789771557,-0.5960021615028381,0.8020312786102295,-0.9199858840326346,6.7247755778069696,0.3075144813625229,-0.07426869869232178,0.10543548315763474,0.1962231546640396,-1.1009025071561338,-0.059731939136981965,-9.592040358781817
35.7,8.5,70.0,22.78607177734375,23.489540100097656,-79.78257972465916,40.45913505425426,295.9332657775879,-0.01825772225856781,-0.001295723137445748,-0.5969566106796265,0.8020647764205933,-0.9289554416837952,6.58765466707324,0.07044619336949877,0.11113828420639038,0.3230314552783966,0.026202009990811348,-1.0656016968190671,0.17925883943215012,-10.081065223217012
35.8,8.600000381469728,76.0,22.87747001647949,20.17365074157715,-79.78256525154954,40.459140243127436,295.8228321990967,-0.00501299137249589,-0.006021997891366482,-0.5974606275558472,0.801859974861145,-0.9428528366589825,6.4221592857732475,-0.12844948108246065,0.06653077900409697,-0.04017585515975952,-0.0723814070224762,-1.248920970708132,0.2050264041870833,-10.108320264816284
35.91,8.600000381469728,78.0,22.79233169555664,22.535327911376953,-79.78255790239001,40.45914289111851,295.7289372406006,-0.0037946528755128384,-0.004531074315309525,-0.5979431867599487,0.8015167713165283,-0.9469173396539384,6.369175199094277,-0.22002696878369246,0.07162805646657944,0.011202879250049593,0.1579880714416504,-0.9583745060116052,0.1259571290295571,-10.029144287109377
36.1,8.600000381469728,78.0,22.817371368408203,21.119911193847656,-79.78254439009167,40.459147740492014,295.68541345214845,-0.009651270695030693,-0.0014141318388283253,-0.5991838574409485,0.8005520105361938,-0.960911063485542,6.162406433167668,-0.1441005003393664,-0.1456546038389206,-0.13323955237865448,-0.08851296454668045,-1.1558996634185317,0.2292975933663547,-10.014888775348664
36.3,8.600000381469728,78.0,22.73223304748535,22.0025577545166,-79.78253781080447,40.45915024010736,295.56828317260744,-0.01927481219172477,-0.002852495759725571,-0.5994732975959778,0.8001576066017151,-0.9710194030000976,6.0724313676391395,-0.1622228528245397,-0.0318114347755909,-0.15195688605308533,0.11645184457302095,-1.2459324587881566,0.16234578642994166,-9.713564795851708
36.41,8.600000381469728,78.0,22.90626716613769,20.610998153686523,-79.78252482951926,40.45915501226778,295.45594224548336,-0.02630172297358513,-0.0025075860321521768,-0.5990533232688904,0.8002732396125793,-0.9900636667609092,5.92538245936905,-0.03247532686235685,0.024227259680628777,0.10279320180416107,-0.2434660494327545,-1.1651856265962124,0.6701616650819778,-9.751540122628214
36.6,8.600000381469728,76.0,22.704687118530273,24.761823654174805,-79.78251850375294,40.45915735271621,295.4264870605469,-0.025105668231844902,-2.707736712181941e-05,-0.5987358093261719,0.800553023815155,-0.9959460602877022,5.845128729824317,-0.039891574577745136,0.0946456417441368,-0.0807405337691307,-0.08949526399374008,-1.3781013134121896,0.36526606008410456,-9.665729894042014
36.71,8.5,75.0,22.814868927001953,21.64472770690918,-79.78251226413512,40.45915968216304,295.39642152404787,-0.02325430884957313,0.00020496525394264606,-0.5984716415405273,0.8008065223693848,-0.9989634602597768,5.772878019920356,-0.03333441472063284,-0.02043316699564457,-0.0009751862380653619,-0.2833262085914612,-1.1592526761442423,0.09758599100634456,-9.929049310684203
36.9,8.399999618530272,75.0,22.882478713989247,20.762081146240234,-79.78249997903164,40.45916430654032,295.2838974914551,-0.021489262580871586,0.0016877143643796446,-0.5973613858222961,0.8016824722290039,-0.9698357298984096,5.639647894893828,-0.08165420509111798,0.06992886960506439,-0.05384459719061852,0.005919153336435556,-1.2497770030796531,0.15957142878323793,-9.708722131848337
37.0,8.300000190734862,76.0,22.81862449645996,21.445934295654297,-79.78248807182581,40.45916877363153,295.16388902282716,-0.02488692291080952,0.007016665302217007,-0.5969478487968445,0.8018633127212524,-0.9325663880527144,5.50991116164888,-0.14812977593823545,0.06400182843208313,-0.1126745268702507,0.27172067761421204,-1.1307509350776672,-0.01737087171524763,-9.371538932919503
37.21,8.199999809265138,74.0,22.781063079833984,22.344484329223643,-79.78248221064537,40.45917098107301,295.12223825073244,-0.024080831557512283,0.0121238324791193,-0.5973186492919922,0.8015506863594055,-0.916930077536256,5.458220911553938,-0.15085266197108788,0.17590586841106415,-0.009708162397146223,0.1850256472826004,-0.8445183999091387,0.18999573435634376,-9.465982575416566
37.31,8.100000381469728,74.0,22.66337013244629,25.44567680358887,-79.78247058529432,40.45917527736016,295.01609048461916,-0.028524862602353093,0.0181051641702652,-0.5980613231658936,0.8007379174232483,-0.9009714944863304,5.355724132597009,-0.14229235436868248,-0.0043203523382544535,-0.07890254259109497,0.0367884635925293,-1.2161395794153214,0.20875535633414985,-9.551476469635963
37.5,8.100000381469728,74.0,22.87747001647949,20.396299362182614,-79.78246479207024,40.45917735376997,294.94682511901857,-0.036121323704719537,0.015738178044557568,-0.5981780886650085,0.8003940582275391,-0.8829182110713301,5.335241466878964,-0.0641545161046631,-0.2006075084209442,-0.1752375215291977,-0.04080374538898468,-0.8959744092822075,0.08725390613079073,-9.964792170524596
37.6,7.900000095367432,72.0,22.62580871582031,25.843265533447266,-79.78245341731673,40.45918156310921,294.8602543792725,-0.04715368524193764,0.01809059455990792,-0.5983789563179016,0.7996199131011963,-0.8758790191926978,5.280457282378103,0.02841956553881958,0.14715689420700073,-0.1227206438779831,0.1675579994916916,-1.2085774485021827,0.11840044333599507,-9.583913898468015
37.8,7.900000095367432,72.0,22.674638748168945,25.453628540039066,-79.78244774161084,40.459183551325815,294.78928956604005,-0.04882331192493439,0.021319946274161342,-0.598839521408081,0.7990952134132385,-0.8581273525438643,5.261131137637988,0.0886210580922937,0.13098940253257751,-0.032453857362270355,-0.04048654437065125,-1.0081489292532206,0.12098048156127335,-9.661381319761276
37.9,7.800000190734862,72.0,22.508115768432614,26.853139877319336,-79.78243641259633,40.459187568046715,294.6821480712892,-0.048738669604063034,0.0234210342168808,-0.5995670557022095,0.7984957098960876,-0.8673576399143543,5.24819116600303,0.14974078103887578,-0.1733143925666809,0.008762591518461704,-0.08607572317123413,-1.097740771472454,0.2884277261048556,-10.02768599152565
38.1,7.699999809265138,72.0,22.59450721740723,26.50326156616211,-79.78243077331973,40.45918962827618,294.6420632324219,-0.049589268863201134,0.021199390292167664,-0.5999289751052856,0.7982335686683655,-0.8749220708184356,5.2500842602391815,0.18232760951923452,-0.15476198494434354,-0.033757384866476066,-0.13262483477592468,-0.9452672412246468,0.3553815612941981,-9.991734970808027
38.2,7.699999809265138,70.0,22.57948303222656,27.25072860717773,-79.78242512360906,40.45919169742889,294.60256776428224,-0.05599281191825867,0.02204224094748497,-0.5994643568992615,0.7981362342834473,-0.8772009379667544,5.259707729895286,0.1784031913275718,0.007888264022767544,-0.14100122451782227,0.2564505338668823,-0.9498855914175512,0.16917193561792376,-9.811641898155212
38.4,7.599999904632567,70.0,22.551937103271484,26.33627510070801,-79.78241395845889,40.45919573144661,294.48492631530763,-0.06493180990219116,0.03450227528810501,-0.59847092628479,0.7977631688117981,-0.839868552047063,5.277161456325361,0.3469291529842771,0.2269047647714615,-0.06337982416152954,-0.17588868737220764,-0.9013623261451722,0.3548013713210821,-10.002947591543196
38.5,7.599999904632567,70.0,22.624555587768555,24.57893371582031,-79.78240843130355,40.45919766791013,294.4138623199463,-0.06475751847028732,0.04712928831577301,-0.5985577702522278,0.7970657944679259,-0.8304009106379369,5.278463261076215,0.4382627957788185,0.2558466196060181,-0.12536373734474182,-0.23693498969078064,-1.0418365658819675,0.3692720606178045,-10.085588629245759
38.7,7.599999904632567,69.0,22.300275802612305,31.43336296081543,-79.78239691242946,40.45920176998153,294.352111907959,-0.05877464637160301,0.05356303974986077,-0.5982984900474548,0.7973177433013916,-0.8001982481991231,5.3488031363980895,0.5974117595024881,0.024486880749464042,0.09228923916816713,0.06203803792595864,-1.178300346583128,0.004803903358988464,-10.101697708368302
38.8,7.599999904632567,64.0,22.66337013244629,23.40207099914551,-79.78238515444882,40.45920575880763,294.26813134765627,-0.05892890319228172,0.04113917052745819,-0.5974792242050171,0.7986574172973633,-0.7393085116255956,5.419849464284717,0.6595889375100767,-0.13434834778308868,-0.0021299405489116907,0.19006673991680145,-1.2819026291370392,0.1313887812383473,-10.431314610242843
39.0,7.5,65.0,22.50310707092285,27.00422477722168,-79.78237929158183,40.45920777120029,294.2214508972168,-0.05893075466156007,0.034712933003902435,-0.5971790552139282,0.7991867661476135,-0.7204164908430607,5.429620157536278,0.6596583943794083,-0.108589768409729,0.05413481593132019,0.14137177169322968,-1.3346176171302797,0.21461764683946968,-10.333869591951373
39.1,7.5,65.0,22.515628814697266,26.73386383056641,-79.78236735541249,40.45921178348964,294.2075463256836,-0.04804050922393799,0.02853171527385712,-0.5966872572898865,0.8005263209342957,-0.6851456578800237,5.458123532984568,0.6765919153848976,0.05956404283642769,0.08104384690523148,-0.011494378559291364,-1.17175409629941,0.3205951597541571,-10.338228106498716
39.3,7.5,65.0,22.677143096923828,23.8076114654541,-79.78236137898504,40.45921382547756,294.1626130065918,-0.04291574656963349,0.0296027846634388,-0.5969375967979431,0.8005919456481934,-0.6794312882442245,5.462896676486479,0.6036971528103569,0.017413578927516937,0.11139127612113953,-0.13707010447978973,-0.899424339607358,0.1786271574161947,-10.333129334449769
39.42,7.5,69.0,22.529399871826172,27.25072860717773,-79.7823494647632,40.45921781757581,294.1236496887207,-0.05183680355548858,0.029103254899382588,-0.5972932577133179,0.7998167872428894,-0.7118031745483916,5.451885558302786,0.5600609933823806,-0.25831520557403564,-0.17415834963321686,0.04374281316995621,-1.2650753657519818,0.10555713465437294,-9.738625377416607
39.6,7.5,67.0,22.494342803955078,27.71193122863769,-79.78234350740496,40.459219830037156,294.12099084472663,-0.0563833899796009,0.023254929110407836,-0.5971924066543579,0.7997758388519287,-0.7079770005243916,5.443707430486971,0.6444288468500168,-0.18485590815544128,0.02931394055485725,0.17555254697799685,-1.3076913352310655,0.04054771794006229,-9.915914125442503
39.71,7.5,67.0,22.525644302368164,27.60855865478516,-79.78233754703339,40.459221852632716,294.1211777648926,-0.057321291416883476,0.01889227330684662,-0.5972616076469421,0.7997725009918213,-0.7137919588573459,5.445967839545507,0.6873664504458497,0.0267285518348217,-0.02756279893219471,0.21694353222846985,-1.1691667033731938,-0.008314996473491192,-10.09697432756424
39.9,7.5,67.0,22.62080001831055,25.843265533447266,-79.78232557250084,40.45922592451625,294.0957947692871,-0.05940145999193192,0.01838210411369801,-0.5977364182472229,0.7992777228355408,-0.770605623441588,5.456018810366516,0.7103321018756596,-0.035636190325021744,0.005376158282160759,0.13654740154743195,-1.0691931297630073,0.2664712486043573,-10.130604003667832
40.01,7.5,70.0,22.55444145202637,25.859169006347656,-79.78231347172509,40.45922995709973,294.093509765625,-0.06953655928373338,0.027056872844696045,-0.597075879573822,0.798707127571106,-0.7996647791067322,5.487044801438318,0.8141231099322261,0.015324278734624388,-0.01575865037739277,-0.10017888247966766,-0.9659132480621341,0.3630966699868441,-9.881490397453307
40.2,7.5,68.0,22.50060272216797,27.9266300201416,-79.78230746534467,40.45923208746123,294.1023083648682,-0.07007298618555069,0.029228772968053818,-0.5964133143424988,0.799078643321991,-0.8212257748059042,5.492418532479477,0.932330645506019,0.08811777830123901,-0.0010124436812475324,0.15554966032505035,-1.203596278578043,0.05716834620572628,-10.012910077571867
40.31,7.5,68.0,22.64709281921387,23.43387794494629,-79.78229528073656,40.45923650821858,294.11901292419435,-0.07217482477426529,0.02712886780500412,-0.595849871635437,0.7993859052658081,-0.8721358159903325,5.56176724971795,0.9928919350354379,-0.02145930752158165,-0.009632476605474949,-0.10315850377082823,-1.0608776582032442,0.2898754967004061,-9.977611606121064
40.5,7.5,68.0,22.485578536987305,28.586627960205078,-79.78228910268875,40.45923851173093,294.13587388610836,-0.0710495188832283,0.02550941333174705,-0.5954248309135437,0.7998566627502441,-0.8544239361274323,5.5783633513318165,0.9976981830190301,0.07138748466968536,0.02749650366604328,0.07914941012859343,-1.1178679110109806,0.3023236706480384,-9.742904954552653
40.7,7.599999904632567,67.0,22.667125701904297,22.84544563293457,-79.78227684562681,40.4592429854609,294.163240524292,-0.06299074739217758,0.029038092121481895,-0.5951562523841858,0.8006110787391663,-0.8774310425171751,5.641180916410754,1.0052603945754857,0.07293412834405899,0.08405234664678574,-0.06425420939922333,-1.0224005672335623,0.2486004764959216,-10.086225975751876
40.8,7.599999904632567,67.0,22.551937103271484,26.344226837158203,-79.7822705101685,40.459245278278644,294.1893673858643,-0.05887352302670479,0.02948457188904285,-0.5948176383972168,0.8011595606803894,-0.8999360779538758,5.675962132747602,1.022450774743487,-0.01996041089296341,0.0196186825633049,-0.08936870843172072,-0.9910846343636514,0.2125834553316236,-10.121765352487564
40.9,7.599999904632567,67.0,22.5206356048584,27.21096992492676,-79.78225805422962,40.459249852697795,294.24020585632326,-0.05909262225031853,0.02885893173515797,-0.5943813323974609,0.8014899492263794,-0.9195426358385532,5.707094255210147,0.9851433218257204,-0.015719352290034294,-0.08735029399394989,0.2694244980812073,-1.146385293379426,-0.15838406028226018,-9.882737023830414
41.1,7.599999904632567,67.0,22.68340301513672,24.36423492431641,-79.78225183579478,40.45925217079947,294.26456651306154,-0.061953917145729065,0.025999452918767933,-0.5939731001853943,0.8016743063926697,-0.9241644456137046,5.710951447962272,1.033301525986754,-0.09738516062498093,0.09922515600919724,0.05286795645952225,-1.251813734471798,0.17242492441087962,-10.091702477931976
41.21,7.699999809265138,67.0,22.6859073638916,22.86930084228516,-79.78224561065875,40.459254496269935,294.2930127105713,-0.059153400361537926,0.022921249270439148,-0.593863844871521,0.8020606040954591,-0.9141157061459734,5.7096249265685,1.0794866226215527,0.0851195678114891,0.10325397551059724,0.08632691949605943,-1.3701773129403592,0.09100041819736364,-10.025924810171126
41.4,7.699999809265138,67.0,22.83489990234375,19.951000213623047,-79.78223297693594,40.45925917857528,294.3708764038086,-0.04635010287165642,0.02650981396436692,-0.5939361453056335,0.8027383685112,-0.9255099125874848,5.747251915491372,0.9627506599628732,-0.01641237549483776,0.07536646723747252,-0.2610565423965454,-0.9294061571359636,0.3941763387992978,-9.567462757229805
41.5,7.699999809265138,67.0,22.728477478027344,22.408098220825195,-79.78222025785169,40.45926377010233,294.4520169219971,-0.04930413886904717,0.03167130425572395,-0.591889500617981,0.8038861155509949,-0.9085513605001764,5.754403885381098,0.8243128394244567,-0.05225052312016487,-0.15767665207386014,-0.12670430541038513,-1.2708914449810982,0.35008427627384664,-9.003202353715901
41.71,7.800000190734862,67.0,22.614540100097656,24.165441513061523,-79.78221402102228,40.459266085576,294.46761521911617,-0.05374065786600113,0.030635971575975418,-0.5906475186347961,0.8045551776885986,-0.8780566023747969,5.760640283042336,0.8149666622799412,-0.07387784868478775,0.016240376979112625,-0.10370521992444992,-1.1168741036206484,0.5074226899445057,-9.319461291432381
41.8,7.800000190734862,66.0,22.81236457824707,20.14979553222656,-79.7822074599722,40.45926841228315,294.5242939910889,-0.05659390240907669,0.031204167753458027,-0.5895574688911438,0.8051369786262512,-0.8400878906819618,5.770962940539942,0.8582036801083235,-0.0200461745262146,-0.07499236613512039,-0.1942807286977768,-1.0183153369277715,0.5626660139858723,-9.38661422431469
42.0,7.800000190734862,65.0,22.74350166320801,21.97075080871582,-79.78219457835034,40.45927299101364,294.5871430358887,-0.0571124255657196,0.032552182674407966,-0.5893847942352295,0.8051733970642091,-0.8120360972208868,5.799923488449397,0.8156250970495615,-0.13281108438968658,-0.09209541976451874,-0.11771287024021147,-0.9689346505701544,0.14494050750508905,-9.059910989999773
42.2,7.800000190734862,65.0,22.693418502807607,23.89508056640625,-79.78218199207558,40.45927759094005,294.58379373168947,-0.06090665608644485,0.02920694462954998,-0.5911847949028015,0.8037025928497314,-0.8285752810268978,5.819465822021074,0.7319824724763038,-0.05157948285341263,0.0859575867652893,-0.15938594937324524,-1.18548452809453,0.4568351017311216,-9.246227838993072
42.3,7.900000095367432,65.0,22.708444595336914,22.821590423583984,-79.78217530100441,40.45927985711688,294.62215242004396,-0.059197179973125465,0.025943895801901817,-0.5925768613815308,0.8029167056083679,-0.8522640020790155,5.833513915855862,0.7375800289652146,-0.09694746881723404,0.07148955762386322,-0.25764480233192444,-1.2026322919875383,0.5735447221621871,-9.264867593050004
42.4,7.900000095367432,64.0,22.672134399414066,23.410022735595703,-79.78216227411514,40.45928442009643,294.66559609985353,-0.054385796189308167,0.019121833145618442,-0.5937409400939941,0.8025884628295898,-0.8898596503936806,5.851200434485588,0.6442913382960475,-0.06245444342494011,0.04114077612757683,-0.04844938963651657,-1.3273388569056987,0.3312832852452994,-9.218682190775873
42.6,7.900000095367432,67.0,22.75226593017578,22.169546127319336,-79.78215595214914,40.459286743952276,294.6563302001953,-0.052026193588972085,0.0193170178681612,-0.5938054919242859,0.8026925325393677,-0.8993282094468975,5.855800782219451,0.5762740254482015,0.016122719272971153,-0.08567309379577638,-0.0966712087392807,-1.0211409308016302,0.18895533196628087,-9.507100195884703
42.7,8.0,67.0,22.69216728210449,22.495569229125977,-79.78214963863834,40.45928907249733,294.6445008239746,-0.051998134702444083,0.02307477965950966,-0.5938020944595337,0.8025975823402405,-0.8949365197213571,5.853270151780957,0.5182444436400808,0.03675756230950356,0.016603989526629448,0.14102743566036224,-1.2172013606876135,0.19433720061555507,-9.51509509384632
42.9,8.0,67.0,22.688411712646484,22.209304809570312,-79.78213658714805,40.459293586575114,294.6803532562256,-0.04722447693347931,0.03453241288661957,-0.5934118032455444,0.8027701377868652,-0.8688316547275767,5.8524125251885435,0.5542191395041204,0.014842853881418703,-0.030428292229771614,-0.09499438107013702,-0.9980316381901504,0.2346084366180003,-9.601497645378112
43.0,8.0,67.0,22.65961456298828,23.24303436279297,-79.78212348519644,40.45929794000021,294.7564621887207,-0.05117187649011612,0.036925718188285835,-0.5916645526885986,0.8037108182907104,-0.7926353136720188,5.859218862273256,0.6816615670613594,0.017758939415216446,0.017360584810376167,-0.07876700162887572,-1.03393573500216,0.13112958513200285,-9.702275576591491
43.2,8.0,66.0,22.66337013244629,22.41604995727539,-79.78211712167406,40.45930018425972,294.7522412261963,-0.052141252905130386,0.03533370420336723,-0.5904217362403871,0.8046334981918335,-0.769895414162412,5.858242671773131,0.6905627287639643,-0.06206551194190979,-0.0813625231385231,-0.06898289173841476,-1.2708316572010518,0.2938285068422556,-9.572628772258758
43.3,8.0,67.0,22.674638748168945,23.56905746459961,-79.78210393755417,40.45930462808523,294.78385552978517,-0.05378780514001846,0.033047109842300415,-0.5888391137123108,0.8057811260223389,-0.6949847631969607,5.896650244727358,0.7029574614591106,-0.016465283930301666,-0.017881890758872032,-0.14022031426429749,-1.1143964190781117,0.0209920500847511,-9.57161252617836
43.5,8.100000381469728,67.0,22.61579132080078,24.714113235473643,-79.78209722997741,40.45930681196901,294.79615411376955,-0.05508454516530037,0.031393423676490784,-0.5887457728385925,0.8058279752731323,-0.6762184274471684,5.9162197667250815,0.69529500428508,-0.035368561744689934,0.046589840203523636,-0.2493872046470642,-1.0579346814751625,0.3872670860588551,-9.546449033617971
43.61,8.100000381469728,66.0,22.728477478027344,21.80376434326172,-79.78209078352216,40.4593090298109,294.79026040649416,-0.05739832296967505,0.027423197403550148,-0.5886433124542236,0.8058861494064331,-0.6734441570967789,5.91845777328766,0.7033948835373012,-0.0225704126060009,0.020715693011879917,0.2817383706569672,-1.098282516002655,-0.1230659275688231,-9.725713555812836
43.8,8.0,67.0,22.65585708618164,24.01435661315918,-79.78207776508808,40.459313432498476,294.78509912109377,-0.054397966712713235,0.02417698688805104,-0.5891858339309692,0.8058017492294312,-0.6891154693522087,5.917912955596224,0.6976943400294096,-0.04096299037337303,0.05623139068484306,-0.10571535676717758,-0.9983584975451232,0.32470677562057976,-9.717419865131381
43.9,8.0,68.0,22.6959228515625,22.0025577545166,-79.78206470154464,40.45931779148879,294.77223596191413,-0.0520632304251194,0.027203824371099472,-0.5898981690406799,0.8053382039070129,-0.6961290327569555,5.934975324766276,0.6315813743270922,-0.0096980519592762,0.019269391894340515,0.11077911406755447,-1.0402309204638005,-0.023792759031057358,-9.799466241002085
44.11,8.0,68.0,22.63457298278809,23.82351493835449,-79.78205824276642,40.459320017334974,294.7651215515137,-0.05346798151731491,0.027846712619066242,-0.590207576751709,0.804997444152832,-0.6988021846672272,5.937489474073615,0.6288897935816369,0.08827392756938934,0.016706066206097603,-0.06409774720668793,-1.043702485486865,0.23145358968526125,-9.593185828328133
44.2,8.0,68.0,22.62956428527832,24.53122329711914,-79.78205178164953,40.459322246685204,294.7566948852538,-0.05541157349944115,0.028229996562004086,-0.5901942253112793,0.8048624396324158,-0.7047054161944555,5.939585164396631,0.6363429711685435,-0.014327222481369972,0.07350946217775345,-0.2376421540975571,-1.0922413189709188,0.5820283377170563,-9.663005676269533
44.4,8.0,67.0,22.61078453063965,25.42182159423828,-79.78203889548524,40.459326654645984,294.73292741394044,-0.05628835037350655,0.02763783186674118,-0.5905158519744873,0.8045861124992371,-0.7207201802021372,5.929431512113191,0.6629713860186368,-0.07207993417978288,0.08309252560138702,0.1484166979789734,-1.13655546605587,0.2513358770683408,-9.715698444843293
44.51,8.0,67.0,22.561954498291016,25.906879425048828,-79.78202596825929,40.45933105010221,294.6975575408936,-0.05881660431623459,0.030456446111202237,-0.5906252861022949,0.8042231202125549,-0.7156868667364429,5.9426989370457175,0.6351409664095802,0.05396421253681183,0.02364792674779892,0.07168068736791611,-1.1841879811137914,0.15263425558805466,-9.632180324792863
44.7,7.900000095367432,68.0,22.59575843811035,24.91290855407715,-79.78201949922692,40.45933329425865,294.6841774902344,-0.05984159559011459,0.030517397448420525,-0.5907406806945801,0.8040605187416077,-0.7395446595636329,5.946832008235406,0.6590594550941763,0.024660758674144745,0.027434887364506718,0.09005580842494965,-1.2474423560500143,0.08120726387947798,-9.609089670181275
44.81,7.900000095367432,67.0,22.603271484375,24.403993606567386,-79.78200649100205,40.4593377952994,294.64237985229494,-0.05757632479071618,0.02522647753357888,-0.5907171964645386,0.8044264912605286,-0.7555116808378306,5.973339225080028,0.6375682455558269,-0.050839055329561234,0.0001362329494440928,0.018813930451869958,-1.2192380920797588,0.20398373600095512,-9.815801607370377
45.0,7.900000095367432,69.0,22.55569267272949,26.81338119506836,-79.78199989172369,40.45933996106187,294.61071786499025,-0.05699847266077995,0.0245684627443552,-0.5908910632133484,0.8043602705001831,-0.7466492505865318,5.989125660439751,0.5897258892232158,0.009990409016609192,0.04597577080130577,-0.06426682323217392,-1.1227408343553544,0.1794226893782616,-9.699094106554986
45.2,7.900000095367432,69.0,22.588247299194336,24.9924259185791,-79.78198690067903,40.45934450870271,294.5760422668457,-0.055227089673280716,0.027873950079083443,-0.591217577457428,0.8041360378265381,-0.7622632389085715,5.979813366363393,0.5894014233916843,0.1767120510339737,0.003896619891747832,0.1298314332962036,-1.3930140522122385,0.2120103916525841,-9.76532025575638
45.3,7.900000095367432,69.0,22.53315734863281,25.00832939147949,-79.78197396909057,40.45934896104782,294.52613458251955,-0.050216857343912125,0.030325569212436683,-0.5914490222930908,0.8042056560516357,-0.7699198033513722,5.965144585033006,0.5804893710789445,-0.0543176643550396,0.03711707517504692,0.0270310752093792,-1.3112294854223732,0.27500737946480514,-9.609683747291566
45.41,8.0,70.0,22.52689552307129,26.54302215576172,-79.78196750914302,40.45935119604914,294.4869881591797,-0.04789409786462784,0.03257057070732117,-0.5914246439933777,0.8042774796485901,-0.7455292380528873,5.963959085651532,0.5540482611064611,0.10855263471603394,-0.010060407221317293,0.21393856406211853,-1.2404112254083155,-0.09821915309876204,-9.954060190916062
45.6,8.0,69.0,22.59450721740723,23.67243003845215,-79.78196104110006,40.45935344434515,294.47419557189943,-0.046243615448474884,0.0339861735701561,-0.5909477472305298,0.8046659231185913,-0.7380510292178829,5.953350903565176,0.5899674251227272,0.0354406014084816,-0.00885847117751837,-0.0764932930469513,-1.2491576367616657,0.02405491529032588,-10.01134068489075
45.7,8.0,69.0,22.49058723449707,27.15530776977539,-79.78194817373509,40.459357924447616,294.4298459014893,-0.05332020670175552,0.024564405903220177,-0.5898312926292419,0.8053898215293884,-0.7230081363281401,5.930732902792716,0.6006874208283096,-0.13432490825653076,0.011937342584133148,0.1489366739988327,-1.2151788087934257,-0.01204091537743807,-9.976366149187088
45.9,8.100000381469728,69.0,22.54692840576172,25.7876033782959,-79.78194173474563,40.45936016199109,294.4227219543457,-0.05570923537015915,0.020758161321282387,-0.5893864035606384,0.8056608438491821,-0.7110625276150772,5.9252586397643245,0.638919735371593,-0.0947580561041832,0.05410056933760643,-0.20035110414028168,-1.0087788936495778,0.4576498381420971,-9.942463992834092
46.0,8.100000381469728,69.0,22.52689552307129,25.914831161499023,-79.78193542879053,40.459362394244145,294.38141069030763,-0.054629139602184296,0.022541679441928864,-0.5894027948379517,0.8056749105453491,-0.7083042348525456,5.900301022150831,0.6091131147723057,0.11557330191135405,0.02624981664121151,0.09222521632909776,-1.1026756022125483,-0.04554127665236592,-9.894068927764893
46.2,8.100000381469728,70.0,22.51813125610352,25.159412384033203,-79.78192262025212,40.45936686232301,294.36643228149416,-0.052333422005176544,0.031914763152599335,-0.5893260836601257,0.8055666089057922,-0.7193737212772908,5.9020091934112795,0.6320482371303267,-0.03428032994270325,-0.1778087019920349,0.15032583475112915,-1.2879142977297309,0.02267711028456688,-9.878587839603425
46.3,8.100000381469728,70.0,22.60702705383301,24.05411529541016,-79.78190974901935,40.45937116439009,294.3305588684082,-0.058659311383962624,0.04278756305575372,-0.5882590413093567,0.8054065704345703,-0.679880369481104,5.9020637198895205,0.7811701758035563,-0.11296837031841278,-0.12255315482616425,0.010139377787709236,-1.4915029446780683,0.1567766058817506,-9.960531889200213
46.5,8.199999809265138,69.0,22.670881271362305,24.22905540466309,-79.78190348399099,40.459373389377454,294.2954770050049,-0.0592535138130188,0.04051986709237099,-0.58812016248703,0.8055817484855652,-0.6831835195023366,5.888435270045724,0.8413693975582223,-0.1417178362607956,0.006393400952219963,-0.12394566088914873,-1.1686509058624506,0.259621345102787,-9.987118009328842
