time,wind_speed,wind_angle,battery_voltage,battery_current,position_x,position_y,position_z,orientation_x,orientation_y,orientation_z,orientation_w,velocity_x,velocity_y,velocity_z,angular_x,angular_y,angular_z,linear_acceleration_x,linear_acceleration_y,linear_acceleration_z
0.0,0.10000000149011612,220.0,25.53056526184082,-0.10337305814027786,-79.78274498461735,40.45905669122735,271.2867573492527,-0.006770765874534845,0.010339290834963322,-0.9362367987632751,0.3511525094509125,-0.0279687303169115,0.0036436896335862046,0.024070526898594874,0.001956918276846409,0.0011570800561457872,0.008870188146829605,-0.2396021597832441,0.002475393336208072,-9.806327948570251
0.1,0.10000000149011612,231.0,25.53432273864746,-0.08746951073408127,-79.78274493878419,40.459056707365825,271.3034648888111,-0.006738951895385982,0.010305658914148808,-0.9362415075302124,0.35114145278930664,-0.029294977856048243,0.0004026908554667051,0.015649338101291658,0.006444043014198543,0.0026849799323827037,-0.00584715697914362,-0.24714428225532176,0.0174688068672549,-9.803863931894305
0.3,0.10000000149011612,239.0,25.535573959350586,-0.04771064221858978,-79.78274491139541,40.45905672437495,271.3050133727789,-0.006731871049851179,0.010309740900993349,-0.9362451434135436,0.3511318266391754,-0.032272394954363987,0.0004063094339243952,0.01558825584510639,0.0009830038761720061,0.0010720762657001617,0.0077430466189980516,-0.2405461562052369,0.0018997015507193288,-9.807447105646132
0.4,0.10000000149011612,251.0,25.536827087402344,-0.08746951073408127,-79.78274498440207,40.45905669938032,271.3253508799076,-0.00667627388611436,0.010310321114957331,-0.9362536668777466,0.3511099219322205,-0.014716613598887969,-0.006292337279910996,0.014540847311415726,0.00951807014644146,0.003422453999519348,-0.00023536085791420192,-0.2370565196312964,0.021631897646002467,-9.801842549443244
0.6,0.10000000149011612,258.0,25.531818389892567,-0.08746951073408127,-79.78274497480675,40.45905671248821,271.32681256461143,-0.006659664213657379,0.010313642211258413,-0.936254620552063,0.35110774636268616,-0.01778348069430814,-0.006306953044280787,0.014484840548537029,-0.0005795260658487678,-0.00023540289839729667,0.008366132155060768,-0.2403154104575515,-0.0005707801814423874,-9.800798236727717
0.7,0.20000000298023224,267.0,25.531818389892567,-0.09542128443717957,-79.78274490944965,40.45905670310603,271.3475020222664,-0.006644686684012413,0.010319503024220468,-0.9362615346908568,0.3510893881320953,-0.02345527566025716,-0.0020613711365158145,0.014802980762632954,0.00400856276974082,0.0046442560851573935,0.0025660193059593443,-0.23585581216961146,0.022695133870001882,-9.804886025190351
0.9,0.20000000298023224,272.0,25.523054122924805,-0.039758868515491486,-79.78274492447169,40.459056678272425,271.36748094785213,-0.00661910604685545,0.010300759226083755,-0.9362636208534241,0.35108476877212524,-0.014148328706820187,-0.004006295981110219,0.013957460177043034,-0.00199482636526227,-0.0002667307562660426,0.008713755756616592,-0.2409897040575743,0.0006931537255877629,-9.803317801952364
1.0,0.20000000298023224,279.0,25.523054122924805,-0.11132483184337616,-79.78274491310471,40.459056690911716,271.3688695423603,-0.0066178226843476295,0.01030330080538988,-0.9362697601318359,0.3510685861110687,-0.018921180251688784,-0.004839132459990536,0.013896762482960396,-0.007607914041727781,-0.0024339656811207533,-0.007813645526766777,-0.24555592266842724,0.0226271325792186,-9.803827094435693
1.2,0.20000000298023224,282.0,25.533069610595703,-0.10337305814027786,-79.78274486976747,40.45905667552578,271.3922259800434,-0.006580360233783722,0.01029821764677763,-0.936275601387024,0.3510538339614868,-0.020610337409308475,-0.0023837175941392444,0.014129930670496725,-0.007769142277538776,-0.002685362938791513,-0.00422883965075016,-0.24120725702494386,-0.0008925677620572971,-9.805101202726362
1.3,0.30000001192092896,284.0,25.531818389892567,-0.08746951073408127,-79.78274484550451,40.45905665829928,271.4129855029583,-0.006580313667654989,0.010302489623427393,-0.936284601688385,0.3510294854640961,-0.020479680514697143,-0.0026976189649047305,0.014060506185730121,0.003007923718541861,0.004084636922925711,0.0036144340410828603,-0.2378616812266409,0.021739847296848896,-9.804476135373116
1.5,0.30000001192092896,283.0,25.52931404113769,-0.08746951073408127,-79.7827448273718,40.459056673288,271.41439074206346,-0.006607118993997574,0.010279763489961624,-0.9362849593162536,0.3510287404060364,-0.023525859147953538,-0.00284428801278152,0.014033581289021213,0.000841352331917733,0.0006878797430545093,0.009461731649935246,-0.24108340568840506,0.0003890179982408882,-9.804676694869997
1.6,0.30000001192092896,291.0,25.53432273864746,-0.07951773703098297,-79.78274482696233,40.45905666637066,271.435950963974,-0.0065993135794997215,0.010259959846735,-0.9362886548042296,0.3510198295116425,-0.020904393612069645,-0.005633556409242443,0.013880914562304943,0.007905358448624611,0.0046547781676054,0.003185851732268929,-0.24547004168853165,0.020528879798948758,-9.804422340989113
1.8,0.30000001192092896,290.0,25.53432273864746,-0.10337305814027786,-79.78274479292878,40.459056702241284,271.43874597477907,-0.006611812859773636,0.010258715599775314,-0.9362946152687072,0.351003497838974,-0.028860500178666763,-0.006768914813828656,0.014006357967174672,-0.0020898422226309768,-0.0009365910664200783,-0.007972503080964087,-0.2426117399521172,0.00024381861439906066,-9.80588063657284
1.9,0.30000001192092896,289.0,25.53432273864746,-0.09542128443717957,-79.78274478998405,40.45905666315166,271.4593232862949,-0.006597382482141256,0.010265960358083248,-0.9362991452217102,0.3509915769100189,-0.021650472302465317,-0.003442498818686196,0.013953524719550369,0.006664484273642302,0.0056839375756680965,0.008985145948827267,-0.23447210513055325,0.00999880728777498,-9.806660655140877
2.1,0.30000001192092896,290.0,25.52931404113769,-0.07951773703098297,-79.78274477190381,40.45905667877806,271.4607232801914,-0.006610121112316847,0.010267473757266998,-0.936294674873352,0.3510031402111053,-0.025956509984145282,-0.0035987675862407045,0.014019292080257704,-0.006595328450202942,-0.006102482322603464,0.0014027032302692533,-0.2460997685417533,0.004906051475554705,-9.805828596353534
2.2,0.30000001192092896,293.0,25.53432273864746,-0.08746951073408127,-79.78274473454752,40.459056639507004,271.48357289957994,-0.006583154201507568,0.010299707762897016,-0.9363051056861876,0.3509749174118042,-0.02482875993175285,0.00014425371390352874,0.014867739336712347,0.007953987456858158,-0.002657089848071337,0.009297805838286877,-0.237956387847662,0.003223088050726801,-9.805851985216144
2.4,0.30000001192092896,294.0,25.52931404113769,-0.11927660554647446,-79.78274477998006,40.45905658717636,271.50504666495317,-0.0065623149275779715,0.010283628478646278,-0.9363073706626892,0.35096973180770874,-0.016173116660764302,-0.002959867373301412,0.015041074358746012,-0.009689708240330221,-0.0022516639437526464,-0.005616398993879557,-0.2473828851990402,0.01472167303436436,-9.803493218421936
2.5,0.30000001192092896,296.0,25.533069610595703,-0.12722837924957275,-79.7827447670732,40.45905659945977,271.5065369598865,-0.0065685585141181954,0.01028472650796175,-0.9363195300102234,0.35093721747398376,-0.01876099488808189,-0.004090506655797684,0.014843801748982975,0.0028360388241708283,-0.0004179517272859812,0.0001026147001539357,-0.23714616475626826,0.02400018672225997,-9.802064743638038
2.7,0.30000001192092896,295.0,25.52430534362793,-0.10337305814027786,-79.78274480058883,40.459056559444754,271.53302392292017,-0.006530992686748505,0.010277102701365948,-0.9363359212875366,0.3508943021297455,-0.013948204249058394,-0.006327106626374976,0.017941698596961483,0.006178205832839012,0.004302632994949818,0.003619369119405747,-0.2453054060228169,0.021771730610635132,-9.803091514706614
2.9,0.30000001192092896,297.0,25.53056526184082,-0.11132483184337616,-79.782744787219,40.459056516206964,271.554472773552,-0.0065549868158996105,0.010259907692670822,-0.93633371591568,0.35090020298957825,-0.01547664229389809,-0.002703447001744925,0.01752749679870278,-0.0032980709802359343,-0.005142693407833576,0.007248190231621265,-0.2431519678607583,0.00040950038353912535,-9.804448653459552
3.01,0.30000001192092896,296.0,25.52931404113769,-0.12722837924957275,-79.7827447595528,40.459056541895094,271.55798101353645,-0.006565066520124674,0.010265654884278774,-0.9363465309143066,0.3508657813072205,-0.02163063192865628,-0.004476983826028553,0.01740957484599321,0.004698630888015032,0.0007344873156398535,0.005807285662740469,-0.24284979471936824,0.027478517156559967,-9.80278921365738
3.1,0.4000000059604645,293.0,25.52680969238281,-0.11132483184337616,-79.78274477091192,40.45905648794341,271.57903557944303,-0.006558635272085668,0.010253427550196648,-0.9363458752632141,0.3508680760860443,-0.017788411404009257,-0.003026181330609002,0.016694544676343327,-0.003759324317798019,-0.006166368257254362,0.0035710225347429514,-0.24474703347310425,0.002215841200668365,-9.804930464029312
3.3,0.4000000059604645,290.0,25.52680969238281,-0.12722837924957275,-79.78274475666439,40.4590565011345,271.58069950270647,-0.006538757588714361,0.010254420340061188,-0.9363533854484558,0.3508482873439789,-0.02192827578485624,-0.0042076677942814965,0.016704996821207296,-0.0018016501562669875,-0.0008887642179615797,-0.010092316195368769,-0.24257841082289816,0.026977837895974518,-9.802244837880137
3.41,0.4000000059604645,293.0,25.52430534362793,-0.11132483184337616,-79.78274473441094,40.45905646014846,271.60580408501625,-0.00657854275777936,0.010267744772136213,-0.93635892868042,0.35083237290382385,-0.023077980749291738,-0.0014130269697087766,0.019928059966060643,-0.0033789982553571467,-0.003952792380005121,0.004229143261909485,-0.2443710392341017,0.0009021145978476852,-9.805209376215931
3.61,0.4000000059604645,293.0,25.53056526184082,-0.11927660554647446,-79.782744714688,40.45905647515007,271.6077944331169,-0.006567002274096012,0.010270874947309494,-0.9363613128662108,0.3508259356021881,-0.0272660148314724,-0.002666819301416629,0.020024740863784817,-0.0042983246967196465,0.002935785800218582,-0.009803717024624348,-0.2427886913158,0.026528180160094054,-9.80317688405514
3.7,0.4000000059604645,292.0,25.53056526184082,-0.11927660554647446,-79.78274472948223,40.45905641529769,271.62782856750493,-0.006559108383953571,0.010263084433972836,-0.9363667368888856,0.3508119583129883,-0.02119134010816686,-0.0009108101262086336,0.019153730323771045,0.007626634091138841,0.00654058950021863,0.007923757657408714,-0.2354066180996597,0.012510934442980216,-9.8042492634058
3.9,0.4000000059604645,290.0,25.535573959350586,-0.07951773703098297,-79.78274471285368,40.45905637753226,271.6501187376976,-0.006545556243509054,0.010265257209539412,-0.936365246772766,0.3508161604404449,-0.023163388163031547,0.0004186837204317893,0.018279989284591056,-0.003611799329519272,0.0013634631177410483,-0.008568985387682916,-0.2436268348619342,0.02633268672740087,-9.803408433794976
4.0,0.4000000059604645,289.0,25.531818389892567,-0.10337305814027786,-79.78274469088895,40.45905639139056,271.6519300632477,-0.006550439167767763,0.010264348238706587,-0.9363731145858764,0.35079512000083923,-0.025196342557145587,-0.0005047716790105589,0.018229538731137168,0.00809863954782486,0.007603412028402091,0.0030869727488607173,-0.2356658324785531,0.013964009787887336,-9.804449238181112
4.2,0.4000000059604645,290.0,25.53432273864746,-0.10337305814027786,-79.7827446522458,40.45905632593377,271.6786560111046,-0.006552190519869328,0.010267625562846659,-0.9363773465156556,0.3507835566997528,-0.02398735751739861,0.004979383435326437,0.021162473746873904,0.007004003506153822,0.0025248993188142768,0.004087759181857109,-0.2431086436472833,0.02713021496543661,-9.80350257396698
4.3,0.4000000059604645,288.0,25.52430534362793,-0.08746951073408127,-79.7827447609063,40.45905626901215,271.69823458719253,-0.006516161374747753,0.010263302363455296,-0.9363820552825928,0.35077187418937683,-0.009475445769535549,-0.0035911398814167687,0.017836273523718246,-0.004632625728845596,0.0012217391049489381,0.006366674322634935,-0.24593840366229416,0.0026449822902213783,-9.805962497591972
4.5,0.30000001192092896,288.0,25.533069610595703,-0.09542128443717957,-79.78274475409606,40.45905627819679,271.70002570676803,-0.006507615558803082,0.010232007130980492,-0.9363901019096376,0.3507514595985413,-0.013196157791249576,-0.0049672974428880395,0.01795429924818395,-0.0009824479930102825,0.0015469484496861696,-0.010542236268520357,-0.2420505534298718,0.02996929854853079,-9.803177468776703
4.6,0.30000001192092896,287.0,25.533069610595703,-0.09542128443717957,-79.7827447255984,40.45905623666701,271.72277590560907,-0.006522315088659525,0.010253336280584335,-0.9363911151885986,0.3507479429244995,-0.01802930506600044,-0.0003304894892872338,0.020071958898648875,-0.007570210844278336,-0.004050549119710922,-0.002832565689459443,-0.23545982776209715,0.004848334203707055,-9.805531557798384
4.8,0.30000001192092896,286.0,25.53056526184082,-0.07951773703098297,-79.78274470950893,40.45905624759454,271.72476628351205,-0.006524972151964903,0.010242908261716366,-0.9363994002342224,0.350725919008255,-0.02090158929940329,-0.0015557530200540747,0.019993908446165474,0.002671981696039439,0.002832551253959537,-0.005016640294343233,-0.23829777387902146,0.026940749189816416,-9.802059481143953
4.9,0.30000001192092896,285.0,25.533069610595703,-0.09542128443717957,-79.78274475782635,40.45905623093218,271.747347383976,-0.006519991904497147,0.010238474234938622,-0.9364166259765624,0.35068032145500183,-0.019069639352180902,-0.007778754306380533,0.021346713867338413,-0.005787548143416643,-0.005813929252326489,-0.002680219477042556,-0.24756639640778305,0.015402351748198272,-9.80372301399708
5.1,0.30000001192092896,285.0,25.52931404113769,-0.07156596332788467,-79.7827447475034,40.45905624692305,271.74948999214166,-0.006496303249150515,0.010263564996421335,-0.9364250302314758,0.3506576120853424,-0.021429814593065286,-0.009052901446434029,0.02133038849696116,0.005973991472274065,0.005886267405003309,-0.0019778930582106113,-0.2385002154484392,0.0232512703165412,-9.804072677493096
5.2,0.30000001192092896,285.0,25.53432273864746,-0.09542128443717957,-79.78274471733259,40.45905621905187,271.77030917930597,-0.0065050791017711145,0.01026903185993433,-0.9364246129989624,0.3506581783294678,-0.02674138225523286,-0.003668632965137383,0.019981691887637584,-0.00840893667191267,-0.004490282852202654,-0.008621730841696262,-0.2455040469020605,0.019501868903171272,-9.803991985917092
5.41,0.30000001192092896,284.0,25.533069610595703,-0.10337305814027786,-79.7827447899501,40.45905618227893,271.78838184404367,-0.006471096072345972,0.010265602730214596,-0.9364309906959534,0.35064202547073364,-0.017076197562674353,-0.009345680253161908,0.017285502846875668,0.006920015439391136,0.003079010173678398,-2.099453740811441e-05,-0.2374104589037597,0.020538737839087846,-9.804470288157463
5.5,0.30000001192092896,284.0,25.52931404113769,-0.11132483184337616,-79.78274476845448,40.45905621879261,271.79187545108795,-0.00645738746970892,0.010276290588080885,-0.936428427696228,0.3506486415863037,-0.024525736907269887,-0.01050765576659594,0.01749929991479165,-0.005053207743912935,-0.0008711853297427298,-0.007091892417520285,-0.2404107566177845,0.00010727242450229825,-9.805417537093163
5.7,0.30000001192092896,282.0,25.53056526184082,-0.10337305814027786,-79.78274478244161,40.459056191782416,271.81326690244674,-0.006453792564570904,0.0102562066167593,-0.9364387392997742,0.3506220877170563,-0.02297145679629848,-0.007915441712821408,0.019236574272244844,-0.002992382738739252,-0.0017948121530935168,0.010801423341035843,-0.2375437936931849,0.019740885263308885,-9.803666880726814
5.8,0.30000001192092896,281.0,25.53432273864746,-0.07951773703098297,-79.78274481327351,40.45905614067185,271.83428785133356,-0.006449228618294001,0.010264669544994831,-0.9364439845085144,0.3506079018115997,-0.01805123698648024,-0.004360828880642962,0.02410555897683192,-0.005464469082653522,-0.002623305656015873,-0.010004236362874508,-0.24597202515229585,0.019989238895941525,-9.80207585334778
6.0,0.30000001192092896,281.0,25.531818389892567,-0.10337305814027786,-79.78274479953778,40.45905615474216,271.83668771314615,-0.006439852528274059,0.01026803720742464,-0.9364492893218994,0.3505936861038208,-0.020310878010790144,-0.005485861176698153,0.02395407901645737,0.004974103532731533,0.0056070745922625065,-0.00117325852625072,-0.2364806419797241,0.020569422016851604,-9.802641279101373
6.1,0.30000001192092896,282.0,25.53432273864746,-0.07951773703098297,-79.78274479718466,40.45905613041045,271.85866245555883,-0.00642380490899086,0.010260933078825474,-0.9364491105079652,0.3505945205688477,-0.02227603111364971,-0.002586445975674569,0.024470388582656027,-0.004866268485784532,0.0004561936075333506,-0.004959132056683302,-0.2396954411454499,0.0013573317567352205,-9.804096066355706
6.3,0.30000001192092896,281.0,25.53432273864746,-0.05566241592168808,-79.78274477906986,40.45905614500465,271.8610979609489,-0.0064097847789526,0.010270904749631882,-0.9364585876464844,0.3505692780017853,-0.02433464713082116,-0.0037673187888969686,0.0244744028894868,0.004383679479360581,0.004073130432516336,-0.0006339840474538505,-0.2380217304825783,0.022051090474706145,-9.803699625134467
6.4,0.30000001192092896,281.0,25.53056526184082,-0.09542128443717957,-79.7827447794274,40.45905613835569,271.8800121240616,-0.00639380794018507,0.010255869477987293,-0.9364618062973022,0.3505614697933197,-0.026948370789605536,-0.003952969868743172,0.0200737227306822,-0.003547935513779521,0.0009362310520373284,-0.003753373166546226,-0.2460407299362123,0.016826226417906584,-9.801632634401322
6.61,0.30000001192092896,282.0,25.52680969238281,-0.10337305814027786,-79.78274478106529,40.45905610115012,271.9019229702949,-0.006369994021952152,0.010281638242304323,-0.9364686608314514,0.3505428731441498,-0.02085437120339477,-0.0006505923352122143,0.02380307192326629,0.0018035558750852945,0.002287904266268015,0.007232589181512593,-0.2386015001870692,0.024222819458227605,-9.80315934240818
6.7,0.30000001192092896,284.0,25.53432273864746,-0.09542128443717957,-79.78274476158609,40.459056114363754,271.90430381822586,-0.006355070509016514,0.010301690548658373,-0.9364613890647888,0.35056182742118835,-0.02512287423941201,-0.0013448515779171195,0.02392826852049624,-0.005792777054011822,-0.00457804137840867,-0.0017708006780594585,-0.2466393386386335,0.014071110907243566,-9.8031371229887
6.9,0.30000001192092896,282.0,25.52806282043457,-0.07951773703098297,-79.78274477493098,40.45905607520272,271.9254935078621,-0.006335782818496227,0.010326990857720377,-0.9364689588546752,0.3505411446094513,-0.019981071562132243,0.0018153592382225629,0.030201845403654844,0.005760341882705689,0.0041200281120836735,-0.004911951255053282,-0.2381471898034215,0.02631261890055612,-9.80473516702652
7.0,0.30000001192092896,282.0,25.52806282043457,-0.11132483184337616,-79.7827447538523,40.45905608625532,271.9284992508888,-0.006336073391139507,0.010324290953576565,-0.936473548412323,0.3505289554595947,-0.02209719862441994,0.0013660351745241285,0.03022402427224978,0.003688849043101072,0.0022334291134029627,0.006587760522961617,-0.24020261401310564,0.003305261416244321,-9.80506728887558
7.2,0.30000001192092896,282.0,25.531818389892567,-0.08746951073408127,-79.78274475913877,40.459056085402395,271.95915982055664,-0.006293021608144046,0.010308909229934216,-0.9364835619926452,0.35050347447395325,-0.02163489122432272,-0.0019310735609308464,0.038781109837962006,0.005729739554226399,-0.00010493324225535616,0.00709657557308674,-0.2400004282593728,0.02756122099701316,-9.80207702279091
7.3,0.30000001192092896,282.0,25.531818389892567,-0.08746951073408127,-79.78274477995397,40.45905602847917,271.9819622330665,-0.006285109557211399,0.010316995903849602,-0.9364845156669616,0.35050082206726074,-0.016015253749708042,0.005228560975495063,0.044530435742030736,-0.004238958470523357,-0.0012307765427976847,3.790521441260353e-05,-0.2462687713466585,0.009394551225705072,-9.803421882390976
7.5,0.30000001192092896,284.0,25.52931404113769,-0.10337305814027786,-79.7827447603951,40.45905603477439,271.9863928251266,-0.00628950260579586,0.010323256254196169,-0.9364935755729676,0.3504764437675476,-0.01867429139159459,0.003956570166734988,0.044564439546943176,0.0018611064879223702,0.002274177968502045,-0.005567020270973444,-0.2389289808087051,0.029117366080172364,-9.802643617987632
7.6,0.30000001192092896,284.0,25.52931404113769,-0.11132483184337616,-79.78274473146121,40.45905602033209,272.0106208615303,-0.006305260583758354,0.010336269624531269,-0.9364894032478333,0.3504869341850281,-0.021606293673035626,0.0067680253386227535,0.045096410417087535,-0.004994690418243408,-0.005667758174240589,-0.000924066873267293,-0.2378457292914391,0.004219932395790238,-9.805350294113161
7.8,0.30000001192092896,284.0,25.52931404113769,-0.08746951073408127,-79.78274480268945,40.459056028822154,272.0344403676986,-0.00627361424267292,0.010312473401427269,-0.9365000128746032,0.35045987367630005,-0.012156391083748695,-0.006651332999778997,0.043992375416126016,0.004246756434440614,0.0006235861219465733,0.009896423667669295,-0.2391537514328957,0.029127865943592044,-9.802645956873896
7.91,0.30000001192092896,284.0,25.54183387756348,-0.007951773703098297,-79.78274479440077,40.45905604157739,272.0388597540856,-0.006261007860302925,0.01031564362347126,-0.936502993106842,0.3504520356655121,-0.016396462287704368,-0.007298208039493947,0.04422143274701125,-0.00452243909239769,-0.0016334999818354845,-0.002396164461970329,-0.2472744193486869,0.010465192400151865,-9.803483862876892
8.1,0.30000001192092896,283.0,25.531818389892567,-0.09542128443717957,-79.78274478541799,40.45905605544589,272.0432963066101,-0.006252303719520569,0.010306329466402529,-0.936510980129242,0.3504311144351959,-0.01858032114403938,-0.008664467631677716,0.044334398360471004,0.0022386040072888136,7.043821824481711e-05,-0.006832676008343697,-0.239067888725549,0.027245571850799025,-9.803873872160912
8.2,0.30000001192092896,282.0,25.531818389892567,-0.09542128443717957,-79.7827447567939,40.459056027399185,272.065764635086,-0.006253739818930626,0.010296457447111608,-0.9365188479423524,0.3504101634025574,-0.020102711606479886,-1.6692101432187745e-05,0.04222242580787443,-0.009186906740069393,-0.004397572483867407,-0.005497634410858154,-0.2470428696088493,0.016392915761098262,-9.803375104665756
8.4,0.30000001192092896,281.0,25.52931404113769,-0.11132483184337616,-79.78274477937862,40.45905602653606,272.08995208072656,-0.006237997207790613,0.010302338749170305,-0.9365231990814208,0.35039886832237244,-0.01682341393096703,-0.002227317185548798,0.04286684181103522,0.005106265190988779,-0.000312548567308113,0.008978880941867828,-0.2377286936156452,0.022906912711914636,-9.801943706274034
8.6,0.30000001192092896,279.0,25.533069610595703,-0.10337305814027786,-79.78274476451494,40.45905603835249,272.09424742984766,-0.006232381332665682,0.01030970923602581,-0.9365261197090148,0.35039082169532776,-0.02090693016212449,-0.003216813288191793,0.04309966702729548,-0.00545083824545145,-0.0020604454912245274,-0.007341932971030474,-0.245463810749352,0.02097197768976912,-9.802299216985704
8.7,0.30000001192092896,280.0,25.531818389892567,-0.11132483184337616,-79.78274473714808,40.45905603447863,272.11607250499725,-0.0062078051269054395,0.010328979231417179,-0.9365363121032716,0.3503634035587311,-0.0225622486049924,0.0006075094682334173,0.0414689031079717,0.0021223428193479768,-0.002001778455451131,0.006597238592803478,-0.23581901125609875,0.019261189741082492,-9.804034670591356
8.8,0.30000001192092896,282.0,25.53056526184082,-0.09542128443717957,-79.78274479397716,40.45905601795582,272.13371786403656,-0.0061766235157847404,0.010315291583538055,-0.9365451335906982,0.3503409028053284,-0.013057911842276818,-0.0008520921419870487,0.038734716362334914,-0.005907934159040451,-0.0007171359029598534,-0.008831546641886234,-0.24603579634800554,0.021679721474647518,-9.80257988333702
9.0,0.30000001192092896,282.0,25.52806282043457,-0.11132483184337616,-79.78274476886313,40.45905603606264,272.1414694480896,-0.006182280834764242,0.010344785638153551,-0.9365581274032592,0.35030534863471985,-0.016975101702063167,-0.0024792155509595496,0.03881317130626062,0.0022003366611897945,0.0007944602984935045,0.007054061163216829,-0.2369628545455635,0.019644922404550017,-9.803682083487509
9.1,0.30000001192092896,284.0,25.520549774169922,-0.10337305814027786,-79.78274477159431,40.45905603351728,272.15912696647644,-0.006181651260703802,0.010347300209105015,-0.9365608692169192,0.350297749042511,-0.018143342223675044,-0.000966253970543199,0.03759744626467309,-0.00795619282871485,-0.0010062052169814708,-0.007199419662356377,-0.2453546688146889,0.020189921732526272,-9.802077607512476
9.3,0.30000001192092896,284.0,25.533069610595703,-0.10337305814027786,-79.78274476355158,40.45905602286671,272.1807897977829,-0.006185496691614389,0.010380053892731668,-0.9365684390068054,0.3502765595912933,-0.015439498261861966,0.0027909983003905786,0.03664591801882601,0.0011456292122602465,-0.003332625143229961,0.008899352513253689,-0.23693444073200226,0.020816864306107158,-9.803057600855828
9.4,0.30000001192092896,284.0,25.531818389892567,-0.11927660554647446,-79.78274474565579,40.45905603110289,272.18444606590265,-0.006161481607705355,0.010371842421591282,-0.9365735054016112,0.3502636253833771,-0.01938541013828321,0.001961905285261141,0.036762278860420494,-0.003262261627241969,7.662584539502859e-05,-0.008239833638072014,-0.24579576814547185,0.018917745763901626,-9.802215601801873
9.6,0.30000001192092896,285.0,25.531818389892567,-0.11132483184337616,-79.78274472677727,40.45905604045553,272.1881103210449,-0.006148315966129303,0.010383744724094871,-0.9365846514701844,0.350233793258667,-0.020908803806265717,0.0008881420247885242,0.036789807373899176,0.0027758670039474964,0.003738456405699253,0.001630003331229091,-0.2374511518701911,0.021020676316693427,-9.803293243646623
9.7,0.30000001192092896,286.0,25.52430534362793,-0.13518016040325165,-79.78274473993132,40.45905604823332,272.20876142311096,-0.006140520330518484,0.010376879014074802,-0.9365874528884888,0.35022664070129395,-0.02035504498154314,-0.0011912313186426306,0.035896769215132136,-0.004369380883872509,-0.002176662441343069,-0.008424527943134308,-0.2461430013924837,0.019830758795142168,-9.802523165345193
9.9,0.30000001192092896,286.0,25.52931404113769,-0.08746951073408127,-79.78274470590488,40.45905603903258,272.22999259757995,-0.0061540002934634686,0.010405702516436577,-0.9366047382354736,0.350179135799408,-0.019517810959287046,0.004945577049467921,0.03589658036073862,-0.0011633886024355884,0.0008710501715540888,0.008511736057698727,-0.2363013700023293,0.020092309776227918,-9.803729445934296
10.0,0.30000001192092896,287.0,25.52806282043457,-0.11927660554647446,-79.78274468354869,40.45905604738845,272.23356828022,-0.00614355131983757,0.010401029139757156,-0.936611831188202,0.3501606285572052,-0.023241525256666395,0.004157669989137969,0.03605561950263785,-0.006419089157134295,-0.004651149269193411,-0.007826996967196466,-0.2392812572792173,-3.170629846863449e-05,-9.804532853364943
10.2,0.30000001192092896,288.0,25.533069610595703,-0.10337305814027786,-79.78274468082405,40.459056059264455,272.25140842723846,-0.00615630717948079,0.01040785014629364,-0.9366222023963928,0.3501322865486145,-0.02124676667348416,0.0031320562852567057,0.030623250385674275,0.0020249176304787397,-0.0008303350186906755,0.00843872781842947,-0.2371164535917342,0.020620320201851432,-9.802064158916474
10.3,0.30000001192092896,290.0,25.52555847167969,-0.11927660554647446,-79.78274474364926,40.45905604491072,272.2676262550354,-0.006124601699411869,0.01041160710155964,-0.9366271495819092,0.3501197099685669,-0.01042628001573716,0.000914501074491642,0.027734239109402058,-0.005667373538017273,-0.0035204943269491204,-0.008199980482459068,-0.2459863142855465,0.020387987026479096,-9.80227115035057
10.5,0.30000001192092896,288.0,25.523054122924805,-0.07951773703098297,-79.78274472077253,40.459056057828064,272.273159831047,-0.0061399778351187715,0.010429654270410538,-0.9366331100463868,0.35010290145874023,-0.014208377071657785,-0.0003796687237611661,0.02768687438760206,0.0038043896201998,-0.002016470767557621,0.0057166777551174155,-0.2371866749972105,0.019747853956650945,-9.803307861685754
10.6,0.30000001192092896,288.0,25.52931404113769,-0.10337305814027786,-79.78274470167926,40.45905607272661,272.2894094877243,-0.006135111674666405,0.010428224690258505,-0.9366372227668762,0.3500920534133911,-0.018540810334496352,0.0014869102797503279,0.02715840249222331,-0.004420088138431311,-0.002378971315920353,-0.007826652377843857,-0.2405301859974861,0.0003959033230785282,-9.803236525654793
10.8,0.30000001192092896,288.0,25.52931404113769,-0.07156596332788467,-79.78274472713456,40.459056089438356,272.30681797790527,-0.006138585042208433,0.010437474586069584,-0.9366431236267092,0.350075900554657,-0.011889249092513769,-0.0028123150762849203,0.021974799990200373,0.0013664414873346686,-0.0015761894173920155,0.007024390157312155,-0.2369365420751273,0.020657886278349902,-9.803789087533954
10.9,0.30000001192092896,288.0,25.519296646118164,-0.07156596332788467,-79.78274471719256,40.45905609948292,272.3090194158554,-0.006142441648989916,0.010410374030470848,-0.9366506338119508,0.35005658864974976,-0.015647831142152006,-0.0037278255667921602,0.0221042845412979,-0.006955737248063088,-0.002240362344309688,-0.007717667147517204,-0.2442987530305981,0.02259405012940988,-9.802185781002043
11.1,0.30000001192092896,289.0,25.52931404113769,-0.09542128443717957,-79.78274471859733,40.45905610478189,272.3265601091385,-0.006166626233607532,0.01042866613715887,-0.9366631507873536,0.3500219285488129,-0.012541616048624292,-0.0017313381079727302,0.019885245593405744,-0.0001320380542892963,-0.0033036964014172554,0.008536072447896005,-0.2374778480641544,0.01891337748267688,-9.803763944506644
11.2,0.30000001192092896,288.0,25.52931404113769,-0.07951773703098297,-79.78274470764478,40.459056113977816,272.32855686473846,-0.006154778879135847,0.01043514348566532,-0.9366629123687744,0.3500227332115173,-0.016212945017831215,-0.002620366068287163,0.020099451705825826,-0.007065121550112963,1.1676686881401107e-05,-0.009871521964669228,-0.2453162781894207,0.0230694675911218,-9.803121920228005
11.4,0.30000001192092896,288.0,25.53056526184082,-0.09542128443717957,-79.78274472142223,40.459056151438354,272.34547707366943,-0.00618087500333786,0.010413350537419321,-0.9366708397865297,0.3500018119812012,-0.01645129440057204,-0.0062504491536955215,0.01702259610786944,-0.002040204359218478,3.493625990813598e-05,0.007283945567905903,-0.23625276502221826,0.018966981146950286,-9.802714369297028
11.6,0.30000001192092896,288.0,25.533069610595703,-0.07156596332788467,-79.78274471085189,40.459056166024496,272.3471901111604,-0.0061686099506914616,0.010410753078758715,-0.9366801381111144,0.34997692704200745,-0.02012028508016991,-0.007159445547473936,0.01711472756645594,-0.004686393775045872,0.000916190561838448,-0.01191219873726368,-0.2457290916144848,0.02310361898504197,-9.80064387023449
11.7,0.20000000298023224,288.0,25.53056526184082,-0.10337305814027786,-79.78274469418514,40.459056196852735,272.36462137031555,-0.0061647011898458,0.010440360754728316,-0.9366890788078308,0.3499523401260376,-0.02181215931086155,-0.005943911063708175,0.016860759853173913,0.000350982416421175,0.0009476119303144516,0.008096274919807911,-0.2363289980962873,0.018397192822303624,-9.802530766725539
11.8,0.20000000298023224,288.0,25.52931404113769,-0.07951773703098297,-79.782744733645,40.45905620351457,272.37887641716003,-0.006134990602731705,0.010439876466989515,-0.9366936087608336,0.34994083642959595,-0.0152027531757319,-0.007357910583367546,0.012145649344906995,-0.007338540628552438,0.00017181126167997718,-0.006354195065796375,-0.24506466519087555,0.02265132771804929,-9.80185190498829
12.0,0.20000000298023224,288.0,25.51804542541504,-0.11132483184337616,-79.78274471559854,40.45905623327624,272.3812955312729,-0.006147363223135471,0.010469399392604828,-0.9367036819458008,0.3499126732349396,-0.019141800635449097,-0.008210642245942833,0.011993239029156378,-0.001133227371610701,-0.0040515875443816185,0.007785475812852383,-0.2356202059239149,0.01647561160731129,-9.802444227933883
12.1,0.20000000298023224,286.0,25.52931404113769,-0.11132483184337616,-79.78274470806504,40.4590562307266,272.3955356769562,-0.006141779944300652,0.010474355891346931,-0.9367063641548156,0.34990543127059937,-0.018740248454307763,-0.0033057704668943266,0.008772840287445604,-0.0042804707773029796,0.00012446899199858308,-0.009024642407894136,-0.24311078153550625,0.02361287035513669,-9.80242493212223
12.3,0.20000000298023224,286.0,25.52680969238281,-0.09542128443717957,-79.78274469406747,40.45905624384199,272.3964124612808,-0.006141267716884613,0.01048200111836195,-0.9367129802703856,0.349887490272522,-0.019890318721193446,-0.0041043217774455,0.00879906221118156,0.01048344373703003,0.005220740102231503,0.0032576892990618944,-0.23570219485089186,0.015824753693304956,-9.804516481161118
12.4,0.20000000298023224,286.0,25.52931404113769,-0.10337305814027786,-79.78274467693205,40.45905619475397,272.4182771139145,-0.006151207722723484,0.010511549189686777,-0.936717689037323,0.34987375140190125,-0.014250567329167766,0.007150398373522445,0.017218999239454538,-0.0060172430239617825,-0.002724270569160581,-0.008669397793710232,-0.244796369355172,0.024732555050868545,-9.80210158109665
12.6,0.20000000298023224,286.0,25.52555847167969,-0.11132483184337616,-79.78274465888637,40.459056197682045,272.4199683361053,-0.006143066566437483,0.010520514100790024,-0.936722457408905,0.3498610854148865,-0.015245066743994737,0.006464169798429318,0.01710252276170228,0.0041259038262069225,0.0050133871845901,0.0027898724656552076,-0.23520044893026354,0.015541773580480369,-9.804094896912575
12.7,0.20000000298023224,285.0,25.52555847167969,-0.11927660554647446,-79.78274462029437,40.45905621701162,272.44237324523925,-0.006117521785199642,0.01051199622452259,-0.93672776222229,0.3498474955558777,-0.021576403571274643,0.00692600254070533,0.024233419780279944,-0.0012710728915408256,-0.0006308665033429861,-0.007155454251915216,-0.2419105491600931,0.023958954715635628,-9.801882310509685
12.9,0.20000000298023224,285.0,25.53056526184082,-0.09542128443717957,-79.78274460528839,40.45905620309482,272.467213719368,-0.006102604791522026,0.01053536869585514,-0.936732828617096,0.34983357787132263,-0.016978687282426252,0.010168120885877615,0.033681910444690565,0.0007448147516697643,-0.002068084431812167,0.003200436243787408,-0.23483373714610936,0.014457865393487737,-9.803983215093618
13.01,0.20000000298023224,284.0,25.52180099487305,-0.10337305814027786,-79.78274458157607,40.45905620633368,272.47056123542785,-0.00610081572085619,0.010540359653532505,-0.9367315173149108,0.3498367369174957,-0.020387337894761225,0.0092676206059326,0.03388997167654284,-0.004017078317701817,-0.0011784915113821626,-0.00967987347394228,-0.2450999860279262,0.02431300133932382,-9.802626076340676
13.2,0.20000000298023224,284.0,25.519296646118164,-0.09542128443717957,-79.7827446110964,40.459056159409364,272.4970986537933,-0.006067297887057066,0.010577844455838205,-0.9367411732673644,0.34981051087379456,-0.010085362519994322,0.012612009835397855,0.0413119942966927,-0.00335449050180614,-0.001545497914776206,0.00529841473326087,-0.2354099985212088,0.01410585273290053,-9.800749120116237
13.4,0.20000000298023224,283.0,25.52680969238281,-0.07156596332788467,-79.78274465171427,40.4590561575296,272.51932582187646,-0.006041992921382189,0.01058537606149912,-0.9367496967315674,0.3497879207134247,-0.006905650153492668,0.009028251240685464,0.046255904882097694,-0.004288367927074432,-0.0018564159981906414,-0.00944905262440443,-0.2434920565411449,0.02661684541963041,-9.800054470896722
13.5,0.20000000298023224,282.0,25.52931404113769,-0.09542128443717957,-79.78274463717972,40.45905615509429,272.52392658519744,-0.0060484018176794035,0.01058303564786911,-0.9367555975914,0.34977206587791443,-0.007772870377028161,0.008595058618398908,0.04626045359939943,0.007745704147964716,0.004329313058406115,0.005716825369745493,-0.23664387065917256,0.009520495340111668,-9.80407969415188
13.6,0.20000000298023224,283.0,25.531818389892567,-0.08746951073408127,-79.78274463583647,40.45905615476793,272.5479956560135,-0.006039754953235389,0.010594707913696766,-0.936765730381012,0.3497445583343506,-0.011488010703655212,0.008488187186999653,0.04620793794097654,-0.0019076451426371926,-0.0013094928581267595,-0.008592037484049797,-0.2450239904969931,0.0049492135201580825,-9.806456587314607
13.8,0.20000000298023224,283.0,25.52180099487305,-0.08746951073408127,-79.78274463176751,40.45905613735301,272.5728310041428,-0.006039410829544067,0.010590763762593271,-0.936771035194397,0.34973052144050604,-0.010211039960876585,0.01159051190648783,0.04620982758964917,-0.0046179587952792645,-0.006610901560634375,-0.00015122273180168122,-0.2341339716129005,0.007269795826287009,-9.804707685112954
13.9,0.20000000298023224,285.0,25.52931404113769,-0.08746951073408127,-79.78274461253902,40.45905613560422,272.57742103862756,-0.006034186575561762,0.010586244985461237,-0.9367769956588744,0.3497150242328644,-0.012350291217016678,0.010565524148783235,0.0462869128227114,0.0013246993767097592,0.004937591496855021,-0.00878259539604187,-0.2395378952287137,0.029147552330978217,-9.800653225779534
14.1,0.20000000298023224,285.0,25.52806282043457,-0.10337305814027786,-79.78274459233873,40.45905613460207,272.58202490139007,-0.00603711511939764,0.010600974783301352,-0.9367817640304564,0.3497014939785004,-0.013186925379690392,0.010452670798338302,0.046361374958266345,0.0036447967868298288,-0.000295974692562595,0.006746193394064903,-0.2368628671579063,0.004887816042755731,-9.803071634173394
14.2,0.20000000298023224,287.0,25.531818389892567,-0.08746951073408127,-79.78274463753793,40.459056123882796,272.60002061653137,-0.0060179578140378,0.010592171922326088,-0.9367856383323668,0.3496917188167572,-0.009374477445066734,0.008548501372797673,0.04225578221663388,-0.006088991183787584,-0.002037351718172431,-0.0009229596471413972,-0.24628485118970275,0.011330338205443696,-9.804411231279373
14.4,0.20000000298023224,287.0,25.523054122924805,-0.10337305814027786,-79.78274466934538,40.459056129136684,272.6227482252121,-0.006024242378771305,0.01058952696621418,-0.9368034601211548,0.3496439158916473,-0.007611436651834339,0.0035978030665766076,0.038792594580839036,0.002772924490272999,0.0021272669546306133,0.009250856935977936,-0.2376187842339277,0.0048162487498484546,-9.806088797450068
14.61,0.20000000298023224,289.0,25.516794204711914,-0.11132483184337616,-79.78274464440909,40.45905613567239,272.63051769065856,-0.006044426467269659,0.010602657683193684,-0.93680739402771,0.3496325612068176,-0.013123967364545632,0.002498354675889057,0.0390819248415978,0.0014822055818513036,0.002464568242430687,-0.004809263627976179,-0.2396616734750569,0.028561663606669764,-9.802546554207805
14.8,0.20000000298023224,291.0,25.52806282043457,-0.08746951073408127,-79.78274468649045,40.459056141442105,272.65052458572393,-0.006057297810912132,0.010599801316857338,-0.9368163943290708,0.3496084213256836,-0.012402428758221572,0.0004757533644952831,0.033054552607208125,-0.007752517703920603,-0.0010598402004688976,-0.0001322845637332648,-0.24575100040063266,0.008675521857803688,-9.803926497101784
14.9,0.20000000298023224,292.0,25.531818389892567,-0.07951773703098297,-79.78274469069083,40.459056155250494,272.67221543121343,-0.006073177792131901,0.010592467151582241,-0.936839997768402,0.3495450913906097,-0.014665535766052775,0.00038913083093027913,0.031571010730141874,0.0030560160521417856,0.0008743756916373968,0.007019918877631426,-0.2394341802410781,0.028191055201459682,-9.802639524936676
15.1,0.20000000298023224,292.0,25.536827087402344,-0.015903547406196594,-79.78274467556143,40.459056164121655,272.6753823451996,-0.006048636045306921,0.010591495782136915,-0.9368420243263244,0.3495402336120605,-0.018163938500141943,0.0001067869811387052,0.03190632082874384,-0.0070876469835639,-0.0038082175888121132,-0.003238481236621737,-0.2473934284597636,0.008452765782130882,-9.80110404610634
15.2,0.10000000149011612,292.0,25.52680969238281,-0.08746951073408127,-79.78274473258419,40.45905617447378,272.6938322477341,-0.006041492335498333,0.01058827806264162,-0.9368587136268616,0.3494956493377685,-0.012202922945138415,-0.003782359611755271,0.02502879453253224,0.0029172126669436693,0.002497188746929169,0.004888446070253849,-0.23875868065282704,0.02785479918820784,-9.80040413439274
15.3,0.10000000149011612,291.0,25.52680969238281,-0.08746951073408127,-79.78274476925637,40.45905615922365,272.7113433771133,-0.006031856406480074,0.010582172311842442,-0.9368636608123779,0.3494827151298523,-0.00941815615884217,-0.0006148072326665153,0.0220252955699702,-0.008214132860302925,-0.00392809696495533,0.00071785255568102,-0.2451303184591234,0.009056520491139964,-9.803079820275308
15.5,0.10000000149011612,293.0,25.52806282043457,-0.11927660554647446,-79.78274476067999,40.45905616562461,272.71354743766784,-0.006050880998373032,0.010582628659904005,-0.9368793964385986,0.34944024682044983,-0.01147986632136845,-0.0016207838896420985,0.02210880614389104,0.0017430497100576758,0.0018195289885625245,-0.006540712434798479,-0.23899081511422995,0.02810150600736961,-9.803911294341088
15.6,0.10000000149011612,295.0,25.531818389892567,-0.07156596332788467,-79.78274479230195,40.459056185230075,272.7326669387817,-0.0060441424138844005,0.01059793122112751,-0.9368789196014404,0.34944117069244385,-0.013685908070076388,-0.0046325848124644286,0.018681831209572737,-0.0021349070593714714,-0.002962634665891528,-0.002279564738273621,-0.23572403054684402,0.004322268948017154,-9.805737964510918
15.8,0.10000000149011612,297.0,25.53056526184082,-0.07951773703098297,-79.78274478354069,40.45905619656128,272.73454007434844,-0.006047138478606939,0.010595240630209446,-0.9368855357170104,0.3494234383106232,-0.015579473082886148,-0.005698793474772129,0.018752744208896364,0.002295465441420675,0.0024668597616255283,-0.004661891143769026,-0.2392357769049704,0.028407578053884205,-9.802767578959466
15.9,0.10000000149011612,300.0,25.52806282043457,-0.09542128443717957,-79.78274479561266,40.45905619859992,272.7539407901764,-0.006058666855096817,0.010621276684105395,-0.9368892908096312,0.34941232204437256,-0.015958407570814126,-0.003634223773164817,0.018544210047243208,-0.006980395410209894,-0.0019145886180922391,-0.0020502132829278708,-0.2471266309730709,0.011548882458591836,-9.804698914289474
16.1,0.10000000149011612,302.0,25.519296646118164,-0.10337305814027786,-79.78274481381662,40.45905618570835,272.77482053565984,-0.0060607600025832644,0.01062824670225382,-0.9368942975997924,0.3493986427783966,-0.01169341129913614,-0.0014056556322993125,0.02035131422239204,0.005240605678409338,0.0016012830892577767,0.008318651467561722,-0.2380297521315515,0.026536747701466086,-9.80252842783928
16.2,0.10000000149011612,305.0,25.52680969238281,-0.09542128443717957,-79.7827448029499,40.459056193997135,272.77686402130126,-0.006067545618861914,0.010636229068040848,-0.9368981719017028,0.34938791394233704,-0.015261589844794681,-0.0016368134837142455,0.020559992262803698,-0.004974161274731159,-0.00468419725075364,-0.003306371858343482,-0.24713512770831586,0.011850882010767236,-9.802120876908305
16.4,0.10000000149011612,306.0,25.52680969238281,-0.11132483184337616,-79.78274486223377,40.45905617893594,272.79148110675806,-0.006040929816663265,0.01063492801040411,-0.936903953552246,0.3493728041648865,-0.007725569647396533,-0.004708461699395784,0.013491106985141013,0.0018647179240360856,-0.0024859760887920856,-0.005389164667576552,-0.23969392452389002,0.025928429423365745,-9.802535444498062
16.5,0.10000000149011612,310.0,25.520549774169922,-0.12722837924957275,-79.78274485194311,40.45905619627088,272.7942286424637,-0.006050819065421821,0.01064829993993044,-0.9369106292724608,0.34935447573661804,-0.012768170183371586,-0.004948504311537532,0.013928521444974995,-0.006350313778966665,-0.003892909735441208,-0.00404680985957384,-0.2386615986004472,0.001196276368573308,-9.804871407151225
16.7,0.10000000149011612,310.0,25.52680969238281,-0.11927660554647446,-79.78274484512045,40.45905619042762,272.8160105638504,-0.006062117870897055,0.010662524960935116,-0.9369246363639832,0.3493164777755737,-0.014694949647963716,-0.0014132493338851982,0.018111555710320627,0.002333426848053932,0.003137020627036691,0.009235862642526628,-0.2389610125869513,0.02336543720215559,-9.803089175820352
16.9,0.20000000298023224,313.0,25.520549774169922,-0.14313192665576935,-79.78274488471403,40.45905616551296,272.8356958322525,-0.006038201507180929,0.010662253946065904,-0.936928927898407,0.34930530190467834,-0.00949511292721336,0.00032693911796577614,0.022366483098573853,-0.011486045084893705,0.0001854722067946568,-0.007491295225918294,-0.24764401819556955,0.018098549708956854,-9.802184026837347
17.01,0.20000000298023224,314.0,25.516794204711914,-0.12722837924957275,-79.78274487547,40.45905617095151,272.83792933750146,-0.006039437372237444,0.010645285248756407,-0.936937928199768,0.3492815494537353,-0.010664477265692914,-0.0004626164722397888,0.02238482999215063,0.0030296039767563343,0.0005412539467215538,-0.0006857748958282173,-0.23815641744062305,0.02192969908006489,-9.802824296951297
17.1,0.20000000298023224,315.0,25.520549774169922,-0.10337305814027786,-79.78274486718927,40.45905617153229,272.85825547504425,-0.006023194640874864,0.010655047371983528,-0.936941921710968,0.3492708206176758,-0.014792707646694594,0.0010413738308012823,0.02308110675521332,-0.006096872035413981,-0.0008512999047525227,-0.010671011172235012,-0.24527035927399995,0.02149252377916128,-9.80124671816826
17.3,0.20000000298023224,316.0,25.52180099487305,-0.11132483184337616,-79.78274485327547,40.45905617889299,272.86055383014684,-0.00600747624412179,0.010660782456398009,-0.9369463324546814,0.34925904870033264,-0.015696767262974143,0.0003575122662404081,0.023082531642999258,0.006267959717661142,0.005336636677384377,-0.0007216840167529881,-0.236659913957119,0.017263776306062937,-9.80320845901966
17.4,0.20000000298023224,315.0,25.523054122924805,-0.09542128443717957,-79.782744865245,40.459056157007325,272.88342901992803,-0.005974628962576389,0.010696918703615664,-0.9369538426399232,0.3492385149002075,-0.01360323360182206,0.002011710230614473,0.02724363084965721,-0.003138391301035881,-0.000461559189716354,-0.008068832568824291,-0.2440728495083749,0.02392578547121957,-9.802718462347984
17.6,0.20000000298023224,316.0,25.523054122924805,-0.11927660554647446,-79.78274485146117,40.45905616300142,272.886149971962,-0.005981964059174061,0.010696744546294212,-0.9369600415229796,0.3492215871810913,-0.014239608192291359,0.0014386528638490395,0.02728683913497359,0.00873264018446207,0.005043938755989075,0.008338361978530884,-0.2366914523765445,0.014512826936552304,-9.802952935695648
17.7,0.20000000298023224,315.0,25.523054122924805,-0.03180709481239319,-79.78274485754173,40.45905607026232,272.91228350925445,-0.005961844697594643,0.0107174813747406,-0.9369637966156006,0.3492112755775452,-0.00543560677917877,0.010728902213609694,0.033814443092302415,-0.006112427450716496,0.0008635153062641621,-0.010770821012556551,-0.24505183786153795,0.026015283416491,-9.801380619406698
17.9,0.20000000298023224,317.0,25.52680969238281,-0.09542128443717957,-79.7827448452703,40.459056066559135,272.9330366544724,-0.005967953708022833,0.010716915130615234,-0.9369812607765198,0.3491643369197845,-0.009187131578572896,0.009054361299945236,0.03120065362170645,-0.0038525606505572796,-0.002966258674860001,0.005679385270923376,-0.2352855259180069,0.014059023616136984,-9.802542461156843
18.0,0.30000001192092896,317.0,25.52430534362793,-0.039758868515491486,-79.78274482940118,40.45905606586777,272.9361397914886,-0.005959921982139349,0.010723525658249857,-0.9369859099388124,0.3491517901420593,-0.011964910039746642,0.008427088094137022,0.03141381444304271,-0.002941110637038946,0.00015807594172656536,-0.011342878453433514,-0.2436466423049569,0.027554533244110644,-9.801277123689653
18.2,0.30000001192092896,316.0,25.516794204711914,0.0,-79.78274483856491,40.45905608621185,272.95913585948944,-0.005962245631963015,0.010755634866654871,-0.9369835257530212,0.3491572439670563,-0.01351896138208562,0.0017409661686040847,0.03239061891791495,-0.005061640869826078,-0.00267564388923347,0.005528200417757034,-0.23427333634346725,0.014150654738768937,-9.8037142431736
18.3,0.30000001192092896,313.0,25.523054122924805,-0.02385532110929489,-79.78274481754144,40.45905606365093,272.9778560094833,-0.005969566758722067,0.010762441903352736,-0.9369903802871704,0.34913840889930725,-0.014992381433586026,0.006394603619271416,0.03088171783200747,-0.004442304838448763,-0.0035632704384624962,-0.011031510308384895,-0.2438048094883561,0.02706246035406366,-9.802948842644694
18.5,0.30000001192092896,313.0,25.519296646118164,0.0,-79.78274479827319,40.459056067877434,272.98092719841003,-0.005981373135000467,0.01075515616685152,-0.9370025396347046,0.3491058349609375,-0.01571334133891766,0.006059187513426288,0.03098748927214348,0.005397438071668148,0.002463135169818997,0.0031897558365017176,-0.2356331063434481,0.012226153342053295,-9.804755632281305
18.6,0.30000001192092896,312.0,25.51178550720215,0.11132483184337616,-79.78274483690521,40.45905608868152,272.9994564943313,-0.00596122443675995,0.010738365352153778,-0.9370033144950868,0.3491046726703644,-0.012954288612478292,-0.003798605529143074,0.02316232361090236,-0.0019680142868310213,0.0010640283580869436,-0.012048070318996906,-0.2446578268893063,0.0022202997026033702,-9.804170910716056
18.8,0.30000001192092896,312.0,25.51554107666016,0.0,-79.78274482792318,40.4590560982929,273.001773446083,-0.005972012411803007,0.01075494010001421,-0.9370079040527344,0.34909164905548096,-0.013547605759542971,-0.00402788444211259,0.02316346311931363,0.004624565597623587,0.0024031877983361483,0.005505218636244536,-0.2341679037362337,0.011707086187088862,-9.802824296951297
18.9,0.30000001192092896,313.0,25.516794204711914,-0.007951773703098297,-79.78274482446041,40.459056114757736,273.01830837059015,-0.005970359779894352,0.010754317045211792,-0.9370167851448059,0.3490678369998932,-0.016959631096031703,-0.005395087812599318,0.017842423282419008,-0.0041540004312992105,-0.0007565862615592778,-0.012416243553161621,-0.2425851168483496,0.028363431575708094,-9.801710987091065
19.1,0.30000001192092896,313.0,25.51178550720215,-0.015903547406196594,-79.78274481348062,40.45905612767615,273.0201006822586,-0.005972360260784626,0.010772396810352802,-0.9370183944702148,0.3490630686283112,-0.017433690954304318,-0.005586301896470443,0.01778861870370225,0.007737675216048956,0.002749330829828977,0.00806411076337099,-0.234751200042665,0.01161699110059999,-9.803655771017075
19.2,0.30000001192092896,313.0,25.513036727905273,-0.007951773703098297,-79.78274478339634,40.45905611601807,273.0366897277832,-0.005995255894958973,0.010794544592499731,-0.9370262026786804,0.3490408658981323,-0.018430834225032645,-0.0006473497587784723,0.014791668773388226,-0.0023625586181879052,-0.0023735954891890287,-0.011930831708014013,-0.2448835294134915,0.027829251880757508,-9.802499191761015
19.4,0.20000000298023224,311.0,25.520549774169922,-0.015903547406196594,-79.78274481731395,40.45905610893004,273.05134090709686,-0.0060038664378225795,0.010795486159622673,-0.9370360374450684,0.3490141034126282,-0.010561959403494149,-0.0031638708103256872,0.009880236431577842,-0.0015203775838017466,-0.0008853051695041357,0.005380974616855383,-0.2344542345777154,0.012598260096274315,-9.805256153941155
19.6,0.20000000298023224,309.0,25.51804542541504,-0.02385532110929489,-79.78274481002481,40.459056117699774,273.052336900711,-0.0059726680628955356,0.010792460292577744,-0.9370384216308594,0.3490085303783417,-0.013303401441718644,-0.0037717475989331507,0.010051668880619287,-0.0031688266899436712,0.00013576439232565463,-0.01031328924000263,-0.2433758431300521,0.027917528848629445,-9.801953061819077
19.7,0.20000000298023224,307.0,25.516794204711914,-0.007951773703098297,-79.78274480896042,40.45905611844695,273.06999978351587,-0.005967034958302975,0.010814078152179718,-0.9370402097702026,0.3490029871463776,-0.012309267486255849,-0.002491596839804248,0.011600182429361028,-0.0017221173038706186,-0.002640214748680592,0.005334171000868082,-0.2345026568323374,0.012039325665682554,-9.802826051115993
19.8,0.20000000298023224,311.0,25.51554107666016,-0.06361418962478638,-79.78274480734571,40.45905611638468,273.0839451246261,-0.005976600106805563,0.010818913578987122,-0.9370434880256652,0.3489938378334045,-0.011886962365746096,-0.0024127826352340173,0.009665837100278529,-0.0014414999168366196,0.000462747470010072,-0.012502237223088741,-0.2428558429330588,0.02857766807544976,-9.8020401853323
20.0,0.20000000298023224,313.0,25.516794204711914,-0.015903547406196594,-79.78274479804051,40.459056124932715,273.0849200181961,-0.005968998186290264,0.010818850249052048,-0.9370523691177368,0.34897029399871826,-0.012382957260665552,-0.0024694829115375233,0.009752515178072066,0.004935445263981819,0.003093412145972252,0.007027381099760532,-0.2343843786232173,0.010135650406591595,-9.803749326467514
20.1,0.20000000298023224,318.0,25.52180099487305,-0.03180709481239319,-79.78274476364737,40.45905614700785,273.0991807870865,-0.005967790726572275,0.010833224281668665,-0.9370670318603516,0.3489305078983307,-0.01814182352019082,-0.002316455508118041,0.007523375851818535,0.0005057668895460665,0.0013959077186882494,-0.00916113518178463,-0.2452086711488665,0.0021810045861639085,-9.804471457600592
20.3,0.20000000298023224,317.0,25.51804542541504,0.0,-79.78274474828571,40.45905615558489,273.1136238269806,-0.005954095628112554,0.01084179151803255,-0.93707537651062,0.348908007144928,-0.01545675809037318,-0.0012479633262155775,0.006666119926111838,-0.006197687238454819,-0.005317747127264738,0.004564409609884025,-0.2359059885889292,0.008522064994904214,-9.80463927268982
20.4,0.20000000298023224,318.0,25.513036727905273,-0.015903547406196594,-79.78274473486788,40.459056166145814,273.11429056453704,-0.00595553033053875,0.010839690454304218,-0.9370790123939514,0.34889841079711914,-0.01787856695903596,-0.0018680700335134035,0.006757245243640754,-0.002330179326236248,0.0013732691295444965,-0.009165592491626741,-0.2421604810841381,0.02895047375466675,-9.801874709129336
20.6,0.20000000298023224,317.0,25.519296646118164,-0.007951773703098297,-79.7827447202902,40.45905617745071,273.1149682693481,-0.005952596664428711,0.010849070735275744,-0.937083899974823,0.34888482093811035,-0.018306570069288926,-0.0018636522064458879,0.006783500967265123,0.007573761045932771,0.005692700389772654,0.00660930946469307,-0.2351050844974816,0.009109779261052608,-9.803422467112542
20.7,0.20000000298023224,315.0,25.520549774169922,-0.03180709481239319,-79.78274474013331,40.459056174878505,273.1290023021698,-0.0059179808013141155,0.010851754806935787,-0.9370832443237304,0.34888720512390137,-0.013845292742704868,-0.0038091875890564368,0.005900167281126971,-0.004948005080223084,0.0022324132733047013,-0.011421813629567623,-0.2412036938779056,0.0290826893504709,-9.802357104420665
20.9,0.20000000298023224,314.0,25.520549774169922,-0.03180709481239319,-79.78274471715503,40.45905616928108,273.1417922668457,-0.005939900875091553,0.010858802124857904,-0.93708735704422,0.348875492811203,-0.011548711036730946,0.00041645350427130983,0.005588045437786681,0.005664836149662733,0.0016931665595620866,0.008960558101534843,-0.23461885197088125,0.00847648868977558,-9.803445855975152
21.0,0.10000000149011612,315.0,25.51804542541504,-0.10337305814027786,-79.78274470482637,40.459056176720146,273.142359703064,-0.0059641017578542215,0.010844799689948559,-0.9370895624160768,0.3488695025444031,-0.014409152628707497,0.0007771166129518121,0.005818480208181623,-0.006269321311265229,-0.0011294444557279348,0.0027784814592450857,-0.2459791879914701,0.0041560398589354005,-9.803800197243687
21.2,0.10000000149011612,315.0,25.52806282043457,-0.09542128443717957,-79.78274465697733,40.45905619355805,273.1559593372345,-0.005947633180767298,0.010842843912541866,-0.9371029138565063,0.3488340973854065,-0.017728939022389558,0.002300382327945141,0.005709366698696004,-0.005813337862491608,-0.0011325225932523608,0.0059775267727673045,-0.23532121220603586,0.009007197171449663,-9.8035493516922
21.3,0.10000000149011612,312.0,25.52806282043457,-0.08746951073408127,-79.78274472134248,40.45905620907925,273.170209854126,-0.005926542915403843,0.010816729627549648,-0.9371076226234436,0.3488227725028992,-0.008546694712626757,-0.008657720309547163,0.00862636033067079,-0.003085042582824827,0.0025423578917980194,-0.00923643447458744,-0.24241328179836275,0.02835303449537605,-9.801051421165466
21.41,0.10000000149011612,313.0,25.52806282043457,-0.08746951073408127,-79.78274471980619,40.45905621996224,273.1710908107757,-0.005935658235102892,0.010830004699528216,-0.9371163845062256,0.3487984538078308,-0.009108684782992382,-0.008721034469748156,0.008643932252227992,0.006718444172292948,0.004375945311039686,0.007446346338838339,-0.2346776530332864,0.01011848791502416,-9.803539996147157
21.6,0.10000000149011612,306.0,25.51053237915039,-0.04771064221858978,-79.78274469086173,40.45905621789782,273.18592211532587,-0.005937959998846054,0.010825233533978462,-0.9371229410171508,0.3487809896469116,-0.011802714874363776,-0.0019908077153775595,0.010921087818057208,-0.0011295686708763242,-0.0014532950008288026,-0.011948050931096077,-0.2440348974242807,0.0018735586723778398,-9.804691312909128
21.71,0.10000000149011612,301.0,25.51428985595703,-0.10337305814027786,-79.78274468201326,40.45905622578993,273.1870262317657,-0.0059278858825564384,0.010832065716385841,-0.9371289014816284,0.34876513481140137,-0.012285725720836018,-0.0022427542821922,0.011107534870755584,0.005995998624712229,0.004789623431861401,0.004245540592819452,-0.2353818770684302,0.0141922590485774,-9.805035713911057
21.9,0.10000000149011612,292.0,25.52555847167969,-0.08746951073408127,-79.78274469641181,40.459056217670216,273.19882342147827,-0.00591123104095459,0.01082867756485939,-0.9371384978294371,0.34873950481414795,-0.008397175632581846,-0.0013754729495369597,0.008557361226730158,-0.003455422120168805,-0.0014584711752831936,-0.013304021209478378,-0.2439115577191115,0.025332445115782323,-9.802369383573533
22.1,0.10000000149011612,288.0,25.52931404113769,-0.06361418962478638,-79.78274469034636,40.459056222891924,273.1996810131073,-0.005906717851758003,0.01085104327648878,-0.9371458888053894,0.3487191200256348,-0.0087220504950799,-0.001614593067068746,0.00857948876215334,0.007468990981578827,0.005019893404096365,0.0034209785517305136,-0.2349696118198336,0.014760172152891757,-9.80418435931206
22.2,0.10000000149011612,284.0,25.52806282043457,-0.09542128443717957,-79.7827446675529,40.459056229502224,273.21223780441284,-0.005916840862482786,0.01086749043315649,-0.9371482133865356,0.348712295293808,-0.010835939713289769,0.0009202201354110064,0.010292905241236315,-0.0042642499320209035,-0.005095917731523514,0.009446350857615473,-0.24258425803855066,0.000371386130573228,-9.805673060417176
22.3,0.10000000149011612,282.0,25.52555847167969,-0.07951773703098297,-79.78274463827519,40.459056239983155,273.2254540615082,-0.0059097991324961185,0.010906161740422249,-0.9371620416641236,0.3486739993095398,-0.011826066180550222,0.002642091760057476,0.011402270389271456,0.004900778643786907,0.004924638196825981,0.006781615782529116,-0.2352102978341281,0.013619928555563094,-9.803915972113607
22.5,0.10000000149011612,278.0,25.523054122924805,-0.10337305814027786,-79.78274462382988,40.45905624573679,273.22659608650207,-0.005910453386604786,0.010915126651525496,-0.937174379825592,0.3486403524875641,-0.01421668444851455,0.003242338902061074,0.01165028995581939,-0.002902446780353785,-0.004816380329430103,0.007066683378070594,-0.24303484082221985,0.001514508796390146,-9.804674355983737
22.7,0.10000000149011612,279.0,25.51554107666016,-0.09542128443717957,-79.78274460525061,40.45905624357522,273.24058553504943,-0.005877937190234661,0.010939422994852066,-0.9371721744537354,0.3486460745334625,-0.011867760974934338,0.004799129929231629,0.012781566824743646,-0.002829151460900903,-0.0036539491266012187,0.00603515887632966,-0.23330863712355496,0.010476440296042713,-9.80425803422928
22.8,0.10000000149011612,279.0,25.52680969238281,-0.08746951073408127,-79.7827446069267,40.45905624632187,273.2509591274261,-0.005855117924511433,0.010953390039503573,-0.9371790289878844,0.3486277461051941,-0.00894786276616483,0.004960069139145753,0.012852553985062172,-0.00013196366489864886,0.004624417051672936,-0.010830482468008995,-0.24173319580033426,0.029847939130850137,-9.801719173192977
22.9,0.10000000149011612,278.0,25.52680969238281,-0.08746951073408127,-79.78274459440026,40.45905624799336,273.25223824310297,-0.005856192670762539,0.010947171598672869,-0.937184751033783,0.34861236810684204,-0.0092241678612346,0.005148024229356333,0.01290967597446155,0.00697291549295187,0.0027906540781259537,0.008422487415373325,-0.2345675791986287,0.007405245092231782,-9.803688515424732
23.1,0.20000000298023224,275.0,25.52555847167969,-0.08746951073408127,-79.7827446023568,40.45905631272928,273.26151034164434,-0.0058589051477611065,0.010922861285507679,-0.9371917247772216,0.34859463572502136,-0.01460428481521519,-0.0063053710321399475,0.009680773284160334,0.0009892142843455076,0.001712121651507914,-0.006763355806469917,-0.24005257811397315,0.030044510643929243,-9.802627245783807
23.2,0.20000000298023224,276.0,25.52430534362793,-0.10337305814027786,-79.78274459416407,40.45905632508031,273.26249644088745,-0.005852891132235527,0.010934344492852688,-0.9371917843818665,0.3485939204692841,-0.01492659303369086,-0.006053864268031332,0.009810321530873044,0.00606894213706255,0.004423686768859625,0.009827940724790095,-0.23506035329774025,0.006866742797428742,-9.80489011824131
23.4,0.20000000298023224,274.0,25.52680969238281,-0.08746951073408127,-79.78274455804092,40.459056338211276,273.26978155899053,-0.005859890952706337,0.01095795352011919,-0.9371928572654724,0.3485903739929199,-0.017803133957103097,0.0009340401442355703,0.007475486376326289,-0.00380261242389679,-0.001314507913775742,0.0051648057997226715,-0.2448847171291709,0.005048065725713968,-9.80344234764576
23.61,0.20000000298023224,275.0,25.51554107666016,-0.09542128443717957,-79.78274452270439,40.45905635931863,273.2712895565033,-0.00586064113304019,0.010952580720186234,-0.9372078180313108,0.3485502898693085,-0.020161877601224048,0.0006898701558979702,0.0077201279889553154,0.007564572617411613,0.004399220924824475,0.008048564195632935,-0.2340655957348645,0.009944053594954313,-9.80337451994419
23.7,0.30000001192092896,278.0,25.519296646118164,-0.10337305814027786,-79.78274456908495,40.459056389099615,273.27784463691705,-0.005829112604260446,0.01093991007655859,-0.937214732170105,0.3485325872898102,-0.014577934861672234,-0.004903577531905016,0.005543041282281458,-0.004678986966609955,-0.003341037314385176,0.0074563128873705855,-0.24451055014505985,0.0026316330512054266,-9.804627578258515
23.9,0.30000001192092896,282.0,25.52180099487305,-0.12722837924957275,-79.78274456662146,40.45905643263263,273.2840761833191,-0.005810724105685949,0.010955178178846836,-0.9372219443321228,0.3485131859779358,-0.014245325453556909,-0.006305238208264873,0.004508293715870342,0.006596872117370367,0.0053887837566435354,0.006300463806837797,-0.2356878326274455,0.014870227715000512,-9.803310785293581
24.0,0.30000001192092896,289.0,25.520549774169922,-0.13518016040325165,-79.78274455719291,40.45905644593268,273.28454872894287,-0.005819435231387615,0.010954801924526691,-0.9372217655181884,0.3485134541988373,-0.01618481778483252,-0.005728579009379642,0.0047187165921767395,-0.002621178049594164,-0.002487117191776633,0.00760136544704437,-0.2427397574298084,0.0010728395904880015,-9.804823459982874
24.11,0.30000001192092896,289.0,25.52180099487305,-0.10337305814027786,-79.78274453845563,40.45905647784626,273.28987356948846,-0.005822421982884407,0.010940882377326487,-0.9372307658195496,0.3484896719455719,-0.015822231776227273,-0.0019086149948855894,0.0036025688210206625,0.007612016052007675,0.006169066298753022,0.0029769178945571184,-0.2354301714152097,0.01703441013582051,-9.803068710565569
24.3,0.30000001192092896,289.0,25.52180099487305,-0.11132483184337616,-79.78274452501564,40.459056488504345,273.29024645614624,-0.0058329920284450045,0.01093888096511364,-0.9372304677963256,0.34849032759666443,-0.01737775149388,-0.0012955859411619818,0.0038104553152894407,-0.005198067985475063,-0.003457035403698683,0.007853144779801369,-0.24213977828621866,0.0014476209890563042,-9.803752250075341
24.5,0.30000001192092896,290.0,25.509281158447266,-0.11927660554647446,-79.78274453088525,40.45905650349413,273.2948705844879,-0.0058224527165293685,0.010941443033516407,-0.9372392892837524,0.34846675395965576,-0.01237183492136031,0.0009268712207701113,0.00327956732678462,0.006629746872931719,0.003119919216260314,0.006410688161849976,-0.2355459828302265,0.013608684085775171,-9.80403642475605
24.6,0.30000001192092896,293.0,25.520549774169922,-0.13518016040325165,-79.78274451774095,40.45905651060525,273.2952072315216,-0.00582914100959897,0.010945473797619345,-0.937235414981842,0.348476767539978,-0.014575656416323675,0.0015302804561281493,0.0035793457630962913,-0.0032771152909845114,-0.007026582956314087,0.006318222731351852,-0.24492890015244484,0.0023931169020943344,-9.804776097536088
24.81,0.30000001192092896,296.0,25.52180099487305,-0.08746951073408127,-79.78274451729516,40.45905659812161,273.2993669204712,-0.005827345885336399,0.01093850377947092,-0.937242329120636,0.3484583795070648,-0.01900519534520272,-0.0058829127460547645,0.003089226573317264,0.00652009341865778,0.0005948517355136572,0.010349012911319731,-0.23568938579410315,0.005513429288403132,-9.803185654878618
24.9,0.30000001192092896,302.0,25.52430534362793,-0.11132483184337616,-79.78274442321387,40.459056651474796,273.304752319336,-0.005848735105246306,0.010941504500806332,-0.9372468590736388,0.3484458029270172,-0.0297648706363255,0.0019919734471875034,0.006416844664324326,0.000808521406725049,0.0006138446042314173,-0.0038017234764993186,-0.24694392375648025,0.00918385389028117,-9.80352362394333
25.1,0.20000000298023224,304.0,25.52555847167969,-0.09542128443717957,-79.78274439459013,40.4590566672268,273.30538985061645,-0.005857971031218767,0.010936048813164234,-0.9372487068176272,0.3484409749507904,-0.030524833293614013,0.0024928288525944827,0.00655802301997644,0.002247459487989545,-0.0005924837314523758,0.010025466792285442,-0.2393450284749269,-0.000142578415106982,-9.80457027554512
25.2,0.20000000298023224,304.0,25.52430534362793,-0.08746951073408127,-79.78274443452659,40.45905674260092,273.31032821464544,-0.005831880494952203,0.01090303435921669,-0.9372552633285522,0.3484247326850891,-0.02551936814849767,-0.0071542022812682345,0.008236533467480794,0.007417762652039528,0.005394079722464086,0.004073382820934057,-0.2354138540290296,0.016595431562745944,-9.803901354074476
25.4,0.20000000298023224,305.0,25.520549774169922,-0.07951773703098297,-79.78274446165813,40.459056781689476,273.3132497959137,-0.00582586880773306,0.010903878137469292,-0.9372537732124328,0.3484289348125458,-0.019753614302766502,-0.007356787172489531,0.009286567133731636,-0.000868461502250284,-0.005176078993827105,0.00495539139956236,-0.2432759836502373,0.0004052565840538592,-9.804980750083923
25.5,0.20000000298023224,303.0,25.52555847167969,-0.10337305814027786,-79.78274444893748,40.45905679903033,273.31420084762567,-0.005815855227410793,0.010913034901022913,-0.9372555017471312,0.34842392802238464,-0.022318196747839626,-0.008001543609086437,0.009543646029580743,-0.0026972244959324607,-0.0010228215251117943,-0.010393723845481873,-0.2427419684082269,0.029002210192848,-9.80225770175457
25.6,0.20000000298023224,301.0,25.52555847167969,-0.09542128443717957,-79.78274448909752,40.459056810453305,273.3173227005005,-0.005803706124424934,0.010926061309874058,-0.9372592568397522,0.34841376543045044,-0.010268041035218,-0.0044471540506347135,0.010304216212431149,-0.00914014782756567,-0.003999635577201843,-0.0022711565252393484,-0.24717187380418185,0.00890265991911292,-9.803865686058998
25.8,0.20000000298023224,295.0,25.519296646118164,-0.08746951073408127,-79.78274448323715,40.459056819639024,273.31837055015563,-0.005789749789983034,0.010919390246272087,-0.937264084815979,0.3484010398387909,-0.011633309965690584,-0.005031488723098849,0.010479704124884942,0.0014058600645512342,0.0041017988696694365,-0.0060068732127547255,-0.2392813851870597,0.027401372739113868,-9.802947673201562
26.0,0.30000001192092896,296.0,25.52180099487305,-0.09542128443717957,-79.78274445553213,40.45905686690096,273.31878039169305,-0.005811738781630993,0.010934054851531979,-0.9372648596763612,0.3483982086181641,-0.016721698328552515,-0.00016001946730387698,0.008207567482151361,-0.007136120926588774,-0.0038585974834859367,-0.004646952264010906,-0.2470131767168641,0.018379720839438958,-9.80293305516243
26.1,0.30000001192092896,294.0,25.52430534362793,-0.07951773703098297,-79.78274444143834,40.45905687638405,273.31959578323364,-0.00580811547115445,0.010937470942735672,-0.9372715950012208,0.34838011860847473,-0.017159666201291723,-0.0007134237435165012,0.008267479505383212,0.005581492092460394,0.002242076676338911,0.0010633652564138174,-0.2370768935233355,0.02121190767735243,-9.80378674864769
26.3,0.30000001192092896,292.0,25.52180099487305,-0.08746951073408127,-79.78274443078732,40.45905692524288,273.32062813568115,-0.005801941268146038,0.010931390337646008,-0.937269389629364,0.34838634729385376,-0.018139900054067504,0.0017609727566241515,0.00927605737571102,-0.004292372148483993,-0.003298701485618949,-0.009927245788276196,-0.2443289392814041,0.022359933096449826,-9.801612169146539
26.4,0.30000001192092896,290.0,25.52555847167969,-0.08746951073408127,-79.78274447619074,40.459056952946575,273.3232154541016,-0.005767398048192264,0.010905818082392216,-0.9372825026512146,0.3483524918556213,-0.007809526310129494,0.0009806646279189293,0.01360583128123895,-0.000779378809966147,-0.0018586964579299086,0.008541646413505077,-0.2411843249760568,-2.7089053764939308e-06,-9.80420307040215
26.6,0.4000000059604645,288.0,25.520549774169922,-0.11132483184337616,-79.78274446768364,40.45905695745758,273.3245849304199,-0.0057566664181649685,0.010912862606346607,-0.9372864365577698,0.34834176301956177,-0.010568930575761387,0.0006329826220842125,0.01399860995328943,-0.00635978952050209,-0.0013211359037086368,-0.00785056408494711,-0.2451455760374665,0.020338628303725275,-9.803376858830454
26.7,0.4000000059604645,289.0,25.52180099487305,-0.11132483184337616,-79.78274449228965,40.459056977077545,273.3258223228454,-0.005741171073168514,0.010912178084254265,-0.9372875094413756,0.3483390510082245,-0.005304311901972149,0.0044753102038880095,0.016036577650594602,0.005665830336511135,-0.0006657252088189125,0.010219837538897993,-0.2391442314349115,0.000228479951620102,-9.804831646084788
26.8,0.4000000059604645,286.0,25.52180099487305,-0.09542128443717957,-79.78274449723772,40.459057018989505,273.32844206619257,-0.0057381135411560535,0.010885445401072502,-0.93729168176651,0.3483286798000336,-0.009031052075512807,0.0075346140148122576,0.026872791922104053,-0.00742469122633338,-0.005854459945112467,-0.004728436935693026,-0.24651855709031226,0.014818833887111396,-9.802382247447966
27.0,0.4000000059604645,286.0,25.52555847167969,-0.09542128443717957,-79.78274446754459,40.45905701965295,273.33380934524536,-0.005742701701819897,0.010897864587605,-0.9373002648353576,0.3483051657676697,-0.010613100460937587,0.007196287244657342,0.027226509388617082,0.0037499195896089077,0.0015256316401064394,0.00932240393012762,-0.23822459232062101,0.003563021699956153,-9.804503032565117
27.1,0.4000000059604645,283.0,25.523054122924805,-0.07951773703098297,-79.78274447509598,40.45905705222622,273.33590075302124,-0.005744710564613342,0.010907125659286976,-0.9373024702072144,0.3482988476753235,-0.011012213672869113,0.012670617415664413,0.03724663737800372,-0.0058160871267318726,-0.003501435276120901,-0.001976743806153536,-0.2465088178217411,0.009665571955265477,-9.802727817893027
27.3,0.5,284.0,25.44542694091797,0.9860199689865112,-79.78274445501579,40.45905704969589,273.3395945720673,-0.005719433538615704,0.010904543101787569,-0.9373067021369934,0.34828805923461914,-0.01240258942540702,0.011980310788448278,0.03736331013380317,0.0033446697052568197,0.004491320811212064,-0.008096086792647839,-0.2391584840230644,0.02766068761702627,-9.802683963775637
27.5,0.5,285.0,25.482988357543945,0.198794350028038,-79.78274444512802,40.45905707699379,273.3448159389496,-0.005712558049708605,0.010904953815042973,-0.9373156428337096,0.348264217376709,-0.012986919328716356,0.016653340945326625,0.045243533095337435,-0.011965258046984673,0.0037345243617892265,-0.0099878441542387,-0.2463887123577297,0.030189162993337963,-9.803683252930641
27.6,0.5,284.0,25.49801254272461,0.20674611628055573,-79.78274449871756,40.45905714769373,273.346756904602,-0.005675622262060642,0.010896914638578892,-0.9373328685760498,0.34821873903274536,-0.008810173389345824,0.007859475118372709,0.046667374845653316,0.0028058600146323442,-0.0001375110587105155,0.009826391935348507,-0.2290552445501089,0.020715520181693137,-9.80365401685238
27.7,0.5,282.0,25.49801254272461,0.198794350028038,-79.78274448313464,40.459057147726476,273.3514122657776,-0.005658274982124567,0.010885539464652538,-0.937341809272766,0.3481951057910919,-0.011473656485722277,0.007202948122362531,0.046854140339548114,-0.001790138310752809,-0.002169074025005102,-0.01126832328736782,-0.2433666154928505,0.014221554512623696,-9.800639777183532
27.9,0.5,285.0,25.49550819396973,0.20674611628055573,-79.78274454346658,40.459057182194,273.3505587272644,-0.0056631257757544535,0.01090737618505955,-0.937342643737793,0.34819236397743225,-0.004412862317650472,0.00643747475449353,0.044699512596403146,0.0014454495394602418,-0.0005400068475864828,0.009996479377150536,-0.2479448026232421,-0.0015532288985559714,-9.803478600382805
28.11,0.5,284.0,25.479232788085927,0.18289080262184146,-79.78274453291814,40.45905718049029,273.3550297908783,-0.0056321327574551105,0.01090090349316597,-0.9373522400856018,0.3481670916080475,-0.00710887979266445,0.006318171053264592,0.04498214366624696,0.0006322126719169319,-0.0014579528942704199,-0.013530689291656016,-0.2415517311170697,0.029884849679656333,-9.801682920455931
28.2,0.5,285.0,25.47297096252441,0.20674611628055573,-79.78274461401685,40.459057233814505,273.34698983955377,-0.005642877425998449,0.010911737568676472,-0.9373543262481692,0.3481608033180237,0.0004936250223387589,0.003247726072410471,0.03926877660666496,0.009945252910256386,0.006857871077954769,0.008625543676316738,-0.23492197528481484,0.012736530757974832,-9.804840416908265
28.4,0.5,283.0,24.27475929260254,25.747844696044922,-79.78274464412019,40.45905730397981,273.3434672050476,-0.0056486837565898895,0.01091154757887125,-0.9373829960823059,0.3480837345123291,-0.006845449505485524,0.0026365506695769647,0.031264756707765816,0.004798003938049078,-4.713680027634837e-06,0.003287723287940025,-0.23635452484712005,0.03728530051186681,-9.802692149877547
28.6,0.5,286.0,25.456695556640625,0.40554046630859375,-79.78274463444586,40.45905730655362,273.346613615036,-0.005619965959340335,0.010902631096541882,-0.9373972415924072,0.34804612398147583,-0.00904174245841464,0.0024575541938317664,0.0320217197818414,0.013003328815102577,0.02697677165269852,-0.004345195833593607,-0.22232440497726197,0.04642736279871315,-9.8044966006279
28.7,0.5,286.0,25.48799705505371,0.12722837924957275,-79.78274468204113,40.45905738979193,273.33291503715515,-0.00564241549000144,0.010937458835542202,-0.9373945593833924,0.3480517566204071,-0.01301174824411245,-0.0008061546211687128,0.021908909619273158,-0.01022670976817608,-0.015715859830379486,0.002277308376505971,-0.27474027134478096,0.020168462907895448,-9.797579929232596
28.8,0.5,288.0,24.20214080810547,21.907136917114254,-79.78274475353841,40.459057444802134,273.32489296722406,-0.005633948836475611,0.010975927114486694,-0.9374080896377563,0.34801432490348816,-0.0048290568743491755,-0.002521062764120294,0.02155034469751872,0.014852906577289103,0.019863320514559742,0.0003897335845977069,-0.2725518960691989,0.02396560135530308,-9.794955698847767
29.0,0.5,291.0,25.44793128967285,0.3498780429363251,-79.7827447463254,40.459057450282,273.32703730392456,-0.005604808684438467,0.010962298139929771,-0.9374076724052428,0.3480163216590881,-0.008767309234871814,0.001813558424152369,0.0219898250171352,-0.004365926142781973,-0.038549695163965225,0.005881185177713633,-0.28634142128750684,0.008208562302170323,-9.776416516900065
29.1,0.5,291.0,25.48924827575684,0.14313192665576935,-79.7827447378595,40.45905745693739,273.3291821174621,-0.005575134418904781,0.010919153690338137,-0.9374007582664492,0.34803661704063416,-0.011500476300140956,0.00016660331604219367,0.022178860247178862,-0.013025345280766487,-0.03629043325781822,-0.017209375277161598,-0.2600764046609402,0.047816738896071916,-9.785760952234266
29.3,0.6000000238418579,291.0,25.39784812927246,2.0913164615631104,-79.78274480253468,40.45905752239578,273.3181452445984,-0.0056094336323440075,0.01094419788569212,-0.937415599822998,0.3479955196380615,-0.00938224927957447,-0.0028453950482606807,0.0168540729271767,0.008900959976017475,-0.0017910086316987872,-0.01598417013883591,-0.25090771470218903,-0.0018796969640243327,-9.798249435424808
29.4,0.6000000238418579,292.0,25.17373085021973,4.341668605804443,-79.7827448478849,40.45905757377205,273.30639716911315,-0.0055996417067945,0.010922566056251526,-0.9374389052391052,0.3479336500167847,-0.010554339533853423,0.0011257709364597057,0.0148561615887106,-0.01406147610396147,0.005265503656119108,-0.005335806403309107,-0.2327261082641781,0.02540751331485808,-9.811805620193482
29.6,0.6000000238418579,291.0,25.00345230102539,6.1864800453186035,-79.78274483841051,40.45905757900768,273.3078322105408,-0.005597110372036696,0.010955402627587318,-0.9374538064002992,0.3478924036026001,-0.01120586589647052,0.0014036515288207484,0.014400981726161353,0.005817892029881477,0.006766731385141611,0.01878342591226101,-0.2354334056563676,-0.009820261644199493,-9.814094220399856
29.7,0.6000000238418579,291.0,24.88325500488281,7.6575584411621085,-79.78274489831679,40.45905762368187,273.2913431816101,-0.005513915792107582,0.010893153958022594,-0.9374526739120485,0.3478986620903015,-0.007835171877038834,0.003420918281091004,0.00957004293370516,0.002019341569393873,-0.010460296645760536,0.0023356967139989138,-0.24258272314444185,-0.0012085943506099286,-9.801975281238557
29.9,0.6000000238418579,291.0,24.65538215637207,10.138511657714844,-79.78274500089252,40.45905769365447,273.27851650047296,-0.0045116026885807506,0.011222902685403824,-0.9374690055847168,0.3478588163852692,0.004606505028750772,-0.0019588759807827325,0.006968328402662598,0.029550297185778618,0.028202708810567856,-0.01724238507449627,-0.18958409037441007,0.07085983463097363,-9.8137889957428
30.0,0.699999988079071,290.0,24.51640510559082,11.840191841125488,-79.78274500311541,40.459057695325974,273.27964875030517,-0.0037092731799930334,0.011504817754030228,-0.9375014901161194,0.34777146577835083,0.0005314704001255398,-0.0015269287037817845,0.011743941748533104,0.010825986973941326,-0.055421561002731316,0.020140685141086585,-0.2333571141958237,-0.025589982988312842,-9.835914859771727
30.1,0.699999988079071,289.0,24.398712158203125,13.128378868103027,-79.78274510533821,40.459057774790274,273.26681467819213,-0.0013692171778529882,0.012237926945090294,-0.9375688433647156,0.3475817143917084,-0.00514698078938665,-0.009192545592974673,0.017659461031766008,0.017542773857712746,0.036179203540086746,0.0014474322088062765,-0.19962063504382968,-0.07479824500624091,-9.885041996240616
30.3,0.699999988079071,290.0,24.10823631286621,16.627159118652347,-79.78274517336209,40.45905783390997,273.2524158649444,0.0008279829635284841,0.011836206540465357,-0.9375702142715454,0.34759366512298584,-0.003439790846655209,-0.007907319676389161,0.022681547223847784,-0.007507124450057745,0.0031512666027992964,-0.0158561822026968,-0.3289731599763036,-0.04106202166993171,-9.900942914485931
30.4,0.699999988079071,290.0,23.94546890258789,18.48787498474121,-79.78274516195066,40.45905784137534,273.25536486434936,-0.00026753571000881493,0.011987953446805477,-0.9374659657478333,0.3478705883026123,-0.021891801650738087,0.008204863886921099,0.031167950904483994,-0.06324450671672821,-0.004082261584699154,0.014622297137975691,-0.09150256611406804,-0.3176756449788809,-9.861393517255783
30.6,0.8000000119209291,288.0,23.662506103515625,21.597017288208008,-79.78274512166624,40.459057841062936,273.2583441429138,-0.004687960259616375,0.0129554970189929,-0.9373317360877992,0.34816598892211914,-0.037262130086210966,0.03862633190769664,0.04181193375262828,-0.12920816242694855,-0.06437807530164719,-0.008988696150481701,0.04556674858555198,-0.1876376984640956,-9.927889223098756
30.8,0.8000000119209291,287.0,23.86408615112305,17.533660888671875,-79.7827452426411,40.4590577984446,273.24776837158197,-0.01459049154073,0.007082883268594742,-0.9368792772293092,0.34927695989608765,-0.05893849615905203,0.13420076539864015,0.31586252867584,0.009441998787224293,0.06951285898685455,-0.05080477520823479,-0.01567825695849024,0.08215414736419918,-10.920580379962919
30.9,0.8000000119209291,284.0,23.991796493530273,16.563545227050778,-79.78274507346734,40.45905773418802,273.2804102592468,-0.008381502702832222,-0.0012459417339414358,-0.9367841482162476,0.3498052656650543,-0.06661595923820231,0.1443923391205591,0.3298139398359253,0.05187167599797249,0.2508765757083893,0.006564319133758545,0.022448872444219888,-0.03176363772712648,-10.03043652176857
31.1,0.8000000119209291,283.0,23.86659049987793,18.495826721191406,-79.78274488013702,40.45905767356432,273.31110188293457,-0.0057213734835386285,-0.007906786166131495,-0.9366574287414552,0.35011112689971924,-0.08362991928549413,0.17214488013693785,0.2918945823490493,0.020384810864925385,0.18391560018062592,-0.007044272031635045,0.17685894113034012,-0.0009320416068658232,-9.685206969380381
31.2,0.8000000119209291,281.0,23.79772758483887,19.092208862304688,-79.78274463262203,40.45905763707156,273.31395193862915,-0.0013412216212600472,-0.012235965579748155,-0.9364926815032959,0.350471168756485,-0.09003303546409075,0.1572234706390111,0.2287128855557071,0.08324515074491501,0.1888986825942993,-0.005537807941436768,0.11532262433320285,0.0321617691591382,-9.590497278571132
31.4,0.8999999761581421,279.0,23.77143478393555,20.01461410522461,-79.7827443411326,40.45905772367435,273.33579584884643,0.01025916077196598,-0.01561074424535036,-0.9365000128746032,0.35016974806785583,-0.10231381750803946,0.12264654553049853,0.17714450039269247,0.08202015608549118,0.022734016180038445,0.0534178726375103,0.2478269264101982,-0.20240750938653948,-9.67291670680046
31.5,0.8999999761581421,286.0,23.73136901855469,18.328838348388672,-79.78274415954192,40.45905771100285,273.35335299301147,0.0108160013332963,-0.014542026445269585,-0.9367045164108276,0.3496514856815338,-0.11471533496694428,0.11690432957896862,0.16616011719626214,-0.05252860113978386,-0.04679442197084427,-0.015980448573827744,0.2584795848838985,-0.09264933301135896,-9.684784800410274
31.71,0.8999999761581421,287.0,23.72010040283203,19.577266693115234,-79.7827435467713,40.45905773980208,273.3967902355194,0.00414527952671051,-0.002293789992108941,-0.9370973706245422,0.3490361273288727,-0.10584353191738896,0.1040849242645214,0.14902701944976118,-0.0027315712068229914,0.048990923911333084,0.024640098214149475,0.11489529336802662,-0.08729837237857282,-9.697762110829354
31.81,0.8999999761581421,291.0,23.556081771850586,21.68448829650879,-79.78274335250363,40.4590578111746,273.40535661506647,0.003618492744863033,-0.004067093133926393,-0.9370591044425964,0.3491283655166626,-0.1114807906654069,0.11612292412933467,0.15861330579842572,-0.01710536889731884,0.046524278819561005,0.05760771036148071,0.08342878555878998,-0.054142128881067036,-9.801264844536783
32.01,0.8999999761581421,293.0,23.67502593994141,20.17365074157715,-79.78274316106548,40.45905779287938,273.4215011291504,0.0042256349697709075,-0.0056211273185908794,-0.9370337724685668,0.34916815161705017,-0.10842290213260056,0.12640599904353153,0.16280333282503892,0.01816893927752972,0.08615446090698242,-0.020539946854114532,0.1497858575731516,0.05393014904111624,-9.796847273111343
32.1,1.0,293.0,23.537302017211914,20.45991516113281,-79.7827429199582,40.459057824265855,273.4516091041565,0.01095190178602934,-0.00885997898876667,-0.9368603229522704,0.34942007064819336,-0.09338977501349946,0.12543242725617929,0.18238471653084248,0.03265787661075592,0.03876973688602448,-0.03965981677174568,0.1834215818904341,-0.011960580116137863,-9.784534791111943
32.3,1.0,296.0,23.529788970947266,22.16159439086914,-79.78274274803528,40.45905779457181,273.470623462677,0.01263307873159647,-0.011363383382558823,-0.9367910623550416,0.3494766652584076,-0.08565342333988286,0.12297842444981613,0.18822108531809406,-0.023630501702427864,0.003163821995258332,0.009761120192706585,0.2361344685405493,-0.09952626161277296,-9.884780040979386
32.4,1.0,301.0,23.57110595703125,20.213409423828125,-79.78274251811202,40.45905780665286,273.47820302772516,0.012246756814420223,-0.012693482451140879,-0.9367084503173828,0.3496658802032471,-0.08739026974812553,0.13677039773806798,0.2064011112525473,-0.042033020406961434,-0.06129361316561699,-0.006182538811117411,0.30554413430392746,-0.11489998027682305,-9.971379643678665
32.6,1.0,303.0,23.54731750488281,20.8256950378418,-79.7827422119742,40.45905773872211,273.5253667526245,0.012635881081223488,-0.01490088738501072,-0.9368178844451904,0.34927165508270264,-0.06453065930778888,0.1087837335977612,0.24796768870540395,-0.013635702431201937,0.06232794001698494,0.01120264921337366,0.23176151867955924,-0.032518232327420266,-9.9593694627285
32.7,1.0,308.0,23.56735038757324,17.247398376464847,-79.7827420132228,40.45905767766629,273.5607146911621,0.015364430844783785,-0.0169374942779541,-0.9372052550315856,0.3480279147624969,-0.029017239184731355,0.08354330241638143,0.2779981729109561,0.054197698831558234,0.03187670558691025,0.03106483444571495,0.2356879239901901,-0.041281027304939925,-9.845041193962096
32.9,1.0,311.0,23.48221015930176,23.31460189819336,-79.78274200482593,40.45905766969796,273.56075140762334,0.015683051198720932,-0.016388384625315666,-0.9374516010284424,0.3473759889602661,-0.02023316131343881,0.07725021169827695,0.11526333505580814,-0.07919260114431381,-0.09762994199991226,-0.020168667659163475,0.3442955693230033,-0.08838498604483902,-8.753941397666932
33.0,1.0,315.0,23.443397521972656,23.23508262634277,-79.78274193426881,40.45905763462336,273.567688911438,0.00646586949005723,-0.013017610646784306,-0.9377480149269104,0.3470122814178467,-0.024164760060959748,0.07009333345205486,0.035943770021950004,-0.17798292636871338,-0.12328282743692398,0.015218887478113174,0.34214540194720033,-0.12857344740070406,-9.102189867496492
33.2,1.100000023841858,316.0,23.139148712158203,27.10759735107422,-79.78274146181967,40.45905756932653,273.6217565231323,-0.0011535199591889975,-0.010776236653327942,-0.9379929304122924,0.34648507833480835,-0.015362561555064613,0.067729269554792,0.3078813506474445,0.11348725110292435,0.0072952168993651876,0.015106729231774809,0.19785691380500794,0.15388139359652994,-10.460367085933688
33.3,1.100000023841858,317.0,22.90626716613769,30.11336708068848,-79.78274138621909,40.45905750464538,273.63715884017944,0.003511363174766302,-0.011742427945137024,-0.9379332065582277,0.3465995490550995,-0.017738154153114298,0.08393356462970508,0.4650359099268277,0.12214457988739015,0.1302293837070465,-0.10021333396434784,0.20817920459434391,0.25970280412584545,-11.446852008104324
33.4,1.100000023841858,316.0,23.041488647460927,27.11554908752441,-79.78274130892423,40.45905746789552,273.6936225585937,0.006462131626904011,-0.01402236521244049,-0.9377394914627076,0.34699609875679016,-0.00867228140129832,0.08580145798298286,0.6572847020888366,0.11455237120389936,0.11158397793769836,0.08789892494678497,0.2990405321493745,-0.2256711319461465,-11.676625363826751
33.6,1.2999999523162842,316.0,22.93130874633789,28.610483169555664,-79.78274133408495,40.459057427751134,273.8410806350708,0.005593921989202499,-0.014739363454282284,-0.9374532103538512,0.34775424003601074,-0.017043634643422276,0.09020360764177747,1.048784458820624,-0.11574330180883408,-0.10680041462183,0.012242228724062445,0.3101148662343621,-0.10167326783761382,-11.814055981636047
33.8,1.2999999523162842,317.0,22.769794464111328,30.44734191894531,-79.78274128674904,40.459057399583656,273.9569194011688,0.003483021166175604,-0.013468552380800249,-0.9374122023582458,0.3479439616203308,-0.018158255028939318,0.0883944080292382,1.2655327786631088,-0.16609978675842285,-0.06751323491334915,-0.08949947357177734,0.24691159961745146,0.0565447589289397,-11.905580109357837
33.9,1.399999976158142,317.0,22.422975540161133,34.54250717163086,-79.78274139417499,40.45905740033943,274.07436630058294,0.0011294515570625665,-0.012885511852800846,-0.9373292326927184,0.34820494055747986,-0.010753736576692971,0.08057163538581957,1.4676357283210464,-0.11193735152482986,-0.0607866607606411,0.01192088145762682,0.24801955562084915,-0.005930374022573233,-11.984677734375
34.1,1.5,317.0,22.5106201171875,34.073352813720696,-79.7827413069067,40.45905736665989,274.4197165660858,-0.0017468177247792482,-0.010308039374649523,-0.9371409416198728,0.3487945795059204,-0.002580034366231667,0.08550018900089093,2.000190535179086,0.03727991506457329,-0.04671792313456535,-0.045381367206573486,0.3186786617338658,0.17844837879762054,-12.52800802946091
34.2,1.399999976158142,317.0,22.58949851989746,32.26034545898437,-79.78274144861265,40.45905741139526,274.5926472835541,-0.0020967875607311726,-0.007590425666421652,-0.9370404481887816,0.3491322100162506,-0.00918876010830792,0.07966668179027075,2.22565616174386,-0.031312189996242516,-0.049592260271310806,-0.06597617268562317,0.2724438322149217,0.057118315966799865,-12.488278537988664
34.4,1.399999976158142,318.0,22.89875602722168,26.08976936340332,-79.78274162189591,40.45905747271141,275.01307603645324,-0.002400533994659781,-0.0036749860737472773,-0.9370803236961364,0.3490864932537079,-0.02605196917052676,0.07472481430246122,2.6342320719084924,-0.03928876668214798,-0.04247106611728668,-0.07820393890142441,0.24581632476300005,0.14687395331449807,-12.087420330047607
34.5,1.399999976158142,319.0,23.11536026000977,24.89700508117676,-79.78274153347691,40.459057456839695,275.2861990623474,-0.003283272497355938,-0.0022484823130071163,-0.937247097492218,0.34864336252212524,-0.03149536332568918,0.08391524428355424,2.8156755504584132,-0.0814015194773674,-0.04635443538427353,-0.009318498894572258,0.14449335996061566,-0.038591239582747225,-11.642951248884206
34.7,1.5,321.0,22.94257736206055,26.320371627807607,-79.78274166985828,40.45905749234318,276.0448493652344,-0.0023552970960736275,-0.00404134439304471,-0.9385634064674376,0.3450752794742584,-0.035870775759677405,0.10799827334055476,2.9405329337557733,0.05643315613269806,0.07384827733039856,0.06375681608915329,0.20408555064350367,0.17108406649902466,-10.515180054903027
34.8,1.399999976158142,324.0,23.27937889099121,23.02833747863769,-79.78274191081327,40.459057575496686,276.2557964019776,-0.006381919141858814,-0.00531901465728879,-0.93876451253891,0.3444594144821167,-0.04858010816766352,0.10104047676779963,2.890086107766052,-0.19751155376434326,-0.06852412968873978,0.002076850738376379,0.15943328831344844,-0.0328232354298234,-10.123562786579134
34.91,1.399999976158142,326.0,23.080303192138672,25.262784957885746,-79.78274178255187,40.45905755364913,276.54501244354253,-0.0089854272082448,-0.006187803577631712,-0.9388899207115172,0.3440448045730591,-0.02023005651189001,0.11003742742607983,2.8946387987747983,0.05070549249649048,0.05524764582514763,0.04996044561266898,0.20343634525313967,-0.005124239413999021,-9.934481374025346
35.1,1.2000000476837158,337.0,23.21427154541016,24.077970504760746,-79.78274136500978,40.45905770686436,277.1058926277161,-0.008606155402958393,-0.006167226005345583,-0.9386947751045228,0.34458693861961365,-0.06154986586983146,0.11986164671966633,2.8661673501112013,0.03760350495576858,0.08940800279378891,-0.029948458075523376,0.19213047970086336,0.013766807871870698,-9.835695004463195
35.3,1.100000023841858,337.0,23.195491790771484,23.89508056640625,-79.78274116039414,40.45905770607853,277.39206120300287,-0.007399236783385277,-0.0076232580468058595,-0.9384720325469972,0.3451920449733734,-0.0935654182009289,0.13640331305402034,2.8624342209196354,-0.09827885031700134,-0.007758011110126972,-0.09175434708595276,0.11207318041473628,0.18442472655326128,-9.741792814135552
35.4,1.0,345.0,23.31694030761719,22.31267738342285,-79.78274099056445,40.4590579575326,277.61695095825195,-0.006394276395440103,-0.009477396495640278,-0.9381601214408876,0.3460129797458649,-0.10972797532497212,0.12435243336168135,2.7972778477835742,0.00936040934175253,0.02216264605522156,0.018813742324709892,0.1525053244829178,-0.06251506760716438,-9.744461483359338
35.6,0.8999999761581421,352.0,23.147912979125977,24.35628318786621,-79.78274053994298,40.45905802234525,278.1718625717163,-0.0032877870835363865,-0.013824241235852242,-0.9376794695854188,0.3472108244895935,-0.14014975878520347,0.152983638850743,2.7557581287892496,0.025685910135507584,-0.011912116780877113,-0.010190109722316263,0.24766157811507586,-0.008766154842451216,-9.632753936648367
35.7,0.699999988079071,5.0,23.079050064086914,23.219179153442386,-79.78274102073523,40.459058012778975,278.35032507705694,-0.001194546464830637,-0.014375229366123675,-0.937620222568512,0.34736186265945435,-0.10160164669244902,0.11905788117213338,2.6596329233249283,0.14804384112358093,0.07455693185329437,0.0921679362654686,0.1845017453469336,-0.0871263637393713,-9.646950976252556
35.9,0.8000000119209291,12.0,23.0815544128418,24.793630599975586,-79.78274007411035,40.45905790432703,279.03803679275507,0.0040071234107017534,-0.012992271222174171,-0.9376773834228516,0.34724098443984985,-0.1468604234452298,0.12695430550916648,2.690772364350634,0.07285177707672119,0.056388899683952325,0.015723783522844315,0.15809226594865322,0.07092196586541832,-9.643038604259493
36.0,0.699999988079071,25.0,23.135393142700195,22.73412132263184,-79.78273988692686,40.459057966740325,279.3064708404541,0.0071935770101845264,-0.013358544558286669,-0.9377835988998412,0.34688857197761536,-0.16489331747468186,0.11735578737321115,2.6788457652197013,0.03410584107041359,0.08879818022251129,-0.036350607872009284,0.15381091637536884,0.17482284927740693,-9.693429908752444
36.1,0.699999988079071,24.0,23.018951416015625,26.002300262451172,-79.78273913128545,40.459057854997454,279.9669389419556,0.00907688494771719,-0.014028310775756836,-0.9378853440284728,0.34654301404953003,-0.16670706954377093,0.12754594230362035,2.709662845024063,0.013842179439961909,0.031218947842717167,0.04476422816514969,0.16427354034036398,-0.12828820377588274,-9.748856250643733
36.3,0.6000000238418579,30.0,23.22929763793945,21.891233444213867,-79.78273896927217,40.45905791789225,280.23881336975097,0.00803257804363966,-0.014511769637465475,-0.9377995133399964,0.34678101539611816,-0.16562628940463422,0.11339699740256608,2.717932462665772,-0.02107706293463707,-0.02591717056930065,-0.03903241455554962,0.17736962232738734,0.062366959461942324,-9.82216337800026
36.5,0.699999988079071,37.0,23.16168594360352,22.98857879638672,-79.78273812452134,40.45905787590621,280.90624615478515,0.006559888366609812,-0.017202429473400116,-0.9376351833343506,0.34713321924209595,-0.1331157642182979,0.10422715282984672,2.7469013135476565,-0.015733713284134858,0.0856551006436348,-0.03593088686466217,0.13155810381285846,0.12955646485090255,-9.65791801393032
36.61,0.699999988079071,51.0,23.09783172607422,23.64857482910156,-79.78273801421177,40.45905794501515,281.1801490478516,0.006796820554882288,-0.01830761879682541,-0.9375543594360352,0.34729036688804626,-0.12167175915829205,0.09050618019808793,2.7281504328011503,-0.012080646120011806,0.011893322691321371,-0.027661692351102832,0.18452708937227727,0.07278345437720417,-9.642414706349372
36.8,0.8000000119209291,53.0,23.069034576416016,24.75387191772461,-79.78273757537046,40.45905790003288,281.8229903869629,0.008617899380624294,-0.01841188222169876,-0.9374529719352722,0.34751811623573303,-0.12132389119521672,0.0797636382382157,2.751633283597569,-0.12833872437477112,-0.08787775039672853,-0.047225065529346466,0.11645343015901745,0.14978955776430666,-9.729882620573042
36.91,0.8000000119209291,64.0,23.1641902923584,23.02833747863769,-79.78273712605855,40.45905779885253,282.4676599197388,0.008394651114940643,-0.016306832432746887,-0.9374789595603944,0.34755852818489075,-0.09341042141376626,0.05895442911049615,2.791058727532756,-0.032173339277505875,-0.0641571432352066,-0.04556362330913544,0.14424750281497836,0.05104299494996667,-9.753359191417692
37.1,0.8999999761581421,62.0,23.047748565673828,25.73989295959473,-79.78273710722128,40.45905788191264,282.7463588409424,0.008565730415284634,-0.015084329061210155,-0.9375786185264589,0.34734055399894714,-0.06832986689197176,0.02792296586450977,2.7815744374809404,0.11291126906871796,0.01914811134338379,0.10092734545469284,0.1638317831978202,-0.12507246357388796,-9.731575389504432
37.2,0.8999999761581421,67.0,23.05401039123535,23.93483924865723,-79.78273670895601,40.45905780770492,283.10939499664306,0.008546222932636738,-0.014277062378823755,-0.937660813331604,0.3471534550189972,-0.0797691351378479,0.0309265980364664,2.8325713726951784,-0.020111193880438805,0.018621712923049927,-0.03443044051527977,0.09770460725761952,0.14964246374554932,-9.791815744042397
37.32,0.8999999761581421,73.0,23.19048309326172,22.78183174133301,-79.78273636179573,40.45905767017998,283.7722329788208,0.006108582485467196,-0.013806704431772232,-0.9379582405090332,0.34641945362091064,-0.061181588821935376,0.02887142720767837,2.9114022623040143,-0.06871050596237183,0.01366504281759262,-0.0687088891863823,0.11694181884638966,0.18246934454888106,-9.781926348209382
37.5,0.8999999761581421,79.0,23.14415740966797,23.65652656555176,-79.78273638607206,40.45905773966253,284.0626859359741,0.00508576724678278,-0.013717133551836014,-0.9381002187728882,0.3460548520088196,-0.03809608016355904,0.005822358001065044,2.9013456667384814,-0.0479234978556633,-0.04950539395213127,0.035346925258636475,0.13521852476522328,-0.01719348181039095,-9.805644993782044
37.6,0.8999999761581421,81.0,23.13664436340332,23.44978141784668,-79.78273618207447,40.459057588160135,284.71603676605224,0.006188006140291691,-0.014087042771279812,-0.9382731318473816,0.34555289149284363,0.004789568253122396,0.01922836594307801,2.935298481371144,0.018671097233891487,-0.04840544611215592,-0.021211843937635425,0.17246391803026198,0.01494439028087072,-9.678240011930466
37.8,0.8999999761581421,79.0,23.16043472290039,23.69628715515137,-79.78273624099658,40.45905763477741,285.00905129241943,0.006511347368359566,-0.012080302461981772,-0.9383561015129088,0.3453977108001709,0.009510075976035022,0.006429005315431696,2.9289814034610435,0.0725359097123146,-0.035240307450294495,0.06851377338171005,0.19488799005746849,-0.1493381801247597,-9.77905419588089
38.0,0.8999999761581421,78.0,23.05401039123535,24.03026008605957,-79.78273631295282,40.45905760483753,285.6493901901245,0.005872141569852829,-0.010689903981983662,-0.9381853938102722,0.3459184169769287,0.014981668132645084,-0.03374524562894304,2.958897920965504,-0.09236403554677963,-0.03072850964963436,-0.03420918434858322,0.1404875604249537,0.15207972027361394,-9.724488564133644
38.1,0.8999999761581421,65.0,23.056514739990234,25.5570011138916,-79.78273643126714,40.45905765533189,285.9436759643554,0.006802992895245552,-0.011311893351376057,-0.9380843639373779,0.3461554050445557,0.03253587707338342,-0.040311943150434806,2.9326729779427843,-0.018892014399170882,0.03174082934856415,-0.003162853652611375,0.1771526175364852,0.0604318782594055,-9.640990909337996
38.3,1.0,55.0,23.06027030944824,24.952667236328125,-79.7827366546733,40.45905776776935,286.5681609802246,0.005463944748044014,-0.011484329588711262,-0.9379459023475648,0.3465485870838165,0.03688414737246876,-0.04443363443277703,2.9518887879149505,-0.02800920233130455,-0.07329484820365906,0.03687075152993202,0.2480894298478961,-0.07836781941354275,-9.81608929038048
38.4,1.0,41.0,22.91753578186035,25.93868637084961,-79.78273692492805,40.459057679116114,287.1948833160401,0.005426483694463968,-0.008533143438398838,-0.9378433227539062,0.3469116985797882,0.08577921839581451,-0.05434441494358572,2.9804224747861086,-0.0312558151781559,-0.04005046561360359,-0.019810913130640984,0.13238850893452764,0.036769507569260895,-9.808031827211382
38.6,1.100000023841858,36.0,22.946332931518555,23.82351493835449,-79.78273711064637,40.45905770402539,287.493732421875,0.00467875599861145,-0.01042890641838312,-0.9377803206443788,0.34704095125198364,0.09720088575552707,-0.07043377989812623,2.998366996629564,0.0138406902551651,0.11555717885494232,0.041862744837999344,0.16480141600593926,0.05560001333244145,-9.9408957695961
38.7,1.2999999523162842,28.0,23.04274177551269,24.83338928222656,-79.78273719040145,40.459057523592776,287.81864353942865,0.004571021068841219,-0.013294725678861141,-0.9376172423362732,0.3473851680755615,0.10072205998805812,-0.032371349556630354,3.032013189109281,-0.17896267771720886,-0.031239552423357964,-0.10548698157072067,0.10525279621593654,0.2574706112779677,-9.909560540914537
38.9,1.2999999523162842,23.0,23.0715389251709,24.411945343017567,-79.78273765480371,40.45905745491538,288.7442226104736,0.0024213769938796767,-0.012802144512534142,-0.9378423094749452,0.34681716561317444,0.1597956972482513,-0.027437180606622025,3.0247411858026707,0.047925036400556564,-0.02518446929752827,0.08531185239553453,0.21264106867834925,0.122203335352242,-9.779253001213077
39.1,1.600000023841858,9.0,23.02145576477051,23.86327362060547,-79.78273787621201,40.459057449747895,289.04646107482915,0.0017757978057488801,-0.011632565408945084,-0.938250720500946,0.3457559049129486,0.1533372335238555,-0.042856219533813716,3.0219089293245536,-0.04012095183134079,0.041910793632268906,-0.044402040541172035,0.1264547636266798,0.20668922441080206,-9.721348024606703
39.2,1.7000000476837158,5.0,23.069034576416016,23.664478302001953,-79.78273802690298,40.45905736915425,289.36031338500976,-2.962588223454077e-05,-0.011759492568671705,-0.9385629296302797,0.34490785002708435,0.1542791424490909,-0.04173354606333605,3.0025684850172185,-0.12159903347492218,-0.06134296208620073,-0.047729428857564926,0.15883195700123906,0.13237791085615755,-9.635888628959655
39.3,1.8999999761581416,354.0,23.033977508544922,25.33435249328613,-79.7827382428448,40.459057359196656,289.65953633117675,-0.0028630325105041265,-0.01199603546410799,-0.9386556148529052,0.34463539719581604,0.1696990822541797,-0.04297749316802587,2.9838920809618914,-0.0644126608967781,-0.04456952586770058,0.04347889870405197,0.26003812367096546,-0.030117655657231814,-9.675975970029832
39.5,2.0999999046325684,355.0,22.85368156433105,24.642547607421875,-79.78273868048164,40.45905721716178,290.2725524597168,-0.0025227288715541363,-0.009110824204981329,-0.9382950663566588,0.3457066416740417,0.20593443743453355,-0.043845210860632436,2.98180965197612,0.04842400923371315,-0.08134434372186661,-0.013380871154367924,0.22502426544204354,0.045649824729189284,-9.741294631361962
39.61,2.299999952316284,353.0,22.97137451171875,23.736045837402344,-79.78273889588236,40.459057188837036,290.57090565490716,-0.0011671525426208973,-0.007673549000173806,-0.937943398952484,0.3467016518115997,0.1885343248792936,-0.04309860009341468,2.9843489734027844,0.02816373109817505,0.05178564041852951,0.0013611357426270845,0.2451560279354453,0.08030773370526731,-9.778650153279305
39.8,2.4000000953674316,353.0,22.988903045654297,24.563030242919922,-79.78273938477528,40.45905709426218,291.18623158264165,-0.002490516984835267,-0.0063759773038327685,-0.937325656414032,0.3483873605728149,0.18852156457507532,-0.0441487053856331,2.989204644415875,0.027269721031188958,0.015372159890830515,0.04865823313593864,0.2605175953544677,-0.06902344803325833,-9.784547070264816
39.9,2.5,349.0,22.950090408325195,25.54109764099121,-79.78273951103672,40.45905707638403,291.4935054473877,-0.003322732402011752,-0.007497149519622327,-0.937167465686798,0.3487834930419922,0.1737097991685063,-0.034593377087925474,2.9918565400313586,-0.030028048902750005,0.02657715976238251,-0.053759273141622536,0.2367501438036561,0.09812105691991747,-9.758614084124565
40.11,2.5,345.0,22.856185913085927,25.366159439086914,-79.78273984607219,40.459056984607344,292.0928554229736,-0.003971104975789785,-0.01119397394359112,-0.9371575117111206,0.34870439767837524,0.17533387676589987,-0.006329397460380557,3.0044895891957686,0.0018743837717920546,0.10804805904626846,0.042459413409233086,0.2450555837340653,0.10143491157330572,-9.878470895290377
40.2,2.5999999046325684,338.0,22.9788875579834,23.9825496673584,-79.78273993828553,40.459056898918135,292.39710423278814,-0.004388338886201382,-0.013567746616899969,-0.9372311234474182,0.348417192697525,0.16615167387818044,0.0228041106397492,3.011908625135036,-0.08388172835111618,0.002602797234430909,-0.0757531002163887,0.3187490475922823,0.15744753733277322,-9.893464325666427
40.4,2.700000047683716,335.0,22.92254447937012,23.55315399169922,-79.78274008042364,40.45905674766265,293.0005855255127,-0.004674176219850779,-0.013199665583670141,-0.9374708533287048,0.34778210520744324,0.16223939870109624,0.05742726488223498,3.0047132791278117,-0.030412366613745686,-0.05556251108646393,-0.02459063194692135,0.2519060902297497,0.04944505141116679,-9.809304181337355
40.5,2.799999952316284,331.0,22.92379570007324,26.034107208251953,-79.78274018042214,40.459056690749605,293.30148503112787,-0.003894308116286993,-0.012706203386187552,-0.9375308156013488,0.3476483225822449,0.16528531846115732,0.06016557015609636,3.0049975368492468,0.09861738979816437,0.025060726329684258,0.049291398376226425,0.36640414752066136,-0.04547002284787596,-9.845697251558304
40.61,2.799999952316284,332.0,22.99516296386719,23.942790985107425,-79.78274030822044,40.45905657414791,293.9007625274658,-0.002828770549967885,-0.012779789045453072,-0.9376795291900636,0.34725475311279297,0.13125506289385516,0.06905282097651752,3.0121326136824376,-0.007095248438417912,0.026626378297805783,0.010258909314870834,0.3003575443848968,0.10647829039022327,-9.876541314125062
40.8,2.9000000953674316,333.0,22.927553176879893,23.942790985107425,-79.78274035394958,40.45905647118872,294.5011806182861,-0.002308676717802882,-0.01420013699680567,-0.9377826452255248,0.34692493081092834,0.1163332940871053,0.08601398003789214,2.994036319234875,-0.06680016964673996,-0.015319795347750187,-0.0795125663280487,0.19885528933256866,0.22186305966228248,-9.717176620960236
40.9,2.9000000953674316,336.0,23.04274177551269,22.98857879638672,-79.78274041630097,40.45905641368041,294.80035969543457,-0.002021593740209937,-0.014802074059844015,-0.9376584887504578,0.34723690152168274,0.12621242416070524,0.08768313835236324,2.982851560280134,0.012979877181351185,-0.031440410763025284,0.06933479756116867,0.2619115350209177,-0.0037807730957865717,-9.733732427358627
41.1,2.9000000953674316,340.0,22.90251159667969,24.63459587097168,-79.78274047752097,40.45905635575985,295.0979041748047,-0.001880633295513689,-0.0151413194835186,-0.93753981590271,0.34754323959350586,0.12508072137061607,0.09357546395146656,2.9621017629978215,-0.006303485948592424,0.02139298804104328,0.061101917177438736,0.2312009168788791,0.03511761889792979,-9.636511942148207
41.3,2.9000000953674316,341.0,22.851177215576172,25.81941032409668,-79.78274067933064,40.45905618400465,295.9912433319092,-0.0051531200297176855,-0.015953587368130684,-0.9372187256813048,0.3483391106128693,0.13694408052869664,0.08977186614309754,2.9777937680251734,-0.05232500657439232,0.04360246658325195,-0.11604170501232147,0.2579343137517572,0.003042660334613175,-9.777863118052483
41.4,2.9000000953674316,342.0,22.76603889465332,26.495309829711914,-79.78274075273345,40.45905612078994,296.2903117828368,-0.006767981685698032,-0.016145210713148117,-0.9372515678405762,0.348214328289032,0.15131226238518206,0.09502480331165483,2.9987856393407784,-0.08037659525871277,-0.06668522208929062,0.027099091559648517,0.21994385730475188,0.06110972587019205,-10.002393275499344
41.6,2.9000000953674316,343.0,22.719711303710927,26.38398551940918,-79.78274081739681,40.4590560593031,296.59222790527343,-0.0060704080387949935,-0.015999598428606987,-0.9373466968536376,0.3479776680469513,0.15281560693427845,0.09665580039694573,3.0340225103346627,0.052723981440067284,0.028010038658976555,-0.0895456075668335,0.30311916606500744,0.3098693197220564,-10.116388252973557
41.7,2.9000000953674316,342.0,22.807355880737305,24.04616355895996,-79.78274076644081,40.459055987729286,297.20428845214843,-0.002929797163233161,-0.017117654904723167,-0.9373254179954528,0.3480222225189209,0.09499382804123377,0.11269184583063588,3.1064512189941453,-0.16776180267333984,-0.06304861605167389,-0.1115935817360878,0.2159575545787812,0.45369310040026894,-10.067622474431992
41.9,2.9000000953674316,344.0,22.90626716613769,24.02230834960937,-79.78274051818626,40.45905592929399,297.4963626556396,-0.002104631392285228,-0.01740359142422676,-0.9373710751533508,0.34789103269577026,0.10946003108822087,0.1249175922807859,3.0843515553823417,0.12854494154453278,0.040048740804195404,0.1183292120695114,0.31665607329458,-0.05495803473517299,-9.975299617052078
42.0,2.9000000953674316,346.0,22.972625732421875,23.577009201049805,-79.78274053178613,40.459055881046545,297.8052577667236,-0.001804270432330668,-0.017345750704407692,-0.9373323321342468,0.3480001986026764,0.09190572100194197,0.1292768149841976,3.084028612507846,-0.025480510666966442,-0.03242873772978784,-0.05729804560542106,0.2678751285374165,0.18916758589446545,-9.795633975863456
42.2,2.9000000953674316,347.0,22.90626716613769,24.88905143737793,-79.78274055020806,40.45905576565365,298.71827122497564,-0.0047792107798159105,-0.015501179732382298,-0.9374393224716188,0.3477707505226135,0.09118161935977613,0.11366426361829515,3.027883756296177,-0.06145940721035004,-0.031956952065229416,-0.0633077397942543,0.27897137140855194,0.15432852286845447,-9.641582062840461
42.3,2.9000000953674316,349.0,22.89124298095703,24.316524505615234,-79.78274045806042,40.459055693015976,299.0251350097656,-0.004573790822178125,-0.014506557956337929,-0.9375781416893004,0.3474421203136444,0.09742351061561087,0.11602138635675688,3.0229433766260394,-0.0004255513777025044,0.009378395043313505,-0.019164489582180973,0.2897540938854218,0.2421839247643948,-9.715371000766755
42.4,2.9000000953674316,349.0,22.862445831298828,24.02230834960937,-79.78274046107757,40.4590556455812,299.3276920013428,-0.0043317065574228755,-0.014077246189117432,-0.9377207159996032,0.34707775712013245,0.0893718047065925,0.11358201139178127,3.0228601105956656,-0.021828914061188698,0.00779479881748557,-0.028371518477797505,0.16986481240019202,0.2103470415249467,-9.717756664752963
42.6,2.9000000953674316,350.0,22.81987571716309,24.08592414855957,-79.78274032282937,40.45905562227846,299.9372253112793,-0.004583640024065971,-0.014750214293599129,-0.9379322528839112,0.34647446870803833,0.08010763806417855,0.10770602152072067,3.01996696481874,0.07409652322530746,0.08442723751068115,0.040389787405729294,0.33686386786401273,0.038901068922132256,-9.771349319815636
42.8,2.9000000953674316,350.0,22.92254447937012,24.41989707946777,-79.78274030525178,40.45905558917272,300.239768951416,-0.00446751993149519,-0.015966346487402916,-0.9379563331604004,0.3463568985462189,0.06594137012882803,0.11135043597479977,3.0253250673841667,0.010998886078596115,0.008326699957251549,-0.023544587194919583,0.2452071545273065,0.24710536172613504,-9.830781004428864
42.9,2.9000000953674316,352.0,22.837404251098643,24.88905143737793,-79.7827402391538,40.459055507425006,300.54849812316894,-0.0037767449393868455,-0.017023703083395958,-0.9379763007164,0.34626075625419617,0.07365585280464793,0.12501398540350322,3.037683060908733,-0.031315986067056656,0.017181837931275368,-0.011812030337750912,0.29979111364111305,0.21314815018326044,-9.849257036447526
43.1,2.799999952316284,355.0,22.8712100982666,22.90110969543457,-79.78274019717617,40.45905543383512,301.1575240783692,-0.004378455691039561,-0.018575798720121384,-0.9379668235778807,0.34619954228401184,0.06568300779588128,0.13671994720438418,3.043282899206045,-0.0723167285323143,-0.07653848826885222,0.017731918022036552,0.23462645335122945,0.09753018664196134,-9.817178041934968
43.2,2.799999952316284,357.0,22.92254447937012,23.92688751220703,-79.78274010852948,40.45905540540839,301.4614543609618,-0.004327968694269657,-0.0178567674010992,-0.9379454851150512,0.3462957739830017,0.07900918736580488,0.13468659804829386,3.0344907861281967,0.08777480572462082,0.01595734991133213,0.011196885257959366,0.3541881445795298,0.04752890513744205,-9.76771644473076
43.3,2.799999952316284,358.0,22.90626716613769,24.22110366821289,-79.78273996344521,40.45905533197952,302.07049938964843,-0.0037255957722663892,-0.016278482973575592,-0.9379518032073976,0.346363365650177,0.05469983241310289,0.12301906511421612,3.022791717368976,-0.010066920891404152,-0.01685156486928463,-0.021163230761885643,0.2342338128201664,0.2146158195845783,-9.68992801129818
43.5,2.9000000953674316,358.0,22.95885467529297,23.02833747863769,-79.78273993569002,40.459055306641886,302.3725890808105,-0.003302393248304725,-0.015993641689419746,-0.9379116296768188,0.3464898765087128,0.05187241089318175,0.12016626253051592,3.012823391603092,-0.02245562151074409,0.029147457331418988,-0.03729966655373573,0.3357818406075239,0.2807099861651659,-9.732786932587624
43.7,2.9000000953674316,359.0,22.908771514892567,24.23700714111328,-79.78273980230435,40.459055275341846,302.9772185974121,-0.003667322685942054,-0.017152944579720497,-0.9377228617668152,0.346941202878952,0.037550619665701584,0.11753993989464642,2.9987688524125518,-0.06876018643379211,-0.01929635740816593,-0.05434870347380638,0.13067901148460806,0.259809716809541,-9.68668923854828
43.8,2.799999952316284,0.0,22.86620140075684,24.658451080322266,-79.7827397745727,40.45905525947604,303.27679821777343,-0.0037703742273151883,-0.01873898133635521,-0.9376088976860046,0.3471660912036896,0.05084507593492831,0.11470091809115167,2.9871050895382054,-0.02425214648246765,-0.021099144592881203,0.06271243095397949,0.2868840977177024,0.04277885098010302,-9.756804370880127
43.9,2.799999952316284,1.0,22.791078567504893,24.435800552368164,-79.78273960847378,40.459055221794344,303.88157650756835,-0.003486095229163766,-0.01945963315665722,-0.9373689293861388,0.3477769196033478,0.053377173219118265,0.12691780695048932,2.9934667312742937,-0.005596446804702282,-0.051424682140350335,-0.007017367519438267,0.28185370154678824,0.18143964987248185,-9.771648112535477
44.1,2.799999952316284,1.0,22.882478713989247,23.75990104675293,-79.78273950991236,40.459055159028395,304.48518368530273,-0.00449574738740921,-0.01740747131407261,-0.9372646808624268,0.3481548130512237,0.04466074659167548,0.1124285946893859,2.99958085107477,-0.031530052423477166,0.016850188374519348,-0.09654375910758972,0.23245713634416465,0.3789644783735275,-9.750725605487824
44.31,2.799999952316284,2.0,22.78982734680176,25.636518478393555,-79.78273949146934,40.459055153872725,304.78509136962884,-0.004285822156816721,-0.016657616943120956,-0.9372261166572572,0.34829801321029663,0.04811610642182361,0.1024133696560957,2.997920737627658,-0.07285530865192412,-0.04293908551335335,-0.051365993916988366,0.2580090302042663,0.2261147528886795,-9.817869182825087
44.4,2.9000000953674316,3.0,22.708444595336914,25.5649528503418,-79.78273938229397,40.459055153280666,305.08677288818365,-0.00440655928105116,-0.016287533566355702,-0.9372527599334716,0.3482421040534973,0.0412630421404253,0.0960133353376888,3.0084823533253022,0.03338228166103363,0.0035504619590938096,0.09117640554904938,0.19814761178568008,0.05435980975627898,-9.819895827770234
44.6,2.9000000953674316,4.0,22.76228141784668,25.437725067138672,-79.78273933519522,40.45905516320606,305.6925010375976,-0.003997594118118286,-0.015622855164110659,-0.9375208020210266,0.3475555777549744,0.05530981611373613,0.08285945605647108,3.0393987815994468,0.1914767324924469,0.06554575264453888,0.13183532655239105,0.23548431297764186,0.03855159271974117,-9.879300030469897
44.7,2.9000000953674316,7.0,22.77229881286621,24.952667236328125,-79.78273924354019,40.45905509571492,305.9899367980957,-0.0031635614577680826,-0.014807022176682947,-0.9377089738845824,0.34709179401397705,0.03567898924308227,0.09333410526808933,3.0415692244260244,-0.07479296624660492,-0.04783564060926437,-0.04257622733712197,0.2201781113818288,0.31824775848537684,-9.895406770706176
44.9,2.9000000953674316,7.0,22.80610275268555,25.3900146484375,-79.78273913474848,40.45905521848678,306.5882453613281,-0.0022126862313598394,-0.012944765388965608,-0.9379826784133912,0.3464334309101105,0.02191002391133253,0.061234820473549674,3.0536789690155874,-0.0256881769746542,-0.014451208524405956,-0.049830138683319085,0.18351519215852025,0.1843743125908077,-9.893828022480012
45.0,2.9000000953674316,11.0,22.734737396240234,26.12157821655273,-79.7827391263186,40.4590552365324,306.89361187744134,-0.0024229944683611393,-0.01324572041630745,-0.9380059838294984,0.3463576734066009,0.032794191917603174,0.05474411740621082,3.052935690922005,0.06353921443223952,0.02978520281612873,0.052157383412122726,0.2354812614619732,0.056440472924150525,-9.892555668354037
45.13,2.9000000953674316,12.0,22.814868927001953,24.63459587097168,-79.7827391353697,40.45905522638694,307.49810787963867,-0.0018933123210445046,-0.01448787562549114,-0.9378949999809264,0.34661173820495605,0.03502613973299644,0.06287474771262802,3.0656359586276265,-0.07650743424892427,-0.03476513549685478,-0.02609357424080372,0.202485770713538,0.1929071178473533,-9.910407217741014
45.32,2.799999952316284,13.0,22.83865737915039,23.64062309265137,-79.78273913350536,40.4590551626344,308.1042403869629,-0.0021789001766592264,-0.014021299779415129,-0.9378150701522828,0.3468452990055084,0.06626157970928814,0.06568489360652849,3.043565815911748,0.0198054201900959,-0.02674056775867939,-0.015180304646492003,0.3058954423293471,0.0931224275752902,-9.745864230394364
45.5,2.9000000953674316,15.0,22.966365814208984,22.78183174133301,-79.78273916384342,40.4590551564111,308.4077453308105,-0.0033386838622391233,-0.014031573198735714,-0.9378524422645568,0.3467345833778381,0.07530053685055653,0.0594646269242714,3.022475105506726,0.056293930858373635,0.03575363755226135,0.0571393147110939,0.2287251692265272,0.10841912744566802,-9.635713212490082
45.6,2.799999952316284,16.0,22.841161727905273,24.9924259185791,-79.7827391981659,40.459055148683255,308.7093009643554,-0.003865606850013137,-0.014044064097106457,-0.9379701614379884,0.3464100360870361,0.07632824436862988,0.05671745369886678,3.003228183948881,-0.0021876618266105648,0.02222856879234314,0.014412855729460716,0.16192531680688266,0.24999861884862185,-9.599968598484994
45.81,2.799999952316284,17.0,22.86870574951172,24.29266929626465,-79.78273928329756,40.459055249719725,309.3036346130371,-0.0027036878746002913,-0.013677963986992836,-0.9382178783416748,0.3457643687725067,0.07907073984488486,0.030146478769246355,2.968295054385224,0.007683096919208766,0.04201897606253624,-0.003460409818217159,0.2531771835498512,0.2430185051634908,-9.595643413066863
