time,wind_speed,wind_angle,battery_voltage,battery_current,position_x,position_y,position_z,orientation_x,orientation_y,orientation_z,orientation_w,velocity_x,velocity_y,velocity_z,angular_x,angular_y,angular_z,linear_acceleration_x,linear_acceleration_y,linear_acceleration_z
0.0,0.5,297.0,25.174983978271484,-0.10337305814027786,-79.78274065073023,40.45907947450432,272.59868618488315,0.0009601495694369078,-0.009811224415898323,0.9990170001983644,0.04321948066353798,-0.09971303416407568,0.004663769019974139,0.06199085051269604,0.0025111103896051645,0.005419405177235603,-0.0030687444377690554,-0.20623582765460016,-0.0318873337469995,-9.803634136319161
0.2,0.5,297.0,25.184999465942386,-0.11132483184337616,-79.78274040823094,40.45907944921312,272.6110547447205,0.0009707437129691244,-0.009833009913563728,0.9990165829658508,0.043224915862083435,-0.11352359997062315,0.002413906501460592,0.06250425129549926,-0.007436282467097044,-0.004685459658503532,-0.004460169933736324,-0.20182583933696152,-0.0542695662053302,-9.805188910961153
0.3,0.5,298.0,25.19000816345215,-0.11132483184337616,-79.7827403606002,40.459079298931066,272.64442011356357,0.0009203706285916268,-0.0098147913813591,0.9990159273147584,0.043245501816272736,-0.09675278203904727,0.004620171835733145,0.059938957786948965,0.006392075680196285,0.002529266756027937,0.001357299042865634,-0.2030929857864976,-0.0372937972471118,-9.804355682730677
0.5,0.5,297.0,25.19000816345215,-0.12722837924957275,-79.7827402307253,40.45907919040853,272.6811605358124,0.0008328185649588704,-0.009792858734726906,0.9990145564079284,0.04328213259577751,-0.0843266314309086,0.000205700232946496,0.055724760743387086,-0.0020853341557085514,-0.003200279315933585,-0.01048147026449442,-0.2051345228590072,-0.05461082889698446,-9.80659867465496
0.6,0.5,297.0,25.174983978271484,-0.13518016040325165,-79.78274012842535,40.459079183215024,272.68671509265897,0.0008555256645195186,-0.009789736941456795,0.9990144968032836,0.0432840920984745,-0.0897647209344328,-0.0017216200218468395,0.055828584308150096,0.006596017628908157,0.004387249704450369,0.0030793054029345512,-0.20094484666362405,-0.0436169853899628,-9.805011155605316
0.7,0.5,296.0,25.19251251220703,-0.11927660554647446,-79.78274002494481,40.45907917635566,272.6922998094559,0.0008265845826826991,-0.009792776778340341,0.9990150332450868,0.04327220097184181,-0.09649449710688296,-0.0024633392796620537,0.05607115265224842,-0.006409092806279659,-0.003138227155432105,0.007045596372336148,-0.20999370524659755,-0.05464241756591946,-9.806165395975112
0.9,0.5,297.0,25.19251251220703,-0.09542128443717957,-79.7827397837807,40.45907901256985,272.7308603191376,0.0007939252536743879,-0.009792408905923368,0.999013364315033,0.04331040009856224,-0.0970395625537005,-0.00010320260883434248,0.05525944987864855,0.004344774875789882,0.002473864937201143,0.007384321652352809,-0.20956844821572304,-0.028415480931289493,-9.803086252212523
1.0,0.5,297.0,25.1975212097168,-0.09542128443717957,-79.7827396803873,40.45907886658517,272.76205643653867,0.0007572349277324975,-0.009785638190805912,0.9990124702453612,0.04333367198705673,-0.08922046007909976,0.003198149840501218,0.052490392586907415,-0.004577635321766138,-0.00439882418140769,-0.00044956087367609143,-0.21150548458099366,-0.048387399734929205,-9.806484069228173
1.2,0.5,297.0,25.188756942749023,-0.10337305814027786,-79.78273946194649,40.45907884665763,272.772543039322,0.0007807495421729982,-0.009793033823370934,0.9990113377571106,0.04335758462548256,-0.10090471790542152,-1.7894829688438682e-05,0.05284690419128978,0.0044530779123306274,0.001866200473159552,0.005463666282594204,-0.20850884137675169,-0.030231767725199463,-9.803215475678444
1.3,0.5,297.0,25.191259384155273,-0.11132483184337616,-79.78273947592231,40.45907875051567,272.80048235893247,0.0007307347841560841,-0.00976505782455206,0.9990116953849792,0.043357040733098984,-0.08177743663061518,-0.0027516369559191173,0.04626749840046958,-0.005156249273568392,-0.006940295919775964,-0.00720350118353963,-0.21372651290148492,-0.04256451398134232,-9.804087295532227
1.5,0.5,296.0,25.1975212097168,-0.08746951073408127,-79.78273925364745,40.45907862154441,272.83515008926395,0.0007016396848484874,-0.00977663602679968,0.9990106225013732,0.04337958618998528,-0.08260215976903126,-0.0035277971239003475,0.04533056222197592,-0.00239029829390347,0.00203640409745276,0.008801464922726154,-0.20529360366985205,-0.03536239339504391,-9.803449364304543
1.6,0.5,295.0,25.19251251220703,-0.08746951073408127,-79.78273915172697,40.45907861799153,272.83969387054447,0.0007137664360925555,-0.00976473931223154,0.9990101456642152,0.043392363935709,-0.09043256461973978,-0.0049999035474945185,0.0458069367623051,-0.0046199243515729896,-0.0038010980933904648,-0.007854536175727844,-0.21228871911764147,-0.03482983995694668,-9.804495431184767
1.8,0.5,295.0,25.191259384155273,-0.10337305814027786,-79.78273894642994,40.45907846876155,272.87395795822147,0.0006795452209189534,-0.00977394822984934,0.9990087151527404,0.043425079435110085,-0.08818942556378849,-0.002726708199366793,0.044555715217184086,-0.0021816613152623177,-0.0013587949797511099,0.004581799264997244,-0.20048710104078046,-0.04076258027460426,-9.804066830277442
1.9,0.5,294.0,25.184999465942386,-0.10337305814027786,-79.78273884545675,40.459078463581726,272.8784178161621,0.000649050110951066,-0.00975112058222294,0.9990081191062928,0.043443534523248666,-0.09465180284546587,-0.0043869991291222545,0.044943047485625866,-0.0014776606112718582,-0.0003393253718968481,-0.00813622772693634,-0.21062374273315074,-0.0298301508044824,-9.803584434986117
2.1,0.5,293.0,25.19000816345215,-0.10337305814027786,-79.78273877110841,40.45907833207933,272.90953668594364,0.0006205390673130751,-0.00975898001343012,0.99900621175766,0.043484628200531006,-0.07918773253462814,-0.0035630509617633,0.04085715055392182,-0.007244039326906205,-0.004598017316311598,0.0020326902158558373,-0.2003576583042741,-0.04854545728303492,-9.805187156796457
2.2,0.5,293.0,25.191259384155273,-0.10337305814027786,-79.78273867994244,40.45907832865582,272.9136243724824,0.0005903723067604005,-0.009742111898958685,0.9990054965019226,0.04350598528981209,-0.08484910063040348,-0.005493529967966293,0.04116393992265808,0.0021644001826643944,0.0004218849062453955,-0.009270782582461834,-0.20736181866377595,-0.029570260341279214,-9.804093142747881
2.4,0.4000000059604645,293.0,25.184999465942386,-0.11132483184337616,-79.78273852890143,40.45907816669128,272.946390953064,0.0005572373047471045,-0.00974061619490385,0.9990046620368958,0.04352676123380661,-0.08132023889243452,-0.0023521979298045826,0.040390639433129566,-0.008863838389515877,-0.0043153949081897736,-0.0010402763728052378,-0.20048315417021514,-0.05330232710111887,-9.806370633244516
2.5,0.5,291.0,25.18625259399414,-0.08746951073408127,-79.7827384269697,40.459078040794076,272.9743240737916,0.0005305307568050921,-0.009734225459396841,0.9990034103393556,0.04355743527412415,-0.07486126449224759,-0.0023622752921124857,0.03970798982597274,0.004618733655661345,0.0020352110732346773,-0.0018743812106549733,-0.2043356104753912,-0.03562325687147677,-9.80388147354126
2.71,0.5,293.0,25.183748245239247,-0.10337305814027786,-79.78273824293154,40.45907803270283,272.9822948837281,0.0005157573032192887,-0.009730029851198195,0.9990031123161316,0.0435650534927845,-0.08712448402068211,-0.004842048199328022,0.04032854139349629,-0.004211727529764175,-0.0030219177715480328,-0.010328316129744051,-0.20385546270757915,-0.05367177063133568,-9.80553740501404
2.8,0.5,295.0,25.188756942749023,-0.10337305814027786,-79.78273817603207,40.45907790177504,273.0088525676728,0.0004904019879177213,-0.009741058573126793,0.9990020394325256,0.04358646273612976,-0.07691944199756456,-0.00423861130147302,0.0387847852784517,0.006673548836261034,0.005519173573702575,0.0005691900150850415,-0.20146517576649786,-0.04081388959195465,-9.805149734616279
3.0,0.5,295.0,25.19251251220703,-0.09542128443717957,-79.78273802982305,40.459077765677364,273.03989371299747,0.0004486987018026412,-0.009745623916387558,0.9990021586418152,0.043584011495113366,-0.07357693975708031,-0.0035475107112330037,0.03852343751266985,-0.001261014840565622,-0.0011976594105362892,-0.008125429973006248,-0.20797177461907268,-0.05563766391947866,-9.805990564227104
3.1,0.5,296.0,25.19251251220703,-0.09542128443717957,-79.78273794028458,40.45907776285557,273.0437448883057,0.0004589064337778837,-0.00974348559975624,0.9990020394325256,0.04358793795108795,-0.07812499931512097,-0.005245194290531856,0.038630444054603266,0.00803630705922842,0.004844192881137133,0.006559578701853752,-0.1999804763495922,-0.04688144020736218,-9.806173582077028
3.3,0.5,296.0,25.188756942749023,-0.10337305814027786,-79.7827377662757,40.45907760738967,273.07496031761167,0.0004046143440064043,-0.009759729728102684,0.9990009665489196,0.04360859841108322,-0.07876894688197368,-0.002548634143750598,0.03856041959706514,-3.0224753572838374e-05,0.00016947028052527455,-0.005708624143153429,-0.21093497905880207,-0.051473907334730035,-9.80663434267044
3.4,0.5,297.0,25.18625259399414,-0.10337305814027786,-79.78273767639993,40.45907760252428,273.0788224601746,0.00037973732105456287,-0.009766547009348871,0.9990004897117616,0.04361918196082115,-0.08289793416164525,-0.00367501704005696,0.03862285824038823,0.003549614688381553,0.004378847777843475,0.008810197934508324,-0.20015728153288365,-0.053346811621449886,-9.806116279363634
3.6,0.5,298.0,25.19000816345215,-0.10337305814027786,-79.7827376368899,40.45907746018653,273.1076091194153,0.0003329806495457888,-0.009757323190569878,0.9989998340606692,0.043635763227939606,-0.06942278093818131,-0.0012494669404582983,0.03681733809755765,0.005800503306090832,-0.0002898055536206812,-0.002314700745046139,-0.21253598324954512,-0.04368781435769052,-9.80473750591278
3.7,0.5,299.0,25.191259384155273,-0.11927660554647446,-79.78273755699846,40.45907745447236,273.11130722999576,0.0003338483802508563,-0.009761610068380831,0.9989994168281556,0.043644309043884284,-0.07410199561693981,-0.0020696398384039165,0.037064443801529116,0.0020554589573293924,0.001042456366121769,0.008678189478814602,-0.20295674566179514,-0.0553354633692652,-9.805799944996837
3.9,0.5,301.0,25.168724060058594,-0.10337305814027786,-79.78273739648753,40.45907730835643,273.14437040328977,0.00028456756263040017,-0.009741312824189665,0.9989980459213256,0.04368049278855324,-0.07435388739314963,-0.0013085494043537133,0.03902569132687626,0.008604474365711212,0.004419403150677681,0.0021987485233694315,-0.21318325174972416,-0.03516304902266711,-9.802744774818422
4.0,0.5,300.0,25.191259384155273,-0.07951773703098297,-79.782737352154,40.45907717645347,273.173999156952,0.0002517484535928816,-0.009763810783624649,0.9989974498748779,0.0436885878443718,-0.0643920822160087,0.00026891422174999237,0.04031162612987175,-0.002003035042434931,-0.0041809314861893645,0.005544518586248159,-0.2065921423584223,-0.054427674002945424,-9.806903899312019
4.2,0.5,301.0,25.188756942749023,-0.10337305814027786,-79.78273719168806,40.459077165884224,273.1820908451081,0.00022600482043344527,-0.009768604300916195,0.9989967346191406,0.043704945594072335,-0.07460871295527746,-0.0031050892144893,0.04061520270812717,0.007281684316694736,0.007040463387966156,0.0052678417414426795,-0.21121805738657715,-0.029455097601749008,-9.803572155833244
4.3,0.5,301.0,25.191259384155273,-0.10337305814027786,-79.78273715861779,40.45907702964069,273.21269496917733,0.00019729479390662163,-0.009776038117706777,0.9989965558052064,0.04370689019560814,-0.0651071624285302,-0.001009577053397819,0.04178974760150101,-0.0070103928446769714,-0.005594938062131405,0.0024308746214956045,-0.2115304448828101,-0.05204985807649792,-9.806315669417382
4.5,0.5,301.0,25.19000816345215,-0.10337305814027786,-79.78273698492094,40.459076872123795,273.2471471691132,0.0001659390400163829,-0.009801809675991535,0.9989945888519288,0.04374706372618675,-0.06527431965984677,0.0018171982510533406,0.042727510979789635,0.006126416847109796,0.005009146872907877,0.009544924832880495,-0.2074518109671772,-0.028425357243977486,-9.803130691051484
4.6,0.5,302.0,25.18625259399414,-0.10337305814027786,-79.78273690432395,40.459076864915,273.2514313125611,0.00019328274356666952,-0.009785354137420654,0.9989941716194152,0.04375925287604332,-0.0720730198172578,0.0007666119820534034,0.04317458774870188,-0.007811971474438907,-0.00912960059940815,-0.002515559317544103,-0.21325078709051007,-0.04358861725777388,-9.805860171318054
4.8,0.5,302.0,25.16997528076172,0.03180709481239319,-79.7827367185346,40.45907668663536,273.2869237327576,0.00014312191342469305,-0.009793512523174286,0.9989922642707824,0.04380311444401741,-0.0717677869481481,0.0038941004163454713,0.043826789067352726,0.0027182388585060835,0.0021593875717371702,0.004940567072480917,-0.20637162923812868,-0.03357637964654714,-9.803418374061584
4.9,0.5,303.0,25.16246223449707,-0.06361418962478638,-79.78273663612177,40.45907667635075,273.2913137340546,0.000127664883621037,-0.009789385832846165,0.9989923238754272,0.04380068555474281,-0.07789240944047418,0.002813129090185993,0.04428454936239375,-0.010509137064218521,-0.003928563091903925,-0.007534662261605263,-0.2125750499591232,-0.035635170573368666,-9.803522454500195
5.1,0.5,301.0,25.17373085021973,-0.04771064221858978,-79.78273647708096,40.45907653166356,273.32739314079294,0.00013796698476653546,-0.009792931377887726,0.9989911913871764,0.04382623732089996,-0.07397774052568963,0.001475377927955626,0.044853833992379716,-0.0035599693655967712,-0.00293526379391551,0.005958068184554578,-0.20313521364703774,-0.039573608357459315,-9.804196053743363
5.2,0.5,301.0,25.161211013793945,-0.03180709481239319,-79.78273639220295,40.459076524004686,273.33188184738157,0.00013579995720647275,-0.009780509397387505,0.9989911913871764,0.04382916539907456,-0.0797375332950972,-6.503728864749522e-06,0.04520728379963918,-0.004126425366848707,-0.002954281866550445,-0.009131563827395441,-0.21063474280759686,-0.02976353365927935,-9.803193256258963
5.41,0.5,300.0,25.174983978271484,0.0,-79.78273626173778,40.45907637431791,273.3687885665894,0.00010582936374703422,-0.009784667752683164,0.9989907145500184,0.043839290738105774,-0.07420526287596171,-0.0001922096672483933,0.04559859653513314,-0.004574468359351158,-0.001962515991181135,0.006652242504060268,-0.1987033896334469,-0.04642317838501185,-9.805130438804627
5.5,0.5,301.0,25.17373085021973,-0.02385532110929489,-79.78273614575998,40.459076206085854,273.4022797012329,8.530970808351412e-05,-0.009781784377992151,0.9989901185035706,0.0438532754778862,-0.07136472847174585,0.0033765724520115558,0.04780808911554712,-0.0019399062730371952,0.0009403928415849805,-0.006431411486119032,-0.21049755251035096,-0.028924503894522783,-9.803468660116195
5.7,0.5,302.0,25.163715362548828,0.03180709481239319,-79.78273597290641,40.459076188214,273.4118626976013,9.673464228399098e-05,-0.009771057404577732,0.9989894032478333,0.04387304186820984,-0.08132157095877987,0.0010965435491843926,0.04835777244000836,-0.007363060489296912,-0.007279849611222744,0.002004810608923435,-0.20047114910557867,-0.04911466545425356,-9.805283635854721
5.8,0.5,301.0,25.15495109558105,-0.04771064221858978,-79.78273599802742,40.45907606594066,273.43880971908567,2.774795939330943e-05,-0.009768669493496418,0.9989888668060304,0.043884191662073135,-0.06196283982242861,0.00017367681993610794,0.0421927452121529,0.003268003230914473,0.002928268630057573,-0.0052587073296308535,-0.2077676702477038,-0.02959266705438495,-9.803477430939674
6.0,0.5,301.0,25.15995979309082,-0.03180709481239319,-79.78273584555006,40.459075917187256,273.4759925270081,-1.5266523405443874e-05,-0.009752399288117886,0.9989879727363586,0.0439084880053997,-0.060503284188559076,-2.0039929218656355e-05,0.04300125224657912,-0.008565729483962059,-0.003821037476882338,-0.005415687337517738,-0.20159553213045006,-0.05392237407155336,-9.805606402158736
6.11,0.5,302.0,25.161211013793945,-0.04771064221858978,-79.78273577219396,40.45907591248466,273.48029145240787,-1.495074229751481e-06,-0.00974623765796423,0.99898761510849,0.0439184345304966,-0.06493624516782727,-0.00220698313203094,0.04312641159782029,0.004919345956295729,-0.0010725297033786774,-0.0021553898695856333,-0.20658667886629706,-0.03368707931600511,-9.802973400950432
6.3,0.5,301.0,25.16997528076172,-0.039758868515491486,-79.78273561647562,40.459075743335156,273.5183232688904,-4.241223723511212e-05,-0.009744791314005852,0.9989857077598572,0.04396212100982666,-0.06407550686906037,0.0007341518760335263,0.044046531066382746,-0.006152992602437736,-0.002246233401820064,-0.006922995205968618,-0.20227349851280446,-0.05490253186784685,-9.805065534710883
6.4,0.5,302.0,25.16747093200684,-0.04771064221858978,-79.78273554348777,40.45907573722932,273.5227280521393,-6.079343802412041e-05,-0.009727946482598782,0.9989854097366332,0.043971650302410126,-0.06750616071314157,-0.001243001784083621,0.044182995076583166,0.006629049777984619,0.005405081436038017,0.002263939473778009,-0.2025289122015238,-0.04053863648325205,-9.804008942842485
6.6,0.5,302.0,25.164966583251953,-0.039758868515491486,-79.7827353797415,40.45907558449328,273.56100305557254,-5.17494772793725e-05,-0.009710419923067093,0.9989848136901855,0.04399144649505615,-0.06831066243240175,-0.00020253398960415426,0.046404473962941055,-0.004555501975119114,-0.004100879654288292,-0.007559143472462893,-0.2064650202356279,-0.05447269299533218,-9.805120498538017
6.7,0.5,301.0,25.164966583251953,-0.07951773703098297,-79.78273530204817,40.45907557803328,273.56564840316776,-5.093369327369146e-05,-0.009729213081300259,0.9989838600158693,0.04400729387998581,-0.07142064059382823,-0.0019064502364632425,0.04655762626655928,0.006849292665719986,0.006836547516286372,0.003731277771294117,-0.19968804247677327,-0.045127805415540935,-9.805302931666377
6.9,0.5,301.0,25.168724060058594,-0.03180709481239319,-79.782735132087,40.45907541671157,273.60058769226083,-8.012147736735642e-05,-0.009720603935420513,0.9989830255508424,0.044028732925653465,-0.07272995034665253,-0.0006578605672046497,0.04438044136059308,-0.0016122456872835755,0.0011316953459754586,-0.004177199210971594,-0.21017895234748726,-0.05350724916905165,-9.80574147284031
7.0,0.5,301.0,25.168724060058594,-0.03180709481239319,-79.78273507293157,40.45907523712816,273.63393577575687,-0.00010618464148137718,-0.009737326763570307,0.9989822506904602,0.044043663889169686,-0.06328338520372948,0.004903076010976997,0.04437489070224857,0.008709171786904335,0.0037604845128953453,0.008246257901191711,-0.20050084199756385,-0.05181351179257036,-9.805309363603591
7.2,0.5,301.0,25.1724796295166,-0.04771064221858978,-79.78273491611138,40.4590752176086,273.64284857749936,-0.0001234414376085624,-0.009724978357553482,0.9989814162254332,0.04406450316309929,-0.07359029248316401,0.001966515076937316,0.044862579387836415,0.0018372591584920888,0.0011372030712664127,-0.006445745937526226,-0.2132736643217504,-0.0475286401854828,-9.805080737471581
7.3,0.5,302.0,25.17122840881348,-0.015903547406196594,-79.7827349222026,40.45907505196733,273.6781092548371,-0.00014858442591503265,-0.009728663600981236,0.9989811778068542,0.04406880587339401,-0.05858885530878999,0.004962664820611865,0.04698394425302288,0.005872569046914578,0.005537538789212704,0.0091534573584795,-0.2017230927944184,-0.054567522956058385,-9.805038637518884
7.5,0.5,303.0,25.16621971130371,-0.02385532110929489,-79.78273480131696,40.45907488711228,273.7169879341126,-0.00019807269563898444,-0.00974411517381668,0.9989803433418274,0.04408300668001175,-0.05618068278393911,0.00485559774571461,0.04861626709432917,0.0070679825730621815,0.0009882583981379867,0.0002872052136808634,-0.2139644763059914,-0.03928949763067067,-9.80377446949482
7.6,0.5,303.0,25.168724060058594,-0.039758868515491486,-79.78273473282934,40.45907487753821,273.7218514347077,-0.00018212084250990301,-0.009755684062838554,0.9989806413650512,0.044074803590774536,-0.06071317057086264,0.0040130796160845646,0.04878035443691644,0.0024420963600277896,-2.45946957875276e-05,0.005223706364631653,-0.20388115391135211,-0.05557526773307473,-9.80491876959801
7.8,0.5,303.0,25.17122840881348,-0.02385532110929489,-79.78273456873734,40.459074695198886,273.75922163963315,-0.00021281561930663884,-0.009759155102074145,0.9989792108535768,0.044106189161539085,-0.0633936568082679,0.00573325849828012,0.048031096189567184,0.007172905839979649,0.008678853511810303,0.0030337360221892595,-0.212380136679858,-0.03324038858525455,-9.803145309090617
7.9,0.5,302.0,25.16997528076172,-0.007951773703098297,-79.78273449596308,40.459074683354565,273.76403125762937,-0.0002434799534967169,-0.009776011109352112,0.9989789128303528,0.044109471142292016,-0.06803637975919033,0.005134535920056835,0.04828982820766233,-0.0031128386035561557,-0.002962953643873334,0.006790644489228725,-0.20932388842105867,-0.05443020018283278,-9.805635638237
8.1,0.5,303.0,25.17873954772949,-0.09542128443717957,-79.782734421477,40.45907453032064,273.8013161087036,-0.0002928260946646333,-0.009772459976375105,0.998977541923523,0.04414112120866776,-0.05965070269606555,0.002670100981720096,0.04706057331809448,0.009123080410063268,0.004494721535593271,0.002697840332984925,-0.20991798380389806,-0.028690880220383408,-9.802730741500856
8.21,0.5,303.0,25.17623519897461,-0.10337305814027786,-79.78273435136751,40.459074522183755,273.8060422801972,-0.00030776747735217214,-0.009777911938726902,0.9989772439002992,0.04414518922567368,-0.06492334518217409,0.002012392677713168,0.047443718867082665,-0.0041840290650725365,-0.008320868946611881,0.001563990954309702,-0.2122116820514202,-0.05051749928388745,-9.805933846235275
8.4,0.5,303.0,25.17748832702637,-0.07951773703098297,-79.782734258723,40.45907434255267,273.84453329086307,-0.0003493433468975127,-0.0097825787961483,0.9989755153656006,0.04418332874774933,-0.05941840536847585,0.003176300486784168,0.046623596429132136,0.004803613759577274,0.0059757051058113575,0.008569297380745411,-0.20804672861471774,-0.02799573764204979,-9.803029534220695
8.5,0.5,303.0,25.187503814697266,-0.11927660554647446,-79.78273418581664,40.45907433454849,273.8492098712921,-0.00033860662369988864,-0.009766927920281887,0.9989750385284424,0.04419660940766335,-0.06526953181730766,0.002062907082619444,0.04707763316074957,-0.009343145415186882,-0.0033009345643222328,-0.003378438297659159,-0.2143679341860116,-0.04047491096891463,-9.804773758649826
8.7,0.5,303.0,25.184999465942386,-0.11132483184337616,-79.78273419150591,40.45907414538864,273.88771900177,-0.0003743849229067564,-0.009775523096323013,0.9989747405052184,0.04420175403356552,-0.05192386330802569,0.004075056724886129,0.0457509245820973,-0.0017775006126612425,0.001906654564663768,0.007421213202178478,-0.2045133475586772,-0.03713177912402898,-9.8037007945776
8.8,0.5,303.0,25.17999267578125,-0.10337305814027786,-79.78273412808633,40.45907398099428,273.92390903472904,-0.00038185188896022737,-0.009770739823579788,0.9989740252494812,0.04421887546777725,-0.05002426987065196,0.005042840630824321,0.047381097228535805,-0.006283871829509735,-0.0022873836569488053,-0.009778567589819431,-0.2119007563591004,-0.033047889566514645,-9.802843592762947
9.0,0.5,303.0,25.184999465942386,-0.09542128443717957,-79.78273404233134,40.45907381318324,273.96550497055057,-0.0004005888185929507,-0.009785312227904795,0.9989727139472958,0.0442449077963829,-0.0453362414537796,0.0038069465150980405,0.0487692809661533,-0.0054027223959565145,-0.0069251577369868755,0.00349996006116271,-0.2004815279133618,-0.043590503898449234,-9.80562335908413
9.1,0.5,303.0,25.17122840881348,-0.10337305814027786,-79.78273398697064,40.45907380607253,273.97038802146915,-0.00040235143387690187,-0.009774588979780674,0.9989718198776244,0.04426731914281845,-0.05026481101740938,0.0019310183510157489,0.04911584063455243,0.0003667716518975793,-0.0017295718425884845,-0.0070449342019855985,-0.2093971796147525,-0.028264357815496625,-9.80382007777691
9.3,0.5,304.0,25.18124389648437,-0.09542128443717957,-79.7827339237928,40.45907363510154,274.01284226417545,-0.00044226108002476394,-0.00979436282068491,0.998970866203308,0.04428514838218689,-0.04467388577751973,0.0016250001770364733,0.05008400413172294,-0.004702537786215544,-0.0038582314737141132,0.0016517295734956858,-0.1994162200391293,-0.048790227212011816,-9.805719253420829
9.4,0.5,304.0,25.168724060058594,-0.08746951073408127,-79.78273387224651,40.459073629677356,274.0178609752656,-0.0004501700459513813,-0.009808043949306013,0.9989700317382812,0.04430097341537476,-0.04847410445823196,-0.00022715354078138312,0.050390390043462865,0.002136862138286233,0.00045934194349683816,-0.005369264166802168,-0.20730098934844132,-0.02891521458746865,-9.803134199380873
9.6,0.5,304.0,25.17873954772949,-0.09542128443717957,-79.78273376899084,40.4590733962316,274.06283315658567,-0.00047219370026141405,-0.009842786937952042,0.9989696145057678,0.04430264607071877,-0.04928207757500031,0.007758641597402405,0.05443026053680345,-0.006609516683965921,-0.006186572834849358,-0.007641019765287638,-0.2018835623189807,-0.054627137146890166,-9.806116864085196
9.7,0.5,302.0,25.18124389648437,-0.10337305814027786,-79.7827337137285,40.45907338459258,274.06826814651487,-0.0004927617264911532,-0.009837955236434937,0.9989691376686096,0.04431314393877983,-0.05221688319616992,0.005865314965325417,0.054579432460867584,0.007410730235278606,0.004414803348481655,0.0016437357990071175,-0.2059952147305012,-0.035357462090905754,-9.8031236743927
9.9,0.5,305.0,25.18124389648437,-0.09542128443717957,-79.78273358558512,40.459073200147756,274.1094530487061,-0.0005010802997276187,-0.009848359040915966,0.9989688992500304,0.044315945357084274,-0.05532557401890635,0.006040950974086036,0.054597831132052674,-0.0059117223136127,-0.002778921276330948,-0.011265353299677372,-0.20446457812562585,-0.05594755721278489,-9.805884729623797
10.0,0.5,304.0,25.1724796295166,-0.09542128443717957,-79.7827336644197,40.459073068994655,274.1409278774262,-0.0005601182929240167,-0.009825965389609335,0.99896901845932,0.04431810975074768,-0.031822800662413164,0.0009697080549277409,0.04837499337028768,0.006448463536798954,0.006064896006137133,0.004125264007598162,-0.20068457247689367,-0.04384638810530305,-9.805389470458033
10.2,0.5,304.0,25.17623519897461,-0.11927660554647446,-79.78273358164422,40.459073061136095,274.1506715679169,-0.0005868941079825162,-0.009821618907153606,0.9989689588546752,0.04432132467627525,-0.0408633183494756,-0.0012213439910513408,0.04908935744059529,-0.00548939872533083,-0.001165208755992353,-0.0076768589206039906,-0.2085776557959617,-0.053974747764877984,-9.80683139383793
10.3,0.5,302.0,25.174983978271484,-0.09542128443717957,-79.78273353314495,40.459072879945566,274.18418010711673,-0.0005805359105579555,-0.009851507842540741,0.998968541622162,0.04432428628206253,-0.037360368607493366,0.001678684027871958,0.047241751273695655,0.006418566219508648,0.003513561328873039,0.007187571842223406,-0.19878676727414127,-0.048904873752035206,-9.80583502829075
10.5,0.5,300.0,25.183748245239247,-0.10337305814027786,-79.78273347720237,40.45907271239594,274.22003301620487,-0.0006242234958335758,-0.009844115935266018,0.9989678263664246,0.044340088963508606,-0.03502390504082144,0.0010894538171906463,0.04296914495311113,-0.0008827176061458887,0.003536411328241229,-0.0029429509304463863,-0.2110729185305536,-0.049752820520661774,-9.806028571128843
10.6,0.6000000238418579,300.0,25.184999465942386,-0.10337305814027786,-79.78273343427149,40.45907270802343,274.22434362411497,-0.0005995379760861398,-0.009852873161435127,0.9989672899246216,0.044350463896989815,-0.037923268881916106,0.00015706425977247325,0.04318157848264642,0.002728120889514685,0.0017232889076694846,0.004180513322353363,-0.20083524791523816,-0.053670966639183464,-9.805630375742913
10.8,0.6000000238418579,300.0,25.183748245239247,-0.10337305814027786,-79.7827333119298,40.45907254357631,274.25843605041507,-0.0006033893441781403,-0.009867487475275992,0.9989660382270812,0.044375497847795486,-0.044177092580406106,0.0005665637574687175,0.040245481774096016,0.001897753914818168,0.004164760932326317,-0.00286066229455173,-0.21404977256432176,-0.04221671428531409,-9.803646415472027
10.9,0.6000000238418579,302.0,25.183748245239247,-0.11132483184337616,-79.782733260569,40.45907253830981,274.262482252121,-0.0006011747755110264,-0.009882474318146706,0.9989666938781738,0.044356513768434525,-0.04751766978318625,8.07394598910105e-05,0.04056353845560294,-0.0020698627922683954,0.00026413978775963187,0.007905419915914536,-0.2053533000871539,-0.05644055515062064,-9.8057736325264
11.1,0.6000000238418579,302.0,25.18625259399414,-0.10337305814027786,-79.782733167798,40.45907239086995,274.29241212844846,-0.0005958087858743966,-0.009890940971672537,0.9989649653434752,0.04439488798379898,-0.04760561043495559,-0.0017246613730110528,0.034038367559921755,0.005846683401614429,0.0014930834295228126,0.004940790589898825,-0.21261656519025565,-0.033089539557695384,-9.802727233171463
11.2,0.6000000238418579,302.0,25.188756942749023,-0.10337305814027786,-79.78273311204376,40.459072387606646,274.295849647522,-0.0005901741096749903,-0.009889698587357998,0.998964548110962,0.04440476000308991,-0.051743720312051066,-0.0019855393297689523,0.034500370501453506,-0.005430747754871845,-0.0012466016924008727,0.00517797050997615,-0.2083793986402452,-0.054301383281126624,-9.80703780055046
11.4,0.6000000238418579,301.0,25.187503814697266,-0.09542128443717957,-79.78273307119012,40.45907220085414,274.3259232902526,-0.0006280138622969389,-0.00990378949791193,0.9989637732505798,0.044418159872293465,-0.045716703764804696,0.0030611951424970385,0.03068119098663965,0.007470052689313888,0.0015601319028064606,0.0070356703363358974,-0.21036164129152896,-0.02795585551997647,-9.803803120851518
11.5,0.6000000238418579,301.0,25.184999465942386,-0.09542128443717957,-79.78273308096644,40.45907206352351,274.35162052154544,-0.0006518480367958546,-0.009903877042233944,0.998964548110962,0.04439974203705789,-0.03834957076546197,0.002741984451940072,0.026028327340558342,-0.006362419109791517,-0.002300708554685116,0.0018972709076479077,-0.2115273385494948,-0.048595962608233095,-9.806270061135294
11.7,0.6000000238418579,302.0,25.17623519897461,-0.12722837924957275,-79.78273298492917,40.45907205316548,274.3568817043305,-0.0006771313492208719,-0.009905320592224598,0.9989631772041321,0.0444294847548008,-0.044821357652448775,0.00026280885251122503,0.026438115088095474,0.0037986105307936673,0.0032182603608816853,0.003597676986828447,-0.2083874751068652,-0.03035439480096102,-9.803669219613077
11.8,0.6000000238418579,302.0,25.18124389648437,-0.07951773703098297,-79.78273297356749,40.45907191950769,274.38208350181577,-0.0007056493195705116,-0.009902582503855228,0.9989632964134216,0.044428374618291855,-0.04153469063228909,0.0001434453381684792,0.024009252820206668,-0.006123964674770832,-0.006174898240715265,-0.004831079393625259,-0.21406517632305624,-0.04182232872582972,-9.80394696235657
12.0,0.6000000238418579,302.0,25.184999465942386,-0.08746951073408127,-79.78273294632707,40.459071785915114,274.40809091567996,-0.0007313955575227737,-0.00988412369042635,0.9989631772041321,0.044434905052185066,-0.03414453364292547,-0.0010002657901203927,0.0199311631098876,0.001544646336697042,0.0002779026108328253,0.0066476943902671354,-0.2038938716053963,-0.035992896831594415,-9.803385629653931
12.11,0.6000000238418579,304.0,25.17623519897461,-0.11927660554647446,-79.78273290344113,40.4590717842887,274.41010698318485,-0.00073532375972718,-0.00987301766872406,0.9989632368087769,0.0444350466132164,-0.03906956362541252,-0.002377039207024882,0.02027042967812116,-0.0068897875025868425,-0.005436219740658999,-0.006766957230865954,-0.21380283733829852,-0.032808041805401436,-9.80232552945614
12.3,0.5,303.0,25.184999465942386,-0.09542128443717957,-79.78273289477231,40.45907164316553,274.43356522560117,-0.0007790568633936348,-0.009888564236462116,0.9989627599716188,0.04444090649485588,-0.031146134156438125,-0.0020283409511667144,0.014658966020954432,-0.0020915132481604815,-0.0011488453019410374,0.004562282469123602,-0.20235550571233035,-0.04316765427589417,-9.803651093244556
12.4,0.5,303.0,25.17623519897461,-0.08746951073408127,-79.78273285709498,40.45907164267009,274.4350510501862,-0.0007953972090035678,-0.009876728057861328,0.99896240234375,0.04445253685116768,-0.035154652501270985,-0.003478486010311105,0.014971552208265085,-0.002710956381633877,-0.002095535863190889,-0.009151499718427658,-0.2097295938245952,-0.027354599582031368,-9.803067541122436
12.6,0.6000000238418579,302.0,25.18124389648437,-0.10337305814027786,-79.78273287035964,40.45907151194547,274.45665391922,-0.0008120360434986651,-0.009910528548061848,0.9989611506462096,0.04447362944483757,-0.0277895393142501,-0.0026913286050024693,0.0103963311586854,-0.00937002059072256,-0.0035048811696469784,-0.001339658279903233,-0.20107251696288586,-0.05050321471877396,-9.805837367177013
12.7,0.5,302.0,25.1724796295166,-0.11927660554647446,-79.78273283767727,40.459071512448695,274.4577093982697,-0.0008313189027830957,-0.0098973223939538,0.9989613890647888,0.04447076097130776,-0.030773056589897693,-0.004356444206666823,0.010644654420992864,0.0015771941980347035,0.001753315795212984,-0.004208794794976711,-0.20698407026007773,-0.03080404568463564,-9.803817738890649
12.9,0.5,303.0,25.17623519897461,-0.16698725521564484,-79.78273285349421,40.45907139860545,274.4774926567078,-0.0008253146079368887,-0.009916221722960472,0.9989609122276306,0.04447640478610992,-0.02630882609090617,-0.005864478166182933,0.009067839861691062,0.00267238263040781,0.003176755970343948,0.005633410532027483,-0.2013902034983039,-0.05448383011389524,-9.805597631335257
13.0,0.5,303.0,25.17623519897461,-0.12722837924957275,-79.78273284071022,40.45907129241303,274.49714573860166,-0.0008220854797400534,-0.009922476485371591,0.9989607930183412,0.04447847232222557,-0.025570609287318656,-0.00897418140406352,0.006874964571345354,0.0077610318548977375,0.005253099370747805,0.0009216741309501233,-0.20343099139630802,-0.03738428976153955,-9.804484321475028
13.2,0.5,303.0,25.17873954772949,-0.11927660554647446,-79.78273277197809,40.459071304542654,274.498629655838,-0.0008186482591554523,-0.009911631233990192,0.9989591240882874,0.044517915695905685,-0.033400209046641365,-0.01059604628414548,0.007471344183342156,-0.00396716920658946,-0.0017791865393519402,-0.009991522878408432,-0.2053123147599399,-0.05550130045507103,-9.805776556134225
13.3,0.5,303.0,25.17122840881348,-0.11132483184337616,-79.78273280678549,40.459071180154055,274.51661643028257,-0.0008314488222822548,-0.009932825341820715,0.9989582300186156,0.044533077627420425,-0.026487831013161028,-0.008244936812158432,0.006310369187845267,0.007654051296412946,0.005010070744901896,0.00043232072493992746,-0.2006255521439016,-0.04401699889451265,-9.804613544940947
13.5,0.5,302.0,25.18625259399414,-0.09542128443717957,-79.78273280156563,40.45907104795037,274.53439840316776,-0.0008575164829380808,-0.009939344599843023,0.998956263065338,0.04457608982920647,-0.02855942000062885,-0.003636982637011408,0.006069080850085657,-0.0002646961947903037,-0.0010825403733178973,-0.008050979115068913,-0.21008578062057487,-0.05392295422498137,-9.805713990926742
13.6,0.5,301.0,25.183748245239247,-0.11132483184337616,-79.78273276616513,40.45907104903786,274.5350266361237,-0.0008436547941528263,-0.009943611919879913,0.998955488204956,0.04459274932742119,-0.0307710672738533,-0.00467890575563921,0.006214135531303614,0.007055760826915503,0.0035041021183133125,0.0075328443199396125,-0.20058644888922567,-0.05201591681689025,-9.806133236289023
13.81,0.6000000238418579,301.0,25.17748832702637,-0.12722837924957275,-79.78273280109059,40.45907095429472,274.55101737022403,-0.0008835882181301713,-0.009948774240911009,0.9989535808563232,0.04463269934058189,-0.02597213426580113,-0.007139259882267303,0.005648173535974816,0.0019756259862333536,0.0020401685032993555,-0.004407314583659172,-0.21330673763528468,-0.048559536281973126,-9.80469072818756
13.9,0.6000000238418579,302.0,25.17873954772949,-0.11132483184337616,-79.78273277006666,40.45907095824747,274.55160721778867,-0.0008903089328669012,-0.009944471530616285,0.9989528656005859,0.04464961588382721,-0.02826463008131736,-0.007625502768406859,0.005773339030815722,0.0035295076668262477,0.007824991829693317,0.007760363165289165,-0.20114388953894372,-0.054488137867301716,-9.80589525461197
14.1,0.6000000238418579,302.0,25.1824951171875,-0.10337305814027786,-79.78273282326299,40.459070830052646,274.568465795517,-0.0009360588737763463,-0.009948715567588806,0.9989515542984008,0.04467720538377762,-0.023685785018592732,-0.0034683178223017643,0.008304050218856098,0.0029639562126249075,0.002556133083999157,0.0009048474021255972,-0.21361088421195745,-0.04065883331000805,-9.804012451171877
14.2,0.6000000238418579,302.0,25.183748245239247,-0.11132483184337616,-79.78273279474357,40.459070830647924,274.5693260097504,-0.000939294754061848,-0.00994424056261778,0.9989521503448486,0.04466482624411583,-0.02667466084242353,-0.003652300774403833,0.008648258619407398,-0.0020047007128596306,-0.0035796670708805327,0.006169700529426336,-0.2045574757643044,-0.05615418776404113,-9.80660744547844
14.4,0.6000000238418579,302.0,25.131162643432607,0.37373337149620056,-79.78273286838356,40.45907072299469,274.58571275711057,-0.0009996313601732254,-0.009944644756615162,0.9989504814147948,0.044700682163238525,-0.020263751408515208,-0.003608439267403643,0.010459790791074614,0.011077952571213244,0.011665074154734613,0.014318834058940409,-0.21124491803348067,-0.03238242617575452,-9.803771545886995
14.5,0.6000000238418579,301.0,25.03976249694824,0.22264966368675232,-79.78273294621462,40.459070636118156,274.5974889659882,-0.0010383134940639136,-0.009939501993358135,0.9989523887634276,0.0446581207215786,-0.01675456186239155,-0.006015736844500332,0.007153141151497514,0.003273454029113055,-0.007750263437628745,-0.017804941162467003,-0.20890471614897246,-0.06760683213360608,-9.804657983779908
14.7,0.6000000238418579,302.0,25.11613655090332,0.1908425688743592,-79.78273292461284,40.459070640633456,274.59823879241947,-0.0010236153611913323,-0.0099259614944458,0.9989493489265442,0.04473002254962921,-0.01976322826663269,-0.00716840494415102,0.00767888861238356,-0.006343041080981493,-0.0038375223521143202,0.0044363196939229965,-0.21195075005292893,-0.01727525603491813,-9.796923286914828
14.8,0.6000000238418579,303.0,25.12114524841309,0.18289080262184146,-79.78273297527373,40.45907055032053,274.61047038078306,-0.0010436560260131957,-0.009945722296833992,0.9989489912986756,0.04473276808857918,-0.01996263277746567,-0.008884561954353266,0.006349985040156948,-0.011914117261767387,-0.004379282705485821,-0.0034205482807010412,-0.2130244998447597,-0.038421784532256434,-9.804746861457826
15.01,0.6000000238418579,303.0,25.12865829467773,0.198794350028038,-79.78273300124927,40.459070443894355,274.6213897132874,-0.0010458061005920172,-0.009944951161742209,0.9989497661590576,0.044714171439409256,-0.02451509713592641,-0.0044386170424429855,0.005236229285044777,0.004268602002412082,0.002622429979965091,0.002265627263113857,-0.20790241202339527,-0.028737680786289275,-9.8066097843647
15.1,0.6000000238418579,303.0,25.11989402770996,0.21469789743423465,-79.78273296953105,40.459070446264185,274.62195738792417,-0.0010361720342189074,-0.00992961134761572,0.9989503622055054,0.04470531269907952,-0.02848461105341938,-0.005074607423748228,0.005705986319261986,-0.007901825942099094,-0.004586827009916306,-0.0034431833773851395,-0.21128420401364567,-0.035653753755614165,-9.80414342880249
15.3,0.6000000238418579,303.0,25.11363220214844,0.278312087059021,-79.78273303786688,40.45907032954869,274.63201555252084,-0.0010901328641921284,-0.009934931993484495,0.9989481568336488,0.04475132375955582,-0.024072071456772925,-0.0009040618124341912,0.004997927830519292,-0.0014776039170101285,0.002550564240664244,0.0069855190813541395,-0.1987902938760817,-0.034815694720018664,-9.804384918808935
15.4,0.6000000238418579,304.0,25.10236549377441,0.3180709481239319,-79.78273300795045,40.459070328943746,274.63253315925596,-0.0011029018787667155,-0.00990572478622198,0.9989497661590576,0.04472161456942558,-0.027698081598261558,-0.002296643253958889,0.0052106471324456964,-0.0034728008322417736,-0.003462999360635877,-0.008870560675859451,-0.2064009018614888,-0.025629995302297176,-9.806791048049927
15.6,0.6000000238418579,304.0,23.51226043701172,6.846477508544923,-79.78273311345767,40.45907023593893,274.6411593818665,-0.0011819927021861074,-0.009906287305057049,0.9989450573921204,0.04482462257146835,-0.02163825730869597,-0.0035914112778853437,0.0041873820016814865,-0.005612898617982864,0.0038764958735555406,0.00919516384601593,-0.1953048417158425,-0.044786131591536105,-9.799016590118411
15.7,0.6000000238418579,306.0,24.75053787231445,0.8031291365623474,-79.78273308729378,40.459070236688795,274.64160927772525,-0.0012239197967574,-0.009931347332894802,0.9989446401596068,0.044827740639448166,-0.0249774407819326,-0.0005823941949989052,0.0050744994185022395,0.0029279482550919056,-0.00834408588707447,-0.025290431454777718,-0.22209031535312526,-0.00521731635206379,-9.775211405754089
15.9,0.6000000238418579,306.0,25.07231521606445,0.13518016040325165,-79.78273317773173,40.459070177892244,274.64852317810056,-0.0011888622539117932,-0.009943215176463129,0.9989449381828308,0.04481850564479828,-0.025439894385563825,-0.00924717099561452,0.004368384732624239,-0.0070600975304842,0.01307254284620285,-0.00499524874612689,-0.1885894607193768,-0.022970265923067928,-9.817464555501939
16.0,0.6000000238418579,306.0,24.21591186523437,3.673719644546509,-79.78273329927512,40.45907011397061,274.653171863556,-0.0012706293491646647,-0.009945543482899666,0.9989399313926696,0.044928357005119324,-0.0204688093444087,-0.00773179998187769,0.000937812350536344,0.019187266007065773,-0.02664301171898842,0.012962883338332176,-0.21258528258651496,0.018775190189480786,-9.797199860215187
16.2,0.6000000238418579,307.0,25.038509368896484,0.15903547406196594,-79.78273324173595,40.4590701295675,274.653493013382,-0.0012823378201574087,-0.009913022629916668,0.9989395737648008,0.04494360089302063,-0.02379079224097558,-0.011376298798418595,0.002009460824078083,0.012937738560140131,-0.00514631811529398,-0.013412905856966972,-0.17631893249228595,-0.07464654173702003,-9.833117551803591
16.3,0.6000000238418579,306.0,25.09360122680664,0.14313192665576935,-79.78273341108435,40.459070063363534,274.6583574676514,-0.0012839928967878222,-0.00988832861185074,0.9989429712295532,0.044873379170894616,-0.013077062713752004,-0.009205341701384056,0.0016911430338031172,0.006010762881487608,-0.005627902690321207,0.004133948590606451,-0.1969465936906636,-0.07802506294101477,-9.803775054216388
16.5,0.6000000238418579,306.0,24.753042221069336,3.5226359367370605,-79.78273353177042,40.45906999087293,274.66202339172366,-0.0012878773268312216,-0.009907395578920841,0.9989417195320128,0.04489624127745629,-0.019836486551193886,-0.007204058126160427,0.0016877561830743405,-0.011830801144242287,-0.01568542793393135,-0.004116126336157322,-0.22236420258879666,-0.047878226023167374,-9.78839570760727
16.6,0.6000000238418579,306.0,24.488859176635746,4.723353862762451,-79.78273350767817,40.459069997660905,274.6622434520722,-0.0012865281896665692,-0.009907382540404795,0.9989390969276428,0.04495472088456154,-0.019894886708608527,-0.00966927192141758,0.0017465502297470713,0.004240037873387337,-0.0060940589755773536,-0.0012487440835684538,-0.21065752867609264,-0.06661630923394114,-9.814752616882323
16.8,0.699999988079071,306.0,24.18210792541504,6.822621822357178,-79.78273364122974,40.459069948795644,274.66485842704776,-0.0013318974524736404,-0.009853640571236609,0.9989397525787354,0.04495091736316681,-0.01816719634837726,-0.010674053263726864,0.0021714302483660697,-0.005272449925541878,-0.05925576016306878,-0.003028490580618381,-0.2084354405477643,-0.023625798183493318,-9.796061992049218
16.9,0.699999988079071,308.0,24.036869049072266,7.633702754974365,-79.78273361802013,40.45906995785845,274.6651774311066,-0.0014972401550039653,-0.00985301285982132,0.9989364743232728,0.04501814022660256,-0.025833737414260517,-0.010823329817194062,0.003567497287401144,-0.013014541007578371,0.0224741455167532,0.0143821956589818,-0.2013781436160207,0.03615897146053612,-9.822720032930377
17.1,0.699999988079071,306.0,23.69380760192871,10.39296817779541,-79.78273377507362,40.459069928133815,274.66727622985843,-0.0028016604483127594,-0.009861349128186704,0.9989287853240968,0.04512471333146095,-0.01427380943922195,-0.015039706528213424,0.005930896322959017,0.021438486874103543,-0.07699386775493622,0.05724906921386719,-0.11741672239266335,-0.06001372925005854,-9.852242624759674
17.2,0.699999988079071,307.0,23.51977348327637,11.641397476196287,-79.78273375773317,40.45906993964375,274.668150510788,-0.003826375585049391,-0.009723004885017872,0.9989255666732788,0.04515156894922257,-0.017741973196107444,-0.013470104141177715,0.006322403994487799,-0.002606892492622137,0.017633937299251556,-0.07685922831296921,-0.20628680806607008,0.00653297527693212,-9.8038235861063
17.4,0.8000000119209291,307.0,23.17671012878418,14.694878578186035,-79.78273392781522,40.459069913725344,274.6676064395905,-0.0058858515694737434,-0.008885368704795837,0.9989133477211,0.0453709289431572,-0.011347523862681036,-0.02047979099997635,0.011334953531952666,0.04827965423464775,0.050860367715358734,0.03681809827685356,-0.2420952298119665,7.564378436654807e-05,-9.789390318989756
17.5,0.8000000119209291,309.0,22.98389434814453,16.23752212524414,-79.78273409939546,40.459069883251374,274.6631182098389,-0.0060274852439761144,-0.008295891806483269,0.998930811882019,0.045078925788402564,-0.01319413352137422,-0.02399366988228468,0.005776419797025013,0.032096680253744125,0.0202937051653862,-0.05502387881278992,-0.3602829167246819,-0.13307383001782,-9.775861616134645
17.7,0.8000000119209291,309.0,22.65585708618164,19.12401580810547,-79.7827340681073,40.45906990851224,274.6652625465393,-0.0058274520561099035,-0.007808340713381767,0.9989970922470092,0.043703556060791016,-0.03288259242190344,-0.00423488095830189,0.01860024536119272,-0.05018684267997742,-0.0018909890204668047,0.03033027052879333,-0.10338547876104713,-0.07581787607632577,-9.854705471992494
17.81,0.8000000119209291,310.0,22.449268341064453,20.49967384338379,-79.78273430252246,40.45906988841616,274.65707549095157,0.0006733063491992652,-0.00835628155618906,0.9990603923797609,0.042520973831415176,-0.03328719964262819,0.024189533896671108,0.026126549861953112,-0.2139226198196411,-0.057245146483182914,0.005706724710762501,-0.01583402701187879,-0.2802373118698597,-9.925928066968918
18.0,0.8999999761581421,311.0,22.150028228759766,23.847370147705078,-79.78273455869117,40.45906984306458,274.65401395797727,0.020812330767512318,-0.0076346639543771735,0.9989644885063172,0.0397324375808239,-0.0851001142388331,0.05806270655681142,0.16357810810806253,-0.2208229154348373,-0.04910014569759369,-0.0004078628844581544,0.15403104577213528,-0.13033103819936515,-10.187148917913438
18.1,0.8999999761581421,308.0,21.977245330810547,18.05052757263184,-79.78273444466133,40.45906976932385,274.6775511169434,0.02661566622555256,-0.006778409238904715,0.9989119172096252,0.03769299387931824,-0.10001398776408534,0.07941141362875534,0.31247263429309435,0.07111514359712601,0.08905456215143204,-0.01705302856862545,-0.008804554603993892,0.07768144765868783,-11.090444333553314
18.3,0.8999999761581421,302.0,22.71846008300781,17.597274780273438,-79.78273426401309,40.45906942778821,274.72639879226693,0.002045979024842381,-0.00020642211893573403,0.9993898868560792,0.03486637398600578,-0.14513795948344102,0.10952939575194397,0.3212472729897536,0.2671275734901428,0.08894042670726776,0.02856962941586972,-0.02960891591850668,0.28261917516589163,-10.581494497060776
18.4,0.8999999761581421,303.0,22.409204483032227,20.22136116027832,-79.78273408413507,40.459069310570825,274.7560561561585,-0.007038179319351912,0.005240245722234249,0.9993488192558287,0.03500029444694519,-0.16393023653465408,0.12290714506092786,0.2857934611125749,0.11457405239343645,0.09149631857872008,0.016106188297271732,0.11159275855869057,-0.090952343121171,-9.607222069501876
18.6,0.8999999761581421,303.0,22.52689552307129,18.638957977294922,-79.78273403675452,40.459068973646545,274.773032989502,-0.009493564255535604,0.013000152073800564,0.9992100596427916,0.03633463010191917,-0.11416308203576025,0.11584053920307767,0.18411347925540889,0.03999006748199463,0.07722246646881104,0.007239657919853927,0.17175317069515586,-0.028942609706427907,-9.659139497280119
18.7,1.0,311.0,22.37038993835449,20.579191207885746,-79.78273391234963,40.4590688662252,274.7894829177857,-0.007997236214578152,0.014798605814576147,0.999156653881073,0.03745677322149277,-0.11275990685958726,0.1145300297190064,0.13675512609574486,-0.06963438540697098,0.02765851467847824,-0.009640690870583056,0.1953162255138159,-0.08130730608478189,-9.402295287251473
18.9,1.0,312.0,22.325315475463867,21.207380294799805,-79.78273372075296,40.459068696093176,274.8072551155091,-0.0009683527168817818,0.008685432374477386,0.9991785287857056,0.03957192972302437,-0.12280662939780967,0.11584874809310075,0.11103806034812752,-0.028930820524692525,-0.10939901322126387,-0.00047570196329616016,0.3134935336187482,-0.1044893417134881,-9.518231540322304
19.0,1.0,312.0,22.31780433654785,21.15966987609864,-79.78273386110128,40.45906858092304,274.81619581222543,-0.0016165805282071233,0.004573932848870754,0.9991794228553772,0.0402127280831337,-0.10810867373262142,0.10831210019615828,0.14395995188834687,0.025362921878695488,-0.033373702317476266,0.006764334626495838,0.1944086097367108,-0.004822085687192157,-9.884943763017654
19.2,1.0,311.0,22.309040069580078,20.65870857238769,-79.78273361389653,40.459068369720704,274.84617885589597,-0.0023153864312916994,0.005278767552226782,0.999168574810028,0.040359396487474435,-0.10969655944667353,0.11734936975665232,0.14189609155925606,0.03988929092884064,0.08657625317573547,-0.07068590074777603,0.1724234443344176,0.04686303518246858,-9.862865846157074
19.3,1.0,310.0,22.2526969909668,20.37244415283203,-79.78273374783879,40.45906809826931,274.8550871276856,-0.002570138545706868,0.009338974952697754,0.9991535544395448,0.039981450885534286,-0.11226424710226428,0.1611572221300217,0.14868702191474234,0.009918107651174068,0.09825903922319412,-0.045441467314958565,0.19842469671741128,0.04455327079631388,-9.705002133250238
19.5,1.0,307.0,22.11622428894043,22.185449600219727,-79.78273364678687,40.45906787577928,274.8699916267396,-0.007545055355876684,0.01629367470741272,0.9990522861480712,0.03964999318122864,-0.11634311361483167,0.15680717305847874,0.17564242542108374,0.06457729637622832,0.09611284732818604,0.0019854879938066006,0.2091283356025815,0.07534929940011352,-9.78153516948223
19.6,1.0,306.0,22.10245132446289,22.69436264038086,-79.7827335269722,40.4590677376451,274.8893445396424,-0.00902980100363493,0.020396513864398003,0.998966634273529,0.03960028290748596,-0.11114108051452527,0.14113874844982668,0.1997214729664485,0.01732761040329933,0.10408372431993483,0.06945259869098662,0.1903702119737864,-0.19398404706269504,-10.037068433761595
19.8,1.0,305.0,22.12123107910156,21.84352302551269,-79.7827335393486,40.459067664005815,274.9115355873108,-0.008403067477047443,0.023465532809495933,0.9988945722579956,0.03985557705163957,-0.09056272251325677,0.10181772802398806,0.2513508272432051,0.015776831656694412,-0.024045759811997414,-0.005049990490078926,0.3218972615897656,-0.10245305799879134,-10.06059762954712
19.9,1.0,307.0,23.12412452697754,13.446449279785154,-79.78273344731687,40.45906757629085,274.93506845474246,-0.009552218019962307,0.022232605144381527,0.9989117980003356,0.03987162187695503,-0.07178312557557485,0.07764236438920279,0.17434238551701373,0.025752788409590718,-0.001239860663190484,0.01667432673275471,0.19501407064497472,-0.0304858931992203,-9.148296332359314
20.1,1.0,306.0,21.83451271057129,24.58688545227051,-79.78273358174543,40.45906761790491,274.9311870002747,-0.0009944059420377016,0.011449635960161686,0.9991486072540284,0.03962436690926552,-0.06550884626833525,0.045637458423918434,0.07881863363130809,-0.12436165660619734,-0.06960338354110718,0.009868337772786616,0.2224363791570068,-0.13583409039303662,-8.934750754237177
20.2,1.0,305.0,21.85329246520996,25.24688148498535,-79.7827335128671,40.45906757506004,274.9422896766663,0.002346070948988199,0.0077160894870758065,0.9991866946220398,0.039510805159807205,-0.06292717547593289,0.044490894212966016,0.1478762136827046,-0.033770263195037835,-0.04306473955512047,0.00931497011333704,0.17095250414684415,-0.05188260486815125,-10.315285971164704
20.4,1.0,303.0,21.6091423034668,26.964466094970703,-79.78273355439536,40.45906731141756,274.99196466445926,-0.0002176611451432109,0.007777263410389423,0.99918794631958,0.039534617215394974,-0.06283783063093296,0.08558624738566185,0.4129364609349699,0.13613386452198029,0.10413630306720734,0.05531398579478264,0.16246532544493675,-0.09631014682352544,-10.73383668422699
20.5,1.0,296.0,21.515239715576172,28.9444580078125,-79.78273386309979,40.459067167555,274.978463973999,-0.002429594285786152,0.010949818417429924,0.999141812324524,0.03987292945384978,-0.057375463147362124,0.10256046567829276,0.5126458546125335,0.007362276781350373,0.046999841928482056,-0.04197821021080017,0.1938883719965816,-0.049720902945846315,-11.310787299871444
20.6,1.0,298.0,21.24604797363281,30.375776290893555,-79.78273380722472,40.45906707753353,275.03877910614017,-0.0031057854648679486,0.015483628958463669,0.9990694522857666,0.040134575217962265,-0.05915272238176595,0.10749421003451508,0.6967804399877794,0.07522376626729965,0.1777186244726181,0.039053775370121,0.19124649032950405,-0.05390463599469513,-11.573050124645233
20.8,1.100000023841858,297.0,21.1208438873291,31.369747161865234,-79.78273400487889,40.4590670186162,275.1863549613953,-0.0024914629757404327,0.01780414581298828,0.9990222454071044,0.040390416979789734,-0.053633115111725485,0.11284190644520027,1.1230312865716163,-0.08668334037065506,-0.054675422608852386,0.003893354209139943,0.2768020178563893,-0.12851725931279362,-12.035160255432134
20.91,1.2000000476837158,295.0,20.970598220825195,33.30202865600586,-79.78273396115813,40.459066954916814,275.31034168243406,-0.0014898865483701233,0.015559955500066282,0.999052882194519,0.04060780629515648,-0.04722828665292941,0.10799362719821652,1.3499844179121585,-0.052737828344106674,-0.10229562222957612,0.010743089020252228,0.3644346591085196,-0.09267808486707507,-12.131742224693301
21.1,1.2999999523162842,293.0,21.05198097229004,31.648059844970703,-79.78273423155562,40.45906701993721,275.41834959030155,-0.0010376680875197053,0.01275731436908245,0.9990889430046082,0.04071236774325372,-0.03892793848177529,0.0982883836253318,1.5622650038850987,-0.06421530246734619,-0.09238719940185547,0.020745502784848213,0.24682975687086586,-0.14700477562844755,-12.116459941864017
21.3,1.399999976158142,295.0,20.811586380004886,34.407325744628906,-79.78273461679812,40.45906708974717,275.90599330902097,0.0008052872144617139,0.00685134157538414,0.9991867542266846,0.039728645235300064,-0.02065136776482468,0.08289239226069409,2.1646467899689568,-0.030431397259235382,-0.08488897234201431,0.11315736919641495,0.229616284891963,-0.1489418211299926,-11.932291359901429
21.4,1.5,294.0,20.687633514404297,35.96587371826172,-79.78273459112054,40.45906704274825,276.13454421997073,0.0027110821101814517,0.003816445125266909,0.99921053647995,0.03945155814290047,-0.028273075528870407,0.08872290669485954,2.4072946772746926,-0.01458790712058544,-0.0010178377851843834,0.032019153237342834,0.22511096868664027,-0.08092258670367301,-12.183815188407898
21.6,1.600000023841858,293.0,21.205982208251953,29.23072052001953,-79.78273536666799,40.45906739009549,276.2171963119506,0.005365807097405195,0.0017773171421140435,0.9992168545722958,0.039164610207080834,-0.006186218337816745,0.06062103482684007,2.5191461202729397,-0.07885851711034775,-0.012508392333984377,-0.0522114560008049,0.1841945472545922,0.026970960565377032,-12.051496206521987
21.7,1.7000000476837158,286.0,21.115835189819336,30.463245391845703,-79.78273531549833,40.45906728518246,276.75440534591684,0.008061146363615991,0.0015065420884639025,0.9992188215255736,0.0386592410504818,-0.011541808509407113,0.08024079453158807,2.8276425264817253,-0.09849094599485396,-0.053533945232629776,-0.03613279014825821,0.14058246804401278,0.005084665641188622,-11.262007488012314
21.9,1.7999999523162842,285.0,21.47892951965332,26.07386589050293,-79.78273624792502,40.459067737070754,277.07895549774173,0.010054550133645536,0.003691877471283078,0.9991858005523682,0.03889931365847588,0.005108302278620714,0.0731649988134103,2.848389562242706,0.007792058866471051,-0.01941153593361377,-0.050872839987277985,0.1834698579646647,0.12238262560218573,-11.059676284790037
22.0,1.7000000476837158,283.0,21.577842712402344,25.692180633544922,-79.7827374846093,40.45906848900464,277.0105303192139,0.009506895206868649,0.00387725280597806,0.9991772174835204,0.03923671320080757,0.05590518532457324,0.0220520768259359,2.6515807197373658,0.12581804394721985,0.06228805705904961,0.11723390966653825,0.2022029299288988,-0.15673088796436788,-10.203600643873218
22.1,1.7000000476837158,279.0,21.537776947021484,26.7497673034668,-79.78273746201529,40.45906848192466,277.2766955757141,0.009463933296501637,0.0043794396333396435,0.9991716742515564,0.03933507949113847,0.01747581510110919,0.03318564807095045,2.6696967403344343,-0.01904975436627865,-0.03757304698228836,-0.06120631098747253,0.20825085125863554,0.04444211888127029,-10.08575585961342
22.3,1.5,281.0,21.61164665222168,24.348331451416016,-79.78273867867189,40.459069448779076,277.41811021804807,0.010937604121863842,0.009720689617097378,0.9991001486778259,0.039809390902519226,0.017879017202591642,-0.021553606892768,2.465030136805783,-0.12455838918685913,0.03925840184092522,-0.1168988272547722,0.15188066826201976,0.19146504828706384,-9.805818071365355
22.4,1.5,277.0,21.63919258117676,25.191219329833984,-79.78273868072948,40.45906950872593,277.660264339447,0.01219617947936058,0.014027060940861702,0.9990257024765016,0.04002872854471207,0.015502463933189603,-0.010908017863148434,2.4409965113612864,-0.03727758303284645,0.07494422048330307,0.03682572394609451,0.21658905386924746,-0.0007677439833059908,-9.671508697271348
22.6,1.2999999523162842,284.0,21.72808837890625,24.23700714111328,-79.78274025981251,40.45907065251053,277.51985200881956,0.01210693921893835,0.018285809084773064,0.9989488124847412,0.04025314003229141,0.07160802004713412,-0.08636195962061953,2.219407570004656,0.006633941549807787,0.0860152468085289,0.010449754074215887,0.2163199357688427,0.06296168067958206,-9.602684045433998
22.81,1.2000000476837158,289.0,21.65171241760254,24.42784881591797,-79.78274026736541,40.45907094996648,277.9586485290528,0.006776595953851938,0.02241863310337067,0.9988954663276672,0.040736645460128784,0.03992947099730877,-0.08831722713019546,2.1693341862717532,0.03797709941864014,-0.0008843844989314675,0.0169515423476696,0.2376172493398189,0.07058420236688108,-9.505244874358176
22.9,0.8999999761581421,304.0,21.637939453125,24.96857070922852,-79.78274013734433,40.4590706931305,278.35714563369754,0.0030838127713650465,0.020208278670907017,0.9989572763442992,0.040824104100465775,-0.008333251805650019,-0.07419237666557045,2.227345578438684,0.007058355025947094,-0.08446013182401657,-0.058582697063684464,0.1900663212127984,0.1582894267514348,-9.503276701569558
23.0,0.8000000119209291,314.0,21.55906105041504,25.000377655029297,-79.78274017586212,40.45907073526789,278.90220436096195,0.00036219635512679815,0.01888742856681347,0.9989776015281676,0.04107140377163887,-0.02991585211152635,-0.1251206758832166,2.2390760521031394,-0.034557987004518516,0.05738319829106332,0.01838234253227711,0.1619561608694494,0.03392240462126212,-9.701725353598595
23.2,0.6000000238418579,335.0,21.534019470214844,24.769775390625,-79.78274012615131,40.45907092818817,279.125177230835,0.0008906621369533242,0.022520465776324272,0.9988893270492554,0.0413782075047493,-0.025448212865190858,-0.14187193652338675,2.2332149944892947,-0.042062435299158096,0.11356516182422638,0.023092120885849,0.14161473914980888,0.07285945904441178,-9.714179922938348
23.4,0.6000000238418579,348.0,21.577842712402344,23.83146667480469,-79.78274007106326,40.45907102401183,279.68195613861093,0.0011789444833993912,0.02544267289340496,0.9988064765930176,0.04167621955275536,-0.016502029230282118,-0.14230127306345275,2.2757042807467824,0.019135674461722367,-0.013702648691833021,0.054475147277116776,0.25072802245616915,-0.0047808571066707386,-9.801556035876272
23.5,0.6000000238418579,8.0,21.60163116455078,24.97652244567871,-79.78273998943469,40.45907107323619,280.26600631713865,-0.0022462860215455294,0.02440284192562104,0.9988414645195008,0.04141509532928467,-0.015921636110165924,-0.1671734010689613,2.305226501920407,0.013453806750476359,-0.060403577983379364,-0.03578811511397362,0.21697979405522347,0.05221319182310254,-9.633943845033649
23.7,0.699999988079071,15.0,21.76439666748047,22.38424301147461,-79.7827399567945,40.45907133843557,280.4944752120972,-0.0035503464750945572,0.023552488535642624,0.9988689422607422,0.04115304723381996,-0.013573632915620895,-0.19635204909177184,2.287172431199497,-0.01738663949072361,-0.05800002068281174,0.01949591375887394,0.22092710316181186,0.006794875720515847,-9.634302864074707
23.81,0.8999999761581421,13.0,21.55280113220215,25.18326759338379,-79.78273988351711,40.45907154875653,281.0748899841309,-0.007079271133989096,0.02370198257267475,0.998871922492981,0.04053489863872528,-0.003407312960773216,-0.22416124865907244,2.2804400841154826,0.02885126695036888,0.019656090065836903,0.01460494287312031,0.22503672732040286,0.055479277465492485,-9.465891943573952
24.0,1.0,16.0,21.42634391784668,26.04205894470215,-79.78273977574713,40.4590716923526,281.68494209289554,-0.00677732564508915,0.022458044812083244,0.9989154934883118,0.040219325572252274,0.010279593768868434,-0.24079665712347395,2.3193639320877204,-0.04668569192290306,-0.020752187818288803,-0.06647155433893204,0.24927285147830844,0.08564534624107183,-9.5505976331234
24.1,1.2000000476837158,17.0,21.515239715576172,25.54109764099121,-79.78273981281168,40.45907201424922,281.915291633606,-0.005432554520666599,0.02197507955133915,0.9989473819732666,0.03989648073911667,0.033050370522369844,-0.2587035021366689,2.3162905187647724,-0.06821400672197342,0.009620376862585545,-0.045035120099782944,0.2736534749530256,0.13380096782930195,-9.75867372572422
24.3,1.2999999523162842,16.0,21.534019470214844,24.53122329711914,-79.7827398106726,40.45907230422181,282.1497839355468,-0.004222001414746046,0.02062524110078812,0.9989938139915466,0.039600420743227005,0.050271511975424336,-0.27091203345537496,2.3175070387161387,-0.015961866825819016,0.016199856996536255,-0.010026910342276095,0.24956375045701865,0.10415552051737906,-9.788927804231644
24.4,1.5,13.0,21.57032966613769,24.32447624206543,-79.7827397103768,40.45907202674788,282.581644859314,-0.00403594458475709,0.019626740366220474,0.9990145564079284,0.039603643119335175,0.058369421367798976,-0.2562819486629798,2.40437659520202,-0.030966617166996002,-0.040949925780296326,-0.07536876201629639,0.2848711206391454,0.1768886705674231,-9.777152096629145
24.6,1.600000023841858,8.0,21.455141067504886,25.27868843078613,-79.7827401670134,40.45907230496443,283.50204071044925,-0.0019969898276031017,0.019370295107364655,0.9989668726921082,0.04106295108795166,0.10484100437272947,-0.2522767272450738,2.4674414676580985,-0.0501629002392292,0.005323830991983414,-0.07302688807249069,0.26233719404786826,0.112726040314883,-9.73198177099228
24.7,1.8999999761581416,359.0,21.47642517089844,24.435800552368164,-79.78274029121872,40.459072632034704,283.7472008132935,-0.0010200355900451539,0.019255949184298515,0.9989540576934814,0.041462346911430366,0.12280409665718615,-0.26506435444606513,2.46096488009404,-0.05582712590694428,-0.01581101305782795,-0.01301388069987297,0.29068709023296835,0.094746619630605,-9.78252802670002
24.8,2.0,0.0,21.495206832885746,24.904956817626953,-79.78274047578252,40.459072124922585,284.2367027664185,-0.0012729251757264135,0.019433818757534027,0.9989475011825562,0.041528522968292236,0.13873707981404215,-0.2225112540451881,2.558536568574468,-0.0230278205126524,0.04327628016471863,-0.058352347463369376,0.2632037331350148,0.14555060964077712,-9.682898488640788
25.0,2.0,358.0,21.652965545654297,23.29869842529297,-79.78274070934594,40.45907182228601,285.0094030761718,-0.0017885615816339853,0.01740243285894394,0.9989820122718812,0.04158226400613785,0.13994185923516705,-0.1912643684330501,2.6597126491830685,-0.014078276231884956,-0.03927787020802498,-0.08167517930269241,0.2737913596071303,0.13982058498077096,-9.653464774489404
25.2,2.0,356.0,21.443872451782227,25.270736694335927,-79.78274086789767,40.459072096942464,285.273108329773,-0.0017756728921085594,0.01581866294145584,0.9990115761756896,0.041504181921482086,0.15085930216611665,-0.20679684431219408,2.633092103524712,-0.011882780119776726,-0.03213192895054817,-0.01391068659722805,0.2974898505583405,0.05526865436229855,-9.586801253557203
25.3,2.0,352.0,21.403806686401367,25.35820770263672,-79.78274118155775,40.459071730728056,286.0534294509888,-0.0004997957148589194,0.0135966083034873,0.9990746974945068,0.040799859911203384,0.15043505818199435,-0.1736553278567712,2.74071228824499,-0.004455657210201025,0.033222515136003494,-0.02657840959727764,0.25353316934779285,0.06684534193016589,-9.754242705702783
25.5,1.8999999761581416,351.0,21.39629364013672,27.043983459472656,-79.78274147210661,40.45907133157539,286.84079345703134,0.0012475966941565275,0.010789926163852215,0.999153971672058,0.039667218923568726,0.16399330457855346,-0.1339103324379573,2.864560795896201,0.02283015847206116,0.01766880601644516,-0.03670962527394295,0.28081063136458395,0.10161428404971956,-9.854727691411973
25.6,1.7000000476837158,346.0,21.43260383605957,23.75194931030273,-79.7827416415295,40.45907152535396,287.1275671386718,0.0003203339292667806,0.009886297397315502,0.99916672706604,0.03959861025214195,0.15712422940519072,-0.1370424936601519,2.877552260120373,-0.045067768543958664,-0.002960910787805915,-0.12971219420433044,0.18739368684589866,0.23768242752179505,-9.865875992774964
25.8,1.600000023841858,345.0,21.417579650878906,25.81941032409668,-79.78274181295093,40.45907171854931,287.41474327087406,0.00015045773761812598,0.009494999423623085,0.9991651177406312,0.03973731771111488,0.1625801419729714,-0.14596081277784445,2.8739097019776936,-0.01064432878047228,-0.01081280130892992,0.0007037071627564727,0.2514352797344327,0.028790833347011362,-9.843796906471253
25.9,1.399999976158142,339.0,21.391286849975586,25.262784957885746,-79.78274235128637,40.459071403820964,288.1612223052979,0.0024385799188166857,0.010012075304985043,0.99913489818573,0.04028923064470291,0.15311715131879675,-0.08711734247221954,2.9685536461242408,-0.11100102216005324,-0.05937886610627175,-0.09448707848787308,0.2357779893837869,0.20485550103709105,-9.820247830152512
26.1,1.2999999523162842,336.0,21.36624526977539,25.342304229736328,-79.78274271497068,40.459071330681404,288.81246551513675,0.0032333026174455877,0.007516430225223303,0.9991252422332764,0.04101120680570602,0.15034487076377118,-0.06114494835503233,3.0153497715094018,-0.03574507683515549,-0.0014726538211107256,0.017245518043637276,0.22839524008333684,0.04256155382841826,-9.849301475286484
26.2,1.0,333.0,21.45013236999512,24.268814086914066,-79.78274285654314,40.45907144284565,289.11387428283695,0.003808205481618643,0.007180968765169381,0.9991171360015868,0.041217703372240067,0.14591569760170908,-0.060314646788929276,3.0118784729227994,-0.09375403076410294,-0.08788510411977768,0.009925251826643944,0.193112738840282,-0.02089132494293153,-9.796781784296037
26.3,1.0,331.0,21.45263671875,24.658451080322266,-79.78274313284916,40.45907144772434,289.42904647827146,0.004848220851272346,0.006816719193011522,0.9991088509559632,0.041371580213308334,0.13945242076451025,-0.04750138540192357,3.0204198250331524,-0.025718089193105698,-0.002337572630494833,0.012380741536617279,0.18863479491323235,0.012381061159539969,-9.720092042684556
26.5,0.8000000119209291,322.0,21.41257095336914,25.25483322143555,-79.78274372434015,40.459071688567036,290.0315493011475,0.004709577187895775,0.004330063238739967,0.9991154670715332,0.04156267270445824,0.14516520585898576,-0.04450621297026697,3.0136422809855974,0.00024705298710614443,-0.08287496119737625,-0.011913054622709751,0.20209066338837148,0.026958889262750745,-9.739284358620646
26.61,0.699999988079071,320.0,21.39754676818848,24.88905143737793,-79.78274384995655,40.45907176565451,290.33309539794925,0.004015421960502863,0.003391738748177886,0.9991228580474854,0.04154490679502487,0.13962101026660995,-0.04449522476238582,3.0146033416481366,-0.010852118954062462,-0.010080887004733086,0.02780895493924617,0.18703994857147332,-0.017204513861797752,-9.810720376968382
26.8,0.5,318.0,21.286113739013672,26.60663604736328,-79.78274445357519,40.459071730976575,290.943630065918,0.0031692273914813995,0.00468102702870965,0.999137043952942,0.04114997014403343,0.1336320979536843,-0.003992078524843956,3.022372210170684,-0.004030273295938969,-0.0201865378767252,-0.0599130392074585,0.19215363102033736,0.058361004609614624,-9.75130798816681
27.0,0.5,320.0,21.204730987548828,26.670249938964844,-79.78274481160678,40.45907179874093,291.5487402343751,0.00650763651356101,0.004461446776986122,0.9991164207458496,0.04128185287117958,0.12202205747998965,0.026162273432375312,3.068163961665502,0.023055924102664,0.020206080749630928,0.016595890745520592,0.2672235111705959,-0.1382363915350288,-9.91938620209694
27.1,0.5,327.0,21.29362678527832,25.62856674194336,-79.78274491694671,40.459071805085,291.856809463501,0.0077214520424604425,0.003562847850844264,0.9991055727005004,0.04142364487051964,0.12403590195630045,0.03443034764897848,3.0893787609815178,-0.017048481851816174,-0.022228974848985672,-0.009676326997578144,0.22332997988909484,0.06084199648350477,-10.007143553495409
27.2,0.4000000059604645,331.0,21.32743263244629,25.024232864379893,-79.78274501829517,40.45907180448328,292.1669157409668,0.00719501357525587,0.002675192430615425,0.9991020560264589,0.04166791215538978,0.12134192472768066,0.04303846242502827,3.1086180487094914,0.03559023141860962,0.044692650437355035,-0.0034922335762530565,0.20339384330436588,0.09895088645629584,-10.000681210756305
27.4,0.4000000059604645,337.0,21.38627815246582,25.135557174682607,-79.78274542431727,40.459071965383146,292.7609575653076,0.006421969737857579,0.003473243210464716,0.9991125464439392,0.041483134031295776,0.09362139915472376,0.03603405735798965,3.0909607627385896,-0.0754610225558281,-0.004576442763209343,0.007560378406196833,0.16245838187634945,0.03835715909488499,-9.741563018560411
27.6,0.4000000059604645,342.0,21.39379119873047,24.57893371582031,-79.78274565587651,40.459072090533425,293.3471525573732,0.00704540405422449,0.006343792658299208,0.9991312623023988,0.04058191180229187,0.07306854200227762,0.04809129970334503,3.058161153821491,-0.028687404468655583,0.014019539579749107,-0.04290899634361267,0.13500961471349002,0.021291251652874054,-9.706921774148944
27.7,0.4000000059604645,1.0,21.25731658935547,25.98639678955078,-79.7827456991855,40.459072080374014,293.65214904785165,0.006391456350684166,0.007096400018781424,0.9991574883461,0.03991487994790077,0.06663647939081245,0.059830499201990385,3.0447866356713367,-0.010335956700146198,-0.05136153846979141,-0.0022403360344469547,0.18699068577960126,0.04459163401275874,-9.721633368730542
27.8,0.4000000059604645,14.0,21.341203689575195,24.61869239807129,-79.78274594773245,40.459072129385284,293.9361093902588,0.005264867097139359,0.007864845916628838,0.9991753697395324,0.03948558121919632,0.06439101992407015,0.05997985603809609,3.0401246380009503,-0.009697632864117622,0.038168668746948235,0.02504425123333931,0.13399195251055065,0.01611547908280045,-9.735608214139939
28.0,0.4000000059604645,35.0,21.2773494720459,24.93676376342773,-79.78274619312558,40.45907217191748,294.5224035644532,0.004551959689706564,0.009241996333003044,0.999179184436798,0.03917869925498962,0.0422730332130332,0.06543376034763908,3.0381284573099907,-0.02790570072829724,-0.05572452023625374,0.052279625087976456,0.19909696206450464,-0.07314996516332031,-9.823013563156133
28.1,0.4000000059604645,35.0,21.337448120117188,25.366159439086914,-79.78274621171968,40.45907216283804,294.8262613677979,0.004734279122203589,0.008508933708071709,0.9991772174835204,0.03937122970819473,0.04117293564316542,0.0708924197098215,3.0366377822947106,0.05637565255165099,0.007975212298333645,0.04362038895487785,0.1994246985018253,0.007252854318358003,-9.770731269121173
28.3,0.5,51.0,21.341203689575195,25.73989295959473,-79.78274641457966,40.45907215482569,295.4084661865235,0.005118838977068664,0.005595155991613865,0.9991958737373352,0.039371803402900696,0.03754342797814485,0.0634089146886851,3.038068233306402,0.04713037237524986,0.005022449884563685,0.024131763726472855,0.16780101936310532,-0.03478550161700696,-9.84184744477272
28.5,0.5,52.0,21.302391052246094,24.165441513061523,-79.78274641597805,40.45907213515661,295.7126558685303,0.0055778357200324535,0.005305925384163857,0.9991938471794128,0.03940080478787422,0.027006358168209413,0.0600304555615942,3.0430493208288505,0.03469645977020264,0.008291647769510746,-0.01034652441740036,0.14234830889850855,0.026750198481604457,-9.813880212306977
28.6,0.5,68.0,21.27359390258789,25.946638107299805,-79.78274660200917,40.45907215773015,295.99023994445804,0.006074309814721346,0.005628305487334728,0.999192714691162,0.03931204602122307,0.025726955513185795,0.05592874211370115,3.036315391122641,0.01760266348719597,-0.026194000616669655,0.06554928421974182,0.2279936094582081,-0.06505189125426114,-9.837041033506392
28.7,0.5,77.0,21.24604797363281,25.31049728393555,-79.7827465704568,40.45907210263112,296.59733184814456,0.0073396447114646435,0.0058806459419429285,0.9991663694381714,0.03972620517015457,0.009229359431968356,0.07078509608123468,3.0387388306599106,-0.04289381578564644,-0.010724468156695366,-0.08104292303323746,0.14951762569136914,0.16386664722114802,-9.822231205701831
28.9,0.6000000238418579,88.0,21.214746475219727,25.75579643249512,-79.78274673967167,40.45907199096985,297.18081840515134,0.0067073707468807715,0.007369276136159897,0.9991358518600464,0.04035281762480737,0.0042294302882064936,0.08704621160593913,3.0410378328704573,-0.00505287479609251,0.0628582313656807,-0.033939506858587265,0.13096124013885854,0.15736235070973634,-9.837984774112703
29.0,0.6000000238418579,89.0,21.204730987548828,26.7497673034668,-79.78274680198795,40.459072033490756,297.45399459838865,0.006023423746228218,0.008074449375271797,0.9991245865821838,0.04060475155711174,-0.009324906996285048,0.08123511426975008,3.0355297840223248,-0.06074628978967666,-0.04214293137192726,0.01736304722726345,0.16635215241461992,-0.0048633028473705035,-9.854880888462068
29.2,0.8000000119209291,96.0,21.202226638793945,25.286640167236328,-79.78274674642346,40.45907199743522,297.75815185546884,0.005407408345490694,0.007969403639435768,0.9991159439086914,0.040922395884990685,-0.018292763768849925,0.08911009431898634,3.046946228153944,0.0043466482311487215,0.015711192041635513,0.04859492927789688,0.12357174826785924,-0.0007438457733951509,-9.880661262273787
29.4,0.8000000119209291,99.0,21.23477935791016,24.88905143737793,-79.78274673202601,40.45907195068187,298.64018615722665,0.005276594310998918,0.007652540225535631,0.9991152286529541,0.04101719707250595,-0.03449020446686843,0.07788392454916172,3.0537066625524885,0.012922394089400768,0.023349491879343987,-0.03289029002189636,0.1689388144388795,-0.11454650695435704,-9.874002453088758
29.5,0.8000000119209291,101.0,21.133363723754886,25.747844696044922,-79.78274692932602,40.45907194958981,298.9095266723633,0.0055429525673389435,0.00797638762742281,0.9991140365600586,0.0409507155418396,-0.029122503773391224,0.07809842727262621,3.039244408138084,-0.010003638453781605,-0.018191387876868248,-0.003563761478289962,0.19778058936819434,0.07073651776649058,-9.81875328183174
29.6,0.8999999761581421,103.0,21.242292404174805,25.19917106628418,-79.7827468665108,40.45907191752487,299.21372207641605,0.005342815537005663,0.008058429695665836,0.9991166591644288,0.04089558497071266,-0.025637714365179518,0.08096493296969365,3.0438976722435105,0.04537992924451828,0.06309853494167328,-0.01980345137417316,0.16271785207092762,0.11309090657159687,-9.833556092977524
29.8,1.0,102.0,21.11833953857422,26.59073257446289,-79.78274694741134,40.45907185652864,299.7896231079102,0.004454422742128372,0.0072437827475368985,0.9991289973258972,0.040852610021829605,-0.02721762513495448,0.0865852451699575,3.0444514457229555,-0.039544302970170975,-0.01121203415095806,0.015086547471582891,0.1556128820590675,0.07951785709708929,-9.892340490818023
30.0,1.0,103.0,21.3987979888916,23.1953239440918,-79.78274688687156,40.45907181719986,300.09482559204105,0.0036216203588992357,0.007186444476246835,0.9991291165351868,0.040942862629890435,-0.029683596604789118,0.08672604407976141,3.0559982413391853,0.01872459426522255,0.01927635818719864,0.033322274684906006,0.15147400354966525,0.006688465531915428,-9.89247029900551
30.1,1.0,97.0,21.278602600097656,24.14953804016113,-79.78274701866209,40.459071758259455,300.67959770202634,0.003594611072912812,0.008240476250648499,0.9991216063499452,0.04093031957745552,-0.02493227641413124,0.08948164826904295,3.0241434598082204,-0.020373519510030743,-0.03264404088258743,0.04202984273433685,0.19594189586117866,-0.01661371210590005,-9.661134567260742
30.3,1.0,94.0,21.11833953857422,24.793630599975586,-79.78274707606633,40.45907173596611,301.26117118835447,0.005416059400886297,0.01001379545778036,0.9990888833999634,0.041131917387247086,-0.017919557041679694,0.09402360604235732,3.0029856084078883,-0.013339819386601448,0.02173195406794548,0.029987538233399388,0.17499070091173052,0.02537616218905896,-9.696152957081797
30.5,1.0,93.0,21.192211151123047,26.01820373535156,-79.78274702444692,40.45907170183837,301.56126388549814,0.006480932701379061,0.010340159758925438,0.999078094959259,0.041159771382808685,-0.016585678874764108,0.09457541682260576,2.9986127118652663,0.006851388607174158,-0.035170454531908035,-0.02486336976289749,0.16949658399447798,0.08429845838807523,-9.749724562168122
30.6,1.100000023841858,92.0,21.19721794128418,24.06206703186035,-79.782747207275,40.45907163942775,301.8439901733399,0.006966255139559507,0.0107008283957839,0.9990655779838562,0.04129122570157051,0.005243964590362097,0.1004640864004718,3.015384190091737,0.08421632647514342,0.007168883457779884,0.06143191456794739,0.1945010322891176,-0.049409648347646,-9.85338984847069
30.8,1.0,95.0,21.139623641967773,25.61266326904297,-79.78274711195729,40.45907156706006,302.4477041625977,0.0050307251513004286,0.009902662597596644,0.9990984201431274,0.04097577929496765,-0.01295612396165212,0.09725854723384288,3.00976215616737,0.009921010583639143,-0.04467545822262764,-0.02090107463300228,0.21695238523185253,0.07033780161291361,-9.750779399871826
30.9,1.0,93.0,21.169673919677734,25.779651641845703,-79.78274746489413,40.45907137140443,302.7379072570801,0.0036477521061897282,0.009023577906191349,0.9991208910942078,0.040777113288640976,0.002961585171903468,0.11895040756230413,3.0205189533986663,-0.01401980035007,-0.006341769360005856,-0.032873541116714484,0.17139477292075755,0.10530714791268113,-9.76931682765484
31.1,1.100000023841858,97.0,21.26482963562012,24.28471755981445,-79.78274756462494,40.45907125124072,303.3228109741211,0.002148408675566316,0.008935497142374516,0.9991505742073059,0.04017226025462151,-0.019028323858290744,0.109138570937165,3.0300723397782074,-0.033678483217954636,-0.0478813610970974,-0.06922423094511032,0.1363821389526129,0.16874207390472293,-9.787534997463226
31.2,1.100000023841858,100.0,21.23728370666504,24.63459587097168,-79.78274751267524,40.4590711492276,303.92611297607425,0.002091136062517762,0.008390670642256737,0.999172031879425,0.0397561639547348,-0.015823947294282315,0.10864840428572413,2.9975411511772827,-0.037178590893745415,0.019775614142417908,0.038517534732818604,0.1434229357726872,0.02303771446924657,-9.626176988482477
31.3,1.0,99.0,21.228519439697266,24.507368087768555,-79.78274756460947,40.45907112616667,304.208034362793,0.003220721846446395,0.008273905143141747,0.999168872833252,0.039783719927072525,-0.02921082994297713,0.10373433073445816,2.996224144584968,-0.08897045254707336,0.002240389585494995,-0.0618559755384922,0.07898265413939952,0.16107781771570445,-9.622135977745057
31.5,1.0,102.0,20.9843692779541,27.147356033325195,-79.78274752809584,40.45907107861327,304.506919708252,0.003977515734732151,0.009509739466011524,0.9991486668586732,0.03994708880782128,-0.020779927846890714,0.098630415998844,2.9828544363882648,-0.06811992824077606,-0.018673354759812355,0.0017734952270984647,0.10651973253116012,0.09297011674381793,-9.6660935908556
31.7,1.0,104.0,21.115835189819336,25.76374816894531,-79.78274749369743,40.459070981397225,305.3910902404785,0.002638729987666011,0.010856137610971928,0.9991207718849182,0.04040877893567085,-0.023635570516102232,0.1047755484426892,3.0357477398930945,0.05613970384001732,0.005903225392103195,0.04271891340613365,0.2262009262293577,0.008297253828495742,-9.937969822883607
31.8,1.0,107.0,21.06450080871582,26.19314384460449,-79.7827476008982,40.45907096774372,305.66480621337894,0.003285161918029189,0.0105602340772748,0.9991227388381958,0.04039291664958,-0.0398776281627272,0.10014550237609417,3.044627555647145,-0.03183010220527649,0.03622144088149072,-0.08772806078195572,0.09949410192668436,0.2058544978313148,-9.877509613037107
31.9,1.0,109.0,21.15464973449707,26.16133689880371,-79.78274755013754,40.459070936436966,305.96982177734384,0.003971158526837826,0.010874615982174872,0.9991206526756288,0.0402991883456707,-0.03127282202691204,0.08914656440630216,3.0526448916569464,-0.06303940713405609,-0.026082776486873627,-0.003443812252953649,0.1768433546461165,0.07296051537618041,-9.918337211608886
32.1,1.100000023841858,111.0,21.10707092285156,26.12952995300293,-79.78274764221705,40.45907092694448,306.5474165344238,0.003704801667481661,0.012519924901425837,0.9991104602813721,0.04009818658232689,-0.019460135703928558,0.08125038353087713,3.0737028801414223,-0.044342339038848884,-0.05363701283931732,-0.008453639224171637,0.17427019603550434,0.046483062095940116,-9.977014020681382
32.3,1.2000000476837158,110.0,21.100811004638672,26.137481689453125,-79.78274759615479,40.45907092225527,306.8552206420899,0.004256108310073614,0.011943102814257143,0.9991182088851928,0.04002732038497925,-0.013270824223034234,0.0746027144524902,3.0775582152958845,0.1040341705083847,0.03229287639260292,0.06212838739156722,0.15766021152958273,0.011037012403830886,-9.85574042916298
32.4,1.399999976158142,107.0,21.0920467376709,26.837236404418945,-79.7827477180875,40.45907092803143,307.4314268493652,0.00639671552926302,0.008077080361545086,0.9991612434387208,0.039633393287658684,-0.006698977725310496,0.05457581471740079,3.060525297551024,-0.05505142360925674,-0.017752395942807198,-0.008725471794605255,0.1764604899287224,0.07154195345006882,-9.850204285383224
32.6,1.2999999523162842,108.0,21.07201385498047,25.70013236999512,-79.78274785244861,40.45907104964682,308.0020330810546,0.007189418654888868,0.005871063098311424,0.9991865754127502,0.03924347087740898,-0.00563748235151501,0.02322536022610809,3.0546446502898985,-0.07613314688205719,-0.06075149774551392,-0.011038456112146378,0.0973539113625884,0.195743474252522,-9.786193646192553
32.7,1.399999976158142,106.0,21.152145385742188,24.75387191772461,-79.78274780161345,40.45907106113207,308.30778106689456,0.0068625351414084435,0.007159419357776642,0.9991794228553772,0.03927132114768028,0.0026835021865765783,0.020810634403616787,3.0590184343567395,0.04793422669172287,0.07053317874670029,0.07380349189043045,0.12705037563107907,-0.023982263635843992,-9.842608752250671
32.81,1.399999976158142,108.0,21.172178268432614,25.10375022888184,-79.78274795147667,40.45907111280839,308.5784796142578,0.005338803865015507,0.008976537734270096,0.9991692900657654,0.03939315304160118,-0.0002164995421883396,0.02926073371279317,3.0504245715328087,0.007497870828956366,-0.014445288106799126,-0.03340796381235124,0.16614450316876173,0.10281055128201842,-9.825662351846695
33.0,1.600000023841858,109.0,21.194713592529297,24.3801383972168,-79.7827480684664,40.45907120875228,309.1551969909668,0.003378945169970393,0.00963504146784544,0.9991434812545776,0.04010067880153656,-0.020957209114246002,0.02968511666622836,3.041958374543232,0.05116485804319382,0.043767545372247696,0.009432136081159115,0.15082130810245872,0.05021653213072568,-9.767970213890075
33.2,1.600000023841858,109.0,21.040712356567386,26.12952995300293,-79.7827480182159,40.45907123365002,309.45863327026365,0.004583851434290409,0.009319226257503031,0.9991343021392822,0.04028385505080223,-0.023699303169902583,0.025241380128744727,3.0272521607169542,-0.007401640526950359,-0.029639076441526413,-0.022018417716026303,0.19245748523622752,0.07689665081910789,-9.705430149435998
33.3,1.7000000476837158,110.0,21.18219375610352,24.51531982421875,-79.78274815884953,40.45907132849488,310.0354460144044,0.0049586156383156785,0.007212733849883078,0.9991374015808104,0.04059518873691559,-0.003656232686942392,0.018603575124072482,3.0151351922531657,-0.021143028512597084,0.02090281620621681,-0.05512112006545067,0.12952009334228934,0.1967780842445791,-9.694654900431633
33.5,1.7000000476837158,107.0,20.993133544921875,27.07579040527344,-79.78274811980613,40.45907135668543,310.3363378906251,0.00459363078698516,0.005800441373139621,0.99915212392807,0.04050222784280777,-0.010139237395216652,0.012095636019815134,3.0077360678223632,-0.06803278625011444,-0.0425897017121315,-0.0937957614660263,0.10897866030223667,0.20927402263507247,-9.728396843075751
33.6,1.7000000476837158,105.0,21.077022552490234,24.12568283081055,-79.78274828398105,40.45907142699487,310.9166716003418,0.004144244361668825,0.007130155339837073,0.9991484880447388,0.04042655602097511,0.0013111314654396249,0.0067108205964283634,3.03495510971345,0.005585533566772939,0.04228407517075538,0.029700463637709618,0.1280532096605748,0.0189162348525133,-9.878929316997526
33.8,1.600000023841858,103.0,21.067005157470703,26.7497673034668,-79.78274825611376,40.45907145169669,311.21965393066415,0.0041669136844575405,0.008536168374121189,0.9991368651390076,0.0404389314353466,0.00042977897404976816,0.014613392641568213,3.0231886834142223,-0.013774231076240541,-0.0313708670437336,0.007298300974071027,0.15978066774085165,0.04275791520718485,-9.741462446451187
33.9,1.600000023841858,103.0,21.056989669799805,25.723989486694336,-79.78274834743152,40.459071525485726,311.7943762207032,0.003774248762056232,0.01080004684627056,0.9991219639778136,0.04030508175492287,-0.0002061447908482041,0.02814531260223432,3.0181311077766733,0.07018190622329712,0.03543860837817192,-0.00043920951429754496,0.15954259470105173,0.05449233141727746,-9.811724928617476
34.1,1.600000023841858,103.0,21.11708641052246,25.47748374938965,-79.78274843824755,40.459071572617226,312.3721922302246,0.00434755627065897,0.010428099893033504,0.9991440773010254,0.03979391232132912,7.291770305243835e-05,0.0345355340866409,3.0153746134607244,-0.013741663657128813,0.01863164640963077,0.00815901905298233,0.21582586431875825,0.03637162281665951,-9.838436179161071
34.2,1.600000023841858,103.0,21.189706802368164,24.2052001953125,-79.78274841063043,40.45907160046801,312.6733358764649,0.004668182693421841,0.009553235955536366,0.9991565942764282,0.03966272622346878,-0.004046482821554778,0.029597255275335983,3.005691310493737,-0.05526731163263321,0.013196893036365507,-0.0912201926112175,0.1446165991667658,0.23156510705128314,-9.664027769565584
34.31,1.600000023841858,102.0,21.18720245361328,24.14953804016113,-79.78274856919339,40.45907166275088,312.94651016235355,0.00467270240187645,0.009192640893161295,0.9991646409034728,0.03954395651817322,0.004845331444673897,0.018218588756695967,2.9894330458750624,-0.028389133512973782,-0.028385369107127183,-0.029057040810585025,0.15085140299052,0.11281672697514294,-9.645216107368473
34.5,1.600000023841858,100.0,21.093297958374023,25.533145904541016,-79.78274869183865,40.45907172949161,313.5228651428223,0.005525626707822084,0.008781137876212597,0.9991610646247864,0.03961912542581558,0.006321122981120543,0.021539506078310046,2.976074956945911,-0.029679020866751667,0.032800186425447464,0.007137917447835206,0.1770059620589018,0.09499521765857936,-9.694873001575472
34.7,1.600000023841858,101.0,21.061996459960934,26.25675773620605,-79.78274866526299,40.45907176110943,313.8204382324218,0.006006733980029821,0.008744119666516779,0.9991536140441896,0.0397442989051342,0.003297031823914797,0.016694702133486852,2.978830375873792,-0.08645276725292206,-0.042318444699048996,-0.050046298652887344,0.14075550908222795,0.13505936172790825,-9.792761238813403
34.8,1.600000023841858,100.0,21.01817512512207,26.40784072875977,-79.78274884550784,40.45907183912632,314.398822631836,0.00716979382559657,0.007999158464372158,0.9991481900215148,0.03984437882900238,0.02020331804618361,0.0240210423623297,3.0086227386828237,0.030891509726643562,-0.0004385790962260217,-0.002636260585859418,0.14052106314338744,0.08200304252095521,-9.877456988096238
35.0,1.600000023841858,98.0,21.01817512512207,25.1673641204834,-79.78274881657663,40.459071865893094,314.6999395751953,0.0069298245944082746,0.007347282022237778,0.9991493821144104,0.039981234818696976,0.022614892006056743,0.015889202032697045,3.01381333630988,0.04535319283604622,-0.04553709924221039,0.06661955267190932,0.19785113967955115,-0.02231308456510305,-9.903985805511477
35.1,1.600000023841858,96.0,20.960580825805664,26.5748291015625,-79.7827489072268,40.45907202607316,314.98065170288083,0.005993145518004893,0.007154041901230812,0.9991469979286194,0.040226384997367866,0.016767673035706396,-0.003859607110862913,3.031889030969733,0.08918729424476624,0.042447611689567566,0.058813612908124924,0.1778328131698072,0.00320203579030931,-9.928470436334608
35.2,1.600000023841858,97.0,21.077022552490234,24.984474182128906,-79.78274881923294,40.459072100115826,315.58881362915037,0.005666871089488268,0.005623473785817622,0.9991533160209656,0.04035978764295578,-0.0080237149052876,0.0002596985515626246,3.0517721329099503,-0.04038342460989952,-0.022614330053329468,-0.00894819851964712,0.17487929318100215,0.10906814097426833,-9.919579160213473
35.41,1.600000023841858,95.0,21.03695678710937,25.76374816894531,-79.78274888707124,40.459072179504965,316.1665495300293,0.005823647137731314,0.0057744611985981464,0.9991546869277954,0.04028407856822014,-0.006984288062055197,0.008319595471266435,3.041957306454232,-0.0635819211602211,-0.011404228396713734,-0.06185029819607735,0.09194562060758472,0.15174813746474686,-9.78321332037449
35.5,1.600000023841858,94.0,21.05824089050293,25.286640167236328,-79.78274901785406,40.459072230345285,316.4423063659668,0.006109084002673626,0.006665684748440981,0.9991592764854432,0.03998915106058122,0.002608370458992727,0.01617873314225107,3.033035312693321,-0.009240995161235329,-0.03002328053116798,0.052425947040319436,0.20033902030438186,-0.02145465848967433,-9.776520597338678
35.7,1.600000023841858,91.0,21.02318382263184,26.01820373535156,-79.78274897665186,40.45907224553503,316.74516662597665,0.006576498504728079,0.007825583219528198,0.9991472959518432,0.04000299796462059,0.007678066232528081,0.02166594359675509,3.024822089308308,0.06606890261173247,0.062067486345767975,0.016028376296162602,0.1753757400624454,0.037272459478117526,-9.750456633567813
35.9,1.7000000476837158,91.0,21.11082649230957,24.658451080322266,-79.78274900766453,40.45907230686942,317.62883361816415,0.007987868972122671,0.010593272745609285,0.9990946650505066,0.04042062535881996,-0.0015199947068481787,0.04464337158810068,3.0462374272590442,-0.002991081913933158,0.056243617087602615,0.011535302735865116,0.19623045595362784,0.11608913948759438,-9.889218077659606
36.0,1.7000000476837158,90.0,21.16090965270996,25.294591903686523,-79.78274911803038,40.45907237878272,317.90422805786136,0.007923101074993609,0.010256531648337841,0.9990994334220886,0.040402386337518685,-0.0012637599350474884,0.04093832949244458,3.036017309189132,-0.016681337729096413,-0.015874778851866722,-0.0658302754163742,0.1795469975285232,0.21681713182479145,-9.767270302176478
36.1,1.600000023841858,89.0,20.99188232421875,25.09579849243164,-79.78274906547213,40.459072400400274,318.2074812316895,0.006639731582254171,0.009363774210214615,0.999121367931366,0.04030914232134819,-0.0020540392313577053,0.03336502981478026,3.03080610738664,-0.011876399628818035,-0.06071829050779344,0.02021318487823009,0.18368697239086032,0.09364769026637078,-9.798639444708824
36.3,1.600000023841858,88.0,20.970598220825195,25.962541580200195,-79.78274900833351,40.45907242333613,318.51051315307615,0.0053159580565989035,0.008183176629245281,0.9991488456726074,0.04007994383573532,-0.00737919670127762,0.0292802205050899,3.0324265401299497,-0.003649252932518721,-0.008977415040135384,0.033141378313302994,0.12926400356926024,0.024496850590221584,-9.832048680782318
36.5,1.600000023841858,86.0,21.08453369140625,23.60086441040039,-79.78274909702591,40.45907247995018,319.0939100646973,0.005283575505018234,0.006221402902156115,0.9991936087608336,0.039314813911914825,-0.0059946145049905395,0.018627176870993828,3.0548512847472176,0.0604192465543747,-0.00727422395721078,0.06066294014453887,0.1935459261573851,-0.058827781439758836,-9.92941651582718
36.6,1.7000000476837158,86.0,21.04572105407715,26.527118682861328,-79.78274922982696,40.45907245303848,319.6734426879883,0.005773190874606371,0.005006457678973675,0.9992133378982544,0.03891526907682419,0.0010512613110593794,0.035550875010857574,3.033700397542669,-0.021461667492985725,-0.01752476580440998,-0.08121979981660843,0.15877416092902422,0.19258265219628806,-9.708617466688157
36.8,1.7000000476837158,85.0,21.043216705322266,25.50929069519043,-79.78274930471922,40.459072453953404,320.25883850097665,0.0055317115038633355,0.006339976564049721,0.9992087483406068,0.038874302059412,0.0033209634451172674,0.042121117923334686,3.0415333153353776,0.019352640956640244,0.08665413409471512,0.004280995577573775,0.1430229314044118,0.17801566656678916,-9.796216943264007
36.9,1.7000000476837158,83.0,21.073265075683594,24.89700508117676,-79.78274927196097,40.45907244310371,320.5629728698732,0.005214689299464226,0.007806763052940369,0.9991959929466248,0.03897882252931595,-0.002230892355022944,0.05303922126699427,3.03940254015056,-0.051048345863819115,-0.014191098511219025,-0.0437438040971756,0.17249514581635594,0.17686729168519374,-9.773327432870863
37.01,1.7000000476837158,86.0,21.053232192993164,25.517242431640625,-79.78274934639505,40.45907245332914,320.84283432006833,0.005341398529708386,0.008495500311255455,0.9991786479949952,0.03926198557019234,-0.006033785393870865,0.0617116869596814,3.026629273887324,-0.06990522146224976,-0.014761134050786497,0.020083434879779816,0.16847706712782384,0.1028079200349748,-9.69881168603897
37.2,1.7000000476837158,87.0,21.00565528869629,25.779651641845703,-79.78274930694262,40.4590724392497,321.1452253723145,0.0061566270887851715,0.008696742355823517,0.9991546869277954,0.039704687893390656,-0.0037800181824290007,0.06550943496333282,3.022538015191841,-0.03143063187599182,0.02538328990340233,0.08180085569620132,0.13198108591139318,0.006802239557728172,-9.762566801905633
37.4,1.7000000476837158,88.0,21.065753936767575,25.843265533447266,-79.7827493324825,40.45907240713216,321.7296446228028,0.007425313815474509,0.0099266292527318,0.9991058111190796,0.04042349010705948,0.004911016827684654,0.0687257140605926,3.028205505904585,0.04241207242012024,-0.03236611559987068,0.05802108347415924,0.2491759886965156,-0.01783727852627635,-9.844325494766236
37.5,1.7999999523162842,87.0,20.95932960510254,26.360130310058594,-79.78274938933156,40.45907236030232,322.31321701049814,0.0070252749137580395,0.009407082572579384,0.9991240501403807,0.0401671901345253,-0.0002555556203293664,0.07389382445562158,3.036969247781124,0.020866844803094864,-0.012918212451040743,-0.05363738536834717,0.1559904842823744,0.16708539325743915,-9.834140814542767
37.61,1.7999999523162842,86.0,21.108322143554688,24.674354553222656,-79.78274934097001,40.45907234743651,322.6169432067872,0.0059569417499005795,0.008799375034868717,0.9991456866264344,0.03993895277380943,-0.006531937308299267,0.06852530651061649,3.032800298367098,0.01956503838300705,-0.02678242884576321,-0.013699796050786972,0.1892203387431801,0.12068321459926665,-9.740438598990439
37.81,1.8999999761581416,87.0,21.07201385498047,24.87314796447754,-79.78274941946866,40.45907233323979,323.20322402954105,0.003818247467279434,0.007257544901221991,0.9991876482963562,0.03945750370621681,-0.01600184370489253,0.06322590992402091,3.0242639611321,-0.0500171147286892,-0.0021214247681200504,-0.06756508350372313,0.16633068216964605,0.21098986979573967,-9.71496929705143
38.0,2.0,88.0,20.93178367614746,27.028079986572266,-79.78274938195014,40.45907232032755,323.50505813598636,0.0037892693653702736,0.0070291501469910145,0.9992001056671144,0.0391855463385582,-0.014583546914372122,0.05640939834223354,3.0142475856560265,-0.06955118477344513,-0.03242000192403793,-0.019165979698300358,0.11895229258574545,0.10609820310026408,-9.708266049027444
38.11,2.0999999046325684,91.0,20.95932960510254,25.978445053100586,-79.78274940390048,40.45907231178328,324.08879837036136,0.0076695485040545455,0.008557696826755999,0.9991682767868042,0.03912394866347313,-0.007353732419725724,0.05949830651157029,3.0348945158569376,-0.02165011689066887,0.021429521963000298,-0.030090119689702988,0.14572593474760653,0.1170722026191652,-9.911283130645751
38.3,2.0999999046325684,91.0,21.079524993896484,24.2052001953125,-79.78274946235038,40.45907224343893,324.6738127136232,0.009324720129370693,0.009087402373552322,0.9991391897201538,0.039388373494148254,0.02126636644468597,0.07573821881108596,3.0246985802413064,0.06544677168130875,0.02730321884155273,0.06739254295825957,0.2076466694287956,-0.009434281457215548,-9.849428944587707
38.4,2.200000047683716,93.0,21.04572105407715,25.000377655029297,-79.78274941416448,40.45907222429725,324.9756315612793,0.007487174589186906,0.00782974809408188,0.9991499185562134,0.039777588099241264,0.010858770041472924,0.07569370398263668,3.0115045272875967,0.060383409261703484,-0.04837337881326675,-0.003046680008992553,0.15890329303219916,0.12006667139008642,-9.657772418260574
38.51,2.200000047683716,94.0,21.1208438873291,24.197248458862305,-79.7827494375807,40.459072222894115,325.25788101196287,0.004860605113208294,0.006623502820730209,0.9991610050201416,0.04012461751699448,-0.01247059158456539,0.061048464352568825,3.007751369133422,0.06492429226636888,-0.04992925003170967,0.04398995265364647,0.16960203487426045,0.0248022990860045,-9.712866638302804
38.7,2.299999952316284,96.0,20.9843692779541,24.80158233642578,-79.78274931189264,40.45907219385736,325.85706695556644,0.0036242960486561056,0.007766461465507746,0.9991391897201538,0.04059028625488281,-0.03737376112123236,0.05313757667429218,2.985010038659037,-0.005307485815137625,0.06844796240329742,0.004182675387710333,0.1559336749278009,0.09762790823355318,-9.701134784817695
38.81,2.299999952316284,98.0,20.97936248779297,26.137481689453125,-79.78274930226813,40.4590721830624,326.13795455932615,0.005257362034171821,0.009198668412864208,0.9991282224655152,0.04038051888346672,-0.0448022279768124,0.05754433570079544,2.9812682786210467,-0.06917890161275864,0.047489702701568604,-0.08109429478645325,0.15755996832624078,0.20737914104014635,-9.704961202740671
39.0,2.4000000953674316,98.0,21.11458396911621,24.41989707946777,-79.78274928279559,40.45907216919955,326.7154997253418,0.007612260989844798,0.011365343816578388,0.9991235733032228,0.03955992683768272,-0.021317212435519785,0.07308729185367085,2.9844184765774746,-0.007747109513729811,0.0005499994149431586,0.02915138565003872,0.1257749060355127,0.09316877589561046,-9.737171174883844
39.2,2.4000000953674316,99.0,20.953067779541016,25.000377655029297,-79.78274913226197,40.459072159985105,327.3118017578125,0.005712676793336868,0.010642158798873423,0.999184787273407,0.03852330893278122,-0.0252420118456373,0.05987837755707112,2.9847808717796034,0.019887052476406097,-0.061863675713539124,0.03771241381764412,0.12704281993210315,0.13698781913146374,-9.757461597919463
39.3,2.5,98.0,21.02568817138672,25.596759796142567,-79.78274921703314,40.459072124938686,327.589439239502,0.0054663703776896,0.00970902107656002,0.9992084503173828,0.03818907588720322,-0.01930016422483606,0.061725120995982874,2.988925220438744,0.08711308985948563,0.0214926153421402,0.07316666841506958,0.1732859269157052,-0.021651458409614858,-9.840038316249847
39.4,2.5,99.0,21.07451820373535,25.00832939147949,-79.78274914683087,40.459072126113405,327.8885534667968,0.005661181174218655,0.0094231516122818,0.9992140531539916,0.038086432963609695,-0.028658929837240724,0.05118832486203334,2.991880269364272,0.00486171618103981,-0.008941064588725567,-0.03184133768081665,0.1310799020715058,0.13284583428874613,-9.787170131206514
39.6,2.5,99.0,20.99814224243164,26.40784072875977,-79.78274934570356,40.459072168886344,328.4501188659668,0.006048965733498335,0.009506433270871641,0.9992014765739441,0.03833538293838501,0.0009066494685504332,0.04039806284075554,2.971108114536202,0.04300222173333168,0.039620481431484215,0.02283136546611786,0.16664299657568338,0.0999496182985604,-9.783228523135186
39.8,2.5999999046325684,100.0,20.948060989379886,26.63049125671387,-79.78274941997181,40.45907225629455,329.01303085327146,0.0065855197608470925,0.008707663044333458,0.9991958141326904,0.0385822020471096,0.0026086687242935377,0.028575132296845607,2.9872129104147795,-0.044836316257715225,0.006074465811252594,0.009628644213080406,0.165001938957721,0.19246631087735291,-9.898634433746338
39.9,2.700000047683716,100.0,20.949312210083008,25.71603775024414,-79.78274937638595,40.45907228000415,329.3127325439453,0.006999706383794546,0.008535104803740978,0.9991796612739564,0.03896636143326759,0.003901763147709378,0.023522284829516744,3.0067443079131944,0.014969238080084326,-0.0046954243443906325,-0.011280901730060577,0.1434779178723693,0.1144942291919142,-9.962511756420136
40.0,2.700000047683716,101.0,20.97936248779297,25.262784957885746,-79.78274948445389,40.459072283675106,329.5823477172852,0.0072143394500017175,0.008395887911319733,0.9991657137870787,0.03931238874793053,0.01503607936595479,0.022020642135760656,2.9976579438877136,0.04458163678646088,-0.026612261310219758,0.0979771837592125,0.18267332101240755,-0.048081279722973706,-9.903539078235628
40.2,2.799999952316284,101.0,21.010662078857425,25.81941032409668,-79.7827493998078,40.45907233231628,330.1827658081055,0.00683841947466135,0.00886337086558342,0.9991404414176941,0.039914678782224655,-0.0019714947065978448,0.022124875965305543,3.0063718465428324,-0.022354679182171815,0.003878947114571929,-0.09526538103818892,0.12766226847656073,0.2597051064670086,-9.801363662481313
40.4,2.799999952316284,102.0,21.010662078857425,25.40591812133789,-79.78274948589728,40.4590724018423,330.4517248535157,0.006508100777864456,0.008859661407768726,0.999139130115509,0.040003478527069085,-0.004451647290169974,0.016617709415382268,2.9987601169413844,-0.01735277660191059,0.00413437793031335,-0.04374205321073532,0.15189935194328427,0.1811887495033443,-9.866410428285599
40.5,2.799999952316284,102.0,20.99814224243164,25.5570011138916,-79.78274943430037,40.459072432731716,330.75204071044925,0.006326897069811821,0.008954686112701895,0.999137282371521,0.040056463330984116,-0.0021286949608841587,0.013152512522259576,3.0071412394873,0.0043834946118295175,0.044182147830724716,0.0642431229352951,0.13156439870595932,0.024785168571397658,-9.868252301216126
40.7,2.799999952316284,102.0,20.954320907592773,25.708086013793945,-79.78274953029688,40.4590725289856,331.32276901245115,0.0064725074917078036,0.008383407257497309,0.9991445541381836,0.039976920932531364,0.007172367470505159,0.013904222438527672,2.999029759893636,0.021478954702615738,-0.031537868082523346,0.02394071593880653,0.2135610366985202,0.010733710932545364,-9.809363822937012
40.8,2.799999952316284,102.0,20.99188232421875,26.07386589050293,-79.78274961110469,40.4590726242317,331.8966711425782,0.006078011821955442,0.008030327036976814,0.9991719126701356,0.03942292928695679,-0.0016704372261337913,0.004258290370430632,2.997711870299528,0.02308688499033451,0.009968599304556848,-0.08570440858602524,0.14002499084919692,0.15762825284153226,-9.772017071843148
40.9,2.799999952316284,102.0,20.89923095703125,26.14543342590332,-79.78274956557651,40.45907265951108,332.19650634765634,0.006705374922603369,0.008435899391770363,0.999181628227234,0.038987237960100174,-0.0019446992824455954,0.003671845377244076,3.0012842054857454,-0.024220388382673264,0.013750266283750534,-0.01784173958003521,0.17042810026556254,0.13369491395540534,-9.852470666170117
41.1,2.700000047683716,102.0,21.00565528869629,25.67627716064453,-79.7827496865788,40.459072744205116,332.7741049194336,0.006487156264483929,0.007914356887340546,0.9992136359214784,0.038307785987854,0.006840925300493022,0.013180817288210477,3.0284701613253158,-0.052008092403411865,-0.07699418812990189,-0.0069179139100015155,0.12488365332596005,0.10628299338743093,-9.90271929860115
41.2,2.700000047683716,100.0,21.010662078857425,25.06399154663086,-79.78274965044606,40.459072779538715,333.0770643615723,0.005572222638875246,0.008191045373678206,0.9992202520370485,0.038221076130867004,0.017281121155964883,0.005327884674356995,3.0296064242461234,0.105112224817276,0.03224452584981918,0.03118730895221233,0.152586399782449,0.040264438614249234,-9.834857683181763
41.4,2.5999999046325684,100.0,20.9843692779541,26.01025199890137,-79.78274970362973,40.45907288061438,333.6516493225098,0.005058509763330221,0.007124008610844612,0.9992483854293824,0.03776713088154793,-0.0018182794320888054,0.0076513065656100485,3.014649646841004,-0.0012355986982584,-0.06671968102455139,-0.002522798022255301,0.1739193630963564,0.05550558993592858,-9.772554430961607
41.6,2.5999999046325684,100.0,20.99814224243164,24.761823654174805,-79.78274978596947,40.459072993639865,334.2300375366211,0.006449276115745306,0.0062806233763694755,0.9992472529411316,0.037734463810920715,-0.0029231399167519725,1.684553618625309e-05,3.0294577882720812,-0.017145942896604538,0.008945601060986519,-0.0711236298084259,0.1342886712960899,0.05340467164758593,-9.846777817010883
41.7,2.5999999046325684,100.0,21.054485321044922,25.42977333068848,-79.78274974718606,40.45907302866,334.5322645568848,0.006524119526147842,0.006632578559219836,0.9992363452911376,0.03795203194022178,0.004569776589121536,-0.002178577705382357,3.0147487295795243,0.001714261481538415,-0.007357313763350248,-0.00513691920787096,0.2031441123783589,0.1160327504016459,-9.716001915335656
41.82,2.5,100.0,21.00565528869629,24.920860290527344,-79.78274987668148,40.45907306721447,334.80799468994144,0.005816911812871695,0.00716396002098918,0.9992227554321288,0.03832481801509857,0.008732446268783223,0.00819266359012665,3.0095500734748724,-0.01757035776972771,0.034829139709472656,0.018406424671411514,0.17543041152879596,0.09189515182748437,-9.700295124650005
42.0,2.5,100.0,21.087038040161133,24.17339324951172,-79.78275001288091,40.459073135236466,335.3862951660157,0.005707033444195986,0.006648379378020763,0.9992037415504456,0.03892609849572182,0.0009405932667368338,0.01832420246381349,2.9987586408343097,-0.06313437968492508,-0.07313556969165802,-0.001692310208454728,0.12729648859240114,0.12114270525053145,-9.689507596492767
42.2,2.5,101.0,20.9167594909668,26.26470947265625,-79.78274997962231,40.459073157473576,335.68534454345706,0.004769100341945887,0.006112988106906414,0.9991999864578248,0.03923435136675835,0.007370825534317401,0.015423579603133137,2.9846520225112863,0.009394915774464607,-0.025792550295591358,0.028530273586511605,0.11616772972047328,0.06951628608629107,-9.66718818962574
42.31,2.5,102.0,20.940547943115234,26.670249938964844,-79.7827500748627,40.45907320508348,336.25924285888675,0.004508840851485729,0.004320030566304922,0.9991966485977172,0.0395861491560936,-0.0016679962080185548,0.020911701508350672,3.000557638307432,0.024894436821341515,-0.04955948516726494,-0.013373722322285177,0.15806807309389115,0.04983906238339842,-9.86141105890274
42.5,2.5,104.0,21.019428253173828,24.35628318786621,-79.78275012994092,40.459073217498,336.8349493408204,0.005945665296167135,0.0038705896586179725,0.9991997480392456,0.03936650604009628,-0.008396640779617104,0.03461459860429724,3.023230831216225,-0.07519792020320892,0.05423978343605995,-0.0722644180059433,0.12358546181581916,0.13891272252425552,-9.91487916827202
42.6,2.5999999046325684,104.0,21.03194808959961,25.49338722229004,-79.78275009378007,40.4590732066016,337.1364096069336,0.006319016683846712,0.00424323882907629,0.9992205500602722,0.03873590379953384,-0.004553191366045108,0.03725070749070058,3.0077936138153603,-0.06739753484725952,-0.040231317281723016,-0.04252603277564049,0.11043203143402934,0.14866137404926122,-9.698699419498444
42.7,2.5,104.0,21.07451820373535,24.51531982421875,-79.78275005867755,40.45907319211045,337.43620666503915,0.005657463800162077,0.004894876852631569,0.999240517616272,0.038242775946855545,0.004677004124369442,0.04234585328734013,2.9864829741345145,-0.0007367644575424492,0.0048351194709539405,0.007378384005278348,0.14006081418134272,0.09508210362866522,-9.633263813853263
42.9,2.5999999046325684,103.0,21.015670776367188,25.42977333068848,-79.78275009156648,40.459073257697135,338.004909362793,0.004749511368572712,0.00615666713565588,0.9992688894271852,0.037434328347444534,-0.01037097330049488,0.043772079882951134,2.9560101285239586,-0.05542249232530594,-0.0007864909712225199,-0.014076716266572475,0.08582592470571399,0.12084795990027487,-9.634874721765517
43.0,2.5999999046325684,104.0,21.000646591186523,25.01628112792969,-79.78275019153058,40.45907326825402,338.2776907348633,0.005735819227993488,0.007425960153341293,0.9992581605911256,0.03735265135765077,-0.009798633377224131,0.05408792547239804,2.9620718410790947,-0.05482340604066849,-0.007008170243352653,0.043346844613552094,0.14582087891176346,0.01633694694377482,-9.716785442233084
43.2,2.700000047683716,105.0,20.89797782897949,26.511213302612305,-79.78275014906488,40.45907325120103,338.57387145996086,0.007165444083511829,0.00876771192997694,0.999232292175293,0.037504564970731735,-0.0026732705909165,0.0606228503712675,2.9668223043691597,0.04137129709124565,0.05017852038145065,0.06501002609729767,0.1420978379342705,0.01624170356662944,-9.858707306385039
43.4,2.700000047683716,105.0,20.95932960510254,25.135557174682607,-79.78275018413088,40.459073155757,339.44719299316415,0.007976277731359005,0.007398582529276609,0.9992195963859558,0.03797204419970512,-0.0010862655320529335,0.07584129658849051,3.024676719291816,-0.119723379611969,-0.08379711210727693,-0.019053705036640167,0.12018065555021168,0.15690157184377312,-9.989545773267746
43.5,2.700000047683716,103.0,21.00440216064453,26.360130310058594,-79.7827502557667,40.45907313998284,339.71607574462894,0.008107558824121952,0.006888567004352808,0.9992021918296814,0.03849487006664276,0.01467034356934446,0.0713759348672252,3.0150411225204627,0.1061585694551468,0.029950687661767006,0.07623746991157533,0.16363822208717466,-0.008964185875374824,-9.867253596782684
43.7,2.799999952316284,104.0,21.079524993896484,24.06206703186035,-79.78275020579309,40.45907311269218,340.0179479980468,0.008061018772423267,0.006347030866891146,0.9991914629936218,0.03887440636754036,0.0005868591286115356,0.06888715894998215,3.022672474012557,0.02770000509917736,-0.009266830049455166,-0.03422797843813896,0.12165137646719812,0.15068690436892213,-9.873697228431704
43.8,2.700000047683716,103.0,21.274845123291016,21.119911193847656,-79.78275030319926,40.45907312456121,340.58528503417966,0.006607255432754755,0.00608576089143753,0.9992154836654664,0.03857136517763138,-0.0016378651585059179,0.0626664969216305,2.979610301491645,-0.02279004640877247,0.04761053994297981,-0.0018633352592587469,0.08242549471557141,0.17008541688323026,-9.5100799369812
44.0,2.700000047683716,103.0,21.491451263427734,19.45003890991211,-79.78275034774644,40.45907307496943,341.14832672119144,0.0063151903450489036,0.0068038408644497395,0.9992198348045348,0.0383889302611351,-0.0037838135951432273,0.06152450596651059,2.815706695457057,-0.004075241275131702,0.029445720836520195,0.030453290790319443,0.09297374384477736,0.07601060578599572,-9.072032268047334
44.1,2.700000047683716,101.0,21.534019470214844,19.784013748168945,-79.78275030129069,40.4590730487032,341.42408355712894,0.006472623441368341,0.007840869016945362,0.999212920665741,0.038343414664268494,-0.010325812601356723,0.0611465280379815,2.6963947805470707,-0.014343608170747757,0.051072556525468826,-0.022063273936510086,0.1567465109936893,0.15786122784018514,-8.694422589540483
44.2,2.700000047683716,102.0,21.607891082763672,19.871482849121094,-79.78275025613213,40.45907302318844,341.6875646972657,0.006324131041765213,0.009014559909701349,0.9992000460624696,0.03844590485095978,-0.0060129751316476965,0.06783696873117613,2.572083811833516,0.029297672212123867,-0.008363865315914154,-0.02411620691418648,0.07478375030681493,0.14677541859447954,-8.532435420155526
44.4,2.700000047683716,101.0,21.47642517089844,20.80183982849121,-79.78275028066568,40.45907299590181,342.15910705566415,0.006398160941898823,0.010526164434850216,0.9991751313209534,0.038698162883520126,-0.01187547088363378,0.07021378512689176,2.327268459703748,0.0025556907057762146,0.009655890986323357,-0.008086387068033218,0.14246491516940296,0.08733432361856103,-8.516566076874733
44.5,2.5999999046325684,100.0,21.685518264770508,19.012691497802734,-79.782750359028,40.45907302008833,342.36763366699216,0.006799499038606882,0.011564242653548716,0.9991604089736938,0.038712356239557266,-0.010316906174797578,0.06798051205643592,2.216234009335002,-0.020470114424824715,0.04698724299669266,-0.00019623433763626963,0.18054486142471435,0.12111100237816573,-8.517232659459115
44.71,2.5,96.0,21.626672744750977,19.08425712585449,-79.78275031847652,40.45907300214174,342.5826681518555,0.0070777274668216705,0.01252265926450491,0.9991481900215148,0.03867859020829202,-0.009394649217210602,0.0650161425968734,2.082856738091889,-0.014935921877622603,-0.0023642245214432482,-0.01887785270810128,0.12489748564548793,0.1793247850611806,-8.454042384624481
44.9,2.4000000953674316,95.0,21.536523818969727,20.110036849975586,-79.78275038689105,40.45907301099896,342.9614981079102,0.006426146253943443,0.011811386793851852,0.9991663694381714,0.03854643926024437,-0.010063595992825363,0.056621096286198325,1.855031969035763,-0.024814967066049576,-0.01605045050382614,-0.011568013578653336,0.1641761476546526,0.18882069982588293,-8.576193643212319
45.0,2.299999952316284,92.0,21.646705627441406,20.01461410522461,-79.78275035224247,40.45907300363155,343.1420401000977,0.005870798137038946,0.011747756972908974,0.9991716742515564,0.03851795569062233,-0.005782962022882927,0.04041178704987821,1.7563799846167902,0.031905196607112885,0.005852662958204746,0.002381540602073073,0.1117257278971374,0.12728141373954713,-8.772860063910485
45.1,2.200000047683716,91.0,21.47266960144043,21.994606018066406,-79.78275038721993,40.45907302116482,343.4694631958008,0.004063593223690987,0.013181716203689577,0.9991729855537416,0.03825156018137932,-0.005942014151152111,0.034605598192359296,1.5997966299463593,0.0289748627692461,-0.01844795234501362,0.00484926113858819,0.2078945182822645,0.08926800697110594,-8.948470661044121
45.3,2.0999999046325684,89.0,21.600378036499023,20.75412940979004,-79.78275045479683,40.459073024943145,343.7842443847657,0.002299816813319921,0.011572688817977905,0.9992252588272096,0.03754813969135285,-0.0056295587054024975,0.02867331172311108,1.5049444846425981,0.011841985397040844,-0.011582929641008377,0.019258441403508183,0.14507501173764467,0.06243417503312231,-9.078377081751825
45.5,2.0,89.0,21.470165252685547,21.501596450805664,-79.7827504313792,40.45907302517529,343.93197998046884,0.0024581539910286665,0.010900378227233887,0.99924236536026,0.03727981820702553,-0.0009332682228432564,0.01891678625575526,1.4322860817484604,-0.031969103962183,-0.015485843643546103,0.007775096688419581,0.18254035167396068,0.08700666940771044,-9.127962639927864
45.6,2.0,88.0,21.5352725982666,20.22931289672852,-79.78275052850569,40.45907299626627,344.22690185546884,0.0032764817588031288,0.010860782116651537,0.9992513656616212,0.03698822110891342,0.01835146688835409,0.023120007307079454,1.3671399962649071,0.04673849046230316,0.0020829029381275177,-0.019888656213879585,0.17458859520033002,0.09300579389557244,-9.250081738829612
45.7,1.8999999761581416,86.0,21.55906105041504,19.593170166015625,-79.78275054012737,40.45907300691093,344.36076721191415,0.003596222260966897,0.010740352794528008,0.999256193637848,0.03686277568340302,0.02013956363790039,0.016306921787336226,1.3102711965666956,-0.03996627405285835,0.0033605992794036865,-0.010385015048086643,0.162293051853776,0.14789321436546746,-9.260603803396226
45.9,1.7999999523162842,85.0,22.851177215576172,11.617541313171387,-79.7827506838586,40.45907291275689,344.63766845703134,0.0038340336177498094,0.009825359098613262,0.999365508556366,0.034019645303487785,0.03297297556669635,0.01883676856178059,1.0501520876063726,0.11694056540727615,-0.009368779137730598,-0.2654559314250946,0.2293916787207127,0.07231121862307191,-9.115138526558876
46.0,1.7000000476837158,84.0,21.925912857055664,17.39052963256836,-79.78275076897972,40.4590728811737,344.75434478759763,0.0003629739221651107,0.006993063259869814,0.9999519586563108,0.00686643598601222,-1.2687075639332412e-05,0.020781272859035603,0.8505344486387678,0.029414692893624306,-0.057267844676971436,-0.7598420977592468,0.07804176405072212,-0.09850170152261854,-7.592538188695908
46.1,1.600000023841858,85.0,21.803211212158203,18.893415451049805,-79.78275076081968,40.45907288008407,344.8301428222657,7.267470209626481e-05,-0.006321555469185114,-0.9992504119873048,0.03819379583001137,-0.01154141679809244,0.0020223288436168867,0.6727161572799026,-0.05966485291719436,0.0332169346511364,-0.9695751667022704,-0.05259235178120435,-0.12814900349825625,-7.9345786696672445
46.31,1.5,82.0,21.62166404724121,20.348588943481445,-79.78275078566102,40.459072980548356,344.91799530029294,-0.0018714029574766753,-0.01016157679259777,-0.987631380558014,0.15645289421081546,0.0039094107205130966,-0.014002590027452641,0.4508707406317353,0.012200419791042805,-0.0610855370759964,-1.3262542486190796,-0.03167831405997276,0.03067494099028408,-8.773517290949822
46.5,1.5,74.0,21.616655349731445,21.27099609375,-79.78275080356225,40.45907300964201,344.95891174316415,-0.0005434768390841782,-0.009411129169166088,-0.9747674465179444,0.22302360832691195,0.01236568208355523,-0.02446738823172837,0.3910072279177065,0.08025801181793213,-0.019666125997900963,-1.4648056030273438,0.02722613442689181,0.10884901656769216,-9.121868671774862
46.6,1.399999976158142,79.0,21.602882385253906,19.982807159423828,-79.7827508918344,40.45907315330437,344.938762512207,0.0009386876481585204,-0.008202593773603441,-0.9557774662971495,0.2939753234386444,0.01135603965163137,-0.04629889953198839,0.34344551319050803,0.07730705291032791,-0.03337809070944786,-1.500114917755127,-0.012862691287882626,0.10324647948145868,-9.324904464483259
