time,wind_speed,wind_angle,battery_voltage,battery_current,position_x,position_y,position_z,orientation_x,orientation_y,orientation_z,orientation_w,velocity_x,velocity_y,velocity_z,angular_x,angular_y,angular_z,linear_acceleration_x,linear_acceleration_y,linear_acceleration_z
0.0,1.600000023841858,189.0,24.10698509216309,-0.17493902146816254,-79.78282047667714,40.459065655947754,268.27649290561675,-0.008032428100705147,-0.0012847596080973744,-0.9964917898178101,0.08329463005065918,-0.04569909960083463,-0.013366895596719377,0.015641898642963666,-0.004710231442004442,0.00045566650805994885,-0.010700459592044352,0.0017713437468046323,0.09034993372857572,-9.809756171107294
0.2,1.7999999523162842,183.0,24.113245010375977,-0.198794350028038,-79.78282040029,40.459065659964935,268.2807771682739,-0.007968702353537083,-0.0012420492712408304,-0.9964898824691772,0.083324134349823,-0.03003975905221102,-0.006689938481442557,0.017144022952514056,0.005298756062984466,0.002322736894711852,0.008092937991023064,0.00444545390753774,0.0937125852238387,-9.809950298666958
0.3,1.7999999523162842,179.0,24.11199188232422,-0.22264966368675232,-79.78282031851809,40.45906568468581,268.2840824842453,-0.008005554787814617,-0.0012677046470344069,-0.9964894652366638,0.08332482725381851,-0.041580720305495936,-0.008965702603168063,0.017048177652861592,0.0028074802830815315,0.0012059808941558006,-0.0011905207065865395,-0.002389722633379279,0.10274051260203124,-9.808079774379733
0.5,1.8999999761581416,179.0,24.104480743408203,-0.21469789743423465,-79.78282020483154,40.45906572714206,268.2880808830261,-0.007974771782755852,-0.001269798376597464,-0.9964881539344788,0.08334338665008545,-0.03790827811151811,-0.01071599064315788,0.01792376572625944,0.004095022566616535,-0.0007322562742047013,0.005031822249293327,0.0016346293923561461,0.08940178030170501,-9.809348620176317
0.6,1.8999999761581416,178.0,24.117000579833984,-0.1908425688743592,-79.7828200407118,40.45906577458757,268.2931805372238,-0.007939528673887253,-0.0012857080437242985,-0.9964888095855712,0.083339624106884,-0.036782250151760135,-0.010048430994256678,0.018386457338472183,0.0059407246299088,0.004110700450837612,0.007086875848472118,-0.0035165937227429824,0.11372378543950618,-9.806753041148186
0.81,1.8999999761581416,181.0,24.105731964111328,-0.21469789743423465,-79.78281999569187,40.459065789953385,268.2949556827545,-0.007960338145494461,-0.001318474882282317,-0.9964871406555176,0.0833565816283226,-0.04363291845118606,-0.010920561256448148,0.018420070017148325,-0.006658333353698254,-0.001657704240642488,-0.004140266217291354,-0.0021639824220619627,0.101632245965302,-9.80663083434105
0.9,1.7999999523162842,182.0,24.117000579833984,-0.17493902146816254,-79.78281986134414,40.459065851267646,268.2997806787491,-0.007946382276713848,-0.0013247376773506405,-0.9964859485626221,0.08337240666151048,-0.03818060949619309,-0.013245103478770616,0.01906226811449524,-0.002425928600132465,-0.002084905281662941,0.008093215525150299,-0.0036087073548696936,0.10542507894337176,-9.807535983324053
1.1,1.7999999523162842,180.0,24.104480743408203,-0.17493902146816254,-79.78281981613746,40.45906586981997,268.30162556171416,-0.0079583078622818,-0.0013346894411370158,-0.9964873790740968,0.08335444331169127,-0.04410885661189539,-0.014508385257057154,0.01922396691152088,-0.0037811126094311476,0.00011874893243657424,-0.007665425073355436,-0.004908497713040561,0.11539489226415756,-9.807501484751702
1.2,1.7999999523162842,179.0,24.10823631286621,-0.15108370780944824,-79.78281972104395,40.459065926708604,268.3057164669037,-0.007916413247585297,-0.0013427078956738114,-0.9964845180511476,0.08339197188615799,-0.034812003736191366,-0.016105142192864706,0.019485241433527933,-0.008326688781380653,-0.0004980618832632898,-0.008200865238904953,0.0017591909314796795,0.0893992769625038,-9.80985732793808
1.4,1.7000000476837158,180.0,24.11074066162109,-0.18289080262184146,-79.78281968131942,40.459065947291,268.3075949668884,-0.007922107353806496,-0.0013461842900142074,-0.9964849948883056,0.08338640630245209,-0.03876027388182085,-0.01777279816729979,0.019285934778743498,0.006948449183255434,0.004054764751344918,0.005860207136720419,0.0006187605401646579,0.093149653673172,-9.80882412493229
1.5,1.7000000476837158,176.0,24.11199188232422,-0.17493902146816254,-79.7828195545917,40.45906599023489,268.3110008955002,-0.007896240800619125,-0.0013516441686078904,-0.9964839220046996,0.08340087532997131,-0.036338814771966,-0.016126153471430014,0.01927159657566357,0.002983213635161519,0.004210659302771092,0.003374401247128845,-0.002428179924900178,0.10454112611711026,-9.807023767232897
1.7,1.600000023841858,174.0,24.1144962310791,-0.17493902146816254,-79.78281943787023,40.459066011135036,268.3126089096069,-0.007855957373976706,-0.001332752639427781,-0.9964826703071594,0.08342039585113525,-0.031104468618031813,-0.009297693322623977,0.01940710057214201,-0.001073808642104268,-0.0023484607227146626,0.0024497779086232185,-0.00094172691431595,0.09315493443980813,-9.808937560915947
1.81,1.5,174.0,24.105731964111328,-0.1908425688743592,-79.78281935699131,40.4590660411066,268.31635506153106,-0.007877536118030548,-0.0013406014768406749,-0.9964821934700012,0.08342308551073074,-0.04105036715549495,-0.012097086047014349,0.019276417975872984,0.0062016858719289285,0.001753722783178091,0.009740334004163742,-0.004511985114659183,0.11236842826008796,-9.805898762941359
2.0,1.399999976158142,176.0,24.10823631286621,-0.15903547406196594,-79.78281925595908,40.45906606079929,268.31776864528655,-0.00781489908695221,-0.0013227638555690644,-0.9964828491210938,0.0834219828248024,-0.03363584819814877,-0.009227421090300343,0.019553312279506286,-0.006734017748385668,0.0027888533659279338,-0.006702783517539501,-0.004415310197509826,0.11462623008526862,-9.807175210118293
2.1,1.399999976158142,177.0,24.10823631286621,-0.1908425688743592,-79.78281914835092,40.45906610176144,268.3209064722061,-0.007759381551295519,-0.001313964487053454,-0.9964820146560668,0.08343632519245148,-0.024734946381130662,-0.008371265363304039,0.019633766178878014,-0.004085109103471041,-0.003679725807160139,-0.0033617622684687376,0.0009749199273210252,0.09484478889964522,-9.809084910750393
2.3,1.399999976158142,182.0,24.10823631286621,-0.198794350028038,-79.78281911884682,40.459066113986346,268.3228129863739,-0.007765492890030146,-0.0013277127873152494,-0.9964815974235536,0.08344103395938872,-0.028730782286341083,-0.010014054649101784,0.019452149372791563,0.0033447782043367624,0.0004431330889929086,0.0011869518784806132,-0.0018048299057409167,0.10227105427533388,-9.807728356719018
2.4,1.399999976158142,182.0,24.109487533569336,-0.15108370780944824,-79.78281895315052,40.459066176033296,268.32433409690856,-0.007777541410177945,-0.001332952524535358,-0.9964808225631714,0.08344941586256027,-0.034679343156294944,-0.012107259653984558,0.016695644628298072,0.0009305604035034776,0.00024250774004030973,-0.0011683893389999864,-0.002250043129606638,0.100479120220989,-9.808428268432618
2.61,1.2999999523162842,184.0,24.118253707885746,-0.18289080262184146,-79.78281891184467,40.459066192925405,268.3259392499924,-0.007801895495504141,-0.0013310661306604745,-0.9964796900749208,0.08346045762300491,-0.03992578771285783,-0.013294254367195349,0.016605694118760568,-0.0015245210379362106,-0.00028536145691759884,0.007277498487383126,0.0020702907840313856,0.09078954384662212,-9.810978823900225
2.7,1.2999999523162842,184.0,24.109487533569336,-0.18289080262184146,-79.78281876765385,40.45906627145735,268.3287019252777,-0.007784263696521521,-0.0013457557652145624,-0.9964800477027892,0.08345811814069748,-0.037601265162826567,-0.018741784500457208,0.017529845456728876,0.0050168861635029325,-0.00010572189785307272,0.009687673300504684,-0.002437397854810115,0.11523846097290515,-9.807169947624207
2.9,1.399999976158142,187.0,24.113245010375977,-0.1908425688743592,-79.78281872370296,40.45906629481644,268.33038754463195,-0.0077953138388693315,-0.0013439781032502653,-0.9964804649353028,0.08345121145248413,-0.043904411403550635,-0.019849624490515885,0.017512853749537656,-0.0047533619217574605,0.0004273437371011824,-0.00980223435908556,-0.0034827997855609283,0.10829650036990644,-9.806209834814073
3.0,1.399999976158142,188.0,24.12075614929199,-0.18289080262184146,-79.78281858343617,40.459066302676746,268.33308012485503,-0.007752520032227039,-0.0013024186482653026,-0.9964808225631714,0.08345147222280502,-0.04031122031223602,-0.009451209428907188,0.017950791104191642,-0.003451635129749775,-0.0016481075435876846,0.0019487348617985845,0.0001519002701388672,0.10123187614604832,-9.80768742620945
3.2,1.5,190.0,24.104480743408203,-0.17493902146816254,-79.78281846744257,40.45906633073498,268.3336895227432,-0.007703915704041719,-0.0013027697568759322,-0.996481478214264,0.08344926685094832,-0.035093228889488286,-0.006879370711221403,0.01857871762341779,0.0006436058902181685,-0.0004131714522372931,-0.006110500544309615,-0.0052072070643771435,0.11105329809710383,-9.805613418817519
3.3,1.600000023841858,192.0,24.109487533569336,-0.20674611628055573,-79.78281837693892,40.45906635742687,268.33725090026854,-0.007727753836661576,-0.001309750135987997,-0.996478259563446,0.08348481357097626,-0.04577158794640555,-0.009408315714611898,0.01843021363346441,-0.005692381411790848,-0.0011337418109178545,-0.010474588721990584,0.00016692630102625117,0.08881002380512655,-9.809186067581175
3.5,1.600000023841858,194.0,24.1144962310791,-0.1908425688743592,-79.78281830563655,40.459066402058774,268.3366262435913,-0.007692707236856222,-0.0013242090353742242,-0.9964787364006042,0.08348234742879868,-0.03342641928024033,-0.012049746847598202,0.015290251857522209,0.007548794616013765,0.0058540264144539824,0.005075862165540457,0.0010807366149674636,0.09573852667585016,-9.808732908368107
3.6,1.600000023841858,194.0,24.11074066162109,-0.17493902146816254,-79.78281816461819,40.45906644783051,268.3384079456329,-0.0076743727549910545,-0.001314430614002049,-0.9964780807495116,0.08349201083183289,-0.03071738746528086,-0.00984290748251429,0.01689409079447621,0.003265053499490023,0.002351151779294014,-0.004695759620517492,-0.0019525874464306984,0.09863745742477477,-9.808322433829307
3.8,1.7000000476837158,195.0,24.10698509216309,-0.20674611628055573,-79.78281812764078,40.45906646220114,268.34004480838774,-0.0076980413869023314,-0.0013119440991431475,-0.9964764714241028,0.0835091695189476,-0.03550427012458991,-0.011193481139413649,0.016911141535364816,0.0022820883896201853,-9.379633411299437e-06,0.008718430064618587,0.0016981357788608876,0.0887899879552424,-9.810529757738117
3.91,1.7000000476837158,194.0,24.117000579833984,-0.198794350028038,-79.78281798751138,40.45906646981521,268.3419806480408,-0.007687630131840706,-0.0012847332982346411,-0.9964776039123536,0.08349647372961044,-0.032108152331700286,-0.0029956172904724303,0.017599531849736626,0.006126168183982372,0.0007797633879818022,0.005853451322764157,-0.003213225156941917,0.11537287384271624,-9.807386294603347
4.1,1.8999999761581416,197.0,24.1144962310791,-0.1908425688743592,-79.78281794691001,40.459066478287966,268.3436914205551,-0.007705045863986015,-0.0012766598956659436,-0.9964758157730104,0.08351662755012512,-0.03843106939083101,-0.004125696926614132,0.017694916043713583,-0.008238404989242555,-0.001362005015835166,-0.003028280334547162,0.001931610988540342,0.09335361186414956,-9.80881535410881
4.2,2.0,198.0,24.11950492858887,-0.11132483184337616,-79.78281786177519,40.459066511161545,268.3456357240677,-0.00767791923135519,-0.001272807945497334,-0.9964757561683656,0.0835198238492012,-0.02729975510527497,-0.005852160063357892,0.01833494443957269,-0.0004433428985066712,-0.0008685864740982653,0.00656076380982995,-0.0035327141080051657,0.10406881727278232,-9.80789792597294
4.4,2.0,197.0,24.11074066162109,-0.18289080262184146,-79.78281782819826,40.45906652148389,268.34742338657384,-0.0076916334219276905,-0.0012695314362645151,-0.9964768886566162,0.08350572735071182,-0.032527582631489825,-0.007005128429893123,0.0184028270625158,-0.00013871518603991717,-0.003171725431457162,-0.008480869233608246,-0.004192988951399457,0.11394123790785672,-9.806477637290957
4.5,2.0,196.0,24.109487533569336,-0.1908425688743592,-79.7828176837067,40.45906657754789,268.3498199701309,-0.007706820499151945,-0.0012742957333102822,-0.9964745044708252,0.08353177458047867,-0.035871711131608953,-0.010455184890906744,0.018989408806988742,-0.007770682219415903,-0.0036400307435542345,-0.010887174867093565,0.002078112291492289,0.08860112288966776,-9.810152027606962
4.7,2.0,199.0,24.11199188232422,-0.1908425688743592,-79.78281756135766,40.45906661117818,268.35025889873504,-0.007686420343816278,-0.0012670304859057069,-0.9964740872383118,0.08353837579488754,-0.03185653059050631,-0.011104413110201302,0.01914641957694534,0.005376033950597048,0.0024585630744695663,0.011200785636901855,0.0017919713132141626,0.08928202201612294,-9.809250386953355
4.8,2.0999999046325684,199.0,24.104480743408203,-0.198794350028038,-79.78281747845045,40.45906664445944,268.3539729833604,-0.00771772675216198,-0.001315851928666234,-0.9964742064476012,0.08353373408317566,-0.041722189953636905,-0.013882980677430323,0.0190234577152632,0.008928224444389343,0.003196997102349997,0.007434679660946132,-0.0019513614726020024,0.11002666407264768,-9.808121289610863
5.0,2.0999999046325684,196.0,24.113245010375977,-0.15108370780944824,-79.782817414169,40.45906663568086,268.3522384881973,-0.007660008501261474,-0.0012852338841184974,-0.9964755177497864,0.08352472633123398,-0.028088692439745558,-0.006412243270406492,0.01512377564568969,-0.006179880350828171,-0.005800755694508553,-0.008048620074987411,-0.0012325502332532778,0.11111742560751736,-9.807906112074852
5.1,2.0999999046325684,197.0,24.10698509216309,-0.18289080262184146,-79.78281731007992,40.45906669567978,268.35507757663726,-0.007615258451551198,-0.001294362242333591,-0.9964755773544312,0.0835278183221817,-0.021506815077197226,-0.015310197159424185,0.017143580206989386,-0.005163558293133974,-0.0012848899932578206,-0.005853846669197082,-0.002657185783318709,0.09924702052026987,-9.807490959763527
5.31,2.200000047683716,198.0,24.11574935913086,-0.20674611628055573,-79.7828172857428,40.459066713469355,268.35674102306365,-0.007634281646460296,-0.0013148123398423195,-0.996475875377655,0.08352160453796388,-0.02542941300380651,-0.01669516341711099,0.01694602996012577,0.004738894291222096,0.0024885428138077268,-0.0004256281245034188,0.0029523822371265852,0.10531325094401836,-9.808981999754906
5.4,2.0999999046325684,199.0,24.11199188232422,-0.13518016040325165,-79.7828171514481,40.45906673529142,268.3576596498489,-0.007632900495082141,-0.0013130084844306116,-0.9964752197265624,0.08353007584810257,-0.02588492400825688,-0.012806033570115906,0.015005822074107406,-0.00027509796200320125,0.0041134594939649105,-0.001606113277375698,0.003049660719407257,0.09739179035648704,-9.8103028857708
5.6,2.0999999046325684,196.0,24.10823631286621,-0.09542128443717957,-79.78281712085463,40.45906675150989,268.35910947322844,-0.007654354907572269,-0.0013201041147112846,-0.9964756965637208,0.08352258056402206,-0.03026750044341789,-0.01420483853851216,0.014832655734020013,0.003261299105361104,0.0017027793219313025,0.007825273089110851,0.0012783136892539914,0.09053958451375366,-9.809011820554732
5.7,2.0,195.0,24.103227615356445,-0.09542128443717957,-79.78281698081584,40.45906677598076,268.35999376773844,-0.007643759250640869,-0.001321379444561899,-0.9964767694473268,0.08351054042577744,-0.029238538260183505,-0.01179098046283958,0.012823865906796536,0.006206660997122526,0.00266917166300118,0.0039339810609817505,-0.004340535501250998,0.11448043341748415,-9.806469451189043
5.9,2.0,194.0,24.103227615356445,-0.11132483184337616,-79.78281694530047,40.45906679175679,268.3612282991409,-0.0076553672552108765,-0.0013222356792539358,-0.9964753985404968,0.08352519571781157,-0.03552302916893947,-0.01272567996343035,0.0129550477886108,-0.004712509457021953,0.0005984866293147206,-0.007149357814341784,-0.002261478890141007,0.10473254933953284,-9.808652801513672
6.0,2.0,193.0,24.094463348388672,-0.14313192665576935,-79.78281677679256,40.459066811643254,268.3597671508789,-0.007638627663254738,-0.001306468271650374,-0.996474266052246,0.08354014903306961,-0.0378931203785491,-0.0102252724489886,0.007703551254488553,-0.0028337338007986546,-0.0021744093392044306,0.004515425767749548,-0.001491999300196767,0.10313197455368936,-9.807524288892749
6.2,2.0,191.0,24.09947204589844,-0.11927660554647446,-79.78281672887617,40.45906683043701,268.35994906425475,-0.007570043671876192,-0.001313172746449709,-0.9964766502380372,0.08351850509643555,-0.01857298096637896,-0.013106198259132996,0.008504343649485819,-0.0012331693433225155,0.0025469900574535127,-0.003854640293866396,-0.005595230350736529,0.11278770103119315,-9.805407596826551
6.31,2.0,189.0,24.105731964111328,-0.11132483184337616,-79.78281670732288,40.45906684577571,268.36076147556304,-0.007576923351734877,-0.0013120375806465745,-0.9964761734008788,0.08352405577898027,-0.02267107716941849,-0.014570160857967604,0.008369282033252263,0.002776233945041895,-0.0014963848516345026,0.008541975170373917,0.0013306461265892725,0.08861142860725522,-9.809342772960663
6.5,2.0,189.0,24.103227615356445,-0.10337305814027786,-79.782816560922,40.459066884132106,268.36049909591674,-0.0075758714228868484,-0.0013068057596683502,-0.9964770674705504,0.08351313322782516,-0.02602305059353838,-0.015498778376829397,0.005859530503299753,0.006636265199631453,0.002651347080245614,0.005434930324554443,0.002274849827808794,0.09479844971559942,-9.809111223220826
6.6,2.0999999046325684,189.0,24.09947204589844,-0.11132483184337616,-79.78281639016781,40.45906690673101,268.36153812408446,-0.007600429002195597,-0.0012790331384167075,-0.9964776635169984,0.08350389450788498,-0.029778800178806106,-0.011534327567809878,0.007339507089343465,0.004538850393146277,0.00359166762791574,0.0005175662226974964,-0.0016582398096215913,0.10375451115891338,-9.807496222257617
6.8,2.0999999046325684,186.0,24.09321212768555,-0.15108370780944824,-79.78281635455019,40.45906692236493,268.3622198820114,-0.007616106886416674,-0.0012719742953777313,-0.9964777827262878,0.08350136131048203,-0.035255647543556014,-0.012459764062507485,0.007305271393809444,-0.004089343827217817,-0.004990234971046448,0.0006436461117118598,-0.000212804674229119,0.09587703259661794,-9.808953348398207
6.9,2.200000047683716,185.0,24.096967697143555,-0.15108370780944824,-79.7828162080028,40.459066936604465,268.36386294364934,-0.007585053332149982,-0.0012751278700307012,-0.9964789152145386,0.08349046856164932,-0.030263863546692294,-0.009585477269744078,0.008088760327832765,0.0021915449760854244,0.001884630648419261,0.006431683432310821,-0.00032704450728488155,0.10773611783981324,-9.805832104682922
7.1,2.299999952316284,184.0,24.11074066162109,-0.11132483184337616,-79.78281617147127,40.45906695064257,268.3646237373352,-0.007608756888657807,-0.0012950379168614745,-0.996478259563446,0.08349549770355225,-0.03612273092243545,-0.010602254585951732,0.008211076579915511,-0.007204856257885695,-0.0014835715992376206,-0.004954516422003508,-0.0031796927456161947,0.11545055044814945,-9.807428394556046
7.2,2.4000000953674316,188.0,24.11199188232422,-0.15903547406196594,-79.7828160188734,40.459066997572656,268.36414868831645,-0.007571609690785408,-0.0013243150897324085,-0.9964784383773804,0.08349709957838057,-0.034890715584075666,-0.016716671402692618,0.004841462145171783,-0.005801062565296888,-0.00013085523096378893,-0.00509068975225091,0.0020613981911446907,0.09347957368008793,-9.808292028307916
7.4,2.5999999046325684,189.0,24.10698509216309,-0.09542128443717957,-79.78281597970981,40.45906701853401,268.36456031799315,-0.007580173201858996,-0.0013216554652899506,-0.9964783191680908,0.08349736034870148,-0.038478635948432295,-0.01830792503905328,0.004554196056788344,0.003180156694725156,0.0014932319754734635,0.00034215228515677165,-0.0027278340241173285,0.1036298923753202,-9.807509670853618
7.5,2.5999999046325684,190.0,24.103227615356445,-0.11132483184337616,-79.78281577721037,40.45906701817799,268.3645534038544,-0.007555704563856125,-0.0013034730218350887,-0.9964795708656312,0.08348516374826431,-0.04398878381938267,-0.010847565302969635,0.003306434231736864,-0.0003856080584228039,0.0008796523907221854,-0.004284370690584183,-0.0008329432929167522,0.0933676634542644,-9.810654888153076
7.7,2.799999952316284,193.0,24.104480743408203,-0.10337305814027786,-79.782815672836,40.45906704479125,268.3650002002716,-0.0075180353596806535,-0.0013033038703724742,-0.9964776039123536,0.08351265639066696,-0.030324180625407936,-0.016313854651095458,0.001961672852969586,0.002577494131401181,-0.0036048372276127343,0.00978311151266098,0.0025939484886475838,0.08762134881690145,-9.810280666351321
7.8,2.9000000953674316,191.0,24.104480743408203,-0.11132483184337616,-79.78281559742445,40.459067086501385,268.3652833223344,-0.007547791115939617,-0.0013011939590796828,-0.9964764714241028,0.08352280408143997,-0.039823883829831146,-0.018780511696517968,0.0019335152306874093,0.0032471390441060066,0.0005276829469949007,0.008723463863134384,-0.006331389662227594,0.11160425199195743,-9.807830682992936
8.0,3.0,191.0,24.09947204589844,-0.11132483184337616,-79.78281547781705,40.459067087085536,268.36568613052367,-0.007496269885450602,-0.0012922071618959308,-0.9964779019355774,0.08351030200719832,-0.03160567144747148,-0.01658531549207069,0.0011535992066847305,-0.0020567118190228943,0.0018447872716933489,-0.007145452313125134,-0.005756847619777546,0.11310766249895095,-9.806230884790422
8.1,3.0,193.0,24.09822082519531,-0.09542128443717957,-79.78281533902248,40.45906707950555,268.36712486743926,-0.007464328315109014,-0.0012733957264572382,-0.996478259563446,0.08350930362939835,-0.02248679154586189,-0.007974111012840313,0.0005106337154373592,0.0007361362804658711,-0.002504214178770781,-0.005134724546223879,0.0021045910706743607,0.08901066552847624,-9.81021634697914
8.3,3.0999999046325684,198.0,24.105731964111328,-0.198794350028038,-79.78281531192258,40.4590670908586,268.36714179515843,-0.007481567095965147,-0.0012881862930953505,-0.9964776635169984,0.08351469784975052,-0.02700617086860223,-0.009225105336307785,0.0005982078787108232,-0.0006192190339788795,-0.0011162400478497148,0.0028288408648222685,0.0006288773224514444,0.09238850151188673,-9.810290021896364
8.4,3.0,200.0,24.12075614929199,-0.17493902146816254,-79.78281512210592,40.459067112564185,268.3697129011154,-0.007468098774552345,-0.0012923456961289044,-0.9964786767959596,0.08350428938865663,-0.032003795904887826,-0.008073124418404935,0.0004943691150002896,-0.0041438438929617405,-0.0033819482196122412,0.001166159170679748,-0.003456968682585284,0.11212554040364922,-9.809115900993348
8.6,3.0999999046325684,201.0,24.117000579833984,-0.15903547406196594,-79.7828150843478,40.459067125463946,268.36970527172093,-0.007468624506145716,-0.0013073609443381429,-0.9964802265167236,0.08348435908555983,-0.035912962091639584,-0.009588592977042334,0.0003108511068049268,0.002402529586106539,0.0021996996365487576,-0.000871747441124171,-0.003715619467548095,0.10644378268159926,-9.806950092315674
8.7,3.2000000476837163,201.0,24.103227615356445,-0.198794350028038,-79.78281491140146,40.459067157714884,268.3728857755661,-0.007461311761289834,-0.001345779397524893,-0.9964797496795654,0.08349113166332245,-0.03340555589322395,-0.012523678474178249,0.00046937674508176113,0.0038960878737270828,0.0035488596186041828,0.0018349349265918136,0.0005573769813054241,0.09807813470251857,-9.808085621595383
8.9,3.2000000476837163,200.0,24.118253707885746,-0.198794350028038,-79.78281487180219,40.459067174659054,268.37287480831145,-0.0074708350002765656,-0.0013517045881599188,-0.9964792132377625,0.0834963247179985,-0.039086532767259735,-0.0136430150057146,0.0005747615664468201,-0.009492796845734121,-0.003817330813035369,-0.005223760847002268,-0.0024449332826770843,0.1025790198147297,-9.809966086149217
9.0,3.0,198.0,24.10823631286621,-0.1908425688743592,-79.78281469294383,40.45906719175528,268.3784015893936,-0.007447673473507166,-0.0013483937364071608,-0.996480405330658,0.08348356932401657,-0.03656605776492591,-0.011678405307968688,0.003744589201441949,-0.003189601702615619,-0.002024413319304585,0.0073107900097966185,-0.0019669942092150447,0.10725110043771566,-9.808023641109466
9.2,3.0,199.0,24.109487533569336,-0.1908425688743592,-79.7828146211302,40.459067166758224,268.3845809221268,-0.007358088623732328,-0.0013187959557399154,-0.9964815974235536,0.08347782492637634,-0.01588021363414819,-0.004749374081467083,0.006730238278627446,-0.0016754188109189276,0.0017241030000150206,-0.00566713185980916,-0.004417938589467667,0.11095402333885432,-9.80587186574936
9.3,3.0,198.0,24.10823631286621,-0.18289080262184146,-79.7828145764924,40.459067183769626,268.38588387966155,-0.007377241738140583,-0.0013257639948278663,-0.9964829683303832,0.08346056938171388,-0.025056841435990292,-0.007526528615340477,0.006899969164237826,-0.002190305152907968,9.748246520757675e-05,-0.008157981559634209,-0.0001488242007326335,0.08808994833379985,-9.810109927654267
9.5,3.0,197.0,24.104480743408203,-0.18289080262184146,-79.78281439636844,40.45906722207813,268.39149112701415,-0.007386993616819381,-0.0013303353916853664,-0.9964826107025146,0.08346361666917801,-0.0298544094832183,-0.01195323674636585,0.008008816783100996,0.005243975203484297,0.0013681964483112097,0.008789957500994205,0.0010473873573937453,0.0898955045733601,-9.810127469301225
9.6,3.0999999046325684,196.0,24.11574935913086,-0.16698725521564484,-79.78281423435159,40.45906723519273,268.39608068466185,-0.007352809887379408,-0.0012927945936098695,-0.9964806437492372,0.08348998427391052,-0.02381113818231038,-0.007226122400127353,0.00545189015004501,0.00912639033049345,0.0010984070831909776,0.009998541325330734,-0.003769852392724715,0.11431481103412808,-9.807164100408556
9.8,3.0999999046325684,190.0,24.10823631286621,-0.1908425688743592,-79.78281420445836,40.45906724607973,268.39658815860747,-0.00736628333106637,-0.0012927477946504946,-0.9964810609817504,0.0834842398762703,-0.02987945668598182,-0.008146767351892105,0.005600003285899719,-0.006961729377508164,-0.00027770537417382,-0.008560935035347939,-0.00414022610988468,0.1163962096720934,-9.807748237252236
9.91,3.0999999046325684,191.0,24.113245010375977,-0.18289080262184146,-79.78281404978499,40.45906729990555,268.40271241664885,-0.0073461784049868575,-0.0012854954693466425,-0.9964801073074341,0.08349742740392685,-0.0272719397728424,-0.015865460692748627,0.0077982804837158064,-0.0017879995284602046,0.0004265017632860689,-0.009099519811570644,0.004309057609643788,0.08624738104641437,-9.811460634469986
10.1,3.2000000476837163,191.0,24.105731964111328,-0.1908425688743592,-79.78281401909557,40.45906731896271,268.4034388780594,-0.007365839555859566,-0.0012908471981063485,-0.9964784979820251,0.08351458609104156,-0.031050261671726108,-0.017318329011913908,0.007656845198602263,0.001757300109602511,-0.0010043832007795572,0.007393224164843559,-0.00037621436611516405,0.08763634144328535,-9.810382407903672
10.2,3.2000000476837163,189.0,24.10698509216309,-0.15903547406196594,-79.78281384806206,40.45906732453558,268.41016907691954,-0.007322235498577356,-0.001256008283235133,-0.9964784383773804,0.0835203155875206,-0.030473211208401883,-0.009832524277991658,0.008769953066221439,-0.008604886010289192,-0.003164776600897312,-0.0020441871602088213,-0.00308646191842854,0.10813478831201792,-9.807214971184733
10.4,3.2000000476837163,189.0,24.11574935913086,-0.16698725521564484,-79.78281381280001,40.45906733877322,268.41099257469176,-0.007308673579245807,-0.0012547726510092616,-0.9964786171913148,0.08351882547140121,-0.03332503792559866,-0.011340501931128386,0.008573046516431376,0.0098258713260293,-0.0012933219550177455,0.0021191395353525877,0.0004711753752781079,0.09774870805442333,-9.808441717028616
10.5,3.0999999046325684,190.0,24.109487533569336,-0.17493902146816254,-79.78281367657459,40.45906736328249,268.4174196243286,-0.007282403763383627,-0.0012422093423083427,-0.9964776635169984,0.08353286236524582,-0.02850191429463564,-0.01063883857597238,0.008996824798045828,0.008377172984182835,0.0015911695081740618,0.00992779154330492,-0.003547910587512888,0.11166619593277574,-9.807026106119157
10.7,3.299999952316284,192.0,24.1144962310791,-0.198794350028038,-79.7828135695432,40.45906738676632,268.4213772535324,-0.007231529336422681,-0.0012473749229684472,-0.9964762330055236,0.08355458080768585,-0.02046826503346531,-0.011988815885706997,0.005716517661863486,-0.00782523863017559,-0.003599958494305611,-0.009911177679896356,-0.002978352953796275,0.11537851092405615,-9.807830098271367
10.8,3.4000000953674316,192.0,24.104480743408203,-0.20674611628055573,-79.78281351918028,40.45906741767961,268.4224051952362,-0.007235649973154069,-0.0012589467223733664,-0.9964734315872192,0.08358751237392427,-0.028789068965822014,-0.014355217788184087,0.005488395963750664,-0.007314112037420274,-0.004050484858453275,-0.011995759792625904,0.0018681581348937472,0.08946457391604781,-9.809484860301016
11.0,3.4000000953674316,190.0,24.11574935913086,-0.198794350028038,-79.78281338696955,40.45906743888796,268.4267998456955,-0.007221147418022157,-0.0012395052472129464,-0.9964735507965088,0.0835866928100586,-0.023504072219123325,-0.014249576834176162,0.0033773574475734623,0.0069491364993155,-0.00024995856801979244,0.009685788303613664,0.004648427664942574,0.0876136926189065,-9.808248174190524
11.1,3.4000000953674316,190.0,24.105731964111328,-0.1908425688743592,-79.78281325751838,40.45906745899376,268.4337815761566,-0.007183792535215615,-0.0012256340123713017,-0.9964724779129028,0.08360327035188675,-0.016372326859518338,-0.011038835620012163,0.006486162802611747,0.0047947182320058354,0.0017071858746930955,0.011207418516278269,-0.004317940352484584,0.11537496604956687,-9.804545132517816
11.3,3.5,192.0,24.113245010375977,-0.198794350028038,-79.78281323747807,40.45906747190278,268.43440027236943,-0.007185571826994419,-0.0012262881500646472,-0.9964721798896792,0.08360733836889267,-0.021878912092866087,-0.01182313048334198,0.006537638823345775,-0.007494302466511726,-0.002386760199442506,-0.013172317296266556,-0.005755219078855589,0.11512867036275565,-9.806347244381906
11.4,3.5,194.0,24.109487533569336,-0.16698725521564484,-79.78281305823812,40.459067478054145,268.44154925346373,-0.007179441396147013,-0.0011999490670859814,-0.9964712858200072,0.08361853659152985,-0.025487342076350474,-0.004860840467486811,0.008130599550735095,-0.00641791382804513,-0.004857427440583706,-0.008283642120659351,0.0014690845245786475,0.08857020573690534,-9.809107714891434
11.6,3.4000000953674316,193.0,24.1144962310791,-0.17493902146816254,-79.78281302819731,40.459067487034616,268.4423093318939,-0.007194912526756525,-0.0012021049624308946,-0.9964721202850342,0.08360747992992401,-0.02781911504890534,-0.0063002732945835185,0.007871348847811625,0.005931372754275799,0.002566336886957288,0.005885560065507889,0.0013240243261680008,0.09291855161078276,-9.808783194422725
11.71,3.4000000953674316,193.0,24.12576484680176,-0.11132483184337616,-79.78281286196274,40.45906751695343,268.44928975105285,-0.007154441904276609,-0.0011923129204660654,-0.9964730143547058,0.0836002305150032,-0.02914593164413392,-0.006737443881003025,0.008592235815480182,0.007202031556516886,0.0014126983005553484,0.007945373654365541,-0.0026404775358969353,0.10862463880330324,-9.807972770333286
11.9,3.4000000953674316,191.0,24.11199188232422,-0.18289080262184146,-79.78281282643223,40.459067528160354,268.450097155571,-0.007176249753683806,-0.0012086490169167519,-0.9964723587036132,0.08360586315393448,-0.03425307416939162,-0.007635341881129675,0.008518164724891239,-0.008581993170082569,-0.003149829339236021,-0.0023328575771301985,-0.0005236598459305242,0.09868995445780457,-9.807535983324053
12.0,3.5,192.0,24.10823631286621,-0.1908425688743592,-79.78281270888527,40.459067534351966,268.45562369823455,-0.007143521215766668,-0.0012026589829474688,-0.9964730739593506,0.08360028266906737,-0.0264821751522919,-0.004032505802795352,0.005537097990491995,-0.002497025765478611,-0.002517924876883626,0.004316085483878851,-0.002745681165251881,0.10485533173196017,-9.807344779372217
12.2,3.299999952316284,192.0,24.10823631286621,-0.198794350028038,-79.78281258805936,40.45906753683426,268.46112926006316,-0.007084786891937256,-0.0012104636989533901,-0.9964743256568908,0.08359001576900482,-0.0210147835432252,0.00010387788168358578,0.003907570978048243,0.0009514139383099972,0.002216978929936886,-0.0010797720169648528,-0.001102551611547824,0.11134938647970558,-9.807830682992936
12.3,3.299999952316284,192.0,24.11074066162109,-0.20674611628055573,-79.78281256127639,40.45906754068772,268.4614815235138,-0.007112860679626466,-0.0012044832110404964,-0.996473491191864,0.08359777927398683,-0.024935147270419532,-0.0011763772543135096,0.003777740497907014,0.0014968941686674953,-0.0004330650554038584,0.0064261965453624725,9.852158662397414e-05,0.08810614694841208,-9.810228041410447
12.51,3.0999999046325684,196.0,24.113245010375977,-0.18289080262184146,-79.78281242061678,40.45906758181923,268.4678062915802,-0.007112436927855016,-0.0012017349945381286,-0.9964740872383118,0.08359145373106003,-0.02405223084183218,-0.006724460329392522,0.0026289429115769185,0.004347020760178566,0.0018356941873207688,0.008196407929062843,0.002790222501789685,0.09019625245593488,-9.80876857638359
12.6,3.0999999046325684,195.0,24.113245010375977,-0.18289080262184146,-79.78281229041934,40.45906761162753,268.47389550209044,-0.007107757497578859,-0.0012101040920242667,-0.996474266052246,0.08358943462371826,-0.02216307715991238,-0.007476205537715027,0.0020494998410547863,0.0065437494777143,0.001665670657530427,0.007231737952679396,-0.0031741710097412572,0.11558590435422958,-9.805901101827622
12.8,3.0999999046325684,196.0,24.10823631286621,-0.198794350028038,-79.78281226305663,40.45906762231297,268.474064540863,-0.007127247750759125,-0.00121445138938725,-0.996474027633667,0.08358977735042572,-0.027376152383557624,-0.008148323855433624,0.0020399249448817213,-0.00964929535984993,-0.0033389318268746138,-0.004758564289659262,-0.0007871948261163197,0.103165714815259,-9.807807878851893
12.9,3.0,196.0,24.11074066162109,-0.16698725521564484,-79.78281210804244,40.45906762764074,268.480616402626,-0.007100923452526331,-0.0011957446113228798,-0.9964725971221924,0.08360960334539412,-0.027936723641223384,-0.002887260152184041,0.00150106493744654,-0.002535903127864003,-0.00199164217337966,0.007668768055737019,-0.0017992977488029286,0.1057650853972882,-9.806624987125398
13.1,3.0,197.0,24.105731964111328,-0.1908425688743592,-79.78281207394902,40.45906763507392,268.48072190284734,-0.0071022752672433844,-0.0012140467297285795,-0.9964736104011536,0.08359722793102264,-0.032099629208145665,-0.003886201514359697,0.0015513967770122762,-0.002988244174048305,0.0014291040133684876,-0.00981535203754902,-0.00645023888850119,0.11532375723123553,-9.806348998546602
13.21,2.9000000953674316,196.0,24.11199188232422,-0.21469789743423465,-79.78281193959636,40.45906765196394,268.48751814365386,-0.007084368262439965,-0.001209332374855876,-0.9964734315872192,0.08360066264867783,-0.02935351506673061,-0.004730689158192969,0.0014235476723961152,-0.006495506968349218,-0.0017650596564635637,-0.0073610423132777205,0.003897795638185926,0.09007202653214336,-9.810575366020203
13.4,3.0999999046325684,199.0,24.11074066162109,-0.1908425688743592,-79.78281190489578,40.45906766131472,268.4876008749008,-0.007098077796399593,-0.0012261460069566965,-0.9964740872383118,0.08359186351299286,-0.03176060476570513,-0.006315027231649839,0.0011094154552862164,0.008943024091422558,0.0011447025462985039,0.008287499658763409,-0.00018558400101028385,0.09659222016111016,-9.807623106837275
13.5,3.0,198.0,24.09947204589844,-0.2306014448404312,-79.78281178391741,40.45906765497689,268.4942373752594,-0.007094689644873142,-0.00125668675173074,-0.996474266052246,0.08358914405107498,-0.028462017484725526,-0.0025479346280606525,0.0010308257785362977,0.003423701273277402,0.003953199367970228,0.0035752216354012494,-0.002876545163453557,0.10418928818777204,-9.807168778181076
13.7,3.0999999046325684,196.0,24.103227615356445,-0.20674611628055573,-79.78281170748757,40.45906767704325,268.5035159111023,-0.007061996031552553,-0.0012491047382354734,-0.9964730739593506,0.0836062803864479,-0.022178916970287885,-0.006752253230587349,0.007213272613283719,-0.0030134303960949183,-0.003426845883950591,0.004069584887474775,-0.0013760025901137852,0.09228714368306098,-9.809193084239961
13.81,3.0,196.0,24.1144962310791,-0.20674611628055573,-79.78281165022321,40.459067699027074,268.5048596382141,-0.007077944464981556,-0.0012633163714781404,-0.996473491191864,0.08360026776790619,-0.02912775250245129,-0.00921705143706055,0.006871604923866297,0.007346950937062502,-0.0005695114959962666,0.007456653285771607,-0.006657040744903498,0.11591446305625144,-9.805498813390733
14.0,3.0,193.0,24.117000579833984,-0.17493902146816254,-79.7828115823821,40.45906770198252,268.51894505023955,-0.007030434440821409,-0.0012540774187073116,-0.9964722990989684,0.08361785113811493,-0.02146881738709631,-0.0079624498405774,0.022447306446451463,-0.008915038779377937,0.00029816004098393023,-0.011979450471699238,-0.002706481408677064,0.1133439905103296,-9.805732117295266
14.1,3.0,191.0,24.113245010375977,-0.18289080262184146,-79.7828114197342,40.45906769820152,268.53226668834685,-0.007025209255516529,-0.0012304490664973855,-0.9964706301689148,0.08363939076662064,-0.030992492000220837,-0.001705855522261184,0.0292972585011948,-0.005118383094668388,-0.00377821084111929,-0.010106991976499556,0.0009764134940633084,0.09335567666217684,-9.808483816981317
14.3,3.0,188.0,24.11199188232422,-0.2306014448404312,-79.78281138231198,40.459067705363424,268.53513355255126,-0.007016835734248161,-0.0012294232146814466,-0.9964700937271118,0.0836462676525116,-0.033360466247046215,-0.003204232052339316,0.02896968107816713,0.007408011239022016,0.003770779818296433,0.005694931838661432,0.0006774802326253847,0.1017399352323264,-9.807478680610657
14.4,2.9000000953674316,187.0,24.09947204589844,-0.22264966368675232,-79.78281130339663,40.45906767692336,268.54750366210936,-0.006973044946789742,-0.0011874178890138865,-0.9964678883552552,0.08367681503295897,-0.023776293421366262,0.002845979499718567,0.02975015196921172,0.005821601022034884,0.0015275765908882026,-0.002119263401255012,-0.0012899397412547845,0.09757163791917264,-9.807579837441443
14.6,2.9000000953674316,185.0,24.09195899963379,0.2703603208065033,-79.78281127239589,40.45906767886175,268.550439786911,-0.006995032541453838,-0.0011976850219070911,-0.9964651465415956,0.08370708674192429,-0.027389293575679027,0.0017233809188312635,0.029664914268942275,-0.00022841157624498007,-0.00017106710583902895,0.008770531974732876,0.001029319375375053,0.0896121887024492,-9.808625319600106
14.7,2.9000000953674316,185.0,24.059406280517567,0.18289080262184146,-79.78281116771582,40.45906766993395,268.5590338230133,-0.00698683923110366,-0.0012084321351721885,-0.9964651465415956,0.08370800316333771,-0.02762245101573673,0.0015431519777860075,0.02435681642871835,0.005440652370452881,0.0011841279920190573,0.009012570604681969,-0.007835260409046895,0.10673905793577433,-9.806174166798591
14.9,2.9000000953674316,183.0,24.09571647644043,0.11132483184337616,-79.78281113265544,40.45906767348093,268.5614386320114,-0.006999565288424492,-0.0011913067428395152,-0.9964627027511596,0.08373662829399109,-0.032707235449583025,0.0009476853425939306,0.024475503923091776,-0.012324630282819271,-0.004607853014022112,-0.012466766871511936,0.0004599583143135533,0.11876286107115447,-9.804097235798835
15.0,2.700000047683716,183.0,24.09195899963379,0.13518016040325165,-79.7828110662479,40.459067678599354,268.56726653575896,-0.006947006564587355,-0.0011966581223532555,-0.9964615106582642,0.08375433832406998,-0.026038798078521247,-0.0024782349698949397,0.015720834923761903,-0.008416404016315937,-0.00025657814694568515,-0.0048499261029064655,0.004887902266345919,0.09714490081183612,-9.805644993782044
15.2,2.5999999046325684,184.0,24.08820343017578,0.11132483184337616,-79.78281098382875,40.45906767427915,268.5725810050964,-0.006915286649018526,-0.0012088257353752851,-0.996463656425476,0.08373165875673294,-0.022699625258128152,-0.002308588209639401,0.00948602913076809,0.004477618262171745,-0.0011352821020409465,0.003233523340895772,-0.0032938484963960946,0.10329362265765668,-9.805020511150358
15.3,2.5999999046325684,183.0,24.08820343017578,0.11927660554647446,-79.78281092218428,40.45906768813409,268.57440264225005,-0.006929860450327396,-0.0012162986677139993,-0.9964622855186462,0.08374666422605515,-0.030360924504014838,-0.0040883749636944685,0.009320205052118127,0.007058541290462017,-0.0011515180813148618,0.0008051051408983768,-0.002792259034467861,0.10265141565352676,-9.805542667508126
15.5,2.5999999046325684,184.0,24.09571647644043,0.20674611628055573,-79.78281092151248,40.45906767056781,268.58037955760955,-0.006880150642246008,-0.0011872219620272515,-0.9964604377746582,0.0837738886475563,-0.015419304108837947,-0.0009486069922075908,0.00607845418554675,-0.0004695076495409012,-0.0018829504260793328,0.004616758320480585,0.0017267935595009474,0.08389186676591635,-9.805759014487268
15.6,2.5,186.0,24.083194732666016,0.2544567584991455,-79.78281081575864,40.45906765951421,268.58815569877623,-0.006874872371554375,-0.0012172682909294965,-0.9964610934257508,0.08376488834619522,-0.01990991803771026,-0.0002014472861709951,0.005039698615788289,0.004152640234678985,-0.001531129702925682,0.011013505049049854,-0.003350058282958344,0.11566670556552708,-9.803478600382805
15.8,2.5,188.0,23.47219467163086,6.53635835647583,-79.78281079041554,40.45906766322126,268.5886284828186,-0.00686189578846097,-0.0012251740554347634,-0.9964641332626344,0.08372998237609862,-0.025123524613761068,-0.0011124802657203883,0.005687774297928842,-0.008969290181994438,0.0024681733921170235,-0.01503177545964718,-0.004940747619839385,0.12004481742158532,-9.808114857673646
15.9,2.4000000953674316,189.0,24.04187774658203,0.5645759701728821,-79.78281072704519,40.45906765760075,268.5964717388153,-0.006858748383820057,-0.0011944245779886842,-0.9964588284492492,0.08379398286342621,-0.019403599963098626,-0.0031555302946612465,0.003439878812716644,-0.004577187355607748,-0.0022531452123075732,-0.0017000996740534902,-0.012770503994543108,0.09117473831400276,-9.785722945332527
16.1,2.5999999046325684,189.0,24.09195899963379,0.07156596332788467,-79.78281070435206,40.45906766384197,268.59675748348235,-0.006836675573140383,-0.001178970909677446,-0.9964620471000672,0.08375754207372665,-0.020393831486985373,-0.00466647174948426,0.003299643141646776,0.014026544988155363,0.013948746025562286,0.006312812678515911,-0.01768212402937934,0.09237035687081516,-9.809569060206414
16.2,2.5999999046325684,188.0,23.77644348144531,3.6896231174468994,-79.78281060729445,40.459067636605184,268.60189492702483,-0.006789659149944782,-0.0012046332703903315,-0.996462881565094,0.08375182002782823,-0.020819326615932082,0.00030797063554812375,-0.002325946988336907,0.03806538134813309,0.02124131098389625,0.014872053638100626,-0.00862681980477646,0.1056748098693788,-9.813738709688186
16.4,2.5999999046325684,186.0,24.08444786071777,0.07951773703098297,-79.78281057815666,40.45906764077567,268.6016432762146,-0.0068173925392329675,-0.0012442804872989655,-0.9964590668678284,0.08379410207271576,-0.02999907617525628,-0.0014372463591789564,-0.0022390263968797533,-0.018160201609134674,0.006934369448572397,-0.017265591770410538,-0.0042031384957954285,0.15568982776254414,-9.812250008583069
16.51,2.5,184.0,24.0856990814209,0.04771064221858978,-79.78281046538049,40.45906766162518,268.6115557670593,-0.0068220775574445724,-0.0012392300413921475,-0.9964575767517092,0.08381139487028122,-0.030819075113071057,-0.0072466971666585766,-0.000619641871182111,0.023851098492741585,0.003937242552638054,-0.0014886510325595734,-2.6092057814821602e-05,0.09891390281729401,-9.812327191829684
16.7,2.5,183.0,23.93420219421387,3.0614330768585205,-79.78281040265243,40.459067636707246,268.61972243785857,-0.006791530642658472,-0.0012397156096994875,-0.9964601397514344,0.08378306031227112,-0.02679331461736088,-0.004272979307698452,0.00021235386883278808,-0.0011300001060590148,0.002585842041298747,-0.010526863858103752,-0.014903048638952896,0.10504903902299703,-9.79310563981533
16.81,2.5999999046325684,183.0,23.862834930419922,4.588173389434815,-79.78281033773254,40.459067652995344,268.61966772079467,-0.0067530344240367395,-0.0012688683345913887,-0.9964587092399596,0.08380298316478729,-0.032542461548289665,-0.00745561211481083,-6.267083443513451e-05,0.013732291758060457,0.028141757473349568,-0.005603540688753128,0.021002182213123888,0.08306086778640748,-9.820724962949754
17.0,2.5999999046325684,183.0,23.73136901855469,6.464792251586914,-79.78281030986034,40.45906763714282,268.62847526073455,-0.006748608313500881,-0.00124339631292969,-0.9964589476585388,0.08380116522312164,-0.020371068316524483,-0.006198701605438735,0.0005337110979092868,0.0075440951623022565,0.014456283301115038,-0.00451180012896657,-0.007626770054921508,0.05429515691008418,-9.795523463487628
17.11,2.5999999046325684,183.0,23.68379211425781,7.6893653869628915,-79.78281021323913,40.45906761605902,268.6382779598236,-0.006451123394072056,-0.0011821808293461802,-0.9964644908905028,0.08375964313745499,-0.02758599595162712,-0.0003880431366545868,-0.00037281057243384436,0.013231299817562105,0.00377862760797143,0.03488709032535553,-0.0015448686364106835,0.05186024840455503,-9.808224200606347
17.3,2.5999999046325684,178.0,23.50975608825684,10.48838996887207,-79.78281018608091,40.45906762068228,268.6384216070175,-0.006232378073036671,-0.0010430165566504002,-0.9964669942855836,0.0837477445602417,-0.019569211120789173,-0.004264079293984546,0.0032940669626899265,0.008254779502749443,0.1032773107290268,-0.043643869459629066,-0.011951642555650323,0.10274678922258318,-9.872850551605225
17.4,2.5,180.0,23.413349151611328,11.339229583740234,-79.78281016479957,40.459067658151945,268.6479025602341,-0.004934348631650209,-0.0011055012000724671,-0.9964786767959596,0.08369378745555878,-0.005943257107695714,-0.01534555369603502,0.004637617417529711,0.12477797269821167,0.11655452102422716,-0.06273176521062851,0.053424552180804316,0.10182260024361313,-9.801066039204596
17.6,2.5,178.0,23.26435470581055,15.23559856414795,-79.78281015386797,40.459067672468365,268.64843173027043,-0.0036188070662319656,-0.0010950049618259072,-0.9964941143989564,0.08357735723257065,-0.010216954569437458,-0.00627704560201275,0.009621857518960795,0.06504935771226883,0.08937525749206543,-0.09031540155410768,0.17409945733845233,0.12501919909380374,-9.874464383125305
17.7,2.4000000953674316,179.0,23.139148712158203,16.746435165405273,-79.78281008859602,40.45906764558888,268.65470917224883,-0.0015190697740763426,-0.002077103592455387,-0.99650901556015,0.08344602584838867,-0.024647715730224583,-0.016980197916193002,0.008420569537866908,-0.04216846823692322,-0.004516006913036108,0.061249405145645135,-0.05565695516299456,-0.0971497247647494,-9.805593538284302
17.9,2.299999952316284,180.0,22.9638614654541,20.444011688232425,-79.78281007139331,40.45906766398856,268.6556995630264,-0.0003363968862686306,-0.0032032437156885862,-0.9965068101882936,0.08344981074333191,-0.023797327305405343,-0.012437613780527094,0.006142998423090075,-0.01204840373247862,-0.06450586020946503,-0.027774101123213768,-0.009047049600631,0.04145849029999227,-9.73328803896904
18.0,2.299999952316284,180.0,22.84366607666016,22.0025577545166,-79.78280993475961,40.459067666375375,268.6684188365936,-0.0035218943376094103,-0.0019975921604782343,-0.9965056777000428,0.08342690765857698,-0.06183480735402076,0.004559773202553431,0.02642978765235426,-0.10298029333353044,0.008127214387059212,-0.06302294135093689,0.2452682213857769,-0.2381970373168588,-9.897659118175508
18.2,2.200000047683716,183.0,22.59075164794922,26.3521785736084,-79.78281002776392,40.45906766354372,268.6658645391464,-0.0063599240966141215,-0.003457680577412248,-0.9964542984962464,0.08382447808980943,-0.053654363754485936,-0.006439550051997505,0.05162733981711516,-0.13293574750423431,0.09265805035829544,-0.08326233923435211,-0.07946338662877679,0.07201160363852978,-10.061541370153428
18.3,2.200000047683716,184.0,22.50060272216797,27.87891960144043,-79.78280986682857,40.45906768530345,268.6895838499069,-0.009104820899665356,-0.004417320713400841,-0.9958949685096741,0.08994919806718826,-0.11048261493906468,0.004370401767913623,0.2250279425231258,-0.14112839102745056,-0.029877806082367894,-0.020263321697711945,0.14076765119098128,0.13752537924796346,-10.352903448343275
18.5,2.0999999046325684,186.0,22.78231430053711,22.018461227416992,-79.7828097738889,40.4590676154143,268.70492000579844,-0.011741542257368565,-0.005765713751316071,-0.995566725730896,0.09314469993114473,-0.09506119830064096,0.002580917113587388,0.2694902598644429,0.06805478781461716,-0.03510870039463043,0.05581069365143776,0.15527569871395827,-0.2937168981134892,-10.79999325156212
18.6,2.0999999046325684,187.0,22.85243034362793,21.175573348999023,-79.78280948698583,40.45906763177735,268.768338394165,-0.004085649270564318,-0.003505757311359048,-0.9956479668617249,0.093039408326149,-0.14130216186211506,0.005941634670284168,0.2636046762091987,0.10659004002809523,-0.012562785297632216,0.02319178730249405,0.14411610491573812,0.003213579473085701,-10.370116481781006
18.7,2.0999999046325684,188.0,22.80234718322754,21.92304039001465,-79.78280931028976,40.45906765116161,268.7914829969406,0.0022837345022708178,-0.0018229136476293206,-0.9958707094192504,0.09073594212532043,-0.15536102405625427,0.005785366075783576,0.2019309891620228,0.12351163476705553,0.04602840170264244,0.015368632040917872,0.030126707421150062,0.03750732568558306,-9.697192592024804
18.9,2.0999999046325684,189.0,22.63832855224609,24.29266929626465,-79.78280874686286,40.45906772362074,268.8320661306381,0.014319848269224169,-0.0016780623700469732,-0.9961183667182922,0.08683569729328157,-0.1468379029708953,-0.0014769628025506974,0.12720900865727086,0.15588371455669406,0.04727332666516304,0.052120715379714966,0.04530384315177798,-0.18267805360257627,-9.397253817915917
19.1,2.0,193.0,22.59701156616211,25.040136337280273,-79.78280856469817,40.459067745922745,268.84498102664946,0.012475538067519665,-0.0024368860758841038,-0.9961472749710084,0.08676982671022415,-0.15973488832574195,-0.0017084056311443374,0.12183585058870025,-0.030332403257489208,0.06754110008478165,-0.005806587636470796,0.13582811526954175,-0.4042663306742907,-9.783608592152596
19.2,2.0,195.0,22.541921615600586,25.92278289794922,-79.78280814055424,40.4590677620427,268.89291949272155,0.0009178164764307439,-0.00513673247769475,-0.99615740776062,0.08742524683475494,-0.16319262715620989,-0.0013975255693683634,0.14208185444852475,-0.07474736869335175,0.06699501723051071,-0.034774526953697205,0.026068257819861176,-0.2324820783734321,-9.742846482396127
19.4,1.8999999761581416,197.0,22.481822967529297,26.185192108154297,-79.78280795873108,40.459067785968095,268.90888662338256,0.003390877740457654,-0.004612728953361511,-0.9961392879486084,0.0876006931066513,-0.16140233272190838,-8.70641549736307e-05,0.1761204646832271,0.06137260049581528,0.06359919905662538,0.02153746597468853,0.12244773069396615,0.09694232219830157,-10.10494174361229
19.5,1.8999999761581416,197.0,22.55319023132324,24.92881202697754,-79.78280750080854,40.459067766003045,268.97251172065734,0.012026292271912098,0.0005173405515961349,-0.9960309863090516,0.08819015324115753,-0.17128897784191652,0.010542527529929078,0.2423215123196356,-0.021633349359035492,-0.03217311576008797,0.024099500849843025,-0.004711891938932239,0.14068887823261322,-10.164597376585007
19.7,1.8999999761581416,194.0,22.46053695678711,26.272661209106445,-79.78280738175421,40.4590676616078,269.002286863327,0.011973422951996326,-0.0013117736671119928,-0.9960231184959412,0.08827726542949678,-0.1575146778287413,0.011226069457116298,0.21817669245382565,-0.034012019634246826,0.00040761454147286713,-0.005299598444253206,0.07165569093078375,-0.2057033838517964,-9.815862418413165
19.8,1.8999999761581416,197.0,22.463041305541992,26.224950790405273,-79.78280703645608,40.45906768633089,269.0483266830444,0.011814281344413756,-0.003283873433247209,-0.9960231781005859,0.08824697881937027,-0.13738784181257166,0.005857176320370954,0.24336654418314835,0.10067325085401536,0.03375958278775215,0.0856509655714035,0.1338552372995764,-0.36169838145375255,-9.91744258761406
20.0,1.7999999523162842,195.0,22.489334106445312,25.18326759338379,-79.78280690672734,40.45906766851413,269.08787484169005,0.013164162635803223,-0.004531256388872862,-0.9959782361984252,0.08850722014904022,-0.1368719585960673,-0.0008421702890070058,0.27567328439175903,-0.11822852492332454,0.11152885854244232,-0.1205272525548935,0.037288285789545635,0.1018198867700994,-10.070763598680497
20.11,1.7999999523162842,194.0,22.52439308166504,24.300621032714844,-79.78280658690021,40.459067686081816,269.1662118554115,0.012999351136386395,-0.008063638582825659,-0.9958576560020448,0.08963044732809068,-0.09798577321043657,-0.018731230963997682,0.2991786805695392,0.04079653322696687,-0.10574709624052048,0.02996010892093182,-0.017605066406540575,0.04037112745922058,-10.028993428945542
20.3,1.7999999523162842,192.0,23.02145576477051,17.462095260620114,-79.78280648242881,40.459067727457146,269.1956149458885,0.013380291871726513,-0.006989038083702326,-0.995734930038452,0.0910179540514946,-0.08764206102008677,-0.0321302221598096,0.27622345256992503,0.1148594692349434,-0.061749853193759925,0.0681525394320488,0.1242143389955163,-0.2931613760814071,-9.615408756136894
20.4,1.7999999523162842,194.0,22.446765899658203,26.02615547180176,-79.78280624626531,40.45906766277528,269.259833586216,0.010496512055397034,-0.002164880046620965,-0.9955230951309204,0.09390917420387268,-0.08510717038530356,-0.03298269408001763,0.0788681633000027,-0.04316537454724312,-0.03265085443854332,-0.0016486896201968193,0.05131690959446132,-0.07129593641962856,-8.661639590263366
20.61,1.8999999761581416,194.0,22.285249710083008,30.45529365539551,-79.78280615853005,40.45906770644019,269.2675712823868,0.0070531507954001435,-0.001319871167652309,-0.9954028129577636,0.0955076739192009,-0.07714367911204263,-0.03629539948973293,0.07715683726931602,-0.0020126875024288893,-0.002654997631907463,-0.01720723882317543,0.15258857421576974,-0.1921112935245037,-9.653062486052512
20.7,1.8999999761581416,195.0,22.117475509643555,32.419384002685554,-79.78280606485819,40.4590676322642,269.3101921200752,0.0044804494827985755,-0.0013014994328841571,-0.9952768683433532,0.09696558862924576,-0.0889171091549388,-0.023547023383044083,0.1592485840976365,-0.1231961026787758,0.044352851808071136,-0.08803092688322067,0.07425922765396535,0.2504653362929821,-10.192114373445513
20.9,1.8999999761581416,193.0,21.96722984313965,34.677684783935554,-79.78280588690141,40.459067699515074,269.36456925868987,0.002471317071467638,-0.001429915428161621,-0.9951005578041076,0.09882686287164688,-0.07963378324122575,-0.022580990481038784,0.4127193886628798,0.1009037420153618,0.0206642746925354,0.02982871606945992,0.15080827977508307,-0.038468393236398696,-11.19619122862816
21.01,2.0,192.0,21.84703254699707,35.51262283325195,-79.7828060394434,40.45906749241888,269.4054608464241,0.0050857393071055395,-0.001183702377602458,-0.9950481057167052,0.09925740957260132,-0.054502950002644095,-0.0011325999950777647,0.5707335277938278,0.1087723672389984,-0.03153464198112488,0.022455882281064987,0.08583190896548333,-0.2231201927550137,-11.46642380833626
21.2,2.0,193.0,21.803211212158203,37.588035583496094,-79.78280583244863,40.45906746169712,269.5715321421623,0.00746000651270151,0.0018069742945954204,-0.9951716661453248,0.09784924238920213,-0.07413911723830707,0.010306015319334812,0.9514216254726964,-0.007534957490861416,-0.05994223803281784,0.030186712741851807,0.12793810173869133,-0.06649185033515095,-11.750516628026965
21.3,2.0999999046325684,193.0,21.683013916015625,39.1068229675293,-79.78280570638252,40.45906746973645,269.80596933960913,0.008226673118770124,0.002751818625256419,-0.9954637289047241,0.0947464182972908,-0.06902362971473645,0.008532998312220876,1.405257460847304,0.02814023569226265,0.029286604374647137,-0.046867433935403824,0.13992296607233584,-0.06477855219505728,-11.948553636074069
21.5,2.0999999046325684,196.0,21.716819763183594,38.14466094970703,-79.78280567248024,40.4590674019258,269.97346435189246,0.009259149432182312,0.0011308963876217606,-0.9955841302871704,0.09340978413820268,-0.06136518314307144,0.013294432660780451,1.6501213430197332,0.06955402344465256,0.007570021320134401,0.03577861562371254,0.1913921408168972,-0.1197982293739915,-12.314744871854785
21.6,2.200000047683716,198.0,21.58284950256348,40.37115478515625,-79.78280562219602,40.45906739235689,270.1509512335062,0.008804791606962679,0.0010143815306946637,-0.9957151412963868,0.09204833209514618,-0.06627141330646448,0.02044391413531335,1.8917388715390773,0.02202390506863594,-0.028271205723285675,0.06236675754189491,-0.05586311062797904,-0.11549632318317893,-12.204516670703885
21.8,2.299999952316284,199.0,21.562816619873047,39.92585754394531,-79.78280552466617,40.459067281186414,270.5898606300354,0.005196103360503912,0.0013935753377154472,-0.9957898259162904,0.0915086269378662,-0.07182213271817565,0.02385307526772261,2.3923240765312594,-0.015473311766982082,-0.002784752519801259,-0.0658697783946991,-0.08788580741733314,-0.04137388383038342,-12.360805728435516
21.9,2.4000000953674316,198.0,21.735599517822266,36.3873176574707,-79.78280547346141,40.45906726030008,270.84173835515975,0.0029085227288305764,0.0007636959198862312,-0.9956950545310974,0.09264086186885834,-0.0650198905413543,0.03276802986566885,2.638614957607173,-0.0008398602949455379,-0.01225917972624302,-0.02647653967142105,0.10701803407631814,-0.2435547313839197,-12.284772044420246
22.1,2.5999999046325684,195.0,22.0035400390625,31.93432426452637,-79.78280542784186,40.459067114264265,271.4321020364761,-9.130689431913196e-05,0.000276833598036319,-0.995643138885498,0.09324546158313753,-0.08035918782212563,0.034113899253232674,2.9789114314713454,-0.08149880170822144,-0.020940769463777542,-0.024762319400906563,-0.0014908915269188586,-0.1381234032288194,-11.282712478637695
22.2,2.700000047683716,192.0,21.90963554382324,32.872634887695305,-79.78280535767475,40.45906695927529,272.1046537876129,-6.583234062418342e-05,0.0003405853640288114,-0.9956632256507874,0.0930308997631073,-0.04491900301978453,0.04015879241238698,3.1524734462604664,0.11247650533914566,-0.06642147153615953,0.016284586861729622,0.025704821390099827,0.07602194390259684,-10.706099832057953
22.4,3.0,182.0,21.95345687866211,31.13119506835937,-79.78280528501855,40.459066939144726,272.4217528820039,0.0056894049048423784,-0.001361065311357379,-0.9956238865852356,0.09326843172311784,-0.03905900927533632,0.027544711519794075,3.1848036727075097,0.20057156682014465,0.05319354310631752,-0.03867946565151215,-0.03418677871115506,-0.051383960712701085,-10.266454703807833
22.5,3.0999999046325684,177.0,21.988513946533203,31.783241271972656,-79.7828053718192,40.45906679915373,272.80905146598815,0.00905286893248558,-0.004244348499923945,-0.9955200552940368,0.09402090311050416,-0.056789610319754935,0.04110872685471797,3.246880238145305,-0.003700932255014777,-0.01920807547867298,-0.10280460119247437,0.013273407937958837,0.07839495414867997,-10.101710572242737
22.7,3.2000000476837163,169.0,22.141263961791992,29.087589263916016,-79.78280552167959,40.45906658709243,273.4736880779266,-0.006053376942873001,-0.00470941886305809,-0.9954777359962464,0.09468550235033037,-0.011148251272306791,0.07812458148623465,3.261635680941052,-0.1979119032621384,-0.10098962485790253,-0.008152368478477001,0.09620827736333012,0.1874283498711884,-9.880372409820557
22.8,3.4000000953674316,160.0,22.137508392333984,28.47530174255371,-79.78280552708495,40.459066554415706,273.7989980697632,-0.018023662269115448,-0.002736346097663045,-0.995357871055603,0.09450076520442964,0.05726388202274187,0.06421274093023922,3.2354088436086768,-0.14781178534030914,-0.1345348358154297,0.05444291606545448,0.20748126631602645,0.0850821862835437,-9.655131815671922
23.0,3.5,146.0,22.12248420715332,28.97626495361328,-79.78280570682806,40.45906638574007,274.447772693634,-0.01711434125900269,-0.0046350411139428616,-0.995461642742157,0.0934978649020195,0.13253243782270865,0.031923477587294635,3.1474988029308237,0.16013211011886594,0.09214451164007187,0.029786773025989526,0.047352342065423735,0.29939516577869657,-9.371343051195145
23.11,3.5999999046325684,139.0,21.988513946533203,31.29022979736328,-79.78280567738666,40.459066356926606,274.7601449012756,-0.011887025088071823,-0.0084855817258358,-0.9955186247825624,0.09343132376670836,0.08108907698589439,0.05657832288350938,3.0924143837879043,0.05532553791999817,-0.019586794078350067,0.0009954491397365928,0.16281517166644335,0.034881053343415264,-9.307258152365684
23.3,3.700000047683716,129.0,22.027328491210934,30.16107940673828,-79.78280590121453,40.45906636238232,275.3891288757324,-0.016413073986768726,-0.010785753838717936,-0.995222270488739,0.0956401228904724,0.019792400148016417,0.056947495458642285,2.9920437065057124,-0.1432543396949768,-0.026283252984285355,0.0029682798776775607,8.187215396901593e-05,-0.012388952616602179,-9.283373445868492
23.5,3.799999952316284,124.0,21.988513946533203,30.741558074951172,-79.78280656708614,40.45906614419917,275.86286277770995,-0.016411183401942253,-0.01427144929766655,-0.9946112036705016,0.10136901587247847,0.07324626781354361,0.02720094265907065,2.780555056417928,0.1154576689004898,-0.01207891758531332,-0.036653321236372,0.08393380226567387,-0.05790492178872227,-9.286515739560127
23.6,3.799999952316284,120.0,21.9209041595459,31.66396331787109,-79.7828065199403,40.45906618950728,276.1393768310547,-0.012552506290376186,-0.01264650747179985,-0.9944890141487122,0.10331586003303528,0.03874203758259953,0.019905678562000127,2.757778995431337,0.06696022301912308,0.009063071571290493,0.005747822113335133,0.053245764425955716,0.25509017324075106,-9.508257359862327
23.7,3.799999952316284,117.0,21.95721244812012,31.512880325317386,-79.78280676258011,40.45906608072951,276.5573908805847,-0.007787148933857679,-0.009641311131417751,-0.994570791721344,0.1033216044306755,0.033958236227440416,2.0303444195408915e-05,2.821445992118933,0.18486692011356354,-0.04010835662484169,0.05448814108967781,0.0076088292669737705,-0.04045163174159825,-9.839599775075913
23.9,3.799999952316284,117.0,22.078662872314453,28.849035263061523,-79.7828066748842,40.45906624162186,277.1289355278015,-0.002164390403777361,-0.004901195876300335,-0.9949994087219238,0.0997368022799492,-0.013235336715783369,-0.049693568894272434,2.9042072369026948,0.15718615055084229,-0.06738266348838806,0.06079414486885072,0.057591794254258276,-0.02677344116382301,-10.244476189613342
24.0,3.700000047683716,119.0,22.163801193237305,27.886871337890625,-79.78280654127785,40.459066105793106,277.4801308631897,-0.0011871631722897293,-0.0008379507344216107,-0.9951798915863036,0.09805609285831453,-0.03673403490687607,-0.05211384275353717,2.9485271701548883,0.020660199224948883,-0.17282696068286896,0.05579642206430435,-0.03642565474379808,0.07767687952145934,-10.112865890264512
24.2,3.5999999046325684,122.0,22.1988582611084,27.44157218933105,-79.78280663316903,40.459066419760326,278.10957260131835,-0.003103795927017927,0.0063194134272634974,-0.995354950428009,0.09601575881242752,-0.01537866530797012,-0.13666867276172665,2.9504691380104364,-0.010046337731182577,0.007410840131342411,0.021295713260769844,-0.034175321822986014,0.12200564464554192,-9.852662454843523
24.3,3.700000047683716,122.0,22.071149826049805,28.76951789855957,-79.7828066295767,40.459066526460134,278.40436573028563,-0.00681634061038494,0.006056948564946652,-0.995243489742279,0.09699154645204544,-0.009107965044617486,-0.15581488382965075,2.9366792670958697,-0.05729299783706665,-0.07318110018968582,-0.01599133014678955,-0.0711593262758106,0.019955407271627337,-9.727525607943537
24.5,3.5999999046325684,123.0,22.161296844482425,27.44952392578125,-79.78280665161135,40.45906663331948,279.0396062850952,-0.01381708774715662,0.0011722645722329614,-0.9946823120117188,0.10205347090959548,0.03530737098845868,-0.13742729272408066,2.922919327469476,0.08569537103176117,-0.02799552120268345,-0.05043148994445802,-0.08686955220066013,-0.0993715662136674,-9.673423075675963
24.6,3.5999999046325684,128.0,22.012304306030273,29.69987487792969,-79.7828066239296,40.45906674445876,279.3310396194458,-0.013263161294162272,-0.0008582763257436454,-0.994414448738098,0.1047058030962944,0.010740463686757393,-0.13979078749042834,2.9037694110362438,-0.02824595384299755,0.13475970923900604,-0.041567832231521606,-0.182330692447722,0.3144111444801092,-9.56800830245018
24.8,3.5999999046325684,133.0,22.177574157714844,26.908802032470703,-79.78280660236014,40.45906699700542,279.9586107254028,-0.009747127071022987,-0.00015954389527905732,-0.9944016933441162,0.10521533340215684,-0.028696274694049936,-0.16845058620832154,2.9345973321608043,0.06549002975225449,0.05861174315214158,0.040868915617465966,-0.2900590809993446,0.0020973185962066053,-9.810833812952042
24.9,3.5999999046325684,135.0,22.14251708984375,26.996273040771484,-79.78280652160997,40.459067165976016,280.2515756607056,-0.0070353657938539964,0.0034907411318272352,-0.9945113062858582,0.1043350026011467,-0.04780593596496747,-0.18155375466797974,2.9237405079456864,0.1523658186197281,-0.2102822363376617,0.09619809687137604,-0.257071520537138,-0.2329855601862073,-9.748729366064072
25.1,3.700000047683716,136.0,22.126239776611328,27.67217254638672,-79.78280668621073,40.459067375195325,280.88372058868407,-0.0006872338708490133,0.015655942261219025,-0.9945908188819884,0.10268215090036392,-0.11389349788813767,-0.2155543176098822,2.914784782731512,-0.09989072382450104,-0.15645743906497955,-0.038447581231594086,-0.2885710742510855,0.1188297111913562,-9.759816856384278
25.2,3.799999952316284,138.0,22.19510269165039,26.209047317504893,-79.78280662654092,40.459067548042256,281.51040096282964,0.0026483286637812853,0.024277666583657258,-0.99527907371521,0.09393159300088882,-0.08946965010706975,-0.25158602108710937,2.9248243430166476,0.0038335116114467374,0.07350267469882965,0.035683229565620415,-0.10911427916027606,-0.05820329423993826,-9.820049024820328
25.4,3.799999952316284,140.0,22.07615852355957,28.47530174255371,-79.78280658640266,40.45906767017321,281.80260105133056,0.006260510999709368,0.02332833223044873,-0.9957639575004578,0.08871816098690033,-0.0697633878747831,-0.2617648382586891,2.8992787147058143,0.14390048384666446,0.08449827134609222,0.09034960716962814,-0.1723450368270278,0.03073869391344488,-9.623917039632797
25.5,3.700000047683716,141.0,22.001035690307614,29.37385368347168,-79.78280663901991,40.45906782622411,282.1295310974121,0.006575817242264748,0.020858693867921836,-0.9960893392562866,0.0856018140912056,-0.07621646028627574,-0.2354489507564445,2.895663291194001,-0.012856722809374329,0.05131135508418083,0.020791444927454,-0.08849846770986915,0.06946715120226145,-9.640576926469805
25.7,3.700000047683716,147.0,22.06363677978516,28.499156951904297,-79.78280657940209,40.45906801672443,282.7414628982544,-0.004124567378312349,0.011512083932757378,-0.9959043860435486,0.08958306163549422,-0.058223620373544165,-0.17905726901735394,2.884315693496005,-0.20488665997982025,0.17913010716438293,-0.07161658257246017,-0.26919356603175404,-0.09756516943685713,-9.567769151329994
25.8,3.700000047683716,150.0,21.9209041595459,29.69987487792969,-79.78280649491062,40.45906815180084,283.3148633956909,-0.018973814323544502,0.004518082831054926,-0.9948462843894958,0.09950174391269684,-0.011331135241798004,-0.09922757606623836,2.8558808599100494,-0.17172789573669436,0.004570119082927704,-0.1564876139163971,-0.038786043226718914,0.06194507371634245,-9.553073344230652
26.0,3.799999952316284,152.0,21.93968391418457,30.28830718994141,-79.7828063993948,40.45906809596593,283.6289274215698,-0.013211305253207684,0.006639239378273487,-0.994698703289032,0.1017645224928856,0.05049092369658959,-0.08618285497609622,2.850569129784485,0.3679827749729157,-0.08394599705934525,0.07418690621852875,-0.05295709926635027,0.033377558325883,-9.573873644471169
26.1,3.700000047683716,153.0,21.793193817138672,31.89456558227539,-79.78280632901685,40.45906814475115,283.9131175994873,-0.00025968393310904503,0.010426230728626251,-0.994680881500244,0.10247568786144257,-0.010234305079575855,-0.0813832170962949,2.8351158837826933,0.1750207394361496,0.04493170976638794,-0.09403768926858902,-0.15558465097099544,0.2115303900651634,-9.569568339586258
26.3,3.700000047683716,153.0,21.843276977539066,30.72565460205078,-79.78280641987924,40.45906805511577,284.51037616729735,0.005782105028629303,0.00950876250863075,-0.9946332573890686,0.10286420583724976,-0.12079873271639326,-0.0803640696035154,2.8311083962213814,-0.06398693472146988,0.002498297719284892,-0.06943958252668381,-0.06410731467884034,-0.18466678300872447,-9.652399411797523
26.41,3.5999999046325684,154.0,22.001035690307614,29.771442413330078,-79.78280633439691,40.45906807920107,284.7935640335083,0.002822875045239925,0.005856954958289862,-0.994660496711731,0.10299688577651978,-0.1087556724271648,-0.05695644472947482,2.8263609859360663,-0.03800409287214279,0.062321111559867866,-0.0015716573689132927,-0.07322589674033225,-0.05585729082114995,-9.71511313855648
26.6,3.5,152.0,21.77316093444824,32.80902099609375,-79.78280620023398,40.459068019927656,285.37395877838134,0.0004138431395404041,0.0033377124927937984,-0.9948064088821412,0.10172940045595168,-0.058281445066966815,-0.017398949315702048,2.8130007304704745,-0.010577373206615448,-0.018956614658236504,-0.03432846814393997,-0.07705060617998243,-0.011300928537966685,-9.686409156918526
26.7,3.5,153.0,21.763145446777344,32.14107131958008,-79.78280611753307,40.459067934377096,285.66594715118407,-0.0010128642898052929,0.0026337457820773125,-0.9949244260787964,0.10058600455522536,-0.05520987230526053,-0.0071002355878220045,2.835272917803595,-0.025469554588198662,-0.046388842165470116,-0.05042017251253128,-0.0007351457560434937,0.056473304126411675,-9.933840519189834
26.9,3.5,153.0,21.910886764526367,30.96420669555664,-79.78280598959067,40.459067931427604,286.23682899475097,-0.0005351977306418121,0.0065718856640160075,-0.9950678944587708,0.09897705912590027,-0.04554556105143273,-0.005062901526298776,2.855440797964764,0.03187384456396103,-0.019919173792004585,-7.66143566579558e-05,-0.04262560824863613,-0.010424964241683484,-9.815179463624952
27.0,3.4000000953674316,155.0,21.699291229248047,33.755279541015625,-79.7828060082143,40.45906789430208,286.5197250366212,0.0023260961752384892,0.007367236074060202,-0.995118260383606,0.09838777780532837,-0.054027671892897484,-0.023600268806089217,2.83088027195082,-0.006510731764137745,0.00020676925487350672,0.01616930589079857,-0.13243866708129645,0.13389583890326326,-9.724348230957986
27.2,3.4000000953674316,156.0,21.77316093444824,32.45914077758789,-79.78280599744433,40.459067749711046,287.08386726379393,0.0057387612760067,0.002682051155716181,-0.9951430559158324,0.09823594987392427,-0.07438380870684574,0.00350603032150376,2.85588677738155,-0.16065983474254608,-0.06282158195972443,-0.04038984328508377,-0.1239374641980976,0.04080008011311293,-9.925583081245422
27.3,3.5,156.0,21.783178329467773,33.11118698120117,-79.7828059653874,40.459067728416564,287.37042541503905,0.00425428943708539,0.0022074186708778143,-0.9951804876327516,0.0979434996843338,-0.05657760308161947,0.01642660321856089,2.875383871065416,-0.05345917865633965,-0.04017048329114914,0.024850934743881226,-0.0589353199582547,0.01811975842807442,-10.032525147199634
27.5,3.4000000953674316,157.0,21.94719696044922,29.03192710876465,-79.78280606979412,40.45906756463457,287.9350978851318,0.0006734427297487855,0.002018293831497431,-0.99521404504776,0.09769607335329056,-0.014440822813566971,0.012959909155821372,2.9085178006981183,-0.04261409863829613,0.04999326542019844,-0.0071853059343993655,-0.0870255358144641,0.034095041379332544,-10.184176193475725
27.6,3.4000000953674316,158.0,21.99352264404297,28.18903923034668,-79.78280606702538,40.459067542791054,288.2276889801025,-0.001281516393646598,-0.0008238945738412441,-0.9952888488769532,0.09694215655326843,-0.007075481523869739,0.008817476295395435,2.9344585457410965,-0.09912474453449248,-0.03633928298950195,0.019122963771224025,-0.08768564991652966,0.049189825016073885,-10.029674044847493
27.8,3.4000000953674316,156.0,22.22139549255371,24.332427978515625,-79.78280624598423,40.459067387180156,288.7899658203125,-0.0019280083943158386,-0.0007956367917358875,-0.99566388130188,0.0930013582110405,0.043018500249499984,0.02166388690141722,2.8031683714836166,0.05991331115365029,-0.045139670372009284,0.1269993931055069,-0.01716173325665295,-0.09191188948228957,-9.206056882739068
27.9,3.4000000953674316,154.0,22.29151153564453,23.12375831604004,-79.7828062725093,40.45906737766111,289.06482429504393,-0.00023732149566058067,0.001780580496415496,-0.9957555532455444,0.09202028065919876,0.027536921697807068,0.002526254614759569,2.6899255606355412,-0.0026732375845313072,0.05041955038905144,-0.012154364958405495,-0.11767759043723346,0.230822291392833,-8.789974864125252
28.1,3.4000000953674316,149.0,22.250192642211914,23.489540100097656,-79.78280642911584,40.459067259624966,289.58792419433587,-0.0024643607903271914,0.0013354078400880098,-0.9954050779342652,0.09571295231580734,0.02022019751335236,-0.022007185195897318,2.452256597087094,-0.0971176028251648,0.08063028007745743,-0.05374015122652054,-0.16195256117731333,0.09641967248171568,-8.481325492858888
28.2,3.5,149.0,22.285249710083008,22.92496490478516,-79.7828065364122,40.459067187715824,290.0616847991943,-0.010074879042804241,-0.0014289754908531904,-0.9945470094680786,0.1037917509675026,0.0651704693912107,-0.018548604111326,2.21168448351192,-0.10087976604700087,0.034505899995565414,-0.14019791781902313,-0.1601967154070735,0.372947949282825,-8.472032513022423
28.4,3.5,145.0,22.217639923095703,24.18929672241211,-79.78280658583907,40.45906720498849,290.276286315918,-0.010395267978310585,-0.0024132230319082733,-0.9942538738250732,0.1065150946378708,0.06938252906604993,-0.03395041926472488,2.0810100032027123,-0.093516044318676,0.017423836514353752,-0.06377018243074417,-0.22233101963996887,0.30517466336488724,-8.526004652380943
28.5,3.5,144.0,22.160045623779297,24.41989707946777,-79.78280666718655,40.459067181155156,290.4885799407959,-0.011616427451372148,-0.002292105695232749,-0.9941071867942808,0.10775376111268996,0.0668365923663351,-0.037717709891650256,1.9865757806591648,-0.052448716014623635,-0.057925570756196976,-0.0168022308498621,-0.20008713321760305,0.04829831192269921,-8.614928523302076
28.7,3.5,137.0,22.126239776611328,25.49338722229004,-79.78280673134115,40.45906720928331,290.8722526550293,-0.014800757169723509,0.00028311932692304254,-0.994137406349182,0.1071060448884964,0.06429139481523148,-0.07870866583549514,1.8049279172734216,0.1139240339398384,-0.038056891411542886,0.13371144235134125,-0.16068618217483166,-0.06428973410278559,-8.899408428668977
28.8,3.5,136.0,22.151281356811523,24.29266929626465,-79.7828067445271,40.45906727679363,291.04934997558587,-0.01360303070396185,0.002254291903227568,-0.9942986965179444,0.10573650151491164,0.03451294277579979,-0.09026859846238112,1.7354647762087296,0.06820463389158249,0.03182481601834297,-0.03666140139102937,-0.12260500252246855,0.3111549031734467,-9.03765005528927
28.9,3.5999999046325684,132.0,22.17882537841797,24.75387191772461,-79.78280674301483,40.459067354397625,291.21880836486815,-0.010806910693645477,0.005013622343540193,-0.9944347739219666,0.10467874258756638,0.0033229232765477424,-0.09451181212378074,1.6538970650089118,-0.06625252217054367,-0.06817004829645157,-0.04282499104738236,-0.21228009447455407,0.2388467908836901,-8.945642362833023
29.1,3.5999999046325684,130.0,22.163801193237305,24.523271560668945,-79.78280683620324,40.45906731953665,291.75423927307133,-0.008276857435703278,0.013166315853595734,-0.9945243000984192,0.10334264487028122,-0.034334907231107784,-0.10487478745318732,1.5421428733677125,-0.004710009321570396,0.0386190228164196,-0.08154281228780746,-0.13819627415388824,-0.22515809359028932,-9.120053111314776
29.3,3.700000047683716,131.0,22.306535720825195,22.209304809570312,-79.78280678893232,40.45906738592104,291.905904006958,-0.008846373297274113,0.013652743771672249,-0.9945347905158995,0.10313058644533156,-0.048144033766584673,-0.09860423403633506,1.4888089762988206,-0.11049623042345047,-0.023026913404464718,-0.042039558291435235,-0.3439045733213425,0.2269682271033525,-9.191867444515227
29.4,3.700000047683716,131.0,22.24768829345703,23.163516998291016,-79.7828067342125,40.459067447775695,292.05165977478026,-0.00860690139234066,0.013825931586325169,-0.99459046125412,0.10258980095386504,-0.044253886740826885,-0.09248368183526552,1.4183640685705483,-0.055719424039125436,-0.027610739693045616,0.029175983741879463,-0.2615699662640691,0.13012998534366488,-9.081625794768334
29.6,3.799999952316284,136.0,23.147912979125977,4.3973307609558105,-79.78280675342923,40.45906737456033,292.37841911315917,-0.006276218686252832,0.014142243191599848,-0.9947147369384766,0.10150548815727234,-0.049680075700853935,-0.06617770059843407,1.3143157797725444,0.05121730640530586,-0.08912748098373413,0.1473051756620407,-0.17448743836954236,-0.16072080865502358,-9.010870977044108
29.7,3.799999952316284,137.0,22.40419578552246,21.072200775146484,-79.78280674098114,40.45906728348566,292.53937072753905,-0.00294273579493165,0.011382485739886759,-0.994762122631073,0.10153882950544356,-0.06134455797331573,-0.06695918611351542,1.1725691582436395,0.06664057821035385,0.1153353676199913,-0.09630374610424043,-0.2765696093067527,0.14210786042734982,-7.9242185729742065
29.9,3.700000047683716,144.0,22.27898979187012,21.660633087158203,-79.78280655464931,40.45906740208347,292.7234279632568,0.005046811420470476,0.004503773059695959,-0.9866157174110411,0.16292256116867065,-0.10064991458734662,-0.06598187497012115,0.7142101741222234,0.06088265776634216,-0.12876997888088226,-0.9577748775482178,-0.20160125143826008,-0.1536128784902394,-7.835987597107887
30.0,3.700000047683716,145.0,22.376649856567386,22.272918701171875,-79.78280661905548,40.459067467116405,292.822688293457,0.005222748499363661,0.007160155102610587,-0.9632029533386228,0.26862916350364685,-0.11480225901871526,-0.09398833315790853,0.4795468725079165,-0.0791441947221756,-0.04298526048660278,-1.2455642223358154,-0.3222310645133257,-0.23919181315228344,-8.344870775341988
30.2,3.700000047683716,150.0,22.285249710083008,23.680383682250977,-79.78280667131436,40.459067478857754,292.82912368774413,0.004629737697541714,0.006449026055634022,-0.9423920512199402,0.3344161808490753,-0.09868433514241767,-0.11816896712875155,0.3928835911366853,0.08340868353843689,0.04445916786789893,-1.395889401435852,-0.2695345683395863,-0.19860890228301287,-8.966842027902603
30.3,3.700000047683716,154.0,22.127492904663086,24.91290855407715,-79.78280664006556,40.459067620753736,292.8652374267578,0.005072107538580895,0.006513092666864395,-0.9153931736946106,0.4024763405323029,-0.13890749386090015,-0.11643999305284722,0.3276439993098274,-0.12335668504238127,-0.06774923950433731,-1.5451501607894895,-0.4141814908012748,0.04541747099719942,-8.993629876971244
30.4,3.700000047683716,143.0,22.277738571166992,22.94086837768555,-79.7828066267194,40.4590677787715,292.89544982910155,0.006420567631721497,0.00974063016474247,-0.8819859623908997,0.471131443977356,-0.13503558146259706,-0.12888614025034628,0.2782545518942919,0.12738633155822754,-0.13102664053440094,-1.4623548984527588,-0.2517449628934264,-0.2619897780753672,-9.351680034399033
30.6,3.700000047683716,135.0,22.270225524902344,21.978702545166016,-79.78280678428027,40.459067815987744,292.87951583862304,0.01693863235414028,0.025972245261073112,-0.7431650757789612,0.6683892607688904,-0.14817036680708692,-0.08827143733507828,0.17384527437666664,0.3105292022228241,-0.02762238308787346,-1.5358983278274536,-0.2841355957277119,-0.3438604268431664,-9.500196388363838
30.81,3.700000047683716,145.0,22.230159759521484,22.7977352142334,-79.78280683549349,40.45906796388882,292.8961898803712,0.02141414023935795,0.030914690345525738,-0.6923293471336365,0.7206010818481445,-0.15347597119772807,-0.06281638321162444,0.14393384493450934,0.1273956000804901,-0.0141438078135252,-1.4429014921188354,-0.2378838823735714,-0.10750873424112796,-9.505970513820648
30.9,3.700000047683716,150.0,22.30152702331543,22.193401336669922,-79.7828068829668,40.45906807749938,292.910205078125,0.02638443000614643,0.033740472048521035,-0.648735761642456,0.7598075270652771,-0.1153573368459702,-0.031738483850934286,0.11588690562972535,0.10574234277009964,-0.019062349572777748,-1.0875300168991089,-0.09836135007441044,-0.06406485384330153,-9.466231082081798
31.1,3.700000047683716,137.0,22.16880989074707,24.563030242919922,-79.78280695665177,40.45906794352396,292.91342277526854,0.03110971674323082,0.029332214966416362,-0.5948752760887146,0.8026800751686096,0.03507472480029887,-0.00011476445982187486,0.07675467768685451,0.16684821248054504,0.16714678704738614,-0.3859544694423676,0.06863732166588307,-0.06528712291270494,-9.424367941617968
31.2,3.5999999046325684,137.0,21.994773864746094,28.8887939453125,-79.78280710688743,40.45906789667433,292.91990394592284,0.035224255174398415,0.03541666269302368,-0.5826160907745361,0.8112111687660217,0.10567964411174864,0.0424534633935239,0.10392868068018572,0.28910985589027405,-0.1269717514514923,-0.23536357283592224,0.5853998057171703,-0.01649796692887321,-9.429961972832679
31.4,3.5999999046325684,149.0,21.970985412597656,27.218921661376953,-79.78280672664836,40.45906766667288,292.93983573913573,0.006682777777314186,0.07120373100042343,-0.5828813910484314,0.8094039559364319,0.21792921240930235,0.1977364425751376,0.16932327516764215,-0.0929422527551651,-0.6090463399887085,0.14383813738822934,0.4560248238220811,-0.5144685117155314,-10.159237818717957
31.5,3.700000047683716,154.0,21.959716796875,27.163259506225586,-79.78280618911688,40.45906753367504,292.8768169403076,-0.039557069540023804,0.0870223417878151,-0.5961747765541077,0.7971436977386475,0.2894198720333111,0.4287951842674078,0.37307099256211135,-0.2199975699186325,-0.2422715574502945,0.13795502483844754,0.24312909062951804,-0.4855314088985324,-10.51301541566849
31.7,3.700000047683716,147.0,22.11997985839844,25.04808807373047,-79.78280581652207,40.45906747207079,292.7411968231201,-0.055644065141677856,0.08573868125677109,-0.6031241416931152,0.7910714149475098,0.3045104949563019,0.5880981039888102,0.3773576257298973,-0.2914196848869324,-0.1978960484266281,0.2085428535938263,0.08116220377385616,-0.4552339513599873,-10.393894768953325
31.8,3.799999952316284,147.0,22.043603897094727,26.050010681152344,-79.7828036668262,40.45906727700311,292.7925827026367,-0.0729578360915184,0.08031569421291351,-0.6097061038017273,0.7851656675338745,0.33580385678523833,0.9909900708243448,0.4913187628666978,0.06682893633842467,-0.10685882717370987,-0.008009819313883781,0.1110935707949102,-0.5845749463140965,-10.197843475341797
32.0,3.799999952316284,151.0,22.107460021972656,25.11965370178223,-79.78280252144012,40.45906723705062,292.7156764984132,-0.0753440409898758,0.07926522195339203,-0.6097849011421204,0.7849858403205872,0.3111795192571331,1.1786337010633765,0.4988335678404788,0.1545148640871048,-0.10687748342752457,0.1996137499809265,0.04260445777326823,-0.7456452722847462,-10.054286144971847
32.1,3.799999952316284,152.0,22.06989860534668,25.92278289794922,-79.78280086443063,40.4590672768449,292.7381164550781,-0.07788214087486267,0.08038526773452759,-0.6082772016525269,0.7857934832572937,0.2874132801276185,1.4076249840957946,0.5404235994797333,0.05725419148802757,-0.036111928522586816,-0.18791325390338892,0.16867623791098596,-0.1971273274719715,-9.865021129846571
32.3,3.9000000953674316,150.0,22.00979995727539,27.41771697998047,-79.78279726510796,40.45906767081264,292.66912574768065,-0.09148475527763368,0.0916040986776352,-0.602236270904541,0.7877504229545593,0.2546693255593562,1.8200615281427959,0.5841961952349686,-0.029692139476537708,-0.3979307115077973,-0.03064946457743645,0.08510978696867824,-0.8854788033664227,-9.960281628370288
32.4,3.9000000953674316,146.0,21.883342742919922,29.866863250732425,-79.78279276113324,40.45906835123022,292.60137100219725,-0.11527419835329054,0.09944938123226166,-0.5923691987991333,0.7911514043807983,0.19140748226815849,2.234638082388876,0.7984273177283908,-0.16446685791015625,-0.1603284776210785,-0.16908299922943115,-0.009955103918910028,-0.4212489838153124,-10.097377785444259
32.6,4.0,141.0,21.885847091674805,29.31818962097168,-79.7827898485222,40.459068792227534,292.6175662994385,-0.12175827473402025,0.10198819637298584,-0.5886561274528503,0.7926269173622131,0.19235510700863007,2.4806885353781847,0.9799589141070948,-0.05823517963290215,-0.1964770704507828,-0.11078482866287233,-0.4553417228534818,-0.5188844751566649,-10.630671919584275
32.7,4.099999904632568,138.0,21.894611358642575,28.20494270324707,-79.78278689088054,40.45906955382683,292.56992454528813,-0.12555073201656342,0.10653828084468844,-0.5859646201133728,0.7934306859970093,0.16510612565846786,2.7227715092040308,1.0953648319880789,0.13801279664039612,-0.17529647052288055,-0.0604732409119606,-0.1918395989947021,-0.7112791393697262,-10.600321362018583
32.9,4.400000095367432,124.0,21.77190971374512,30.526859283447266,-79.78277950641215,40.459071020994045,292.6144058227539,-0.13008873164653778,0.11776872724294662,-0.5854595303535461,0.7914825677871704,0.0858426519444974,3.235954573093636,1.4383936783497324,0.10743609070777893,0.11307034641504288,-0.05902756750583649,-0.5165766522288323,-0.3693034894019365,-10.530859948396683
33.0,4.5,118.0,21.862056732177734,29.453371047973643,-79.78277544358309,40.459072190822674,292.589533996582,-0.12740907073020935,0.11937256157398225,-0.5865763425827026,0.7908511161804199,-0.011982642300695623,3.4912305881951853,1.5710627441771845,-0.050724387168884284,-0.040955111384391785,0.057231415063142776,-0.9432963640987874,-0.39472170129418377,-10.506529684066773
33.2,4.800000190734863,112.0,21.811975479125977,30.685895919799805,-79.7827662993752,40.459074682488215,292.60131950378417,-0.1215503141283989,0.12508796155452728,-0.5893104672431946,0.7888547778129578,-0.12745377459196466,4.019124982434423,1.752899367424958,0.03668563440442085,0.07752387970685959,0.12362499535083772,-0.6383312503248454,-0.6674587896466255,-10.253027157783508
33.3,5.0,109.0,21.684267044067386,32.39552688598633,-79.78276122070606,40.45907592253153,292.62972755432133,-0.12216123938560484,0.12693120539188385,-0.5897424221038818,0.788142740726471,-0.17116173719604966,4.293672398466652,1.8397544382892936,0.024009233340621,-0.20712271332740784,0.2144792079925537,-0.812853022813797,-1.085579439997673,-10.161301885843278
33.4,5.300000190734863,104.0,21.72433280944824,31.679866790771484,-79.78275583360234,40.4590772569173,292.65883178710936,-0.12262164056301116,0.12618142366409302,-0.5906826257705688,0.7874873876571655,-0.22434180950463506,4.5406831506693965,1.9703219500125104,-0.10268069058656693,0.00945463590323925,0.2213978618383408,-0.8233595191687346,-0.7946764413267374,-10.304727069139481
33.6,5.5,103.0,21.769405364990234,29.78734588623047,-79.78274444517922,40.45908077775153,292.6818878173828,-0.12011099606752396,0.11749029159545896,-0.5930374264717102,0.787449061870575,-0.3213711576843191,5.040841197202559,2.177340404919594,-0.06593149155378343,0.18265032768249512,-0.0936255156993866,-0.7208147786557675,-0.6630409989506006,-10.48164627313614
33.8,5.9000000953674325,100.0,21.91965103149414,27.25868034362793,-79.78273201212396,40.459084921299045,292.7116195678712,-0.1077468991279602,0.1160677820444107,-0.5944006443023682,0.7884204387664795,-0.4450705955870564,5.5176711999444885,2.2093238779983464,0.06527043879032135,0.018860237672924995,0.0965266153216362,-0.7420653145015241,-0.8331598180532456,-10.378960980176926
33.9,6.099999904632568,98.0,21.93467712402344,26.853139877319336,-79.7827252783455,40.459086773150666,292.7479068756104,-0.10464224964380264,0.11625826358795165,-0.5948019623756409,0.7885079383850098,-0.4913548441377553,5.768306362907827,2.2186408951462315,-0.042956706136465066,0.03028064034879208,-0.0637749433517456,-0.6601846341043711,-0.6496329680085182,-10.043150707483292
34.1,6.599999904632568,97.0,21.918399810791016,27.560848236083984,-79.78271141228147,40.4590914598425,292.78607482910155,-0.10466638952493668,0.1161944344639778,-0.5924714803695679,0.7902666330337524,-0.580920775532706,6.174455764693866,2.2445381118143093,-0.1409464031457901,0.043182648718357086,-0.20123142004013064,-0.969471571147442,-0.593468780592084,-9.753470873236656
34.2,6.9000000953674325,95.0,21.964725494384766,26.79747772216797,-79.78269674680834,40.45909670408445,292.8314182281494,-0.10338892042636873,0.1143123134970665,-0.5879009366035461,0.794113278388977,-0.6609855289884752,6.533050936288828,2.2878529023473027,-0.045436903834342963,0.04062023386359215,0.08594254404306413,-0.8328945006430151,-0.9694332718849182,-9.761117277145386
34.4,7.300000190734862,92.0,22.033588409423828,24.74592018127441,-79.78268902860162,40.459099026922594,292.8530952453613,-0.09940522909164427,0.11507749557495114,-0.588292121887207,0.7942218184471129,-0.6389217202349037,6.715247421797321,2.2714623994295926,0.08448925614356995,-0.10933025926351547,0.1758759468793869,-1.4011922603845597,-1.1116850651800634,-9.487324912548068
34.5,7.5,91.0,22.04986572265625,24.49941635131836,-79.78268129712745,40.45910246686848,292.88793296813964,-0.09675391763448717,0.11702591180801393,-0.586484432220459,0.7956001758575441,-0.7713252438905173,6.878552959537289,2.2542089537528347,0.10653114318847656,0.04207896068692207,0.0686153918504715,-1.4172956384718418,-0.8990555264800787,-9.364932163953783
34.7,7.900000095367432,87.0,22.111215591430664,24.24495887756348,-79.78266493553393,40.459108367739454,292.95688552856444,-0.09608345478773116,0.126237154006958,-0.5874351859092712,0.7935691475868225,-0.8464811763876932,7.1991184001653705,2.2760347007092254,-0.024742888286709785,-0.060507833957672126,0.14613915979862213,-1.4165523111820222,-0.4967228700220585,-9.372989042401317
34.8,8.0,85.0,22.09243392944336,24.21315193176269,-79.78265656032964,40.45911101433064,292.96629066467284,-0.10233111679553986,0.12589766085147858,-0.5893574357032776,0.7914139628410339,-0.8280138088909765,7.3561544187824355,2.3270960869783996,-0.0538489930331707,-0.04024248570203781,-0.1221393570303917,-1.3123344630002975,-0.6902871966362,-9.385410867333412
35.0,8.300000190734862,82.0,21.80821990966797,28.17313575744629,-79.78264799567057,40.459113700535326,292.96947212219237,-0.11382433027029035,0.11896880716085435,-0.5909985303878784,0.7896905541419983,-0.8680465231258726,7.523786043091162,2.393074876947332,-0.2708988487720489,-0.01376653090119362,-0.02737201750278473,-1.4590403728187085,-0.8457829333841801,-9.497240620851516
35.1,8.399999618530272,81.0,22.09368705749512,23.44978141784668,-79.78263004410756,40.459119901685376,293.00927658081054,-0.12769755721092224,0.10187633335590364,-0.5914851427078247,0.789594829082489,-0.927069200184532,7.805081478177395,2.7145900825847784,-0.02660276740789413,0.18126799166202545,0.024143746122717857,-1.3924787396192548,-0.6344302073121071,-10.170998908281328
35.3,8.699999809265138,82.0,22.23141288757324,21.09605598449707,-79.78261147183008,40.459126320561644,293.07835884094237,-0.09679213911294936,0.08766098320484161,-0.5967892408370972,0.7917003035545349,-1.0565853289343978,8.109977411324374,2.6447806584181808,0.02986718714237213,0.4422860145568848,0.1534595489501953,-1.5568224830925466,-0.8024918297678233,-9.84398050904274
35.4,8.899999618530273,86.0,22.206371307373047,22.535327911376953,-79.78260209902562,40.459129379850566,293.0901653289795,-0.08067139983177185,0.07657263427972794,-0.5987921357154846,0.7931435704231262,-1.1041395212522842,8.307407291940233,2.2980226909306327,0.14909107983112335,0.25942984223365784,-0.09186065942049026,-1.4191857509315016,-0.5592890642210842,-9.572550419569016
35.6,9.300000190734863,83.0,22.10871124267578,23.27484130859375,-79.78258286146401,40.459135916837404,293.11624641418456,-0.052226122468709946,0.05978933721780778,-0.601560115814209,0.7948730587959291,-1.193714320049264,8.503069687068837,1.7139056096478948,-0.007568786852061747,0.16249406337738034,-0.0018020705319941046,-1.8060832929611208,-0.3957932401075959,-9.634543769359587
35.7,9.5,82.0,22.220144271850586,21.41412734985352,-79.7825634153335,40.459142732372776,293.13243598937987,-0.04290810599923134,0.050877459347248084,-0.6025632619857788,0.7952910661697388,-1.2682347901820687,8.565576089271666,1.3061249819627359,-0.0744246169924736,-0.039274003356695175,-0.2292187511920929,-1.3036395071446896,-0.477896443605423,-10.178394466638563
35.9,9.800000190734863,86.0,22.26146125793457,20.78593635559082,-79.78255400972022,40.45914592513243,293.15068168640136,-0.04486672207713127,0.05019122362136842,-0.6019961833953857,0.7956560254096985,-1.2843573163748794,8.526253868830565,1.2666165815841304,-0.13782742619514465,0.011890165507793428,-0.2010024338960648,-1.847231318950653,0.003497329317033291,-9.749343323707581
36.0,9.899999618530273,89.0,22.22264862060547,21.620872497558594,-79.78254435108082,40.45914951996182,293.14735527038573,-0.04773886129260063,0.050218529999256134,-0.6004630327224731,0.7966450452804565,-1.3141470809045892,8.526013680161109,1.241558047269813,-0.09232795983552933,-0.14539757370948792,0.007003098726272583,-1.819623397886753,-0.4457623025402427,-9.468959392905237
36.2,10.100000381469727,88.0,22.280242919921875,20.730274200439453,-79.78252530400836,40.45915632707207,293.15912170410155,-0.041620023548603065,0.04875492677092552,-0.5948732495307922,0.801259458065033,-1.2523020228466282,8.500560052435262,1.2496495450185148,0.19079236686229706,0.2167339026927948,-0.2031095176935196,-1.8451998500525952,-0.5321757079660893,-9.856603478193284
36.3,10.300000190734863,87.0,22.28775405883789,20.63485336303711,-79.78250676746305,40.459162827588685,293.18895835876464,-0.022352809086442,0.048319555819034576,-0.5923848748207092,0.8038941621780396,-1.1549909311484894,8.44899737970642,1.0270216561818246,-0.055077709257602685,0.09341064095497133,0.019893338903784752,-1.6866678003966808,-0.1943727407231927,-9.983866957426072
36.5,10.600000381469727,84.0,22.06989860534668,23.624719619750977,-79.78249733821569,40.45916630533382,293.1799003601074,-0.021542796865105632,0.04488689824938773,-0.5901013612747192,0.805792510509491,-1.1386547137531078,8.430717219507134,0.8567945139292235,-0.10072500258684157,-0.0033048039767891173,0.0005540154525078833,-1.6102458612620831,-0.41311616465449336,-9.45195393562317
36.6,10.699999809265137,85.0,22.232664108276367,21.326658248901367,-79.78247881538759,40.45917285469209,293.19650001525883,-0.0247221328318119,0.0336877778172493,-0.5862546563148499,0.8090484738349915,-1.02580688804768,8.30737862385191,0.8478840525551421,-0.10493765026330948,0.22223933041095734,-0.2846996784210205,-1.7251948119699956,-0.7981790696829558,-9.558279120326043
36.8,10.899999618530273,85.0,22.205120086669922,22.56713485717773,-79.78246986619722,40.459176023112505,293.2095176696777,-0.017858987674117092,0.03166986256837845,-0.586664080619812,0.8090139031410217,-0.9845613375505688,8.224806457939184,0.7554270118430255,0.11462876200675964,0.05401136726140976,0.01439378038048744,-1.7901899760961533,-0.4153200533241034,-9.705164685845377
36.9,10.899999618530273,84.0,22.326568603515625,19.768110275268555,-79.78246103762824,40.45917917092961,293.219962310791,-0.012512847781181335,0.029311791062355038,-0.5865875482559204,0.8092585206031799,-0.9975983036597296,8.115519757576028,0.5979019048078933,0.1360955387353897,0.04344813525676727,-0.2364470660686493,-1.890254546999932,-0.288042833134532,-9.44150788486004
37.1,10.899999618530273,87.0,22.25520133972168,21.263044357299805,-79.78244355854403,40.459185457176794,293.2202121734619,-0.004020438529551029,0.027380144223570824,-0.5837330818176271,0.8114739060401917,-0.9618877436942568,7.9103910858342505,0.33592609109235355,0.04146243259310722,-0.012693515978753568,-0.04543091356754303,-1.8870159204304215,-0.4395731344074011,-9.22427563726902
37.2,10.800000190734863,89.0,22.20011138916016,22.82954216003418,-79.78243486278453,40.45918856438843,293.224393081665,0.0011814436875283714,0.02443535067141056,-0.5812109112739563,0.8133851885795593,-0.9041837822439456,7.8335490419979905,0.2777110077617232,0.0011392723536118865,0.06200718134641647,-0.05932450667023659,-1.702890754044056,-0.4925792041048408,-9.559346821904183
37.4,10.600000381469727,89.0,22.183834075927734,22.38424301147461,-79.78241826870698,40.459194494702224,293.2288848876953,0.010226699523627758,0.02496545948088169,-0.57950758934021,0.8145201206207275,-0.797416985978177,7.604836634773407,0.14176584925497282,-0.014372614212334156,-0.0147014819085598,0.2703239917755127,-1.4827889853715897,-0.5033503235131502,-9.832121186256408
37.5,10.5,88.0,22.22515296936035,22.217256546020508,-79.78241001823923,40.45919731076199,293.22668380737304,0.009360327385365965,0.025344042107462883,-0.5791297554969788,0.8147876262664795,-0.7389106508249561,7.520536924160861,0.14469119266061894,-0.05786103755235673,-0.02179766073822975,-0.07805774360895157,-1.2316183286905291,-0.3281184066832066,-10.184635784626009
37.7,10.199999809265137,89.0,22.34660148620605,18.702571868896484,-79.78239400347722,40.45920294198832,293.2258693695068,-0.0012407650938257575,0.015861745923757553,-0.5794158577919006,0.8148767948150635,-0.7050832449223717,7.329046381167787,0.2697995214159329,-0.015595080330967903,0.07711413502693176,-0.17207071185112,-1.0183982212096454,-0.16601191755384204,-10.264791755676267
37.8,10.100000381469727,90.0,22.419219970703125,18.74233055114746,-79.78238615723956,40.459205694048094,293.2425319671632,-0.007541085127741098,0.011953459121286869,-0.5791401863098145,0.8151054382324219,-0.6997206219439766,7.236744867912017,0.2980955562242518,-0.05459091812372208,-0.20793865621089933,-0.11707337200641632,-1.2412064467370512,-0.36784311074763537,-9.871927860975266
38.0,9.800000190734863,90.0,22.285249710083008,20.80183982849121,-79.78237089283083,40.459210994728046,293.2395565032959,-0.016697345301508904,0.019276142120361328,-0.5778285264968872,0.8157597780227661,-0.668439201645325,7.078036169456736,0.4011609781068079,0.039437759667634964,0.004677972290664911,-0.02033429592847824,-1.2183480727672578,-0.2646183390542865,-9.693411197662352
38.1,9.699999809265137,90.0,22.471805572509766,17.175830841064453,-79.78236329228844,40.459213675719646,293.25229568481444,-0.019839035347104083,0.02175421640276909,-0.5776727795600891,0.8157373666763306,-0.6841382960885772,7.025118223276173,0.4710556597622403,-0.06398284435272218,-0.010977344587445259,0.15943196415901184,-0.9607168275117874,-0.4257760443538428,-10.000570113658906
38.3,9.5,85.0,22.243932723999023,22.29677391052246,-79.78234842257521,40.45921882509098,293.2549144744873,-0.027966482564806938,0.02525093965232373,-0.5773630738258362,0.8156177401542664,-0.6571570250453216,6.918787706330056,0.539468004835723,-0.045610111206769936,0.1186792254447937,0.07448021322488785,-0.9471163500845432,-0.25882309053093194,-9.627260477542878
38.4,9.300000190734863,85.0,22.30152702331543,20.698467254638672,-79.78234098133224,40.459221466782544,293.2622310638428,-0.03153947740793228,0.026744944974780083,-0.5779977440834045,0.8149899244308472,-0.6738952175173759,6.884420631529357,0.582375978541664,0.102452352643013,0.007620682474225758,0.0643928125500679,-1.0294619572162629,-0.31893619503825904,-9.707586602568627
38.6,9.100000381469727,85.0,22.35912132263184,19.22739028930664,-79.7823264031882,40.45922649608947,293.2751094818115,-0.039727866649627686,0.0283214058727026,-0.5782230496406555,0.8144187331199646,-0.7020934774368546,6.816767629177897,0.696577836401978,-0.0821792408823967,-0.01905810460448265,0.22688695788383484,-0.9946911238878966,-0.2886166094429791,-9.757017794251443
38.7,9.0,85.0,22.253950119018555,20.96087646484375,-79.78231931742303,40.45922890095015,293.26125831604,-0.04469383507966995,0.030436500906944275,-0.5770570635795593,0.8149118423461914,-0.6732004688745881,6.791349167015934,0.7272026646761545,0.08866197615861893,-0.05542977899312973,0.10797532647848128,-0.8586653727293015,-0.3535511635243893,-9.624635662436486
38.9,8.800000190734863,80.0,22.316551208496094,20.213409423828125,-79.7823046775291,40.45923415149162,293.2720176696777,-0.04879376292228699,0.03553513064980507,-0.577185869216919,0.8143789768218994,-0.6862996245703483,6.786837523756198,0.8457436467471505,0.11720370501279832,0.06409268081188202,-0.06753920763731003,-0.8552999346703292,-0.02127869384363294,-9.8803548681736
39.0,8.800000190734863,80.0,22.382909774780273,20.30883026123047,-79.7822902992514,40.45923925087904,293.2743827819824,-0.05457248538732529,0.0487416535615921,-0.5769985318183899,0.8134610056877136,-0.7091384816144778,6.791605504015236,0.911182834243726,0.02915145643055438,-0.2666744589805603,-0.012272198684513569,-1.1057503605633974,-0.1442827048804611,-9.623410086035731
39.2,8.800000190734863,80.0,22.300275802612305,19.648834228515625,-79.7822831987796,40.45924175041712,293.26732749938964,-0.059012461453676224,0.053370632231235504,-0.5766805410385132,0.8130859136581421,-0.7001907664679079,6.785429842747266,0.9928124287906372,0.04766969382762909,-0.2462194114923477,-0.04726042971014977,-1.0579962965101004,-0.3382569669932127,-9.470156317949298
39.31,8.800000190734863,80.0,22.30152702331543,19.283052444458008,-79.78227581308003,40.459244384791454,293.2676574707031,-0.06484171003103256,0.05807896330952644,-0.5758818984031677,0.8128853440284729,-0.7062028995278603,6.821593550897305,1.0665400504377245,-0.009420925751328468,-0.15048952400684354,-0.10885302722454072,-1.2130415783822537,-0.14605262964963914,-9.553597839474678
39.5,8.800000190734863,74.0,22.19510269165039,22.455808639526367,-79.78226116117794,40.45924958344242,293.2518112182617,-0.07697742432355881,0.06621086597442627,-0.5731287002563477,0.8131507039070129,-0.6832752431295989,6.879582012437275,1.2002473492163213,-0.1346055567264557,-0.08046337962150574,-0.200762540102005,-1.2979454885423185,0.054828993994742635,-9.136293168067931
39.6,8.800000190734863,72.0,22.23141288757324,20.714370727539066,-79.78225363515817,40.45925225266807,293.2384750366212,-0.0809367373585701,0.0693557858467102,-0.572116494178772,0.8132169842720032,-0.6498140396946238,6.9213658305649295,1.2422664167486763,0.0788307934999466,-0.09856344014406204,0.12352581322193144,-1.3710641893744469,-0.3600061606988311,-9.105823912024498
39.8,8.800000190734863,72.0,22.2714786529541,20.579191207885746,-79.78223881131885,40.459257545979256,293.2117607116699,-0.07612203061580658,0.06789610534906387,-0.5729135870933533,0.8132439851760864,-0.6555857208932973,6.997441129064796,1.3224734460388392,-0.1291521042585373,0.04710449278354645,0.044030748307704926,-1.6260340744256974,-0.17396365575492384,-9.60026914536953
39.9,8.800000190734863,72.0,22.412960052490234,18.44016456604004,-79.78223112298639,40.459260256600494,293.19594688415526,-0.06789232045412064,0.06363826990127562,-0.5741320848464966,0.8134576678276062,-0.6498325541296606,7.0555446539373285,1.2950956904373565,0.1075468808412552,0.3321028053760529,0.11856836080551147,-1.511858710348606,-0.3589746387675405,-9.980973755121232
40.11,8.899999618530273,73.0,22.24768829345703,22.48761749267578,-79.78221586397456,40.45926556521603,293.1909210205078,-0.05746099352836609,0.058738872408866875,-0.5744464993476868,0.8144072890281677,-0.6287923890740185,7.1924452408812485,1.1133818183599091,0.03823547437787056,0.10376543551683426,-0.2407034635543823,-0.8944596149772406,-0.05902870181947946,-10.050452710390092
40.2,8.899999618530273,74.0,22.26897430419922,19.951000213623047,-79.78220822605843,40.45926832616468,293.16980094909667,-0.06475139409303665,0.058346420526504524,-0.5737661123275757,0.8143681883811951,-0.6270968807979096,7.231391548564344,1.1013988088285387,0.01285779383033514,-0.0941433310508728,0.16169458627700806,-1.1334475978463892,-0.197531790342182,-9.884913357496265
40.4,9.0,73.0,22.41546440124512,19.05245018005371,-79.78219229319485,40.45927380898525,293.15754241943364,-0.08681908249855043,0.06642115116119385,-0.5703654289245605,0.8140847682952881,-0.5811761930411554,7.336143321360325,1.3309910350698653,-0.14645051956176758,-0.3355735242366791,0.003905809484422207,-1.367722651809454,0.2757006765156985,-9.522901126742363
40.5,9.100000381469727,72.0,22.256452560424805,20.8813591003418,-79.78217631027474,40.45927929032862,293.0984851837158,-0.09949372708797456,0.07112423330545425,-0.5665488243103027,0.8149017095565796,-0.5167855333600357,7.4125496428407525,1.6186941613862262,-0.10544814169406892,-0.008942870423197745,-0.015190924517810343,-1.36096400141716,-0.23601079992949964,-9.401360317468644
40.7,9.100000381469727,66.0,22.203866958618164,22.209304809570312,-79.7821682903009,40.45928209578183,293.074547958374,-0.09683211892843246,0.06769713014364243,-0.5648837089538574,0.8166682720184326,-0.4972676023663704,7.463288373655898,1.6183643113103925,-0.1967396140098572,0.17771469056606293,-0.1260327398777008,-1.3595583307743073,0.09079288772307337,-9.183553873300557
40.81,9.100000381469727,66.0,22.127492904663086,22.73412132263184,-79.78216002269791,40.459284907830856,293.04954261779784,-0.08851069957017899,0.058838032186031335,-0.5640902519226074,0.8188444972038269,-0.44078569491375497,7.534529794840994,1.55698388188127,0.09017373621463776,0.19172632694244385,0.24006399512290955,-1.6911603623628615,-0.5101176350936294,-9.355365534424783
41.0,9.100000381469727,64.0,22.265216827392575,19.935096740722656,-79.78214342763091,40.459290599501635,292.99183769226073,-0.07154159247875214,0.04587091505527496,-0.5652221441268921,0.8205496668815613,-0.40455667911358095,7.708527782628098,1.1892295388333058,-0.0010833654087036848,0.12225288152694702,-0.08268226683139801,-1.1752675420045853,0.04647154125384986,-9.597818577289582
41.1,9.199999809265137,64.0,22.212631225585934,22.082077026367188,-79.78213499047433,40.459293450198004,292.9662353515625,-0.06794843822717668,0.0427950955927372,-0.5654535293579102,0.8208617568016052,-0.3994241856201388,7.752741342194879,1.084384695846767,0.001817253301851452,0.18586350977420807,-0.08988449722528458,-1.4573047730326654,0.1533468301780522,-9.814655553102494
41.3,9.399999618530273,68.0,22.099946975708008,23.250986099243164,-79.78211808881674,40.45929918037871,292.9101364135742,-0.06350703537464142,0.028194528073072437,-0.5644722580909729,0.8225223422050476,-0.3791779497855588,7.7909183005003655,1.001908566530239,-0.1236184537410736,0.2041673958301544,-0.2027797549962997,-1.0722298081219197,0.027492109648883344,-10.254940366744997
41.41,9.399999618530273,70.0,22.260210037231445,20.412202835083008,-79.78210108299834,40.45930507475047,292.8499328613281,-0.07032755762338637,0.0284380316734314,-0.5628687739372253,0.8230577111244202,-0.3859544156328563,7.865299409778342,0.9433954418509706,0.038279175758361816,-0.016401799395680428,0.11079023033380507,-1.0994688429683448,-0.27359841976314786,-10.194535120725632
41.6,9.5,69.0,22.104955673217773,22.52737617492676,-79.78209255233996,40.4593080045107,292.8359348297119,-0.07482995092868805,0.034319330006837845,-0.5631928443908691,0.8222144246101379,-0.40697821450841226,7.863203462081468,1.0353204957688673,0.02659256942570209,-0.2129492163658142,0.07732375711202621,-1.5260829395055773,-0.1812011565640569,-9.6168068253994
41.7,9.5,69.0,22.186338424682614,22.0105094909668,-79.78208399231325,40.459310964072316,292.7894660949707,-0.07574141025543213,0.03598102182149887,-0.5648082494735718,0.8209509253501892,-0.4364008068099934,7.884107046434879,1.1307010646736808,0.06211616471409798,0.08710972219705583,0.019811313599348068,-1.2975106018781664,0.06219094913452864,-9.870128087997434
41.9,9.5,66.0,22.21012687683105,22.47171401977539,-79.78206688710141,40.459316950029695,292.75854415893554,-0.06314671039581299,0.03465492278337478,-0.5699625015258789,0.8185074329376221,-0.5563037835701752,7.881314017702558,1.1435671332218846,0.1772516518831253,0.22129347920417786,0.28235968947410583,-1.4643918907642366,-0.0346568126231432,-9.92000132918358
42.0,9.5,68.0,22.191347122192386,21.191476821899414,-79.78205839242254,40.459320013561246,292.72548217773436,-0.05461836606264114,0.034580156207084656,-0.5724517703056335,0.8173860907554626,-0.6148037329150761,7.912935416912853,1.035143873991707,0.06703314930200578,-0.024915318936109543,-0.017409656196832657,-1.4191702558100223,0.11003964671865106,-9.843563017845154
42.2,9.5,68.0,22.230159759521484,21.000635147094727,-79.78204131878275,40.459326127295306,292.68005867004393,-0.05112078413367272,0.03497686982154846,-0.5741180777549744,0.8164262771606445,-0.7111900424560773,7.932188543009333,0.8975689599711052,-0.11125240474939346,-0.13026800751686096,-0.08999169617891313,-1.4793227559328082,0.13629673305898907,-9.825472902059555
42.31,9.5,68.0,22.24894142150879,19.77606201171875,-79.78203275007598,40.45932916576621,292.67217178344725,-0.05352222546935082,0.03508411720395088,-0.5743006467819214,0.8161393404006958,-0.7150612164176979,7.925616726725647,0.9067238023258946,0.02473202720284462,-0.061904162168502815,0.020224506035447117,-1.0712723265588284,-0.1647941252589226,-9.8688533949852
42.5,9.5,70.0,22.21388435363769,21.25509262084961,-79.78201563020248,40.45933527953461,292.6288234710693,-0.0536259301006794,0.0362381637096405,-0.5745260715484619,0.8159233331680298,-0.7180881673046345,7.925607679087883,0.9103990109663234,0.18942108750343328,0.08687397092580795,-0.0649653822183609,-1.1292357022315265,0.14942475546151401,-9.561475793123243
42.6,9.399999618530273,70.0,22.180078506469727,21.92304039001465,-79.78200707264938,40.45933832750417,292.61535758972167,-0.05040637776255608,0.03683974966406822,-0.5750094652175903,0.8157610893249512,-0.7487287659476913,7.924481749334007,0.8891593585665116,-0.07597634941339493,0.009415438398718834,-0.13445323705673218,-1.5658004441857338,0.30482702812179924,-9.347620897293089
42.8,9.199999809265137,71.0,22.14251708984375,22.78183174133301,-79.7819900684501,40.45934442426776,292.5739204406738,-0.04587637260556221,0.033632293343544006,-0.5755268931388855,0.8158021569252014,-0.7622730288620383,7.912895776988169,0.7830838672541611,-0.05972117558121681,0.12111424654722215,-0.02493823505938053,-1.4332133674621583,0.13624383402988316,-9.56288731098175
42.9,9.199999809265137,71.0,22.25520133972168,20.022565841674805,-79.78197305939355,40.45935056881663,292.5387336730957,-0.0380011647939682,0.028804419562220573,-0.5750840306282043,0.8167034387588501,-0.7585049537910323,7.90185763376131,0.6792619923934604,0.029009267687797543,0.07802654802799225,-0.15511827170848844,-0.8756627900898457,-0.0660209302045405,-9.876768186092377
43.1,9.100000381469727,73.0,22.103702545166016,23.70423889160156,-79.78196457730752,40.45935361099768,292.52348442077636,-0.03722769021987915,0.02865825966000557,-0.5745192170143127,0.8171416521072388,-0.7597528888564099,7.881177077172046,0.5888758699108905,0.009939325973391531,0.0009786823065951467,0.0435611680150032,-1.046944839656353,0.16632768547162413,-9.72669471859932
43.2,9.0,74.0,22.30778694152832,20.094133377075195,-79.78195609441195,40.45935666296938,292.50280113220214,-0.039952557533979416,0.028749076649546627,-0.5734198093414307,0.8177818655967712,-0.7377128053666628,7.8648648009165765,0.5668395858070439,-0.057674512267112725,-0.0799080953001976,0.1216958910226822,-1.0320933504402638,-0.31511518578976394,-9.74598526775837
43.4,9.0,74.0,22.10871124267578,23.09990310668945,-79.7819392394378,40.45936271665406,292.463557434082,-0.04850532859563828,0.029122142121195793,-0.5716760754585266,0.818526566028595,-0.7150708021752983,7.837189733823968,0.5887683236843455,-0.09674040228128432,-0.28381821513175964,0.10798695683479308,-1.3582187336683271,-0.3655273209884763,-9.361587556600572
43.5,8.899999618530273,74.0,22.137508392333984,22.408098220825195,-79.78193091674112,40.45936573853237,292.44181938171386,-0.0496908575296402,0.030918048694729805,-0.5719133019447327,0.8182237148284912,-0.6912592476966051,7.795386433346088,0.6303980627593214,0.1285639852285385,0.06883015483617783,0.1004808247089386,-1.115002848431468,0.0665720942337066,-9.376565199494364
43.7,8.800000190734863,73.0,22.047361373901367,24.3801383972168,-79.78191424274405,40.459371747764024,292.398579788208,-0.04359374567866325,0.031370602548122406,-0.5728181004524231,0.8179211616516113,-0.7132835282201954,7.761176612213997,0.6182080954725431,0.13279177248477936,0.02405694685876369,-0.07049225270748137,-1.2467708033323288,0.05106420937925577,-9.568290722966195
43.8,8.800000190734863,74.0,22.111215591430664,23.61676788330078,-79.78190592805282,40.45937475356504,292.37305946350097,-0.041311513632535934,0.033459942787885666,-0.5735107064247131,0.8174713253974915,-0.7177624075254699,7.732986164157205,0.5707214483527213,0.14666421711444855,0.08061327040195465,0.062092658132314675,-1.30606244713068,-0.23598094258457425,-9.690867658853527
43.9,8.699999809265138,74.0,22.191347122192386,20.849552154541016,-79.78189764340448,40.45937774696456,292.3468563079834,-0.03908652439713478,0.034045003354549415,-0.5739439129829407,0.8172524571418762,-0.7429455884994338,7.712357803136486,0.5494293955351724,-0.07017626613378525,0.06473402678966522,-0.12100113928318025,-1.091224488168955,-0.05312114107422531,-9.702645705342293
44.1,8.699999809265138,74.0,21.942188262939453,25.994348526000977,-79.78188115749046,40.45938366038517,292.2937747955322,-0.04696490615606308,0.031973615288734436,-0.5716291666030884,0.8185426592826843,-0.7233359502732016,7.66522364642413,0.5248247108917801,-0.08879733830690384,-0.10106171667575836,0.05887937545776367,-1.3705389632284641,-0.3945510356873274,-9.49661029100418
44.3,8.699999809265138,74.0,21.940937042236328,25.95458984375,-79.7818647491123,40.45938957789381,292.24173469543456,-0.05346740782260895,0.037741273641586304,-0.5715004205703735,0.8179877996444702,-0.6886069587199778,7.620014244918835,0.6969629745163088,0.1452464908361435,-0.0670512318611145,-0.011889532208442688,-1.349945215880871,-0.2093285113759339,-10.022296028137207
44.4,8.699999809265138,74.0,21.884593963623047,27.012176513671875,-79.78185658184722,40.45939255205554,292.21944923400883,-0.051699578762054436,0.0464901402592659,-0.5726407170295715,0.8168527483940125,-0.7175916941913782,7.594104995832263,0.7811481180005847,0.19208590686321256,0.020512793213129044,-0.15982270240783691,-1.2179190333187582,-0.06932259706780315,-10.063378565311432
44.6,8.800000190734863,75.0,21.776918411254886,28.98421669006348,-79.78184020953856,40.45939841903064,292.17650146484374,-0.05572005361318588,0.0583169125020504,-0.5726159811019897,0.8158464431762695,-0.7472842874361666,7.601277101671648,0.9188999935869197,-0.06911548972129823,-0.14803417026996613,0.06279145181179048,-1.4869777844846248,-0.1404204088076949,-9.884167252779008
44.71,8.800000190734863,76.0,21.937179565429688,25.620615005493164,-79.78182400129658,40.459404237945634,292.1285774230957,-0.06590192019939423,0.05999664217233658,-0.5705697536468506,0.8163991570472717,-0.7350591395881728,7.597290843270541,1.1451495312613822,-0.12036137282848358,-0.08703196793794632,-0.025425679981708527,-1.2692746898531917,-0.2943654639646411,-10.201750584840775
44.9,9.0,73.0,21.83325958251953,28.371929168701172,-79.78181575946392,40.45940719840043,292.1172077178955,-0.07080809026956557,0.060448076575994485,-0.5692722797393799,0.8168606758117676,-0.6999744377988596,7.605569751304372,1.229805871063792,-0.01561042945832014,-0.007416375447064637,-0.07435305416584015,-1.6432007686793806,0.016191999949514868,-9.589988570809362
45.0,9.0,73.0,21.67800521850586,30.176982879638672,-79.78180759138931,40.459410116394686,292.0854923248292,-0.07302998006343843,0.06178396567702293,-0.5686768293380737,0.8169798851013184,-0.6830221907793672,7.600706566062278,1.2919799070869455,-0.02997608482837677,-0.014922071248292925,0.0722222700715065,-1.7634684929251672,-0.2301933868043125,-9.846888914108275
45.2,9.199999809265137,75.0,21.902122497558594,26.33627510070801,-79.78179110781394,40.459416039125024,292.0550090789795,-0.07195651531219482,0.05791522935032845,-0.5664456486701965,0.8189063072204591,-0.6910285178243609,7.638143597932423,1.3756492475115,-0.017203664407134056,-0.08214090019464493,0.046058479696512215,-1.7858561660349368,-0.3130513379350305,-10.121223900318148
45.3,9.300000190734863,76.0,21.885847091674805,26.646394729614247,-79.78178279609101,40.45941907069093,292.05142707824706,-0.06978897750377655,0.06003109738230705,-0.5668101906776428,0.8186892867088318,-0.6848662381284347,7.670235192813068,1.4025458847467736,0.09828130155801773,-0.04979266971349716,0.17066507041454315,-1.7369174560904503,-0.5246250522136688,-9.944372524023057
45.5,9.399999618530273,78.0,21.9497013092041,25.54109764099121,-79.78176612587177,40.45942514368211,292.03215713500975,-0.062072061002254486,0.07291141897439958,-0.5682355165481567,0.8172756433486938,-0.7078942615961688,7.736607447311747,1.4103267316768708,0.2684241533279419,0.0921228975057602,-0.1786443144083023,-1.4290868411958215,-0.36586974855512383,-9.928172228336335
45.6,9.5,77.0,21.952205657958984,25.07194328308105,-79.78174941904336,40.45943131818697,292.0218421936035,-0.055181164294481284,0.07305242866277695,-0.5697431564331055,0.8167075514793396,-0.7642044158121439,7.775261700610621,1.3770127323851211,-0.028754319995641712,0.022349828854203224,0.18561924993991846,-1.5516370260715486,-0.3046570385992527,-9.896569197177888
45.8,9.600000381469727,78.0,21.76064109802246,28.91264915466309,-79.78174095116925,40.45943439132023,292.0180122375488,-0.055055513978004456,0.0692889541387558,-0.5690471529960632,0.8175288438796997,-0.7592181210415571,7.8205191709842685,1.2699380791804478,-0.12244793027639388,-0.016574794426560402,0.039038103073835366,-1.4711094644665719,-0.4626085328310728,-9.355308231711387
45.9,9.600000381469727,78.0,21.86581420898437,25.80350685119629,-79.78173247142189,40.459437457239325,292.0113460540772,-0.052622754126787186,0.06447431445121765,-0.5687094926834106,0.8183174133300781,-0.7232915182318536,7.824986270887583,1.2493514212720496,-0.14099809527397156,0.105131134390831,-0.1047585979104042,-1.5052808851003647,-0.08853172374889255,-9.835801423788071
46.1,9.699999809265137,81.0,22.01981544494629,24.53122329711914,-79.78171562994007,40.45944353273829,292.01438636779784,-0.04690767079591751,0.06452909111976624,-0.5690194368362427,0.8184453248977661,-0.6669281450791279,7.8476050598696565,1.0869139917844872,-0.08289623260498047,-0.03762359917163849,-0.016660578548908234,-1.304944167137146,-0.0006463457364588978,-9.58141655266285
46.21,9.699999809265137,82.0,21.8282527923584,27.74374008178711,-79.78170715118216,40.459446553689055,292.01587600708007,-0.05068323388695717,0.06597962230443953,-0.568620502948761,0.8183818459510803,-0.6492383583691789,7.844772333612482,1.0691921746314,-0.07292965799570084,-0.0808127149939537,0.045419078320264816,-1.2648945406079293,-0.4912610955163837,-9.430223343372344
46.41,9.699999809265137,81.0,21.82574844360352,28.10951995849609,-79.78169015228985,40.459452536434405,291.9985439300537,-0.05910254642367362,0.058347627520561225,-0.5673170685768127,0.8193008303642273,-0.5955363618476557,7.823339794065026,1.1961562020845022,-0.11339232325553895,0.0456269308924675,-0.014508794993162157,-1.6312917445600033,-0.06473574874922633,-9.833329221010207
