time,wind_speed,wind_angle,battery_voltage,battery_current,position_x,position_y,position_z,orientation_x,orientation_y,orientation_z,orientation_w,velocity_x,velocity_y,velocity_z,angular_x,angular_y,angular_z,linear_acceleration_x,linear_acceleration_y,linear_acceleration_z
0.0,0.10000000149011612,312.0,25.449182510375977,-0.1908425688743592,-79.78280487796219,40.45905095840846,267.0676869969368,0.003005752339959145,0.01257243938744068,0.2651699185371399,0.9641150832176208,-0.037979027131922916,-0.011194778306087718,0.002938204757872603,6.0969330661464476e-05,0.00012606974632944912,0.009307288564741613,0.10828338981606067,-0.26401099607348444,-9.804403629899024
0.19,0.10000000149011612,313.0,25.4654598236084,-0.20674611628055573,-79.78280491086792,40.45905093174354,267.0680715661049,0.0029997953679412603,0.012577573768794537,0.26518702507019043,0.9641103744506836,-0.043864278260980535,-0.011820563955585504,0.003281597953313674,-0.004052234813570975,-0.002832803642377257,-0.009276943281292915,0.10917174632661043,-0.26053303565829994,-9.804989520907405
0.3,0.10000000149011612,317.0,25.47171974182129,-0.2306014448404312,-79.78280480072588,40.45905094423468,267.0617410759926,0.0029799032490700483,0.012622209265828131,0.2651840150356293,0.9641106724739076,-0.03904261368416873,-0.01263249874746005,0.001988168142027137,-0.004048258997499943,-0.002301193308085203,-0.010253232903778551,0.11601201105862854,-0.28384495256468656,-9.80778098165989
0.49,0.10000000149011612,318.0,25.4654598236084,-0.21469789743423465,-79.78280466569427,40.45905101160317,267.0555480341912,0.00295156124047935,0.012667340226471424,0.265199214220047,0.9641059637069702,-0.02466431156259484,-0.0058369493887688115,0.0008483270330447402,0.006895863451063633,0.0034072957932949066,0.008480041287839413,0.1123293067328632,-0.28359878478571776,-9.806482899785044
0.6,0.10000000149011612,326.0,25.46170234680176,-0.18289080262184146,-79.7828047178972,40.45905097452588,267.0558822374344,0.002957525895908475,0.012656651437282562,0.2652086913585663,0.9641034603118896,-0.0346205253753155,-0.007559490328612781,0.001273978084121464,0.0054922951385378855,-0.00011601924052229152,0.0005672814440913497,0.11069190362468362,-0.27316530553624035,-9.80683373272419
0.79,0.10000000149011612,329.0,25.454191207885746,-0.1908425688743592,-79.78280457150403,40.45905100354185,267.04938467550284,0.0029570742044597864,0.01266571320593357,0.2652079164981842,0.9641035199165344,-0.029687769168426494,-0.012872598986459271,0.0004958808577829698,-0.002910672454163432,-0.0007545340922661126,0.0049615101888775826,0.1112766251899302,-0.2818294173292816,-9.807974524497986
0.9,0.10000000149011612,340.0,25.466711044311523,-0.17493902146816254,-79.78280449518594,40.45905104091503,267.04210465359694,0.002924817614257336,0.012674127705395222,0.265207976102829,0.9641035199165344,-0.02828221909333813,-0.0061556988652643144,-0.00308320005534922,0.0011164951138198378,0.0013993415050208569,0.007893330417573452,0.10699509289115668,-0.2649429874308408,-9.805791174173356
1.1,0.10000000149011612,344.0,25.45919990539551,-0.16698725521564484,-79.78280452235202,40.459051021635645,267.0418742518425,0.002958836266770959,0.012657615356147293,0.2651817798614502,0.9641108512878418,-0.033455598963998495,-0.00703728479468073,-0.002810276801417788,-0.0031039188615977764,-0.00012449677160475403,-0.009170383214950563,0.1060615209583193,-0.2624589988589287,-9.805646163225177
1.19,0.10000000149011612,353.0,25.449182510375977,-0.17493902146816254,-79.78280441296013,40.45905103384619,267.03818684029585,0.002990394365042448,0.01269768737256527,0.2651742398738861,0.9641122817993164,-0.03030286115812615,-0.01410191506710222,0.0016378829308977489,-0.0032305028289556503,-0.0004634358629118651,-0.012012929655611515,0.11533375231549145,-0.2887951870635152,-9.809040471911429
1.4,0.10000000149011612,355.0,25.46796417236328,-0.18289080262184146,-79.78280443486382,40.45905100892684,267.03840961265564,0.002976431511342525,0.012692808173596859,0.26516327261924744,0.9641154408454896,-0.0333793962187475,-0.015348435517212143,0.001672714767755064,0.006763664074242115,0.0017951071495190265,0.014006533659994602,0.12109232783317568,-0.287374953199178,-9.808382660150526
1.5,0.10000000149011612,0.0,25.46796417236328,-0.18289080262184146,-79.78280434963662,40.459051091218704,267.03326829481125,0.002943838480859995,0.012688916176557541,0.2651762366294861,0.9641119837760924,-0.02719312067268861,-0.0034112629262210647,0.0007840330463416183,0.008198263123631477,0.0012728340225294232,0.011272506788372992,0.10775175914168356,-0.26320448230952026,-9.805944955945016
1.69,0.10000000149011612,2.0,25.45794677734375,-0.17493902146816254,-79.78280437688417,40.45905107519884,267.0334299128056,0.002936722710728645,0.012711703777313229,0.2651991546154022,0.9641053676605223,-0.0334188937219787,-0.003925916391722193,0.0010279823882600463,-0.008166197687387466,-0.00250273197889328,-0.007633219007402658,0.10941596807911992,-0.2694305061735213,-9.806437291502952
1.79,0.20000000298023224,7.0,25.470468521118164,-0.18289080262184146,-79.78280423608751,40.4590510999899,267.0290697734356,0.0029240271542221308,0.012747110798954964,0.26515236496925354,0.9641178846359252,-0.02678057584806941,-0.010271228935753628,0.0006300743956540808,-0.0077034193091094485,-0.003320514457300305,-0.005821959115564822,0.11128941597416996,-0.2790511493571103,-9.806118033528328
1.99,0.20000000298023224,6.0,25.45794677734375,-0.18289080262184146,-79.78280414782287,40.45905117155631,267.0249786894321,0.002885306952521205,0.012748044915497305,0.26515939831733704,0.9641159772872924,-0.02152938037778998,-0.002539639975621788,0.00014614422106010174,0.006762230768799782,0.0014508743770420553,0.0020844959653913975,0.11140111606568097,-0.2755935993790627,-9.806157794594766
2.1,0.20000000298023224,10.0,25.460451126098643,-0.18289080262184146,-79.78280419685446,40.459051142945754,267.02515350985533,0.002868496580049396,0.012742942199110985,0.2651498019695282,0.9641187787055968,-0.030711775799637662,-0.004076499074066903,0.00033098349322293783,0.00494454987347126,0.0016737350961193442,-0.002032423857599497,0.11117714943364262,-0.2758027469739318,-9.806330872178078
2.29,0.20000000298023224,14.0,25.45168685913086,-0.198794350028038,-79.78280411435951,40.45905119079558,267.0226931195259,0.002868405310437083,0.012748990207910538,0.2651468813419342,0.9641194939613342,-0.030011430780106995,-0.0046555280326462285,0.003627862838504556,-0.0038977833464741694,9.624106314731762e-05,0.004734930582344532,0.11378759318031373,-0.2821997105330229,-9.807148897647858
2.39,0.20000000298023224,18.0,25.454191207885746,-0.17493902146816254,-79.78280404814879,40.45905124219788,267.0188342254162,0.002842480316758156,0.012773233465850352,0.2651366591453552,0.9641221165657043,-0.027002566824622886,-0.0020903862505802905,0.0019860946772513803,0.0038811636622995134,0.0038517739158123727,0.007398716639727355,0.10912058318965136,-0.2632468746230006,-9.805351463556287
2.59,0.20000000298023224,19.0,25.456695556640625,-0.17493902146816254,-79.78280407682813,40.45905122663629,267.01911344337464,0.0028513951692730197,0.012781537137925623,0.2651241421699524,0.9641254544258118,-0.03287468834920255,-0.002549212987760816,0.002257826941452654,-0.00757503230124712,-0.0028594243340194225,-0.010916429571807384,0.10690606903284787,-0.2620241670124233,-9.805460221767426
2.7,0.10000000149011612,20.0,25.46295547485352,-0.18289080262184146,-79.78280398894475,40.459051251710896,267.0170546989441,0.002861727261915803,0.012830021791160108,0.2651021480560303,0.9641307592391968,-0.030989204859118324,-0.009569702149313844,0.005047966945122058,-0.006646411493420601,0.001631420338526368,-0.006257606204599142,0.11456645144149664,-0.2822661860659719,-9.806768828630448
2.89,0.20000000298023224,16.0,25.45544242858887,-0.17493902146816254,-79.78280401459061,40.45905122964985,267.0176256518364,0.002848396310582757,0.012843724340200424,0.265073299407959,0.9641385674476624,-0.034106044954603704,-0.010738253004469534,0.005087827510236282,0.006427725777029989,0.0020651912782341237,0.0028937452007085085,0.11048745207488538,-0.2738743535242975,-9.806172412633897
2.99,0.20000000298023224,6.0,25.456695556640625,-0.1908425688743592,-79.78280394303334,40.45905127968057,267.0142319123745,0.002836620202288032,0.01285479310899973,0.26509174704551697,0.964133322238922,-0.030275212743785918,-0.008393406757077147,0.003406332461152891,-0.001310436287894845,-0.001933923223987221,-0.0035107077565044165,0.11224115995690227,-0.28280745550990105,-9.80750908613205
3.19,0.20000000298023224,11.0,25.470468521118164,-0.16698725521564484,-79.78280396860019,40.459051259043825,267.01464494276047,0.002810226753354073,0.012878813780844213,0.2651318609714508,0.9641220569610596,-0.03403632928309129,-0.009104043675491924,0.003518669441433807,0.003811696544289589,0.0012638333719223738,0.008940075524151325,0.1163133436627686,-0.2847149268910289,-9.808021886944774
3.3,0.20000000298023224,347.0,25.456695556640625,-0.198794350028038,-79.78280391264839,40.459051303503024,267.0109389345646,0.002804989693686366,0.01293532270938158,0.2650917172431946,0.9641324281692504,-0.032772886174917984,-0.008004074763267095,0.0017727067225435079,0.005692784208804369,0.0031965544912964106,0.013413954526185993,0.10899831242859363,-0.2595604426972568,-9.803986723423003
3.49,0.30000001192092896,327.0,25.45794677734375,-0.18289080262184146,-79.78280381601304,40.45905138036359,267.00740828323364,0.002783145755529404,0.012972660362720493,0.2651027739048004,0.9641289114952089,-0.024851737514860903,-0.005180997839424164,0.0011288090347010766,-0.008455606177449226,-0.0007430848781950773,-0.01221870444715023,0.10930307113565504,-0.26704471427947285,-9.805039222240447
3.59,0.30000001192092896,260.0,25.452938079833984,-0.15108370780944824,-79.78280386457803,40.45905134549161,267.0077648978233,0.0027950420044362545,0.012958260253071785,0.2650960981845856,0.9641309380531312,-0.03269104850763006,-0.006794578243172641,0.001330004929137753,-0.004551693797111511,-0.0004944179090671241,-0.0013292020885273814,0.11366747858002782,-0.28711224876344205,-9.806226791739462
3.79,0.30000001192092896,247.0,25.45544242858887,-0.1908425688743592,-79.78280377771426,40.459051410152895,267.0041309814453,0.002804264193400741,0.012980648316442966,0.2650713622570038,0.9641373157501221,-0.028054547211482383,-0.006230947081996949,0.0005323904353404622,0.0037935352884233,-0.00024334047338925302,0.002611695555970073,0.10793965576216576,-0.27128966493532064,-9.806651884317398
3.9,0.30000001192092896,226.0,25.466711044311523,-0.18289080262184146,-79.78280370667571,40.45905144784869,267.00159563827515,0.0027815455105155698,0.013046285137534142,0.2650488615036011,0.9641427397727966,-0.02586767654436129,-0.009487032822517729,0.0006330231010560647,0.0003103770723100752,0.003321211552247405,-0.006030079908668995,0.11167969934642316,-0.2835218938998878,-9.80736407518387
4.09,0.30000001192092896,228.0,25.470468521118164,-0.14313192665576935,-79.78280372910379,40.459051427375535,267.00170987057686,0.002777456305921077,0.013015271164476871,0.26506632566452026,0.964138388633728,-0.02992315417469495,-0.010301713674828536,0.0005668985120816497,0.0012271051527932284,-0.00013760989531874657,0.009202800691127777,0.11552168548107147,-0.28721738900989296,-9.8074611389637
4.2,0.30000001192092896,215.0,25.456695556640625,-0.17493902146816254,-79.7828036685092,40.45905150206862,266.9991597752571,0.0027326904237270355,0.013054977171123028,0.26507511734962463,0.9641355872154236,-0.02505779238401861,-0.001900838055540973,0.00030850549352892903,0.005667504854500294,0.0016452826093882322,0.012147323228418829,0.11013215149752796,-0.2604015281237662,-9.805118159651757
4.41,0.30000001192092896,213.0,25.46796417236328,-0.17493902146816254,-79.78280369352858,40.45905148884707,266.9992613117695,0.002733333967626095,0.013075165450572971,0.2650699019432068,0.9641366600990297,-0.030092215574717918,-0.0021777896581465766,0.0005544619220140438,-0.007250544615089893,-0.0024987144861370325,-0.010403282940387726,0.10943352799862624,-0.2653063918836415,-9.805875374078749
4.5,0.30000001192092896,207.0,25.46295547485352,-0.18289080262184146,-79.78280361065094,40.45905153629312,266.9971241276264,0.0027163249906152487,0.013099497184157372,0.2650782763957977,0.9641341567039492,-0.0267893687655504,-0.006038567130479238,0.00048567923159265205,-0.005640135612338781,-0.0020142297726124525,0.001094747567549348,0.1106473551504314,-0.2748967757262289,-9.806806250810624
4.69,0.30000001192092896,197.0,25.470468521118164,-0.1908425688743592,-79.7828036345428,40.45905151893228,266.9972383003235,0.002698149997740984,0.013105710968375206,0.2650976181030273,0.9641287326812744,-0.030387466419536494,-0.006717375002230745,0.000718689765257808,-0.0021817237138748173,-5.147395495441742e-05,-0.007621999364346266,0.10698500644415618,-0.2640951228886843,-9.804814689159391
4.8,0.20000000298023224,194.0,25.45794677734375,-0.1908425688743592,-79.78280357424944,40.45905156504097,266.9955564956665,0.0026814346201717854,0.013125037774443626,0.26508259773254395,0.9641327261924744,-0.03149129386650832,-0.006462421069421557,0.0005632644294579412,-0.0036668085958808656,0.0002253678103443236,-0.008462181314826012,0.11296066897921266,-0.2836447037011385,-9.806060730814934
4.99,0.20000000298023224,186.0,25.456695556640625,-0.07156596332788467,-79.78280348072417,40.459051648543905,266.994156591177,0.002647199435159564,0.01314883679151535,0.26508766412734985,0.9641309976577759,-0.02225551521357701,-0.0022793163674367928,0.0004023232180349245,0.0008436042116954923,0.0012747988803312182,0.000654283445328474,0.10949308737181128,-0.2687966314516962,-9.804976657032967
5.09,0.10000000149011612,181.0,25.45043563842773,-0.11927660554647446,-79.78280352940642,40.45905162100553,266.9943946223259,0.002636761171743273,0.013141300529241562,0.2651150822639465,0.9641236662864684,-0.03024699230625765,-0.0030481166453383357,0.0008698876678585739,-0.0060466546565294274,-0.0024044043384492397,-0.012828091159462929,0.1148616810142994,-0.2856975514814258,-9.808869148492814
5.29,0.10000000149011612,182.0,25.45168685913086,-0.15108370780944824,-79.78280343559463,40.45905166590489,266.99518039035803,0.0026471319142729053,0.013150847516953943,0.2650986313819885,0.9641280174255372,-0.025926801760129767,-0.008683138183167618,0.0040679307472664015,0.006620468571782112,0.006988018285483122,0.01084553264081478,0.1112567720655352,-0.2852897447347641,-9.806294034719468
5.4,0.10000000149011612,171.0,25.45168685913086,-0.11132483184337616,-79.78280335111495,40.459051719338454,266.9946770589352,0.002631938550621271,0.013199984095990658,0.2650672793388367,0.964136004447937,-0.021596482090207786,-0.00929256064612197,0.002472571276707114,0.0029259552247822285,-0.002025228925049305,0.00028587196720764036,0.1077086450625211,-0.26564584102481603,-9.806151362657546
5.59,0.20000000298023224,170.0,25.44417381286621,-0.07156596332788467,-79.78280336929402,40.45905170109731,266.9949731748104,0.0026280174497514963,0.01319399941712618,0.2650666534900665,0.9641363024711608,-0.025378730278518592,-0.009855727319683562,0.0024786748579583803,-0.00028496477170847356,-0.0023426064290106297,0.004819884896278381,0.11404057662002742,-0.2870151849836111,-9.806465942859653
5.69,0.20000000298023224,167.0,25.44793128967285,-0.11132483184337616,-79.78280328266021,40.45905176975511,266.9969807188511,0.0025852147955447435,0.013223061338067056,0.2650519907474518,0.9641400575637816,-0.020398494666302242,-0.0066603656077264895,0.005603159337669568,0.006748285610228777,-0.00034984713420271873,0.010209545493125916,0.1073129073344171,-0.2601675846800208,-9.803422467112542
5.89,0.20000000298023224,168.0,25.44542694091797,-0.10337305814027786,-79.78280330032128,40.45905175480196,266.9976076107025,0.0025843719486147165,0.01323060505092144,0.2650362253189087,0.964144229888916,-0.02504633783055901,-0.006876987708899826,0.005991620711866525,-0.009797918610274792,-0.0011049001477658749,-0.0072525981813669205,0.10970344095490872,-0.2677952044084668,-9.806272400021554
6.0,0.20000000298023224,178.0,25.439167022705078,-0.07156596332788467,-79.78280323197475,40.459051801551816,266.9982007067204,0.0025588725693523892,0.013223938643932344,0.2650298774242401,0.9641461968421936,-0.024398698310511748,-0.00832929841767975,0.0043981925586580786,-0.0013049357803538446,0.0013752724044024944,0.004095199052244425,0.10814475598745048,-0.27011967362836004,-9.805650840997695
6.19,0.30000001192092896,174.0,25.43791389465332,-0.12722837924957275,-79.7828032520178,40.459051783560135,266.99870612430567,0.002536900108680129,0.013236168771982193,0.26504895091056824,0.9641408324241638,-0.02813273058134897,-0.008808050817958442,0.004672353029809728,-0.004920783452689648,-0.0010761296143755317,-0.009069268591701984,0.10720534597523512,-0.2590754709765315,-9.803628873825074
6.29,0.30000001192092896,188.0,25.440418243408203,-0.10337305814027786,-79.78280318311259,40.45905182984206,267.0014657001496,0.0024981836322695017,0.013258609920740128,0.2650063931941986,0.9641523361206056,-0.027017091238918708,-0.009216784545379155,0.0067637520920865,-0.008620541542768478,-0.0006805093144066633,-0.012397186830639841,0.11454107087105513,-0.2874162308871746,-9.806372387409212
6.49,0.4000000059604645,188.0,25.440418243408203,-0.12722837924957275,-79.78280308839878,40.45905190116653,267.0039077322483,0.002514518331736327,0.013270027935504913,0.2650120556354523,0.964150607585907,-0.020263393368260857,-0.009153889452440774,0.008224253941198145,0.00275673670694232,0.004151117987930775,0.005494556855410338,0.11120541706681253,-0.2715710073709488,-9.80603909611702
6.59,0.4000000059604645,197.0,25.439167022705078,-0.12722837924957275,-79.78280312398215,40.459051865214576,267.0056739966869,0.002517847809940577,0.013276063837110995,0.265036404132843,0.9641437530517578,-0.02779447577143102,-0.009715265906508673,0.008633204181307367,-0.00583677040413022,-0.00065103720407933,-0.012693021446466446,0.11171660989522934,-0.2862414338998497,-9.807407929301263
6.79,0.4000000059604645,205.0,25.430402755737305,-0.07156596332788467,-79.78280304724616,40.45905192343745,267.0061661820412,0.002496816916391253,0.013282335363328457,0.2650306820869446,0.9641452431678772,-0.02593459923857586,-0.011004977376441565,0.005050739111605185,0.005519068334251642,0.0017346215900033712,0.01269053015857935,0.11637614641338588,-0.2866027370095253,-9.807358227968217
6.9,0.4000000059604645,213.0,25.436662673950195,-0.11132483184337616,-79.78280298812835,40.4590520084345,267.00962977814675,0.0024381231050938372,0.013321884907782078,0.2650434076786041,0.9641414284706116,-0.019303960858003847,-0.0019559418168386385,0.007055283997640963,0.005579730961471796,-7.003002247074619e-05,0.0009118790039792656,0.11097098026424647,-0.2735419210419059,-9.806598089933397
7.09,0.4000000059604645,213.0,25.440418243408203,-0.10337305814027786,-79.7828030082103,40.45905199715271,267.01039474415785,0.0024388567544519893,0.013326821848750114,0.2650455832481384,0.9641407132148744,-0.022602243515986303,-0.00215758228337123,0.0071960244455247105,0.0013754790415987372,0.0015539958840236068,0.007306576240807772,0.1130912811588496,-0.285841703619808,-9.807527212500572
7.2,0.4000000059604645,220.0,25.452938079833984,-0.11927660554647446,-79.78280296562215,40.45905203452682,267.01235847878456,0.002413844922557473,0.013328298926353456,0.2650436460971832,0.964141309261322,-0.025541999077298826,-0.0063251116437375784,0.0047027715808510605,0.007650333922356367,0.004017221741378307,0.011359799653291702,0.10674614768475296,-0.2598958536051214,-9.803157003521921
7.39,0.4000000059604645,222.0,25.46170234680176,-0.09542128443717957,-79.78280298844017,40.45905201767497,267.0129052023888,0.002410044660791755,0.01335372682660818,0.2650335729122162,0.9641436934471128,-0.029910904452036383,-0.00619910523825689,0.0050102653111663824,-0.004362580832093954,0.0004724171303678304,-0.0124955615028739,0.10697146648541092,-0.2624611002020538,-9.80394053041935
7.49,0.4000000059604645,226.0,25.45919990539551,-0.10337305814027786,-79.78280291545919,40.45905208712665,267.0146619002819,0.0023863841779530053,0.013380332849919796,0.26503026485443115,0.9641443490982056,-0.02308936485535495,-0.003788751281564176,0.0035122993680305643,-0.003293310292065144,-0.001525172614492476,0.004448553081601858,0.11221955266781153,-0.2750718632899225,-9.806919686794279
7.7,0.4000000059604645,226.0,25.45544242858887,-0.09542128443717957,-79.78280293588669,40.45905207363712,267.0150743048191,0.002398089272901416,0.013394227251410484,0.2650313377380371,0.9641438126564026,-0.025770997796502784,-0.004184718356333335,0.0036783936805171117,-0.0003446289338171482,0.0004379397432785481,-0.002716731047257781,0.1095664516557008,-0.26518614023923875,-9.806172412633897
7.81,0.4000000059604645,230.0,25.454191207885746,-0.11132483184337616,-79.7828028603571,40.45905210558449,267.01940857577324,0.002397161675617099,0.013442671857774258,0.2650307714939117,0.9641433358192444,-0.025960274017027468,-0.009370976426947505,0.006829497645768332,-0.00764867290854454,-0.004436846822500229,-0.007620277814567089,0.1147491495218128,-0.2887495056912303,-9.808529425263405
7.99,0.4000000059604645,218.0,25.452938079833984,-0.11132483184337616,-79.78280280375505,40.459052170364146,267.0210575382709,0.002380484249442816,0.013463242910802364,0.2650493085384369,0.9641379714012146,-0.022712778716442242,-0.007639888338331639,0.004377759524265349,0.011746742762625216,0.0034998331684619197,0.0077743963338434705,0.1123915887158364,-0.2837693590298295,-9.806755964756013
8.11,0.5,225.0,25.454191207885746,-0.18289080262184146,-79.78280284663023,40.45905213470019,267.0220958809853,0.002378882374614477,0.013479293324053288,0.2650817036628723,0.964128851890564,-0.028920154991048483,-0.008055978058766358,0.004751282878031478,0.0018088965443894265,0.0003277777868788689,-0.0001183066415251233,0.10747261854819952,-0.27515494856983425,-9.80721146285534
8.29,0.5,225.0,25.45794677734375,-0.1908425688743592,-79.78280274074221,40.459052221100066,267.02589058089256,0.0023791776038706303,0.013507220894098282,0.26507318019866943,0.9641308188438416,-0.01524877551272291,-0.006809975811367898,0.007449756695767619,0.0022941543720662594,0.0021927629131823787,0.007622367236763239,0.11369740901514888,-0.28596617622300985,-9.806060146093367
8.4,0.5,218.0,25.45919990539551,-0.15903547406196594,-79.78280269509318,40.45905226839261,267.0291253845692,0.0023765088990330696,0.013519292697310448,0.2650725841522217,0.9641308188438416,-0.017664891927094025,-0.005556983599862448,0.004314633447991346,0.006567127071321011,0.003460639622062445,0.007768598850816487,0.10666268781758843,-0.2650168085284531,-9.802713199853898
8.6,0.5,218.0,25.45794677734375,-0.1908425688743592,-79.78280271176973,40.459052255013106,267.029609582901,0.0023933828342705965,0.013516940176486969,0.2650751769542694,0.9641301035881042,-0.022007611479853587,-0.005412648382753385,0.004553293275276555,-0.00594586506485939,0.0002694472786970437,-0.010872073471546171,0.10755527442321182,-0.2659247897565365,-9.806102830767633
8.7,0.6000000238418579,230.0,25.46420669555664,-0.17493902146816254,-79.7828026510996,40.45905227227532,267.03531479048735,0.0024211767595261327,0.013525476679205894,0.2650733888149261,0.964130401611328,-0.02338985240518389,-0.013155191590703313,0.007160223084186653,-0.0008917097584344448,-0.0010463937651365995,0.0050284829922020435,0.11187640333548188,-0.27166202293708924,-9.80642033457756
8.9,0.699999988079071,233.0,25.454191207885746,-0.17493902146816254,-79.78280266688209,40.459052251013645,267.0360852401257,0.002406168030574918,0.01354451198130846,0.26506301760673523,0.9641330242156982,-0.0265705097573377,-0.013455977597526715,0.007414857299868259,-0.007631984073668718,-0.0019377332646399734,-0.012192394584417343,0.106613196618855,-0.2597752547822893,-9.80425803422928
8.99,0.8000000119209291,217.0,25.454191207885746,-0.17493902146816254,-79.78280262264171,40.45905230391031,267.0405795793533,0.0023821985814720392,0.013554353266954422,0.2650960981845856,0.9641238451004028,-0.023375561330872985,-0.00778993950190865,0.005838855830603842,-0.0077047040686011314,-0.00498917605727911,-0.009408185258507729,0.11552730428986252,-0.2863052050955594,-9.806125050187113
9.19,0.8000000119209291,219.0,25.44793128967285,-0.13518016040325165,-79.78280264056768,40.45905228718593,267.0412155907154,0.002384142018854618,0.013563835993409157,0.26509058475494385,0.9641252160072328,-0.02447106329068564,-0.008423181953881708,0.00590679325596282,0.0059233857318758965,0.0016151947202160954,0.003934464417397976,0.11159509744495154,-0.2728996774926782,-9.804323523044587
9.3,0.699999988079071,217.0,25.456695556640625,-0.198794350028038,-79.78280258090597,40.45905237188373,267.04783617663384,0.0023572328500449657,0.013612361624836922,0.2650708556175232,0.9641299843788148,-0.017742046386659226,-0.0015253874129337144,0.008337108379359366,-0.003073140513151884,-0.0011295747244730592,-0.004141144920140505,0.11200228292495013,-0.274348032809794,-9.80695827841759
9.49,0.8000000119209291,224.0,25.45544242858887,-0.18289080262184146,-79.78280252594638,40.45905240566472,267.05414714622503,0.002365804510191083,0.01361815445125103,0.2650875747203827,0.9641252756118774,-0.019617898386977483,-0.00596736934022999,0.009396198210159884,0.004331548698246479,0.00168712402228266,0.006911586970090865,0.1140827587991953,-0.28463922372087835,-9.80709568798542
9.6,0.8000000119209291,225.0,25.46295547485352,-0.15108370780944824,-79.78280256228955,40.459052376005566,267.0561650018692,0.0023491731844842434,0.01363539043813944,0.2650722563266754,0.9641292691230774,-0.02425681506728255,-0.006707756403015079,0.009612676191099243,0.008068352937698364,0.004091317765414715,0.009175741113722323,0.108042502803728,-0.26237381223589185,-9.805818071365355
9.8,0.8000000119209291,225.0,25.45919990539551,-0.198794350028038,-79.78280247490251,40.45905245890921,267.06295039463043,0.0023263448383659124,0.013662142679095268,0.26507487893104553,0.9641281962394714,-0.015658355154500713,-0.003243960859195129,0.010535939482696035,-0.0037949143443256617,-0.002513404935598373,-0.004745727404952049,0.10970283796079458,-0.27597854716703296,-9.806622648239136
9.9,0.8000000119209291,223.0,25.466711044311523,-0.1908425688743592,-79.78280242664603,40.45905248149805,267.07080390262604,0.002317746635526419,0.013686615042388441,0.2650793790817261,0.964126706123352,-0.017559835335158452,-0.007127705983408306,0.01088768187335218,0.0019975737668573856,-0.0015212909784168005,0.005121443886309862,0.10927792810834944,-0.2684339761734009,-9.804365038275721
10.09,0.8000000119209291,227.0,25.46295547485352,-0.18289080262184146,-79.78280244099199,40.459052467199335,267.07194771575934,0.00232467520982027,0.01368973683565855,0.26508474349975586,0.964125156402588,-0.020536667696769217,-0.0073456548366602455,0.011219816384832479,-0.002135196235030889,0.00015292278840206566,-0.007077808026224375,0.10778154339641333,-0.2568333561345935,-9.804644535183908
10.2,0.699999988079071,227.0,25.44417381286621,-0.17493902146816254,-79.78280238910592,40.45905249544625,267.0802000384331,0.0023166392929852013,0.013711092993617058,0.2650843560695648,0.9641249775886536,-0.01960616096120121,-0.007930334826482812,0.01157800387857244,-0.008174932561814785,-0.004485755227506161,-0.009011195972561836,0.11302445844747125,-0.2847467211261392,-9.807330161333084
10.4,0.699999988079071,224.0,25.45794677734375,-0.16698725521564484,-79.78280240328006,40.459052480412154,267.0813957672119,0.0022925527300685644,0.013719804584980013,0.2650713026523589,0.96412855386734,-0.020284470567481342,-0.00856584204177469,0.011531936886833152,0.0092627527192235,0.0030091137159615755,0.0102246580645442,0.11295534253120425,-0.2848654013313353,-9.806144345998764
10.5,0.6000000238418579,223.0,25.46420669555664,-0.1908425688743592,-79.7828023150222,40.45905251211291,267.089745364666,0.0022885098587721586,0.013765937648713587,0.26509347558021545,0.9641218185424804,-0.014184033431238013,-0.011125121864702582,0.01186952126764895,0.006707932334393263,0.0017021496314555409,0.002905849600210786,0.10762283717282116,-0.27150281421840194,-9.805559039711953
10.69,0.6000000238418579,223.0,25.449182510375977,-0.20674611628055573,-79.78280232305556,40.45905249679354,267.09098388957983,0.0022898451425135136,0.013778837397694588,0.26512858271598816,0.9641119241714478,-0.017263923671716842,-0.011050589040161141,0.01222346978220868,-0.003496194025501609,-0.0009853229857981203,0.001117826672270894,0.11092614856548608,-0.27568116143345833,-9.806076518297196
10.8,0.6000000238418579,221.0,25.46420669555664,-0.17493902146816254,-79.78280228626825,40.459052588107,267.0996873002053,0.0022468653041869398,0.01381048746407032,0.265164852142334,0.9641015529632568,-0.015165099910195446,0.001033261847906598,0.01215985517881065,-0.007528909482061862,-0.0012182591017335653,-0.0017015242483466866,0.10758906950242818,-0.2724317906051874,-9.806013368368149
10.99,0.5,225.0,25.45544242858887,-0.18289080262184146,-79.78280221671848,40.459052615961795,267.1058799843788,0.002242394257336855,0.013825546950101852,0.2651636600494385,0.9641017317771912,-0.013090522181062256,-0.005519557798471733,0.009588906793016869,0.001238571829162538,0.00038257837877608836,-0.00753722433000803,0.1089822874031961,-0.2618619433231652,-9.80666650235653
11.1,0.5,223.0,25.4654598236084,-0.17493902146816254,-79.78280223933218,40.45905259366899,267.1078986148834,0.002231501042842865,0.013839720748364924,0.26517176628112793,0.9640993475914,-0.017039621251489088,-0.005900737797915846,0.010047861994139436,0.00027718491037376225,-0.00013345808838494122,-0.007398295681923628,0.11375038113445045,-0.28181158332154155,-9.808424760103227
11.29,0.5,218.0,25.45043563842773,-0.1908425688743592,-79.78280216941647,40.45905264763947,267.11372765111923,0.0022226464934647088,0.013849565759301186,0.26517391204833984,0.964098572731018,-0.011758211188736852,-0.0036810057438177854,0.0067723812357216645,0.0050159026868641385,-8.323692600242794e-05,0.013308393768966198,0.11445449553430086,-0.28891299018636346,-9.807773965001108
11.4,0.6000000238418579,215.0,25.45544242858887,-0.17493902146816254,-79.78280211446267,40.45905267678949,267.122652671814,0.002217380097135901,0.013877629302442074,0.2651565372943878,0.9641029834747314,-0.011460409843514277,-0.005844132429396921,0.00896734059486873,0.006870171520859003,-0.0005460013635456562,0.01312888041138649,0.10531374430283903,-0.2596516775339842,-9.804312413334848
11.59,0.6000000238418579,214.0,25.46295547485352,-0.16698725521564484,-79.78280212400848,40.459052666312296,267.12359263706213,0.0022217128425836567,0.013880494982004166,0.2651678025722504,0.9640998244285583,-0.015001503621353168,-0.005618802438616418,0.00932681161414634,-0.006597381550818682,-0.0011805563699454071,-0.011787242256104946,0.10658833681605756,-0.26308154460042715,-9.805729193687439
11.69,0.699999988079071,205.0,25.45794677734375,-0.14313192665576935,-79.78280206497939,40.45905272268266,267.13288911390305,0.002201832365244627,0.013897320255637169,0.26518088579177856,0.9640960693359376,-0.010938500813080359,-0.0026183247271060928,0.010715767765622823,-0.006635705940425396,-0.00442200293764472,-0.008448307402431965,0.1141360598243773,-0.2878993388079107,-9.807732449769976
11.9,0.699999988079071,203.0,25.454191207885746,-0.17493902146816254,-79.78280207373307,40.45905271559088,267.1339805941582,0.002202891279011965,0.013890760019421576,0.26517388224601746,0.96409809589386,-0.0112608394898094,-0.003121550958395943,0.010638403123310209,0.007501597981899977,0.0015828043688088653,0.00450829742476344,0.11251460865139963,-0.2788861299678683,-9.80523451924324
12.0,0.699999988079071,189.0,25.46170234680176,-0.15108370780944824,-79.78280202651152,40.45905276143441,267.14150574016566,0.002197891939431429,0.013890691101551056,0.2652197182178497,0.9640854597091676,-0.012129521694895387,-0.0024088901727449172,0.008666368650596496,0.001329010701738298,0.0015334206400439145,-0.0006978518213145435,0.10934418437071143,-0.27508447134867314,-9.806075348854066
12.19,0.699999988079071,202.0,25.44793128967285,-0.18289080262184146,-79.78280203734981,40.45905275387509,267.1424195985794,0.002201775787398219,0.013908175751566887,0.2652363479137421,0.9640806317329408,-0.014301797497586009,-0.002422348589763681,0.008909335344584492,-0.0007788062212057412,-0.002486145356670022,0.004383789375424385,0.1108835643902421,-0.2861622589454055,-9.806566514968873
12.3,0.699999988079071,212.0,25.454191207885746,-0.198794350028038,-79.78280198844314,40.459052751763984,267.14970447826386,0.0022085264790803194,0.013920831494033337,0.2651925384998321,0.964092493057251,-0.017824186408961357,-0.0111907097818386,0.006470108826080105,0.002703670645132661,0.00010220699914498256,0.012418427504599094,0.10682350452058018,-0.2642426554486156,-9.80478194475174
12.5,0.699999988079071,230.0,25.449182510375977,-0.17493902146816254,-79.78280192345512,40.45905279860348,267.15653135585785,0.0022063946817070246,0.013948103412985802,0.26520565152168274,0.9640884995460508,-0.015124510330992387,-0.009871379905022213,0.0049861846381670395,-0.001492453971877694,0.0007945042452774942,-0.006707538850605489,0.1076323663070798,-0.2643492392264307,-9.804214180111886
12.6,0.699999988079071,207.0,25.45043563842773,-0.17493902146816254,-79.78280194358976,40.45905276795428,267.15759154367447,0.0022001976612955327,0.013954978436231613,0.2652056813240051,0.9640884399414062,-0.018899054839024487,-0.010260011466384614,0.005158876686748789,-0.003233732189983129,-0.0038953218609094615,-0.006942109204828739,0.1134704548213631,-0.28431315008550884,-9.806319762468341
12.8,0.699999988079071,210.0,25.45168685913086,-0.16698725521564484,-79.78280186697359,40.45905283963891,267.16440167236334,0.0021766636054962873,0.013950795866549015,0.2651938199996948,0.9640917778015136,-0.011438540563805829,-0.0059919172305116465,0.003880045743851804,0.008807718753814697,0.005554121453315021,0.0016539862845093012,0.11159380009397864,-0.2782872837223113,-9.80670333981514
12.89,0.699999988079071,227.0,25.45544242858887,-0.15903547406196594,-79.78280182695602,40.45905290198109,267.1716620545388,0.00216448656283319,0.013985596597194672,0.2652057707309723,0.9640880227088928,-0.01221787026165359,-0.0007055293176963149,0.003090006456443833,0.003187731606885791,0.00035146038862876594,-0.0012546684592962265,0.11051972139626742,-0.27304037611931564,-9.806285848617556
13.09,0.6000000238418579,226.0,25.45043563842773,-0.17493902146816254,-79.7828018402161,40.45905289526826,267.17201580810547,0.0021479178685694933,0.013973239809274672,0.2652193903923035,0.9640844464302064,-0.015090901280144762,-0.00048310597053545593,0.0033799356687613216,-0.003983891103416681,-0.0042506023310124865,-0.0020509767346084122,0.11278268521651626,-0.2775572040304542,-9.807909035682679
13.19,0.4000000059604645,216.0,25.449182510375977,-0.11927660554647446,-79.78280179328705,40.459052933225045,267.1791060190201,0.00214191316626966,0.014000271447002888,0.2651887238025665,0.964092493057251,-0.014254834426840191,-0.0030197854837690913,0.003179212503255159,-0.0007850970141589643,-0.002334555145353079,0.010533470660448073,0.10581263056956232,-0.2636364453658462,-9.805358480215073
13.4,0.4000000059604645,228.0,25.46170234680176,-0.20674611628055573,-79.78280180625829,40.45905292423712,267.17947115707403,0.002148894127458334,0.014021201990544796,0.2651665508747101,0.9640983343124392,-0.016642072917470236,-0.002889997827975305,0.0034693299490982693,-0.008995984680950642,-0.0009588875109329821,-0.009535851888358593,0.10833932208828627,-0.2604314585588873,-9.803021932840347
13.5,0.4000000059604645,234.0,25.44667816162109,-0.1908425688743592,-79.78280177698682,40.45905294204201,267.18646504688263,0.002164597390219569,0.014011360704898834,0.26518571376800537,0.9640931487083436,-0.02091918480866369,-0.006410546366157892,0.0030028569383330644,-0.007698459085077046,-0.0014069214230403304,-0.012903635390102863,0.11499118770472705,-0.2874593358300627,-9.807929500937464
13.69,0.30000001192092896,242.0,25.44417381286621,-0.20674611628055573,-79.78280179324314,40.45905292756106,267.1868106942177,0.002170141087844968,0.014002460055053234,0.26518452167510986,0.9640936255455016,-0.021015485062799526,-0.0069900920817683385,0.003033066031916884,0.005908861290663482,0.002561129862442613,0.007119882386177778,0.11306295870803296,-0.2824424430727959,-9.8068015730381
13.8,0.4000000059604645,235.0,25.45919990539551,-0.20674611628055573,-79.78280176178845,40.459052972069905,267.1936508636474,0.0021430025808513165,0.0140145281329751,0.2651461064815521,0.9641040563583374,-0.0205162880700597,-0.005357259692690707,0.002478752411937173,0.003086232114583254,0.0012731435708701608,0.003740262938663364,0.1101499215513468,-0.2726424000039697,-9.807391557097436
14.0,0.30000001192092896,227.0,25.46420669555664,-0.18289080262184146,-79.78280169221763,40.459053012209736,267.20042022275925,0.002161524724215269,0.014032779261469841,0.2651493847370148,0.964102864265442,-0.018032227705589224,-0.009466284151651952,0.0023768779421969627,-0.0012788453605026009,0.0013519261265173554,0.004183306824415922,0.1120053253043443,-0.2829652024246753,-9.807589192986493
14.1,0.30000001192092896,230.0,25.449182510375977,-0.17493902146816254,-79.78280171906383,40.45905297954629,267.2010103683472,0.0021592013072222467,0.014031554572284222,0.26512598991394043,0.9641093015670776,-0.020618002483989768,-0.009988759023892669,0.002641323948593318,0.0041565331630408755,0.0007585871499031782,0.013314317911863329,0.10759317168965936,-0.2635775529406965,-9.805019926428796
14.29,0.30000001192092896,236.0,25.439167022705078,-0.22264966368675232,-79.78280170088854,40.459053034891156,267.2070845584869,0.0021405683364719152,0.014043471775949,0.26514074206352234,0.9641050696372986,-0.02383721028043724,-0.0050254906420658645,0.0020441766754366584,-0.006929463241249323,0.0005371666047722101,-0.010245701298117638,0.10794918489642442,-0.2657672803848982,-9.805181309580805
14.4,0.30000001192092896,242.0,25.452938079833984,-0.17493902146816254,-79.78280166985056,40.45905309720704,267.2118659834862,0.0021082654129713774,0.014071501791477205,0.2651931941509247,0.9640904068946838,-0.01630090818022902,-0.00021604280405720672,-0.0011679361968558604,-0.0034871930256485943,-0.0029124238062649965,-0.004445469006896019,0.11152524149045348,-0.2822467258013785,-9.805454374551774
14.59,0.4000000059604645,248.0,25.44793128967285,-0.198794350028038,-79.7828016862729,40.45905308929105,267.2117936234474,0.0021162002813071012,0.014075859449803831,0.2651729881763458,0.9640958309173584,-0.017174945472536916,-0.0005056725776101978,-0.0010222900335714832,0.004173523746430874,0.0015099161537364125,-0.0009495444246567787,0.1081388722267002,-0.2645047934353352,-9.805742057561877
14.7,0.4000000059604645,264.0,25.45544242858887,-0.198794350028038,-79.78280161492556,40.45905311705406,267.2177879433632,0.002120780758559704,0.01409322954714298,0.2651034295558929,0.9641147255897522,-0.013608690549067716,-0.009008432420683606,0.0004549570340989613,-0.005233233328908682,-0.0014851128216832874,-0.01079300045967102,0.1131912411376834,-0.28625261669978497,-9.807242453098297
14.89,0.4000000059604645,263.0,25.45168685913086,-0.16698725521564484,-79.78280162285793,40.459053103807676,267.21786602544785,0.0021076137199997893,0.014099657535552982,0.2650968134403229,0.9641164541244508,-0.013640725449900606,-0.009511816807199137,0.0005237241428932127,0.003943833522498608,0.004512609448283911,0.012715977616608145,0.11286552381701767,-0.2850614475086332,-9.806691645383836
14.99,0.30000001192092896,270.0,25.44167137145996,-0.17493902146816254,-79.78280159638312,40.459053195175365,267.22344305324555,0.002089711371809244,0.014103636145591738,0.2651461064815521,0.964102864265442,-0.011236540591885395,0.0013657388017724926,0.0010476836321663876,0.0021661142818629733,0.004882532171905041,0.0006176141905598342,0.1104725782200694,-0.2732623875886202,-9.80594787955284
15.19,0.4000000059604645,269.0,25.45043563842773,-0.18289080262184146,-79.78280160929076,40.45905319081706,267.2235990386009,0.002091966103762388,0.014088296331465244,0.2651805877685547,0.9640936255455016,-0.013242990083850057,0.0015174636141134673,0.0013472600568530224,-0.0036682581994682546,-0.0012066438794136047,0.0010159567464143038,0.11331657255068422,-0.2827960168942809,-9.807915467619896
15.3,0.30000001192092896,269.0,25.449182510375977,-0.18289080262184146,-79.7828015842885,40.45905321916382,267.2286960105896,0.002072189934551716,0.014088582247495653,0.2651524543762207,0.9641014337539672,-0.01745680303230347,-0.0020996841006361983,0.001483852401934498,-0.001486663823015988,0.002184554236009717,0.0068576755002141,0.10864965392276646,-0.2644782068766653,-9.804111269116405
15.49,0.4000000059604645,268.0,25.32272529602051,1.0337306261062622,-79.78280152261841,40.45905328677439,267.23320045280457,0.0020703324116766453,0.014109040610492231,0.26515236496925354,0.9641010761260986,-0.011949152427529423,-0.0007398243136287051,0.0015453641932474287,-0.007449559401720762,0.0018049561185762288,-0.007628053892403841,0.10712680142372848,-0.2603439330495894,-9.804186113476751
15.61,0.4000000059604645,263.0,25.40536117553711,0.13518016040325165,-79.78280154706657,40.45905327394401,267.23358645248413,0.002077010227367282,0.014098337851464747,0.26506006717681885,0.9641266465187072,-0.012271963305786143,-0.00023532294738175166,0.0019014446318520023,-0.004907154943794012,-0.003774500451982021,0.002473074942827225,0.11757222178392113,-0.2761295515112579,-9.814441545009613
15.79,0.4000000059604645,264.0,25.40911674499512,0.11927660554647446,-79.78280150926558,40.459053347646886,267.23744108486176,0.002035840880125761,0.014117805287241937,0.2651066482067108,0.9641136527061462,-0.013802004117020249,0.001982855563739781,0.0013626704438194233,0.005722135305404663,0.005302911624312401,-0.007399850990623236,0.11051602120511236,-0.2924547583423555,-9.804771419763563
15.89,0.4000000059604645,262.0,25.40911674499512,0.13518016040325165,-79.78280146449636,40.45905339918339,267.23896320867544,0.002005821093916893,0.01410392392426729,0.2651152014732361,0.9641115665435792,-0.009062100584864079,-0.002500917019447452,-0.002865481298115254,0.003383307019248605,0.00440845126286149,0.01678645797073841,0.1075306887086481,-0.2558476983010769,-9.799761525392533
16.09,0.4000000059604645,265.0,25.40786552429199,0.11927660554647446,-79.78280147568059,40.459053392168094,267.23871823358536,0.0020128025207668547,0.014081123284995556,0.2651219964027405,0.9641100168228148,-0.01462925227191395,-0.001469739420364438,-0.0026490957312314345,-0.00657128868624568,-0.0018107091309502719,-0.011399595998227595,0.11145196856930853,-0.28953566383570434,-9.80583268940449
16.19,0.4000000059604645,265.0,25.410369873046875,0.22264966368675232,-79.78280143858619,40.459053429883866,267.24120023059845,0.0020086569711565967,0.01408112142235041,0.2651691734790802,0.964097023010254,-0.014227482980348597,-0.005764179054380745,-0.0013028338750722707,-0.006562264636158943,-0.004989475943148136,0.0090458570048213,0.11749582425691188,-0.27515180569142106,-9.809601804614068
16.39,0.4000000059604645,266.0,25.40410804748535,0.2385532110929489,-79.78280145030519,40.459053419034426,267.2411093931198,0.002005357760936022,0.01409205421805382,0.2651103734970093,0.9641131162643432,-0.016472359784433486,-0.005512427599323472,-0.0011065161424486914,0.0002634741540532559,-0.0006387940957210957,-0.003458585822954774,0.10296992445364593,-0.27437719579786063,-9.804154538512226
16.5,0.4000000059604645,271.0,25.39158821105957,0.278312087059021,-79.78280141577292,40.459053498514564,267.2433989267349,0.0020038881339132786,0.014070304110646248,0.2651878297328949,0.9640920758247375,-0.010163826356968402,0.0005380537942850307,-1.3457940388258635e-05,0.0019024356734007601,-0.0024155308492481713,0.0009118061279878019,0.11493512752465905,-0.28889400500804185,-9.804848603010178
16.69,0.4000000059604645,271.0,24.947111129760746,2.019750595092773,-79.78280142639989,40.459053494192226,267.2434618096352,0.001978654880076647,0.01410368178039789,0.2652089595794678,0.9640858173370358,-0.008855758510726872,0.0015683908400958267,0.0008909296981751512,0.010987426154315472,-0.019408971071243286,0.014759975485503675,0.1435018914565444,-0.28575560336932543,-9.82254344701767
16.79,0.30000001192092896,278.0,25.34526252746582,0.278312087059021,-79.78280138317348,40.45905350964714,267.2460761885643,0.0018405180890113113,0.014181626029312609,0.2651879191398621,0.9640907645225524,-0.015764880529089143,-0.006962806647254122,0.0009196659749531297,-0.0123835951089859,-0.009295041672885418,0.005249342415481807,0.11237983946688472,-0.3193108553811908,-9.81794168829918
16.99,0.30000001192092896,280.0,23.4221134185791,13.907652854919435,-79.78280132858019,40.4590536095387,267.2477977495193,0.0018479899736121297,0.014184677973389626,0.2651670277118683,0.9640964269638062,-0.007507451876474763,-0.00021421266210135083,0.0009433550873833732,-0.000544188660569489,-0.008096316829323769,-0.0028232031036168337,0.11275911362841726,-0.28245680529624223,-9.800364373326305
17.09,0.30000001192092896,287.0,25.08358383178711,1.4074640274047852,-79.78280134740268,40.45905360205132,267.24812140274054,0.0017264344496652484,0.01424870453774929,0.2652070820331573,0.9640846848487854,-0.00878349060482633,0.00019318065808855264,0.0009397596646325727,0.03050873801112175,0.01775478757917881,0.015463705174624918,0.10874695524573327,-0.3184828530997038,-9.825971084833146
17.29,0.30000001192092896,291.0,25.396596908569336,0.04771064221858978,-79.78280132123636,40.45905367275957,267.250814757824,0.0017690490931272509,0.014229149557650091,0.2651879191398621,0.9640901684761048,-0.012566326384142791,0.0015966315394186515,0.0032477321670267988,-0.006127939559519291,-0.01659546047449112,-0.007997872307896614,0.09238855632953348,-0.25673009796068075,-9.795480194091796
17.4,0.30000001192092896,292.0,25.39158821105957,0.3021674156188965,-79.78280129650359,40.459053749005406,267.25177069711685,0.0017508162418380382,0.014226111583411694,0.2652651369571686,0.9640690088272096,-0.010935086402168552,0.003846100174908022,0.0031717770384991385,-0.029290856793522838,-0.01156119629740715,0.0008831245359033346,0.12159049233421684,-0.2946095304004848,-9.799812980890275
17.59,0.4000000059604645,293.0,24.91080093383789,3.9520316123962402,-79.78280130834908,40.45905374703359,267.2521397094726,0.0018039398128166801,0.01423626858741045,0.26520121097564703,0.9640863537788392,-0.00997255737473736,0.0026085533649647013,0.0028503514460700564,0.012024067342281342,-0.0068363305181264895,0.019324155524373055,0.08385275437496602,-0.27420917971059683,-9.790434631705283
17.7,0.5,287.0,24.774328231811523,5.128894329071045,-79.78280127980052,40.45905381533417,267.252327583313,0.0017966420855373144,0.01423897035419941,0.2652586102485657,0.9640705585479736,-0.00984101032398062,-0.00022155479899945126,0.00231893141353338,-0.0011932938359677796,-0.009819993749260902,0.016564738005399704,0.10133560940623283,-0.2636959225125611,-9.80175951898098
17.89,0.5,287.0,24.48635482788086,7.267921447753906,-79.78280129099986,40.45905381086342,267.25265731620794,0.0017499703681096435,0.0142942164093256,0.26524925231933594,0.9640723466873168,-0.008321499292282099,0.00022376386598698555,0.0021354131673598105,0.025428347289562225,0.002371380571275949,9.700734517537056e-05,0.10985386971384288,-0.2950169534236193,-9.819250295162199
18.01,0.6000000238418579,291.0,24.37116622924805,8.683337211608888,-79.78280128587699,40.45905387567474,267.2519865851403,0.0014685437781736257,0.014549702405929562,0.26518452167510986,0.9640868306159972,-0.015109114147670319,0.00811930944979058,0.007095500316192304,-0.08920890092849731,-0.0648738220334053,0.03414260223507881,0.11429298447445035,-0.3455038233473897,-9.816247165203093
18.2,0.6000000238418579,290.0,24.01683616638184,11.90380573272705,-79.78280129977408,40.459053867971036,267.2523378353119,0.0013133175671100614,0.014837549068033697,0.2652498185634613,0.9640646576881408,-0.01744806600289814,-0.00550239953925975,0.0031953689199124857,0.06545418500900269,-0.06274522095918655,0.016594113782048225,0.010043230138253421,-0.34513866472989324,-9.734592552781104
18.3,0.699999988079071,286.0,23.8465576171875,13.048860549926758,-79.7828012612398,40.45905392531027,267.25072988080984,0.0015713102184236052,0.01550296787172556,0.2650194466114044,0.964117169380188,-0.01762902757518344,-0.007807188843988925,0.006160172725031363,0.012940100394189358,-0.012608909979462624,-0.07001357525587082,0.1149609831813723,-0.3234999468550086,-9.88305979013443
18.49,0.8000000119209291,283.0,23.474699020385746,16.37270164489746,-79.78280121854924,40.45905397350378,267.2474760632515,0.002283615758642555,0.01624029129743576,0.2650384306907654,0.9640983939170836,0.004362778486544021,-0.014202245117236985,0.009977801733006888,0.06197160109877585,0.09169450402259828,-0.044602371752262115,0.1935924297943712,-0.0902587080281228,-9.92133215546608
18.6,1.0,284.0,23.30942726135254,18.1141414642334,-79.78280120692195,40.45905395170372,267.24989255476004,0.0034301255363970995,0.019143417477607727,0.2650430500507355,0.9640404582023621,-0.004252537553756149,-0.006419364664729605,0.013066269209332671,-0.006570907309651375,0.024102337658405304,-0.06454785913228989,0.13409708362072706,-0.1477685864455998,-9.82451395869255
18.8,1.100000023841858,281.0,22.987651824951172,21.764005661010746,-79.78280118954216,40.45905404683414,267.2464906196594,0.004631747957319021,0.02034123428165913,0.2650648057460785,0.9640049338340759,-0.004395705393450265,-0.018895928181661758,0.01670136762610391,0.011626632884144785,0.03215818852186203,0.022794989868998528,0.14836061703041198,-0.5032378742471337,-9.862278785705566
18.9,1.2000000476837158,281.0,22.79233169555664,23.75194931030273,-79.78280110110033,40.45905417393557,267.2440454583168,0.0033996705897152424,0.009778671897947788,0.26423317193984985,0.96440327167511,0.015924200344054673,0.019164287987979912,0.06944329975750738,-0.2366118431091309,-0.16779825091362,-0.0354534275829792,0.307079393863678,-0.5009957228600979,-10.058141798973084
19.09,1.2000000476837158,278.0,22.89124298095703,21.827619552612305,-79.78280108497137,40.4590541929176,267.254624507904,0.002379107289016247,-0.0018107220530509949,0.26473069190979004,0.964317798614502,0.020439910807081768,0.028191661853694483,0.14010233283986298,-0.2861801385879517,-0.17485103011131287,0.026936693117022514,0.18630731072276832,-0.13712114478461446,-10.435301241874695
19.2,1.2999999523162842,282.0,22.95635032653809,20.37244415283203,-79.7828009409714,40.45905429524152,267.2818514924049,-0.00555323576554656,-0.0068032369017601005,0.27074265480041504,0.9626116752624512,0.02803997502921664,0.03811861020362562,0.2089173791014076,0.2471746653318405,0.005782376509159803,-0.1360146552324295,0.3310965032503009,0.22730849850922824,-10.419124335050585
19.39,1.2999999523162842,287.0,23.020204544067386,20.52352905273437,-79.78280095611724,40.45905432885289,267.3020561556816,-0.0030115379486233,-0.0038519750814884897,0.2727570831775665,0.9620705842971802,0.017059034293786687,0.048986784218207284,0.18937268572079693,0.05329990014433862,0.07377102971076965,-0.05108932033181191,0.2384881190210581,0.2704985001124442,-9.695743067264557
19.49,1.2999999523162842,282.0,22.86495018005371,22.193401336669922,-79.78280099586232,40.459054545744436,267.3111084322929,0.009583704173564913,-0.007582566235214472,0.26695510745048523,0.963631510734558,0.03226214209711163,0.07825762603651965,0.07140077590887578,-0.024693816900253296,0.09712021052837372,0.0432162843644619,0.19106794925406576,0.20467034529894595,-9.583617444634438
19.69,1.2999999523162842,281.0,22.85243034362793,21.62882423400879,-79.78280101793351,40.459054617032145,267.31685205507284,0.011907821521162987,-0.005718340165913105,0.26308298110961914,0.9646827578544616,0.02823775058344935,0.08608541764868616,0.044542805157544905,0.10029248148202896,0.06395387649536133,0.06179849803447724,0.3706558407470584,0.31150442048907284,-9.539910092353821
19.79,1.399999976158142,282.0,22.712200164794922,23.012434005737305,-79.78280094165093,40.45905468542343,267.3363065342903,0.008368223905563354,0.0014988547191023829,0.25846001505851746,0.965984582901001,0.033839097221082866,0.055585641761111484,0.027278221558252973,0.013461069203913212,0.040374774485826485,0.039570510387420654,0.3399722477048636,0.01573884530458599,-9.550427479147912
19.99,1.399999976158142,280.0,22.813615798950195,21.764005661010746,-79.7828008389877,40.45905487714805,267.3530142526626,0.010880428366363049,-0.0011818466009572148,0.2580269277095795,0.9660757780075072,0.031943752261023334,0.045427191174120286,0.05954924405112803,-0.026910750195384026,0.0215359665453434,0.0052533489651978025,0.14616800252348186,0.02203123049810529,-9.742157095670699
20.1,1.2999999523162842,279.0,22.6571102142334,23.489540100097656,-79.7828008246384,40.459054976593016,267.3631805996895,0.014370708726346491,-0.0016842097975313663,0.2601188719272613,0.9654682278633118,0.03276551360726232,0.029840726848090894,0.03809860030751957,0.011064497753977777,0.07266930490732193,-0.0031062690541148186,0.16073286853730678,-0.06345993197523057,-9.696089222431183
20.29,1.2999999523162842,281.0,22.539417266845703,24.316524505615234,-79.78280078082071,40.459055084826495,267.3709134082794,0.015655852854251858,-0.0021634057629853487,0.2618587911128998,0.9649768471717834,0.04603212054097868,0.03157009059657926,0.05704736190339507,0.07874111086130142,-0.018276698887348168,0.0014389054849743845,0.20292374543845654,0.04062141112983226,-9.870802856683733
20.4,1.2999999523162842,277.0,22.565710067749023,24.69025802612305,-79.7828007738472,40.45905528374864,267.3851663689613,0.01247162465006113,-0.003371607745066285,0.26510754227638245,0.9641323685646056,0.05113963275064444,0.02069983824075872,0.10525845976856876,0.06974815577268599,0.06353103369474411,-0.08358516544103622,0.15392886567860842,-0.022460411558859045,-9.998437049388887
20.59,1.2999999523162842,275.0,22.54692840576172,24.26086235046387,-79.78280074244242,40.45905531202776,267.39809264945984,0.014563701115548609,-0.00422568479552865,0.2663170099258423,0.9637662172317504,0.0499051215057176,0.012175349594243042,0.15053583980240673,0.11175112426280977,0.08997996896505356,0.02372223697602749,0.16728070853278046,-0.06073847792576999,-10.193704816102985
20.7,1.399999976158142,273.0,22.74350166320801,22.479665756225586,-79.78280070387757,40.45905533842228,267.41513510751724,0.014654609374701975,-0.003143589943647385,0.2656521201133728,0.9639524221420288,0.04683169489130818,0.011827695825077034,0.1821348577641036,0.052948445081710815,0.028814071789383888,0.04305242747068405,0.2279298017174005,0.15730344001203775,-10.064181972742082
20.89,1.2999999523162842,269.0,22.514375686645508,24.714113235473643,-79.78280061977965,40.45905555523599,267.4388019065857,0.009727093391120434,-0.006291488651186228,0.2623226344585419,0.9649107456207277,0.03310824891234372,0.018388819132470938,0.17324021331865988,-0.08928653597831726,0.003114131977781653,-0.01399692427366972,0.17186264153569938,0.16036792919039727,-9.855543962717057
20.99,1.2999999523162842,270.0,23.517269134521484,14.909576416015625,-79.78280064724494,40.459055672557504,267.4463371257782,0.010837330482900144,-0.00817019585520029,0.2611473798751831,0.965203583240509,0.02443203195064241,0.02335272221739438,0.15398531854729924,-0.11303722113370895,0.021970238536596298,-0.023437870666384697,0.14668866966851055,0.18759453870356085,-9.81633019566536
21.19,1.2999999523162842,270.0,22.183834075927734,27.38591003417969,-79.78280061989345,40.45905572770242,267.46661337423325,0.009364591911435127,-0.009157145395874977,0.2603009045124054,0.965438723564148,0.03554096985425621,0.025251756887719714,0.012847851674904705,0.13638597726821902,-0.003040117910131812,-0.05042766034603119,0.18608449526131154,0.18396221179515124,-9.074370569586756
21.3,1.399999976158142,270.0,22.05612564086914,29.42156410217285,-79.78280055144279,40.459055852961136,267.47707905578613,0.002600477309897542,-0.009227109141647816,0.2591540515422821,0.9657884836196899,0.009634102334911286,0.033099604944516026,0.09107435122619348,0.060769960284233086,0.037151459604501724,0.1333489567041397,0.1481012930162251,0.03734283391619101,-9.689663717150687
21.49,1.399999976158142,270.0,21.83451271057129,32.618175506591804,-79.7828005489618,40.459055979458704,267.48638608264923,0.0048394231125712395,-0.008805684745311737,0.2585855722427368,0.9659361839294434,0.005212197240289727,0.03348824751422691,0.2191782757962415,-0.1446998119354248,0.09852415323257446,-0.10593785345554352,-0.027998275242280216,0.38878286708146337,-10.699611761569976
21.6,1.399999976158142,271.0,21.527759552001953,33.98588180541992,-79.78280055047583,40.45905601069917,267.51452340888983,0.009448827244341372,-0.00593100767582655,0.2584162950515747,0.9659692645072936,0.02804680554762912,0.032447555822007174,0.3484279875767761,0.12812066078186035,0.04779621213674545,0.11290296912193296,0.21977258870378136,-0.031705887336283926,-11.130994774103165
21.8,1.399999976158142,269.0,21.44512367248535,37.04731369018555,-79.78280076789756,40.45905629512533,267.6009292821884,0.013325680047273636,-0.0058897039853036395,0.2591385245323181,0.965730369091034,0.012929160072169169,0.06711946785389848,0.6718240046596285,-0.0487055853009224,-0.07022000104188919,-0.0794343426823616,0.2421948517486453,0.160912487693131,-11.463675616979597
21.9,1.399999976158142,267.0,20.92427062988281,42.72488021850586,-79.78280083323871,40.45905651255901,267.7635585289001,0.010104370303452015,-0.0062591941095888615,0.2587554752826691,0.9658697843551636,0.031510979800484035,0.07294775366411492,1.0849807339283135,0.12766233086586,0.0026575846131891012,0.08271321654319763,0.2104941903613508,0.13152355042286218,-11.691791871786116
22.1,1.399999976158142,268.0,21.11458396911621,39.18634033203125,-79.78280086518005,40.459056553504254,267.88730087089544,0.010698878206312656,-0.0054655228741467,0.2575218975543976,0.9661978483200072,0.016638156974296606,0.08015063780045857,1.3871897544975218,-0.03545239940285684,-0.02931825444102288,-0.11848252266645433,0.20350093871355052,0.31092803120613105,-12.632698917388911
22.19,1.5,268.0,21.112079620361328,39.68730545043945,-79.78280090447677,40.459056594488686,268.04078843402857,0.011935705319046974,-0.005570415873080492,0.2568567991256714,0.9663597345352172,0.022678036832645,0.09006325131803486,1.671307907186875,0.011780514381825924,0.0010675899684429169,0.04246071726083756,0.3174774609133601,0.042653684020042416,-12.62445551276207
22.4,1.600000023841858,268.0,20.84914779663086,42.74078369140625,-79.78280104173481,40.459056827744156,268.4099339466095,0.014615528285503387,-0.006046508438885212,0.257728636264801,0.9660879373550416,0.02171159435342172,0.11867833275546802,2.1560471258755265,0.013255334459245205,0.03598939999938011,-0.04992543533444405,0.3095432643592358,0.12731176444329326,-12.358906552791595
22.5,1.7000000476837158,267.0,20.97810935974121,40.951637268066406,-79.7828011438615,40.45905713594111,268.60596122550965,0.017691202461719513,-0.005812232382595539,0.25823619961738586,0.9659023284912108,0.03007038842793528,0.1340292228473077,2.3616670698298154,0.006322457920759915,0.06370582431554794,0.013716349378228188,0.2557399998977781,0.2186194812320173,-12.358258681297302
22.69,1.7999999523162842,265.0,21.437612533569336,34.955997467041016,-79.78280124908827,40.459057192701714,269.12869729805,0.030248712748289112,-0.0011219265870749948,0.2597213387489319,0.9652091860771179,0.03938955417757778,0.13524877779506975,2.8383384214665215,0.10429468005895616,0.1971648782491684,-0.06368940323591232,0.2368805001676083,0.04786763708107174,-12.096581747531893
22.8,2.0999999046325684,262.0,21.574085235595703,32.84082794189453,-79.7828013581853,40.459057548692,269.3557733516693,0.03871438652276993,0.0040382714942097655,0.2612889111042023,0.9644755721092224,0.03690666570431381,0.15981075552949975,2.939273460482052,0.13182252645492554,0.12973929941654205,0.07482790946960449,0.3427578612416983,0.059528072308748965,-11.602948107719419
22.99,2.200000047683716,261.0,21.705551147460934,31.695770263671875,-79.78280140706686,40.45905771212462,269.9287294368744,0.04415695369243622,0.004215002525597811,0.2637053430080414,0.9635829329490662,0.01763020485163351,0.16137332092502354,3.087994136629169,0.07887747883796692,-0.008274887688457966,0.03164805844426155,0.3918574061617256,-0.08480601497925819,-10.692821974754333
23.1,2.4000000953674316,255.0,21.763145446777344,29.556743621826172,-79.78280135951205,40.459057593850346,270.24063577461243,0.04405463114380837,0.002000550739467144,0.2638656795024872,0.9635508060455322,0.01317591513000918,0.1163231003395412,3.1462241997147817,-0.06108347699046135,0.014193280600011347,-0.007655516732484101,0.2761756348796189,0.06043398873880506,-10.423923729658126
23.39,2.799999952316284,245.0,21.87332534790039,29.1193962097168,-79.7828011040328,40.45905711840381,271.1752501945496,0.04220991209149362,-0.003127448027953505,0.2611187100410461,0.9643782973289492,0.00358129488510661,-0.04228623760945403,3.1807697460108977,-0.012014184147119522,-0.002784016774967313,-0.043222762644290924,0.3521137351915241,0.15780964443460108,-9.812247669696808
23.6,2.799999952316284,241.0,22.022319793701172,27.664220809936523,-79.78280093905542,40.459056603779075,271.806903503418,0.03727085143327713,-0.0036985862534493212,0.2593379318714142,0.9650601148605348,-0.031276957810998936,-0.14679221543377374,3.1390242698133286,0.07267069071531296,0.02353301458060741,-0.03951942920684815,0.3332771857827902,0.11723483744077386,-9.57502613067627
23.8,3.0,234.0,21.8282527923584,30.049753189086914,-79.78280096329381,40.459055783680405,272.4283758621216,0.03195418044924736,-0.0016947865951806307,0.2580440938472748,0.9656031727790833,-0.09692385882738982,-0.2224230526954178,3.0480415708283624,0.1024518758058548,-0.1315920203924179,-0.004353576339781284,0.41913967385888107,-0.08740278172306717,-9.467610440254212
23.9,3.0999999046325684,231.0,21.890853881835934,28.483253479003906,-79.78280089615545,40.45905536219952,272.72966208267206,0.029208669438958168,-0.0002034082863247022,0.2579856216907501,0.9657071232795716,-0.12631794301551616,-0.2614594320612911,3.0267339338452746,0.14637115597724915,0.05720884725451469,0.03507285565137863,0.3872563418000937,0.08772166511043906,-9.555205239057539
24.0,3.299999952316284,224.0,22.057376861572266,28.212894439697266,-79.78280125585445,40.45905500439065,272.9955769996643,0.02727144956588745,0.002448845189064741,0.25729793310165405,0.9659441709518432,-0.19205969000969247,-0.2594192120307033,2.9609598670476562,-0.11144506186246872,-0.09058865159749983,-0.021741524338722232,0.27439753314480186,0.3014769207313657,-9.580024915337566
24.19,3.299999952316284,219.0,21.94719696044922,27.966388702392567,-79.78280118827163,40.459054117280715,273.5770069580078,0.023646757006645203,0.008147322572767735,0.25785163044929504,0.9658607244491576,-0.2070780519255144,-0.3003692133309747,2.89867290122074,0.12018491327762605,-0.017133615911006927,0.12723968923091888,0.5103492213785649,-0.06840971879661084,-9.6029717284441
24.3,3.299999952316284,216.0,21.95721244812012,27.266632080078125,-79.78280107253701,40.45905332948775,274.00286545562744,0.02208001539111137,0.007242057472467422,0.2575187087059021,0.9659938812255859,-0.2508739698763946,-0.3053223934149866,2.9308051419903385,-0.10632457584142684,0.02543179504573345,-0.1065559983253479,0.3671076406538487,0.2414136637374759,-9.488042365908623
24.49,3.299999952316284,215.0,21.884593963623047,28.18903923034668,-79.78280097559713,40.459052297738815,274.6789356689453,0.015806417912244797,0.00429951585829258,0.2569023072719574,0.9662986397743224,-0.2201530397303504,-0.34494116258822305,2.9108472871053253,0.1068851798772812,-0.10394291579723358,-0.025132670998573303,0.4738874463737011,-0.05877881100866944,-9.449790465831756
24.6,3.4000000953674316,209.0,21.91714859008789,28.60253143310547,-79.78280091204864,40.459051395841854,275.2522875289917,0.009549208916723728,0.002104687038809061,0.2559129297733307,0.9666504263877868,-0.2387280325991488,-0.35430537404042795,2.862085998339293,-0.21274572610855105,-0.03171493858098984,-0.008029929362237453,0.4649018839001656,0.04123509468510747,-9.518778254985813
24.79,3.5,208.0,21.914644241333008,28.419639587402344,-79.78280097511436,40.45905079046216,275.63064827728266,0.00770610012114048,-0.00016031124687287956,0.255459725856781,0.9667890071868896,-0.21776832572838806,-0.3680721700533064,2.9045935928926747,0.05359619483351708,-0.0741102322936058,-0.021142570301890373,0.4026939778402448,-0.03472410128451884,-9.706147602796557
24.89,3.4000000953674316,208.0,22.0423526763916,26.82928466796875,-79.7828009646441,40.459050369122174,275.9197384338379,0.005862681195139885,-0.0006991021800786258,0.2550593614578247,0.9669074416160583,-0.20080468208387306,-0.3562964788065552,2.891013288450577,0.09259063750505447,-0.0546095110476017,0.08637644350528717,0.406162655800581,-0.038031498875934634,-9.694735592007637
25.1,3.5,208.0,21.929668426513672,27.990243911743164,-79.78280091259255,40.459049301500684,276.59543576049805,0.0037718415260314937,0.001107465592212975,0.2545578181743622,0.9670495390892028,-0.2283376565141364,-0.330276714992351,2.913400325354172,-0.11865511536598206,-0.06258340924978256,-0.028243573382496837,0.3496970078721643,0.191251168102026,-9.57720831155777
25.2,3.5,210.0,21.944692611694336,28.196990966796875,-79.78280093613702,40.45904892964128,276.88510861206055,0.0033969946671277285,0.0019089878769591449,0.2554408609867096,0.9668169021606444,-0.21706940102771333,-0.3019083312646854,2.8870302572392483,-0.019066806882619858,-0.07821253687143326,0.008893866091966629,0.3846966135129333,-0.041463373638689516,-9.574357209205628
25.39,3.5,208.0,21.803211212158203,29.1193962097168,-79.78280073074801,40.459048170024346,277.5290400009156,0.002966599771752953,0.0026433209422975787,0.2567190229892731,0.9664779901504515,-0.2120950105458603,-0.2662762544143263,2.879295989069884,0.04006292670965195,0.03019048273563385,0.010748913511633871,0.3501891607046128,0.08384744619950653,-9.544351052641867
25.5,3.5,209.0,21.87958526611328,28.276508331298828,-79.78280074818824,40.459047443034095,278.165431640625,0.0010450705885887146,0.003421070054173469,0.2559989094734192,0.9666705131530762,-0.1715143278161378,-0.22213896009191625,2.91463613607112,0.057684261351823814,-0.09157216548919678,0.029393993318080906,0.29168912027031185,0.2917336687445641,-9.654505578875543
25.69,3.5,210.0,21.92716407775879,27.34615135192871,-79.78280077757024,40.459047198974545,278.45636524963385,-0.001219210447743535,0.003742994740605353,0.2554560005664825,0.9668126702308656,-0.16239575938438033,-0.19845304196958907,2.904204199407463,0.12168581783771515,0.06487388908863068,0.00188649189658463,0.3383917818590999,0.11092351731844248,-9.688045207858089
25.8,3.5,207.0,21.86080551147461,27.60855865478516,-79.78280053146709,40.45904687766514,278.79352249908453,-0.002970645669847727,0.0032396337483078237,0.2546769082546234,0.9670162796974182,-0.15857062074692102,-0.19666152473811893,2.9192560686577207,-0.21583421528339386,-0.1109822392463684,-0.04028681293129921,0.26712575303390623,0.2443158378638328,-9.58174984395504
25.99,3.4000000953674316,209.0,21.753129959106445,29.38975715637207,-79.78280037287995,40.459046478899495,279.41082634735113,-0.006099018733948469,0.0014026775024831295,0.2548497319221497,0.9669604897499084,-0.09213897147851388,-0.17771676329384886,2.9195747219712302,0.1542336791753769,0.052766896784305566,0.06538797914981842,0.28598006336018444,0.014862123839557172,-9.756584515571594
26.1,3.299999952316284,211.0,21.684267044067386,29.071685791015625,-79.78280039978729,40.45904624820199,279.9973131637573,-0.003998451400548221,0.0016268818872049447,0.2544656991958618,0.9670722484588624,-0.06959289402359156,-0.09366979710294293,2.942951186210973,0.05371044203639031,-0.035687241703271866,0.051074903458356864,0.24078419269993906,0.3318190363794565,-9.829267745018006
26.3,3.2000000476837163,211.0,21.78067398071289,28.45939826965332,-79.78280031063152,40.45904622010107,280.31315293121344,-0.0029260828159749512,0.00045579072320833797,0.2535666227340698,0.9673134088516236,-0.06490744961788518,-0.05748014851548239,2.9628271160971837,-0.05959675833582876,0.08375822752714157,-0.07170499861240387,0.3033377605676651,0.2079437262564897,-9.896952774524687
26.4,3.2000000476837163,212.0,21.71932411193848,29.62830924987793,-79.78280034293648,40.45904618505599,280.60943856048584,-0.002262298716232181,-0.002042904496192932,0.25307905673980713,0.9674408435821532,-0.04925815702578756,-0.018375544533551925,2.9616265382370304,-0.09048629552125932,-0.0793779268860817,0.054107874631881714,0.3173515995964408,-0.03804743025451899,-9.836476192474368
26.59,3.0999999046325684,215.0,21.743112564086914,29.02397537231445,-79.78280020895245,40.45904626978357,281.20620503234863,-0.0029145607259124517,-0.004034689627587795,0.25064802169799805,0.9680655598640442,-0.003266737464180252,0.02775268368018737,2.9769055487231824,-0.1021910235285759,0.02971451357007027,0.02036513946950436,0.12842249787412585,0.2336011989042163,-9.933739947080614
26.7,3.0999999046325684,214.0,21.818235397338867,29.31818962097168,-79.78280025394794,40.459046314658224,281.50479378509516,-0.0016834490234032273,-0.002525999909266829,0.2500419318675995,0.9682302474975586,0.02185631592138633,0.0490195080396096,2.9920733780515563,0.11583773791790007,0.01865308918058872,0.032385624945163734,0.2400674336962402,-0.13566824873909356,-9.953571363687516
26.79,3.0,211.0,21.78818702697754,28.42759132385254,-79.7828002131182,40.45904645256885,281.8104988555908,0.001026443438604474,-0.0013530802680179475,0.2492143511772156,0.9684468507766724,0.0055818808481173645,0.08534654163618079,2.973759206530004,-0.08987167477607727,0.10593771189451218,-0.055929295718669884,0.2073754134401679,0.1673528302833438,-9.754462561011314
27.0,2.9000000953674316,207.0,21.683013916015625,29.42156410217285,-79.78280008053645,40.45904679025049,282.39460053253174,0.006312509533017875,-0.006410749163478613,0.2468232810497284,0.969018816947937,0.047205445176409885,0.14164719362816788,2.9025774216031546,-0.04350610449910164,0.06519432365894318,0.011095106601715088,0.2490492685697973,0.056963465251028536,-9.501795017123225
27.2,2.9000000953674316,205.0,21.680509567260746,28.849035263061523,-79.78280021218255,40.45904702563613,282.9680916290283,0.007753649260848761,0.0010794582776725292,0.2471228837966919,0.9689525365829468,0.06242036001367835,0.1908856741565504,2.82911519533198,0.2249281406402588,-0.06845235824584961,-0.016020746901631355,0.2207282612845302,-0.1333788445405662,-9.468989798426627
27.29,3.0,206.0,21.577842712402344,30.31216239929199,-79.78280009652661,40.459047335225726,283.2750240783692,0.00732510583475232,0.008838181383907795,0.2477761656045913,0.9687493443489076,0.030513436588546806,0.20011363898263296,2.8157399957097597,0.18512198328971866,0.13345040380954742,0.0061628008261322975,0.16198340523988008,0.03244004180654884,-9.495157257914544
27.49,2.9000000953674316,203.0,21.73434829711914,28.849035263061523,-79.78280017993904,40.45904779391624,283.85235371398926,0.00954063143581152,0.012893075123429298,0.2503101229667664,0.9680328965187072,0.016659987394683627,0.24544225183089585,2.8339905412759707,-0.06952697038650513,0.06135154142975807,0.059977225959300995,0.2395579767599702,-0.0371546472189948,-9.764893993735312
27.59,2.9000000953674316,198.0,21.640443801879886,29.99409103393555,-79.78280019776683,40.45904797090762,284.13588871765137,0.010254590772092342,0.0052640405483543855,0.2507583200931549,0.9679811000823976,0.03204502704847978,0.2516742439260554,2.8267154006589497,-0.17569883167743686,-0.10632280260324478,0.011754180304706095,0.3011786213703453,-0.1818926263600588,-9.747128983139993
27.79,2.799999952316284,197.0,21.510231018066406,31.10733985900879,-79.7828002074813,40.459048429963254,284.70114483642584,0.013622969388961792,-0.010303454473614693,0.2494235336780548,0.9682438969612122,0.13619818419175642,0.24308002416854704,2.8384297191728316,-0.050221193581819534,-0.0850616842508316,0.033080022782087326,0.26616317342966794,-0.0054985114652663465,-9.884705196619032
27.9,2.799999952316284,194.0,21.600378036499023,30.002042770385746,-79.78280018462482,40.45904892966596,285.27050747680664,0.013824132271111013,-0.0077628842554986486,0.24836984276771545,0.968535542488098,0.15539097254130524,0.25741256069513896,2.852206446703492,0.05518753081560135,-0.1083541139960289,-0.02693013101816177,0.2487223543971777,0.2129563797824085,-9.906303641796113
28.09,2.799999952316284,194.0,21.646705627441406,29.31818962097168,-79.7828002257669,40.45904911046385,285.5579544525146,0.013060593977570534,-0.0015865277964621782,0.24830880761146545,0.968591570854187,0.12944178231576667,0.2599999248262531,2.883442968711916,0.21535421907901764,0.08301129192113876,-0.004378075245767832,0.2261009571142495,0.0351294869184494,-10.03508505821228
28.19,3.0,196.0,21.86330986022949,26.04205894470215,-79.78280027355748,40.45904928170585,285.8481918792725,0.014809589833021162,0.003929830156266689,0.2489561289548874,0.9683936238288879,0.08253577865683609,0.2541756934282825,2.9011686460382418,0.026367897167801857,0.011241333559155464,-0.0032970753964036703,0.2312855005078017,-0.0152883493155241,-9.993834121227263
28.39,3.0999999046325684,196.0,22.079914093017575,24.17339324951172,-79.78280043947899,40.45904968060329,286.41693844604487,0.019675672054290768,0.007960094138979912,0.2486584782600403,0.9683586359024048,0.056622779491604186,0.2751343489522578,2.7881038290198257,-0.06501153111457825,-0.055863097310066216,0.03551662340760231,0.2393742645531893,-0.2312233372963965,-9.122410708665848
28.5,3.299999952316284,205.0,22.36162567138672,20.99268341064453,-79.7828004477838,40.459049952941214,286.69099774169916,0.02061080187559128,-0.0006154731381684543,0.24715739488601685,0.9687559604644777,0.07765705238366642,0.2668945636557201,2.6643974458489006,-0.007929008454084395,-0.01659739576280117,0.0644615888595581,0.2519429459609092,-0.19265769755467774,-8.728182073831556
28.69,3.2000000476837163,204.0,22.190093994140625,23.1953239440918,-79.78280043738837,40.45905023181056,287.19772877502436,0.01681836880743504,-0.004872138611972332,0.2456522434949875,0.9691998958587646,0.1379915490681185,0.20360595774384085,2.3668665864174083,0.15367422997951508,-0.11256702989339827,-0.007080235518515109,0.1677127629518509,0.08115076515823604,-8.256394216418267
28.79,3.0,202.0,22.17882537841797,23.219179153442386,-79.78280052186331,40.459050545995396,287.66089215087885,0.013252455741167068,-0.0023720997851341963,0.24734298884868625,0.9688344597816468,0.07620267093745464,0.1360904032033983,2.1028167873867583,0.03975030407309532,-0.002207476645708084,-0.027178362011909485,0.1617987976782024,-0.10085551645606756,-8.285800448656083
29.0,2.9000000953674316,207.0,22.09368705749512,24.268814086914066,-79.78280054872816,40.45905069082061,287.87749447631836,0.01564148999750614,-0.0032362062484025955,0.2495623379945755,0.968226969242096,0.06939824572619617,0.126748270754848,2.006066703314462,0.00015537740546278656,-0.03741765767335892,-0.027810301631689068,0.10265565488487484,0.009333572303876282,-8.540502238869669
29.1,2.9000000953674316,238.0,22.08617401123047,24.61074066162109,-79.78280054396542,40.45905076710656,288.0730720977783,0.015266534872353075,-0.004103377461433411,0.2515192031860352,0.9677232503890992,0.07170781195204907,0.12586388788880093,1.9019012293991908,-0.008319003507494926,-0.08921194076538086,-0.049874380230903625,0.17064912501722576,0.04311785244382918,-8.708002747893334
29.29,2.9000000953674316,243.0,21.982254028320312,25.06399154663086,-79.78280052925774,40.45905096859136,288.44956745910645,0.012709553353488444,-0.00583021342754364,0.24929915368556976,0.9683256149291992,0.06822424756576599,0.10655944420592113,1.7497886055446308,-0.019904926419258118,-0.05878087505698204,0.054907601326704025,0.17079475723206994,0.1284620305337012,-8.912112674117088
29.39,2.700000047683716,266.0,21.95721244812012,24.761823654174805,-79.78280052759614,40.45905103392644,288.62091221618647,0.009594934061169623,-0.005950771272182465,0.2450601011514664,0.9694421887397766,0.05458490694988022,0.10351971692148118,1.6761357469710023,-0.06788531690835953,-0.07982788234949112,0.1090182438492775,0.14380339764989913,0.05905231908895076,-9.022831456661224
29.6,2.5999999046325684,268.0,21.835763931274414,26.535070419311523,-79.78280057476059,40.459051239806435,288.9768349151612,0.008523005060851574,-0.006544603034853935,0.2340765595436096,0.9721587896347046,0.03471920971007099,0.0936039364188465,1.6149671392681493,0.11384498327970505,-0.012195141986012459,0.12607324123382568,0.27226346388459205,-0.2002468718402088,-9.314982324242592
29.71,2.4000000953674316,246.0,21.829504013061523,26.19314384460449,-79.78280080670487,40.45905137184118,289.34633412170416,0.0069953766651451605,-0.006188953295350075,0.23389679193496704,0.9722166061401368,-0.017414378977896987,0.11565302630097428,1.6463791470182076,-0.0640183761715889,0.010487714782357216,-0.11724171042442325,0.2228957693092525,0.11637872284278275,-9.462363733649257
29.89,2.200000047683716,201.0,21.99352264404297,24.58688545227051,-79.78280090005137,40.459051432474695,289.51053013610834,0.007746126037091017,0.00012654965394176543,0.23826852440834045,0.9711685180664062,-0.023003349762481026,0.11934341419450335,1.6392526600747408,0.05309586599469185,0.00601327419281006,-0.08542285859584807,0.12616974840871992,0.0221519572287798,-9.7061569583416
29.99,1.8999999761581416,199.0,21.96597671508789,25.517242431640625,-79.78280075259504,40.45905168393951,289.77260365295416,0.010706139728426932,0.007738491054624319,0.24391867220401764,0.9697057604789734,-0.02726044435065022,0.13855860842255174,1.7293250968287566,0.0781564861536026,0.0226990394294262,-0.08493457734584807,0.18829885410144925,-0.11939732965081933,-9.639817373156546
30.2,1.7000000476837158,204.0,22.141263961791992,21.87532997131348,-79.78280091615396,40.45905184567794,290.1127277832031,0.014875662513077259,0.013478778302669523,0.2556152641773224,0.9665701985359192,-0.035504799666481006,0.16831819853031596,1.6750646708784531,-0.058763809502124786,-0.028411567211151127,-0.11193987727165222,0.2755734630301595,0.017520533027127385,-9.597360155582429
30.29,1.7999999523162842,212.0,23.08656311035156,8.611771583557129,-79.78280100178628,40.459052129408185,290.4174972991944,0.013231666758656502,0.007137066219002008,0.2599643170833588,0.9655011892318726,0.0255711681100516,0.17841996183872127,1.5298165000528088,-0.0053616887889802465,-0.13165192306041718,-0.04227872937917709,0.30072400035336616,0.24000921735540034,-9.47433824658394
30.49,1.7000000476837158,212.0,22.60828018188477,18.14594841003418,-79.78280116629952,40.45905234864728,290.53705372619635,0.00370835536159575,-0.00015695363981649282,0.2538403868675232,0.9672389626502992,0.04006980110936334,0.18128782223311105,1.2342912493445417,-0.17678803205490112,-0.2629129588603973,0.3882869780063629,0.3722175589576364,0.2302556779235601,-7.245615867376327
30.6,1.600000023841858,203.0,22.382909774780273,20.56328773498535,-79.78280117982943,40.45905249356596,290.6477333526612,-0.0007722453447058798,-0.008139912039041521,0.2199791669845581,0.9754703044891356,0.08933259401845398,0.15379318549328394,0.9856998662063088,-0.08829041570425034,-0.03610581159591675,0.821071445941925,0.0582606243621558,0.4302461676299572,-7.335933714509013
30.79,1.600000023841858,210.0,22.22264862060547,22.137739181518555,-79.78280121447659,40.45905291591453,290.77858891296387,0.008768262341618538,0.0016964623937383294,0.11072470992803574,0.9938109517097472,0.0824632632304935,0.1874629512505544,0.6586895915765718,0.0067982440814375895,0.06745841354131699,1.350266933441162,0.3063436679542065,-0.030569181761238726,-8.25987857222557
30.9,1.600000023841858,202.0,22.21138000488281,21.811716079711914,-79.78280119728758,40.45905309935815,290.8391205291748,0.012473070994019508,0.0010423969943076372,0.042964249849319465,0.9989982843399048,0.06430133564730915,0.2088363578785595,0.551919326361902,-0.06946586072444916,0.09848852455615996,1.3377950191497805,0.25419774195179345,0.03511215540580452,-8.6522928160429
31.09,1.600000023841858,200.0,22.052370071411133,23.9825496673584,-79.7828012476252,40.45905352544451,290.9001747589112,0.014925245195627213,-0.00455002672970295,-0.107671357691288,0.9940641522407532,0.004935997965840149,0.21543699647176645,0.4274945691408373,-0.00465663056820631,0.008565167896449566,1.525065541267395,0.29033057453110817,-0.10798869928345084,-9.179206468462942
31.2,1.600000023841858,220.0,22.053621292114254,23.322553634643555,-79.78280124322332,40.45905372402661,290.9331146697998,0.01577448844909668,-0.007148310542106628,-0.16418194770812988,0.9862781167030334,-0.04779094583724521,0.19705447412872687,0.3625349738623669,-0.013337296433746816,0.03353773802518845,1.5869134664535522,0.18741831824183466,-0.11622307727113368,-9.419114803075793
31.39,1.600000023841858,230.0,22.07240104675293,24.252910614013672,-79.78280145120361,40.45905409990418,290.98431172180176,0.021129021421074867,-0.007904925383627416,-0.31355053186416626,0.9493035078048706,-0.1307007718049462,0.12428945910139495,0.3470976255080237,0.11490483582019805,0.06367122381925583,1.404544711112976,0.15001870466396214,-0.1923473565839231,-9.60709635436535
31.5,1.600000023841858,222.0,21.944692611694336,25.024232864379893,-79.78280190154503,40.4590541548827,291.03300442504883,0.02348390221595764,-0.004216115456074475,-0.3762733638286591,0.9262014031410216,-0.1725294970486077,0.05982689798038859,0.3882076702094204,0.1300148069858551,-0.007278437260538339,1.2264821529388428,0.1302609264291823,-0.3776879581063986,-9.664854565858839
31.69,1.600000023841858,215.0,21.408815383911133,30.94035148620605,-79.78280225487735,40.45905439591354,291.11416592407227,0.024277027696371082,0.0002376226766500622,-0.4514337182044983,0.8919743895530701,-0.2295065308267333,-0.03463119541761971,0.4291314681522314,-0.06840330362319946,-0.12615284323692322,0.5708039999008179,0.0912440460920334,-0.8090865388512611,-10.028126871585846
31.8,1.600000023841858,222.0,21.73810386657715,27.87891960144043,-79.78280247115893,40.45905462984963,291.12555661010737,0.02736764773726464,0.0030361732933670282,-0.4717310667037964,0.8813125491142273,-0.20598196455202009,-0.08319458720655434,0.5119932308844983,0.24958911538124084,0.0824979916214943,0.35818469524383545,0.109159841760993,0.03669144267216325,-10.439485509395599
31.99,1.7000000476837158,219.0,21.964725494384766,24.793630599975586,-79.78280304844641,40.459054942559206,291.13503231811524,0.02016235701739788,0.04623594507575035,-0.4791039228439331,0.8763077855110168,-0.17115989923898625,-0.03899367062339818,0.5523462391587425,0.05997486412525178,-0.5401214361190796,-0.0564885176718235,0.5741105499118567,-0.5667964505776764,-10.349571704864502
32.1,1.7000000476837158,206.0,21.895862579345703,25.5649528503418,-79.78280314418322,40.45905508182221,291.25347103881836,-0.04193409904837608,0.05159962549805641,-0.4686031937599182,0.8809030652046204,-0.08492929108403413,0.05255701131139274,0.6134684225928315,-0.22095707058906555,-0.5132632851600647,-0.05414370819926262,0.2309087936393917,-0.5538939479738474,-10.146151750087741
32.29,1.7999999523162842,199.0,21.9209041595459,25.437725067138672,-79.7828030575957,40.45905519109272,291.2338940124512,-0.06721451133489609,0.04938739910721779,-0.4597635269165039,0.8841156959533691,-0.053906465518455474,0.15628572697765925,0.6158230411782557,-0.1539033204317093,-0.3657837510108948,-0.022262945771217343,0.0442149225762114,-0.17344937486574055,-10.216389673948287
32.4,1.8999999761581416,174.0,21.988513946533203,25.46953201293945,-79.78280275788308,40.459055367121145,291.29498066711426,-0.08477890491485596,0.05020018666982652,-0.4535166025161743,0.8857850432395935,-0.0282430698860314,0.30380186109450114,0.6839972430364764,-0.0637219175696373,-0.263813316822052,-0.0691688060760498,-0.024291633877437564,-0.1544879143126309,-10.249525845050814
32.6,2.0,164.0,22.02482414245605,25.07989501953125,-79.78280166996055,40.45905589866054,291.32499089050293,-0.09860678762197496,0.06547445058822632,-0.4432125389575958,0.8885677456855774,0.02284340190487804,0.6647303246508205,0.7513680647864021,0.22678256034851074,-0.15409818291664126,-0.00020018627401441336,-0.04231805840972811,-0.19451194100081928,-10.043320276737212
32.69,2.200000047683716,157.0,21.829504013061523,26.16133689880371,-79.78280077004369,40.45905637627239,291.38212933349615,-0.10118844360113144,0.07591428607702255,-0.4406744837760925,0.8887091875076294,0.03031542054742936,0.8886117094494269,0.7842585868368852,0.2049199491739273,-0.16977791488170624,-0.10858579725027084,0.005919616059400142,-0.3481949678063393,-9.844964010715485
32.89,2.200000047683716,152.0,22.033588409423828,23.767852783203125,-79.78279834916505,40.45905748559539,291.38878788757324,-0.11522090435028075,0.08509240299463272,-0.4376924932003021,0.8876423239707947,0.07552221391073369,1.349814346643841,0.8804790012895243,0.054172635078430176,-0.20338566601276398,0.13115194439888,-0.044329135143198084,-0.4844851227477193,-10.119115394353868
33.0,2.4000000953674316,133.0,22.012304306030273,24.38809013366699,-79.78279482596399,40.45905885449055,291.37456478881836,-0.1314050853252411,0.08846855908632277,-0.4388100206851959,0.8845065236091614,0.1558233347202605,1.8369123263653704,0.9996322755663112,0.04890051111578941,-0.10208622366189957,0.0359543114900589,-0.05583688952028752,-0.3410738265886903,-10.078417603969577
33.19,2.5,125.0,21.859554290771484,25.80350685119629,-79.78279263338283,40.45905991140615,291.41380276489264,-0.13807228207588196,0.08900602906942368,-0.4397527873516083,0.8829674720764159,0.164309535627339,2.1016898984818884,1.0983997827140284,-0.1273130476474762,-0.050830285996198654,-0.021463502198457718,-0.2473534481227398,0.11905005985870958,-10.02982256412506
33.31,2.799999952316284,116.0,21.823244094848643,26.89289855957031,-79.78279011491709,40.45906053978288,291.34406437683106,-0.14123322069644928,0.08907628804445268,-0.4448119997978209,0.8799210786819458,0.2486813515924252,2.351893116429512,1.1680089418695072,-0.05559457466006279,-0.060799192637205124,0.015180561691522597,-0.2040764326415956,-0.023419359494000674,-10.096432875394822
33.49,2.9000000953674316,111.0,21.888351440429688,26.455551147460927,-79.78278409437561,40.45906272528127,291.32016339111334,-0.1511968970298767,0.08843426406383514,-0.4535556435585022,0.873845636844635,0.2860495294323524,2.8928071266091018,1.3434599924690331,-0.15188118815422058,-0.08554503321647644,0.1522524654865265,-0.3598883027583361,-0.2608087866939605,-10.150498570203784
33.6,3.2000000476837163,100.0,21.90337562561035,25.00832939147949,-79.78278068947833,40.45906424947111,291.34690060424805,-0.15916693210601807,0.08398561924695969,-0.4542615115642548,0.8725014328956604,0.26220442457204635,3.1940677547982936,1.4429772724276524,-0.20125100016593933,-0.0865866020321846,-0.004643226042389871,-0.3743708692118526,0.0008732953621074557,-10.032742663621905
33.8,3.4000000953674316,96.0,22.00979995727539,23.799659729003906,-79.7827726758453,40.45906689861194,291.3007732849121,-0.1699312925338745,0.07772253453731537,-0.4554680585861206,0.8704203367233276,0.3585327645783272,3.7270294460351767,1.6406730449215587,-0.1334458291530609,-0.0620361790060997,-0.01884488202631473,-0.5986607426404953,-0.11719680313020946,-9.996378829479216
33.9,3.700000047683716,86.0,21.99352264404297,24.181344985961914,-79.78276333251577,40.45906977940707,291.24855961608887,-0.1676492989063263,0.06806211173534392,-0.4547620713710785,0.8720393776893616,0.4352146963079863,4.2786782230327045,1.7444029251107633,-0.13947239518165588,-0.005977626424282789,-0.06290280818939209,-0.6345754375308752,-0.12022555120289324,-9.88255926847458
34.09,3.9000000953674316,81.0,22.24142837524414,21.54135513305664,-79.78275847156915,40.45907194820123,291.25591053771967,-0.16303633153438568,0.0683368518948555,-0.4535641968250274,0.873515248298645,0.4156833978315401,4.562909477088678,1.7702827051869208,0.1851236075162888,0.09658987820148468,-0.08009157329797745,-0.6563909605890513,0.18271072492003448,-9.729408996105192
34.19,4.300000190734863,73.0,22.24894142150879,21.764005661010746,-79.78275336737845,40.45907427542584,291.2578960876465,-0.15945231914520264,0.07095201313495636,-0.4534209072589874,0.8740425705909729,0.3766818243284125,4.840995034406675,1.76454792387472,-0.07200730592012405,0.1101365014910698,-0.11272024363279345,-0.6992566792666912,0.07801580789498985,-9.661961948275566
34.39,4.5,70.0,22.117475509643555,22.38424301147461,-79.78274166486847,40.45907765090797,291.1718079071045,-0.15533211827278134,0.07300207018852234,-0.4605281054973602,0.8708941340446472,0.4034360720229697,5.319234469301469,1.7367816713839668,0.034005235880613334,0.05006187781691551,-0.04982191324234009,-0.8878104536980391,0.055165007896721366,-9.282816790938377
34.5,5.0,65.0,22.126239776611328,23.10785484313965,-79.78272899936081,40.459081720451216,291.0793606262207,-0.15534883737564087,0.06771326810121536,-0.4658998548984528,0.8684578537940979,0.39086634439553214,5.782267475376828,1.7102107815703476,-0.09428645670413972,-0.015553613193333147,0.067273810505867,-1.045746014267206,-0.02489588651340455,-9.259946576356887
34.7,5.300000190734863,63.0,22.113719940185547,23.36231231689453,-79.78272273848452,40.45908449576812,291.0449692230225,-0.15355969965457916,0.06613378971815109,-0.4660765826702118,0.8688028454780579,0.37162330925353604,5.995978793487521,1.7246145436123124,0.042038850486278534,0.010868285782635212,0.02690947987139225,-0.8867564930766821,-0.10574952632188796,-9.528441363573076
34.79,5.800000190734862,61.0,21.954710006713867,24.467607498168945,-79.78271515001427,40.459085793633754,290.98833432006836,-0.15180063247680664,0.06715080142021179,-0.47349151968956,0.8650162816047668,0.4780089229897028,6.195120310690532,1.7367178950380424,-0.11320257931947708,0.00403612619265914,-0.1164781004190445,-1.1331744597852231,0.3426010462269187,-9.503308276534082
35.0,6.099999904632568,61.0,22.068645477294922,23.720142364501953,-79.78270003914116,40.45908972192528,290.90290036010737,-0.15049448609352112,0.07915164530277252,-0.4847438037395477,0.8579685091972351,0.4902260091494634,6.593838605564473,1.8327969762007013,-0.039547931402921684,-0.02170153148472309,0.07524342834949492,-1.1524911021441222,0.13640708098188042,-9.60896220088005
35.1,6.599999904632568,60.0,21.858301162719727,25.92278289794922,-79.78269282952971,40.459092700767634,290.85777439880366,-0.14981816709041595,0.08247340470552443,-0.4865453243255615,0.8567534685134888,0.32002968922700537,6.792914275474822,1.9184223255971282,0.025992227718234062,-0.0021374626085162163,0.203770324587822,-1.3561980821192263,-0.0249899855721742,-9.637981347441674
35.29,6.9000000953674325,60.0,21.88083839416504,24.69025802612305,-79.7826759283378,40.45909671683585,290.76757969665533,-0.14124910533428192,0.07983507961034775,-0.4942932426929474,0.8540194630622864,0.4548247825502986,7.1562146304295755,2.09565936960957,-0.10437214374542236,0.06834541261196136,-0.07292068004608154,-1.6037509202957154,-0.04499800636433065,-10.034957588911057
35.39,7.400000095367432,58.0,22.10245132446289,23.4179744720459,-79.78265855841136,40.45910122400008,290.65836682128906,-0.14211882650852206,0.07882045209407806,-0.4976295828819275,0.8520296812057495,0.5542087477254906,7.534773152868482,2.1822770053063434,-0.021895458921790126,-0.06439567357301712,-0.13294057548046112,-1.5690443332493311,-0.07899233859032392,-10.1864647936821
35.59,7.699999809265138,59.0,22.06614112854004,22.73412132263184,-79.78265014320462,40.45910438351445,290.6275993804932,-0.14641991257667542,0.08099254965782167,-0.4957512617111206,0.8521926403045654,0.45176816217680105,7.703547827406008,2.284788552931772,-0.008070055395364761,-0.14881521463394165,0.2048148363828659,-1.5722655643522745,-0.20619877092540265,-10.043724904060364
35.7,8.100000381469728,59.0,22.043603897094727,23.871225357055664,-79.78264154306315,40.459107629040616,290.59733166503906,-0.14897064864635468,0.08333349227905272,-0.4948813021183014,0.8520305156707764,0.4702594772938912,7.853670645994897,2.4190995856127486,-0.016002032905817032,-0.10807796567678453,0.08003547042608261,-1.6933738258481026,-0.028235455211251974,-9.834016853570935
35.89,8.300000190734862,59.0,22.06363677978516,23.282794952392567,-79.78262192230244,40.45911267953919,290.46202244567866,-0.14940330386161804,0.08804722875356674,-0.50080806016922,0.8480080366134644,0.5312499834595225,8.218375343477787,2.5986229798234297,0.019438903778791428,0.03113625757396221,0.0579863004386425,-1.6872060365974904,-0.03415208827704192,-9.733171094655992
35.99,8.800000190734863,57.0,21.97348976135254,24.133634567260746,-79.78260173530266,40.45911789793038,290.32859005737305,-0.14852070808410645,0.08771901577711105,-0.50743567943573,0.8442488312721252,0.5343873953610563,8.57067347356405,2.7293873363687253,-0.07861030101776123,-0.02367962710559368,0.02555697038769722,-1.9198978838324547,-0.17013546539470553,-9.745129235386846
36.19,8.899999618530273,56.0,21.76064109802246,26.240854263305664,-79.78259199285615,40.45912132154778,290.29176869201666,-0.14886705577373505,0.0839415118098259,-0.507415771484375,0.8445836901664734,0.5194836310137436,8.753739686284689,2.766853401961081,-0.10421780496835707,-0.0180452074855566,0.09687481820583344,-1.6111681133508684,-0.04776970535516738,-9.863223695755003
36.3,9.100000381469727,56.0,21.940937042236328,24.316524505615234,-79.78258109033972,40.45912455590917,290.1926342468262,-0.1477423906326294,0.08173275738954544,-0.5088596940040588,0.8441290259361267,0.576049936893515,8.939618764631378,2.7978297490598982,-0.11260072886943814,0.1422322392463684,-0.19612230360507965,-1.6872034053504468,0.20707183331251144,-10.076379264593124
36.49,9.300000190734863,55.0,21.76815414428711,26.12952995300293,-79.78255995000616,40.459131642757455,290.0657001953125,-0.14683204889297485,0.07885875552892685,-0.5099430084228516,0.8439075350761414,0.6070005194772591,9.29145114113448,2.8498274268022725,-0.00259670102968812,0.016847925260663033,0.11287424713373186,-1.6226777726411818,0.07409948446322233,-10.153574205636977
36.59,9.5,57.0,21.811975479125977,26.06591415405273,-79.78254941713439,40.459135324345844,290.03260578918463,-0.14762426912784574,0.08125490695238112,-0.5106310248374939,0.8431256413459778,0.5467867713846888,9.451543095050932,2.9424687305673314,-0.028235023841261864,-0.13428935408592224,0.2895985245704651,-1.7057447800040246,-0.17580377452075482,-10.144705148935321
36.79,9.5,57.0,21.640443801879886,27.5369930267334,-79.78252713908319,40.45914312746672,289.9009396057129,-0.15019382536411285,0.08854373544454575,-0.511906623840332,0.8411620259284973,0.5194542106599227,9.768303188532697,3.2055451513832747,0.059700660407543175,-0.10021629929542544,-0.004522619768977165,-1.976048841923476,-0.07354653429239989,-9.85332669854164
36.89,9.699999809265137,57.0,21.665485382080078,27.57675170898437,-79.78251602127426,40.4591470373664,289.8743568878174,-0.14999012649059296,0.0907185897231102,-0.5126200318336487,0.8405318856239319,0.4885042155969617,9.911053031026892,3.3609688069131094,0.08846621215343475,0.0030928775668144226,0.16317379474639893,-2.003710703551769,0.12439396728761495,-9.917905687093736
37.09,9.800000190734863,57.0,21.758136749267575,26.82928466796875,-79.78249249014604,40.459155269884974,289.7648998718262,-0.14895516633987427,0.09214866906404497,-0.5138962268829346,0.8397807478904724,0.4518961473974074,10.237130946288083,3.5771479106144395,-0.0783880203962326,-0.1266179084777832,-0.015645630657672882,-1.7664489649236204,0.23725141463801264,-10.08080209851265
37.2,10.100000381469727,55.0,21.362489700317386,30.638185501098643,-79.78248077075943,40.45915937205945,289.7479397277832,-0.153699591755867,0.09388789534568788,-0.5129985809326172,0.8392818570137024,0.46957305787252,10.405455759550998,3.635629840792944,-0.06820078194141388,-0.1346440315246582,0.004925636574625969,-1.5234981778264047,-0.12950120866298676,-9.978084061145784
37.4,10.199999809265137,54.0,21.39754676818848,30.70975112915039,-79.78245616669923,40.45916800371915,289.64541592407227,-0.162478506565094,0.09693624824285507,-0.5131823420524597,0.8371667265892029,0.509530798711882,10.653447671191945,4.041022621343705,-0.0077441735193133346,-0.06432390213012695,-0.041040897369384766,-1.7028743818402292,0.20824438277632,-10.323210117816926
37.5,10.399999618530273,54.0,21.46014976501465,29.66011619567871,-79.78243069461044,40.45917692031279,289.58251347351074,-0.16557015478610992,0.09306584298610687,-0.5150042176246643,0.8358803391456604,0.4835489386059845,10.94443698802775,4.362188623859131,-0.07943260669708252,-0.05391716584563255,0.2736266851425171,-2.0569012163579465,0.17503391548991204,-10.29116386771202
37.69,10.600000381469727,54.0,21.665485382080078,27.74374008178711,-79.78241795443967,40.45918137335357,289.58273854064936,-0.16612200438976288,0.0898899957537651,-0.5151706337928772,0.8360159397125244,0.4770645706187253,11.106365570770464,4.485219806471753,0.03975696489214897,-0.015147401951253412,-0.1482425332069397,-2.018318071514368,0.1106490544974804,-10.275041924715044
37.79,10.800000190734863,53.0,21.550296783447266,28.41168785095215,-79.78239120505516,40.459190587789365,289.5421997528076,-0.1576118767261505,0.08636049926280975,-0.5163002610206604,0.8373377323150635,0.45551061886559097,11.369635658168555,4.638383458121696,-0.05990481749176979,0.2449657171964645,0.1031430959701538,-2.186324364691973,-0.09599470781162382,-10.301971861124038
38.0,11.0,54.0,21.86581420898437,24.51531982421875,-79.78237717987551,40.459195572179524,289.5058685760498,-0.13965007662773132,0.0788610652089119,-0.5184738636016846,0.8399187922477722,0.4715582567576492,11.558288123115895,4.479207191896338,0.15104855597019196,0.4382707476615906,0.1211756095290184,-2.561784168183804,0.05460003895685077,-10.169732401371002
38.09,11.300000190734865,54.0,22.022319793701172,22.6227970123291,-79.78236384851611,40.45920026248918,289.52150692749024,-0.11739984899759293,0.070829376578331,-0.5203639864921571,0.8428652286529541,0.4341326843014951,11.776171763281994,4.130114840906517,0.037156544625759125,0.4968015551567078,-0.15816833078861234,-2.317405637204647,-0.15100898545235394,-10.368116734027863
38.3,11.5,54.0,21.862056732177734,24.777727127075195,-79.78233610258866,40.45921010612082,289.5152393798828,-0.09010694175958632,0.059358701109886176,-0.522984504699707,0.8454848527908325,0.3802686877812435,12.142078603678373,3.1661113809082764,-0.06905282288789749,0.11606248468160628,0.012521140277385712,-2.4661357069015506,-0.3347010558843613,-9.697565059661867
38.4,11.899999618530273,65.0,22.038597106933594,22.408098220825195,-79.78230850453704,40.45921997400581,289.55042614746094,-0.07959756255149841,0.05513973906636238,-0.5249562859535217,0.8456032276153564,0.36833334260323103,12.178425220328718,2.7827161966972738,0.15133391320705414,0.16665369272232056,0.2524777054786682,-2.5927583312988283,-0.5064761353656649,-9.853127893209457
38.59,12.100000381469727,66.0,22.246437072753906,20.52352905273437,-79.7822951640928,40.45922465809755,289.57756008911133,-0.07086586952209473,0.05629953369498252,-0.5252536535263062,0.8461188673973083,0.3574942435629366,12.113395208865516,2.6583581729265022,0.1659609228372574,0.09887061268091203,-0.015433370135724545,-2.77644393324852,-0.20220519572496407,-9.62611383855343
38.7,12.5,66.0,22.386667251586914,18.74233055114746,-79.78228190230881,40.45922929026445,289.605071685791,-0.06153619661927224,0.057814404368400574,-0.524466872215271,0.8472339510917664,0.359418784401495,12.070194976543656,2.4840539201519904,0.0018232548609375954,0.12009904533624648,-0.2739278972148895,-2.7539198738336563,0.3164500685781241,-9.354817650318148
38.9,12.699999809265135,67.0,22.177574157714844,20.96087646484375,-79.7822546973785,40.459238785967,289.6420399169922,-0.04951221868395805,0.04933621734380722,-0.5237321257591248,0.8490107655525208,0.45335833552755295,11.951220810740907,2.0338880321826007,-0.016906624659895897,0.19684454798698425,0.2356643080711365,-2.6969639003276837,-0.4671971718594432,-9.30234941482544
39.0,13.100000381469727,71.0,22.58073425292969,17.215591430664062,-79.78224084008836,40.459243596341054,289.6802326660156,-0.03795110806822777,0.037251729518175125,-0.5243661999702454,0.8498306274414062,0.494675437710405,11.87633695472018,1.86065431270578,-0.14824678003787994,0.3428022265434265,-0.13600388169288635,-2.732305933535099,0.2318266968615353,-9.516927026510238
39.19,13.199999809265135,76.0,22.37790298461914,18.6787166595459,-79.78221530208958,40.45925225396317,289.71791615295416,-0.019838925451040268,0.018558893352746964,-0.523310661315918,0.8517088294029236,0.5967380782735591,11.599175009991956,1.0464751546589142,-0.08213227242231369,0.15400809049606326,-0.15359711647033691,-2.4383915457129484,0.07535595517605544,-9.670008886456491
39.29,13.600000381469727,76.0,22.5932559967041,17.326915740966793,-79.78220200450595,40.45925675909198,289.749229095459,-0.012115588411688805,0.010037126950919628,-0.5221923589706421,0.8526827096939087,0.669541277069356,11.463920486393533,0.8697542909175695,0.005685349926352501,0.16207152605056765,-0.345310777425766,-2.1846769116818905,0.5164371230453253,-10.138374953269961
39.49,13.800000190734865,75.0,22.598262786865234,17.207639694213867,-79.7821769443153,40.459265095924025,289.82330479431147,-0.014928667806088924,-0.00044764776248484855,-0.5177567005157471,0.855397641658783,0.7905089961970269,11.091668139624838,0.4415119796248694,-0.4128583669662476,0.040860965847969055,-0.42989835143089294,-2.087826993763447,1.0725074777752162,-9.488748709559443
39.6,13.899999618530273,81.0,22.740997314453125,15.56162166595459,-79.7821649791885,40.45926899906471,289.8419910888672,-0.025047251954674717,0.000927196117118001,-0.5152080059051514,0.8566986322402954,0.8769025752886019,10.884392756648412,0.389904571177374,-0.011541508138179779,-0.3370030224323273,-0.13402189314365387,-2.398852381110192,0.15752177869901066,-8.846978784799576
39.79,13.899999618530273,79.0,22.64959716796875,17.024747848510742,-79.78214122235623,40.45927689141799,289.88556065368647,-0.027757110074162483,0.001845454447902739,-0.5119640231132507,0.85855633020401,0.9288020403569924,10.528297045188447,0.5510523599606927,-0.054673612117767334,-0.05002265423536301,0.051817387342453,-2.2524518421292306,-0.08468555320054293,-9.024019610881806
39.9,13.899999618530273,79.0,22.541921615600586,17.605226516723633,-79.78212983631992,40.459280605994024,289.8830162506104,-0.02079964987933636,-0.0018759815720841289,-0.5119245052337646,0.8587766289710999,0.9457398677836261,10.380773859254656,0.4318987254498367,-0.09866992384195328,0.34858474135398865,0.04216311126947403,-1.8197067207098008,-0.13836819143034518,-9.2710036611557
40.09,13.899999618530273,79.0,22.391674041748047,19.489797592163086,-79.78210728178853,40.45928822532535,289.8901077728272,-0.024429293349385255,0.00791118014603853,-0.5144709944725037,0.8571232557296753,0.8616247858596656,10.05782681302213,0.21065365982274628,-0.005497336853295565,0.20440983772277832,-0.11626344919204712,-2.3403321312367917,0.2701517054066062,-9.166831421256068
40.2,13.699999809265135,80.0,22.54317283630371,18.877511978149414,-79.78208534057316,40.45929569439581,289.9034515838623,-0.033388651907444,0.0245953481644392,-0.5197879672050476,0.8532881736755371,0.7209061563877971,9.808919754173068,0.37210507170414137,0.1790103018283844,-0.22398771345615387,-0.18057604134082794,-2.329588457196951,0.27282240288332105,-9.283359412550928
40.39,13.600000381469727,78.0,22.322813034057614,20.086181640625,-79.782074776804,40.459299221454955,289.879729888916,-0.048928000032901764,0.03452055901288986,-0.5218948125839233,0.8509055972099304,0.6226247000688399,9.689900520313717,0.5312016904564488,0.011734005995094776,-0.2442348897457123,-0.003981801215559244,-2.2209245324134828,0.042363826576620335,-8.944609159827232
40.49,13.399999618530273,79.0,22.344097137451172,20.475818634033203,-79.78206401064999,40.45930308835303,289.9088684539795,-0.06098666414618493,0.0455440953373909,-0.5253471732139587,0.8474766612052917,0.5583000004091816,9.584618101571683,0.8595017330804341,0.12802696228027344,-0.2141481339931488,0.17922727763652802,-2.25578402414918,-0.373906344473362,-8.995648335814476
40.69,13.300000190734865,79.0,22.256452560424805,21.01653861999512,-79.78204331859881,40.45931001175744,289.83716168212885,-0.09460116177797318,0.060460187494754784,-0.5263699889183044,0.8428106307983398,0.3888722299796557,9.446829651859453,1.3465362512430716,-0.09981983155012132,-0.3156377077102661,0.17516577243804932,-2.1662821559607983,-0.30594856062904,-8.94555173099041
40.79,13.100000381469727,71.0,21.84077262878418,25.93073463439941,-79.78203281464562,40.45931387649126,289.8640991668701,-0.113119974732399,0.06941390782594681,-0.5245542526245117,0.8409687876701355,0.3577160990345604,9.394258600692392,1.7002443973734054,-0.06245655566453934,-0.4847611486911774,0.11174801737070084,-2.192132403999567,-0.3140124009177089,-8.762922136187552
40.99,13.0,64.0,21.56532096862793,29.42951583862305,-79.78201229282259,40.459321188687895,289.81648602294916,-0.143601655960083,0.09475836157798767,-0.5211314558982849,0.8359554409980774,0.33759003951888844,9.331533868510167,2.442766453473964,0.1185499057173729,-0.3064596652984619,0.17834018170833588,-2.380738437920809,-0.22397319188341505,-9.07280410051346
41.1,13.0,65.0,21.26482963562012,31.60830116271973,-79.78199135120845,40.45932835864513,289.7073494415283,-0.17011502385139465,0.11176017671823504,-0.5180789232254028,0.8307616114616394,0.35454010131780545,9.33494170033307,3.1395838291904727,0.1279384046792984,-0.23362550139427185,0.10711365938186647,-2.3968397694826127,0.2476697276718915,-9.045315170288086
41.29,13.0,64.0,21.07451820373535,34.932144165039055,-79.78198110235009,40.459332227243685,289.7073017578125,-0.1850873976945877,0.11957885324954988,-0.5165882110595703,0.827393651008606,0.3456992746070795,9.34404683151894,3.521605369917318,-0.03578396141529083,-0.32955995202064514,-0.3099295496940613,-2.6448766109347344,0.2924389525875449,-9.480627511739732
41.4,13.199999809265135,55.0,20.96558952331543,35.194549560546875,-79.78197025964964,40.45933591397646,289.65832676696783,-0.2017488330602646,0.12472917884588244,-0.5129337310791016,0.8250085711479187,0.35504728043536515,9.37852683630741,3.9250627040773702,-0.13502801954746246,-0.3539940714836121,0.13930672407150269,-2.683545709848404,0.2270032373070717,-9.678655164241787
41.59,13.199999809265135,52.0,20.93553924560547,36.18852233886719,-79.78194858396319,40.459343726407056,289.5784527282715,-0.22153235971927648,0.1201954036951065,-0.5059029459953308,0.8249477744102478,0.4626094031520234,9.462721866609504,4.757607175341601,-0.11125080287456512,-0.06899522989988327,0.06498362123966217,-2.6369679594039916,-0.07545886617153884,-10.325499887466432
41.7,13.300000190734865,52.0,20.98186492919922,35.44900894165039,-79.78193706682647,40.45934770031531,289.5426956634521,-0.22189347445964813,0.1188637986779213,-0.5032773017883301,0.8266478776931763,0.5571488349144239,9.631443897679986,4.97631305023353,-0.022247428074479103,-0.09298811852931976,-0.23291543126106265,-2.780138204097748,0.028897816836833963,-10.279460080862046
41.89,13.399999618530273,51.0,21.142127990722656,33.01576614379883,-79.78191373077479,40.45935600664172,289.47671665954584,-0.20545390248298645,0.11525367945432664,-0.5003750920295715,0.8331447839736938,0.6571237613390222,9.991493183758172,5.230546103407708,-0.011146256700158121,0.3177704215049744,0.037551648914813995,-2.9229839283227923,0.10578331226482987,-10.591499083042144
42.01,13.5,50.0,21.147136688232425,33.03961944580078,-79.78188942318589,40.459364642380855,289.4232346038818,-0.1834263950586319,0.11316175758838655,-0.5016616582870483,0.8377856612205505,0.7371206929981695,10.46483578002244,5.088815110544296,0.14351728558540344,0.1121971234679222,0.2997184097766876,-2.7838991332054137,0.09159213814884423,-10.66096751332283
42.2,13.600000381469727,51.0,21.302391052246094,30.16903114318848,-79.7818768424044,40.45936905051343,289.4304481964112,-0.1726752072572708,0.11358559131622314,-0.5045340657234192,0.8382882475852966,0.7154613083051551,10.638026760819603,5.082277457514887,0.06086483597755433,0.185118168592453,0.08228461444377899,-3.081833481788636,0.10744311751797796,-10.576296322345732
42.3,13.899999618530273,50.0,21.57909393310547,28.610483169555664,-79.78186433214276,40.45937350316775,289.39667668151856,-0.16043579578399658,0.11107790470123292,-0.5087614059448242,0.8385009765625,0.6762977615834568,10.784830598813748,4.998762990370096,0.13762901723384854,0.4094205796718597,-0.2537349760532379,-2.9622953438758852,0.34893993962556125,-10.593978302478787
42.49,14.100000381469727,49.0,21.6917781829834,26.527118682861328,-79.78183860318266,40.459382503772105,289.3924175720215,-0.1452435851097107,0.09812093526124954,-0.5145606398582458,0.8393473625183105,0.5716776797799583,11.132223300274577,4.6005954707358,-0.05564383417367935,-0.027307337149977684,0.04238269105553627,-2.8967144349217415,0.3542239222303033,-9.750788170695305
42.59,14.300000190734865,52.0,21.74060821533203,25.01628112792969,-79.7818125756824,40.459391372769396,289.45427479553217,-0.13913634419441226,0.07826094329357147,-0.5147420763969421,0.842352032661438,0.6302795325439128,11.314904242728215,4.3316947865597495,-0.2634557783603668,-0.09030314534902573,0.14990808069705966,-2.9016696578264236,0.2786968629062176,-9.820624390840527
42.79,14.300000190734865,55.0,21.54403686523437,27.902774810791016,-79.78179955199292,40.459395884854715,289.4036499481201,-0.14024639129638672,0.06918198615312576,-0.5128779411315918,0.8440978527069092,0.7047822144903351,11.422914757251688,4.060087971164628,-0.2077006697654724,-0.08876362442970276,0.1707315444946289,-2.912019229531288,-0.03767039448022843,-9.206866722106934
42.9,14.5,55.0,21.680509567260746,27.05988693237305,-79.78178646551919,40.459400308480575,289.4294868927002,-0.1412215679883957,0.06468037515878677,-0.5109907388687134,0.8454356789588928,0.827693967737222,11.475823147363618,3.9537361321041535,-0.025309929624199867,0.0586218535900116,-0.11894749850034715,-2.9409866282343864,0.5471303274482489,-9.01117912530899
43.09,14.600000381469727,55.0,21.87958526611328,24.197248458862305,-79.78176013884915,40.45940962022177,289.3798634033203,-0.13681353628635404,0.057717319577932365,-0.5097106099128723,0.8474349379539491,0.8779483506443575,11.515462723140939,3.74805880383405,0.016088208183646202,0.17472437024116516,-0.15964329242706302,-2.743917919099331,0.3537295766919851,-9.30180562376976
43.19,14.699999809265135,59.0,21.843276977539066,24.865196228027344,-79.78174708313789,40.45941406425344,289.38865818786616,-0.1332581639289856,0.0573495663702488,-0.5103957056999207,0.847614049911499,0.9170612463811324,11.558726502867794,3.52039779605568,0.1000310629606247,0.051599692553281784,-0.10410555452108383,-2.696527405679226,0.4601298981159926,-8.826298352479936
43.39,14.699999809265135,60.0,21.48644256591797,28.4912052154541,-79.78172053888167,40.45942282496948,289.39488377380366,-0.141258105635643,0.061317380517721176,-0.5125286579132079,0.8447489738464355,0.8538071876434749,11.592839855022993,3.2990456517266766,-0.04262757673859596,-0.18902890384197235,0.08035192638635635,-2.556950859725476,0.233863318618387,-8.334027698636055
43.5,14.699999809265135,61.0,21.74186134338379,25.07194328308105,-79.78169416408903,40.45943184316268,289.4159275512696,-0.13184133172035215,0.0585273914039135,-0.5225744247436523,0.840302586555481,0.6187885543697795,11.583699153247863,3.469705813887359,0.2428685277700424,0.1015741303563118,-0.18799541890621185,-2.5944587016105647,0.03888162693008782,-8.911745468974113
43.69,14.600000381469727,61.0,21.68802261352539,26.61458778381348,-79.78168117547959,40.459436370741294,289.40009274291987,-0.11947138607501985,0.06728898733854294,-0.5284023284912109,0.837848424911499,0.4037619064964226,11.678098553702332,3.2277797636842527,0.3190020024776459,0.00011282874038442969,0.03394870460033417,-2.3184578436613084,-0.1951554636284709,-9.140809557437898
43.8,14.399999618530273,63.0,21.17092514038086,33.548534393310554,-79.78166806319055,40.45944076983898,289.44406857299805,-0.11709297448396686,0.07727524638175964,-0.5330204963684082,0.8343901634216309,0.2054356265211673,11.723031896274495,3.054132691148599,0.16211873292922974,-0.0945754423737526,0.193194180727005,-2.440425938218832,-0.4680345296859741,-8.494827298521995
44.0,14.300000190734865,62.0,21.32743263244629,30.39963150024414,-79.78164180829968,40.45944982698869,289.44123997497564,-0.09925248473882677,0.08405209332704544,-0.535784125328064,0.8342779278755188,-0.00015693934409385935,11.674702243272163,3.1755941992885286,0.10969632118940352,0.3144666254520416,-0.1477883756160736,-2.816480988264084,0.14710468992590905,-9.677547701597216
44.1,14.0,63.0,21.447628021240234,29.16710662841797,-79.78162881951033,40.45945431880563,289.42341580200195,-0.09121628105640413,0.07666151225566864,-0.5352575182914734,0.8362427949905396,-0.007455023693163698,11.719166938673634,2.9475518575901307,-0.2471509426832199,0.20838510990142825,-0.3505902886390686,-2.7399283638596534,-0.05944504184648395,-9.874257391691208
44.29,13.899999618530273,63.0,21.5352725982666,27.664220809936523,-79.78160284876778,40.459463500073426,289.42878689575195,-0.09636330604553224,0.057979203760623925,-0.5295517444610596,0.8407899141311646,0.1802559488386808,11.76383749190848,2.6441933754088147,-0.1269206702709198,0.06026288866996765,-0.2108958214521408,-2.281146760582924,0.14247137451544406,-10.090889714956283
44.4,13.800000190734865,69.0,21.604135513305664,26.33627510070801,-79.78157686444295,40.45947257419361,289.41705097961426,-0.1047324687242508,0.06615979969501495,-0.5252604484558105,0.8418761491775513,0.338689277029896,11.69112052932744,2.8046366797027864,-0.0052465610206127175,-0.0925409197807312,-0.06128537654876709,-2.3917654095590115,0.374973461329937,-9.617729516029359
44.6,13.600000381469727,70.0,21.709306716918945,25.708086013793945,-79.78156397936462,40.459477025782974,289.4161373596192,-0.09110555052757263,0.062201768159866326,-0.5254101753234863,0.8436675667762756,0.3700513418219454,11.57937435011631,2.9446530752998266,0.16136617958545685,0.586638867855072,-0.1263926923274994,-2.8483708253502846,0.1059178164973855,-9.642247475981712
44.69,13.199999809265135,71.0,21.685518264770508,25.64447021484375,-79.78155119242044,40.4594814388624,289.4187160949707,-0.05522074922919274,0.04498031735420227,-0.5266079902648926,0.8471195101737976,0.3737600607490477,11.533692014776035,2.6457943290724977,0.11500271409749985,0.8680728077888489,0.15647435188293454,-2.8353081455826765,-0.2738465609773993,-10.013093680143355
44.89,13.100000381469727,71.0,21.932172775268555,24.11773109436035,-79.78152593290321,40.459490194631584,289.42492070007324,0.026004316285252568,0.005551647394895554,-0.5261094570159912,0.8500010967254639,0.4508107570079451,11.494819339395585,0.6476259345118535,-0.06855875998735428,0.6461676359176636,-0.08675910532474518,-1.9878518852591518,0.034610436893999584,-10.26132903456688
45.0,12.899999618530273,92.0,21.954710006713867,23.64857482910156,-79.78151343145656,40.459494521347104,289.4039761047364,0.049900181591510766,-0.007054997142404319,-0.5257284641265869,0.8491582870483398,0.5072519377986809,11.26600094065201,-0.22665522566482674,-0.06075660511851313,0.4298129081726074,0.03929292783141136,-2.1126723977923394,-0.1857190442830325,-10.475066986083984
45.19,12.800000190734865,103.0,21.95721244812012,23.33050537109375,-79.7814897529697,40.45950245720871,289.46227040100104,0.07898303866386414,-0.027935810387134552,-0.5240733027458191,0.8475427031517029,0.5657646611957757,10.582342078780744,-1.0438561930887036,-0.0768168643116951,0.1404697746038437,0.06563477218151093,-1.947039197087288,-0.6373005323857069,-10.936787692308426
45.3,12.600000381469727,104.0,22.017311096191406,20.78593635559082,-79.78146738206883,40.45950989762861,289.52462353515625,0.07486014068126677,-0.03646081313490868,-0.5205110311508179,0.8497852683067322,0.6259586768959855,9.859819361079653,-1.1229116633402905,-0.07664337754249573,0.2657495141029358,-0.4021807610988617,-1.6654817301034928,-0.4174381341040135,-10.817621437311173
45.49,12.600000381469727,104.0,22.494342803955078,18.19365882873535,-79.78145685742739,40.45951344215636,289.5611359100342,0.0744621604681015,-0.03814781084656715,-0.5188362598419191,0.8507696986198425,0.6373207027504612,9.504751917277485,-1.0303269568158506,0.18907451629638672,-0.4677764773368835,0.083940289914608,-2.005170460939408,-0.3946980200707912,-10.732378388643266
45.6,12.5,107.0,22.640832901000977,16.921375274658207,-79.78144667459145,40.459516777576226,289.6159759979248,0.06999523937702179,-0.029438009485602382,-0.5178957581520081,0.8520670533180237,0.648820226089658,9.164407802230123,-1.0024759367752587,-0.0951121300458908,-0.28279948234558105,-0.2820185124874115,-2.055079223960638,0.08084862856194378,-10.03747773885727
45.79,12.399999618530273,105.0,22.448017120361328,17.73245620727539,-79.78142748068286,40.4595232821809,289.6868282775879,0.07036925107240677,-0.018730830401182168,-0.5175266265869141,0.8525629639625549,0.6641954272283567,8.503713989964774,-0.7793655191867674,0.0805535688996315,-0.0558503083884716,0.1892487108707428,-2.1918337574601177,-0.7133069537580013,-9.365744926929477
45.89,12.199999809265135,106.0,22.52439308166504,17.263301849365234,-79.78141836733839,40.45952623806675,289.71994747924805,0.08099348843097688,-0.02125471830368042,-0.5175557136535645,0.8515424728393555,0.6761115146108714,8.177459543152722,-0.8099603106191753,0.03920092806220055,0.6428050994873047,-0.3185746669769287,-1.9186245064437388,-0.06641764551401139,-9.68460412144661
46.09,12.0,106.0,22.46805000305176,18.225465774536133,-79.78140119089186,40.459532268322576,289.757810256958,0.1056634560227394,-0.025284711271524436,-0.5162841081619263,0.84949791431427,0.6275435508252729,7.513432079821651,-1.2002341336360876,-0.11033543199300766,0.1229853257536888,0.05915886163711547,-1.4180867667496204,-0.09482254207134247,-9.788103346824649
46.19,11.600000381469727,112.0,22.42047119140625,18.925222396850586,-79.78138525609882,40.4595378531206,289.7950245361328,0.12174402922391893,-0.03298624232411385,-0.5187083482742311,0.8455957174301147,0.6746924516185504,6.83519807218451,-1.4489355747355066,0.057289082556962974,0.07022298127412796,0.3460586369037628,-1.1549899828433992,-0.6484693720936775,-9.814240400791169
46.39,11.399999618530273,114.0,22.150028228759766,21.68448829650879,-79.78137776219288,40.45954016618956,289.798789642334,0.1306188851594925,-0.044206947088241584,-0.5199945569038391,0.8429650664329529,0.6574513317467178,6.4653192103831065,-1.5391114481706176,-0.16087356209754944,0.4886449873447418,-0.14878396689891815,-1.1823186993598938,-0.16263663059100508,-9.862460049390792
46.5,10.899999618530273,115.0,22.238924026489254,19.97485542297364,-79.78137097699367,40.45954254483875,289.8201405029297,0.13909350335597992,-0.05934906005859375,-0.5219488739967346,0.8394642472267151,0.6400071354627934,6.070031336146117,-1.6431853171461157,-0.08732356876134872,0.24624522030353546,-0.1828274875879288,-0.7235995882004499,-0.0479078458249569,-10.260614504814148
46.69,10.600000381469727,115.0,22.191347122192386,21.032442092895508,-79.78135784320685,40.45954637123441,289.81922497558594,0.1410999447107315,-0.07215431332588196,-0.5249956846237183,0.8362202048301697,0.6052623886093693,5.259976153301398,-1.7644440086833093,-0.013550711795687677,-0.3416695296764374,-0.1073247641324997,-0.7065662835538388,0.1505895208194852,-10.044810147285462
