time,wind_speed,wind_angle,battery_voltage,battery_current,position_x,position_y,position_z,orientation_x,orientation_y,orientation_z,orientation_w,velocity_x,velocity_y,velocity_z,angular_x,angular_y,angular_z,linear_acceleration_x,linear_acceleration_y,linear_acceleration_z
0.0,2.0999999046325684,91.0,24.150806427001953,-0.17493902146816254,-79.78282512495737,40.459079641891066,266.23437402486803,0.0011056388029828668,0.005743503104895353,-0.06944251805543901,0.9975688457489014,-0.0786931131080798,-0.024812325008198133,0.02206544950157559,-0.008174905553460121,-0.005280098877847196,-0.0015034415991976855,-0.0069627581897657356,-0.1815584579855204,-9.810312241315842
0.1,2.0,88.0,24.15957069396973,-0.16698725521564484,-79.78282507011949,40.45907973772035,266.24725494623186,0.0010911205317825081,0.005794751457870007,-0.06950640678405763,0.9975641369819641,-0.07118223719134145,-0.017832850195885267,0.019075426624282646,0.0027877334505319595,0.0014007793506607411,0.00476494524627924,-0.0094843984907493,-0.17127881532534958,-9.810003508329393
0.3,1.8999999761581416,84.0,24.15581512451172,-0.20674611628055573,-79.78282500193686,40.45907977593721,266.2594411158562,0.0010883602080866692,0.005875808652490377,-0.0695427656173706,0.9975610971450806,-0.06404773170466307,-0.017439876737147145,0.01811405934334788,-0.007255414966493845,0.0007028908003121612,-0.009043173864483832,-0.012992299619363622,-0.1633166800439358,-9.80900129556656
0.4,2.0,84.0,24.157066345214844,-0.16698725521564484,-79.78282517078068,40.45907975800753,266.2632781648636,0.0011225184425711632,0.005824668798595667,-0.0695829764008522,0.9975585341453552,-0.07711230034001029,-0.02143782390536447,0.018873826886967805,-0.011231190524995329,-0.002697054063901305,-0.013451125472784042,-0.007349757071351633,-0.19434597143903376,-9.810791712999343
0.6,1.8999999761581416,84.0,24.15456199645996,-0.1908425688743592,-79.78282507133241,40.459079822195385,266.2735867881775,0.00109015847556293,0.005898082163184881,-0.0696493461728096,0.9975535869598388,-0.06575215968498585,-0.01630374778804823,0.01546259395603549,0.007310038432478905,0.004727752413600683,0.005468524526804686,-0.006345970014226625,-0.18192177107557653,-9.809800609946253
0.7,1.8999999761581416,83.0,24.15957069396973,-0.14313192665576935,-79.78282502990955,40.45907984084757,266.2867235326767,0.0011013983748853207,0.005968143232166767,-0.06966658681631087,0.9975519180297852,-0.05971421254974126,-0.01703426424428435,0.01479287524508714,-0.0007895388407632709,0.0009521213942207396,-0.0032472212333232164,-0.005571370969992131,-0.18888421520590784,-9.81111330986023
0.9,1.8999999761581416,83.0,24.152057647705078,-0.15903547406196594,-79.78282510571816,40.459079832330644,266.28829995632174,0.001102237612940371,0.005939163267612457,-0.0696793720126152,0.9975511431694032,-0.06536356549138841,-0.018966830109580567,0.015232592333028002,0.003863278077915311,0.0012502669123932721,0.008267092518508434,-0.0066244859149446715,-0.1983396928198636,-9.81147349834442
1.0,1.7999999523162842,81.0,24.15957069396973,-0.15108370780944824,-79.78282506510904,40.45907986751315,266.3015442276001,0.0010578054934740069,0.006008074153214693,-0.06971077620983124,0.9975485801696776,-0.060676931429942425,-0.017377646129936516,0.014566038679010443,0.006963632069528103,0.00607598340138793,0.00784285832196474,-0.015294027510099112,-0.16445641200989486,-9.808434700369837
1.2,1.7000000476837158,83.0,24.157066345214844,-0.15903547406196594,-79.7828251432718,40.45907985938271,266.3031059885025,0.001060826936736703,0.0059800553135573855,-0.06972190737724304,0.9975480437278748,-0.06836260141980763,-0.018924724905805074,0.015155328123718776,-0.011103633791208269,-0.003623336553573608,-0.005047633312642574,-0.008959949499112555,-0.17705999398604036,-9.810659565925599
1.3,1.7000000476837158,84.0,24.157066345214844,-0.15108370780944824,-79.78282507033734,40.45907987448845,266.3148430967331,0.001066364930011332,0.006048982962965965,-0.06970139592885971,0.9975490570068359,-0.06052352183546406,-0.01967117902578312,0.013411861751117492,-0.0029671499505639076,0.0005864505073986948,0.003401022171601653,-0.010497265291633084,-0.1764278917014599,-9.809659107327462
1.5,1.7000000476837158,85.0,24.16082191467285,-0.14313192665576935,-79.78282514742068,40.4590798638497,266.3162807607651,0.0010731412330642345,0.006045217625796795,-0.0697401762008667,0.9975463151931764,-0.06647038623604047,-0.021687716493086963,0.01386079173461853,0.00020416385086718947,-0.0007139450754038992,-0.006928178947418928,-0.007369010627735407,-0.1645779610052705,-9.808704257011414
1.61,1.7999999523162842,83.0,24.15581512451172,-0.16698725521564484,-79.78282512020554,40.459079865210406,266.3279266738892,0.0010707546025514603,0.0060842777602374545,-0.06980970501899719,0.9975412487983704,-0.06497487782344798,-0.022601673794970318,0.013516154013807331,-0.00965285301208496,-0.005467768292874098,-0.00932652410119772,-0.003869223938381765,-0.19573881475254887,-9.809862590432168
1.81,1.7999999523162842,85.0,24.15331077575684,-0.15108370780944824,-79.7828250075671,40.45907990808696,266.3377873086929,0.001057437271811068,0.006141803693026304,-0.06981496512889862,0.9975405931472778,-0.0544342108546685,-0.017054866255972873,0.012592925734443629,0.011565323919057846,0.0054951277561485785,0.012340565212070942,-0.0036242470156867056,-0.19047831237316126,-9.81077767968178
1.9,1.7999999523162842,86.0,24.15456199645996,-0.16698725521564484,-79.78282515614292,40.45907988943209,266.34055618286135,0.0010741496225818992,0.006117523182183504,-0.0698246955871582,0.99753999710083,-0.06669961485601979,-0.020908486661095863,0.013532504235741144,0.004786360077559948,0.0008347441907972097,-0.0016184260603040455,-0.009064177831169218,-0.17856241777539253,-9.811551851034164
2.1,1.8999999761581416,83.0,24.15831756591797,-0.16698725521564484,-79.7828250718524,40.459079957578616,266.3443956756592,0.0010259381961077454,0.0061600087210536,-0.06987835466861725,0.99753600358963,-0.06260848006550629,-0.012303023990187248,0.006424119597738114,0.0002305472735315561,0.0006155350129120053,0.005105820950120688,-0.004682189339655452,-0.19436831876635552,-9.81132497906685
2.2,1.7999999523162842,84.0,24.15831756591797,-0.16698725521564484,-79.78282491587271,40.4590799712222,266.3480132007599,0.0010140580125153065,0.006254133768379688,-0.06987205892801285,0.9975358843803406,-0.0443980117494013,-0.01019952039292192,-0.0007747721354897983,0.007950223051011562,0.0010220574913546443,0.006335676647722721,-0.009364821788622071,-0.16315902449190614,-9.807397989034653
2.4,1.8999999761581416,86.0,24.15581512451172,-0.14313192665576935,-79.78282497370839,40.45907996719376,266.3480166578293,0.0010240246774628758,0.006251897197216749,-0.06989766657352448,0.9975340366363524,-0.051628372580786064,-0.011761612566284907,-0.00027602883839401946,-0.013471622951328754,-0.006894168443977833,-0.009735987521708013,-0.011043214792152868,-0.1735158321261406,-9.810750782489775
2.5,1.8999999761581416,86.0,24.157066345214844,-0.14313192665576935,-79.78282498877903,40.4590799534251,266.3523610019684,0.0010294212261214852,0.006255993153899908,-0.06990908831357956,0.9975332021713256,-0.055707824208466025,-0.015595775685710788,-0.0029424744158297912,-0.0003018878633156419,-0.0012755386997014284,0.002892949618399143,-0.006865085134631955,-0.1821616896428168,-9.811073548793793
2.7,1.8999999761581416,84.0,24.157066345214844,-0.15108370780944824,-79.78282505959406,40.459079945900676,266.35215989589693,0.001024520373903215,0.006252399645745754,-0.06994161754846573,0.9975310564041138,-0.061388049922626586,-0.017524313725131253,-0.0024353006071814245,-0.003222722094506025,-0.0029425343964248896,-0.0063370601274073115,-0.009294941280386413,-0.1652941901050508,-9.808622395992279
2.81,2.0,83.0,24.15957069396973,-0.15108370780944824,-79.78282504105195,40.45907994011807,266.3564771795273,0.0010315411491319537,0.006287845782935618,-0.06993119418621062,0.997531533241272,-0.060520801308604086,-0.017219411569108355,-0.004515056739387536,-0.0066773900762200356,-0.0030854621436446905,-0.009397555142641071,-0.007160677303327249,-0.1955019111558795,-9.81032627463341
3.0,2.0,82.0,24.15957069396973,-0.15903547406196594,-79.78282511704609,40.459079931645185,266.35612181663515,0.001036189147271216,0.006267487071454525,-0.0699487179517746,0.9975304007530212,-0.06459538026658257,-0.019528319739697268,-0.0041008165172161755,0.006067523267120123,0.0077872779220342645,0.004619816318154335,-0.01039468205999583,-0.1815324744209648,-9.809963747262957
3.1,2.0,81.0,24.157066345214844,-0.16698725521564484,-79.78282501087129,40.4590799419565,266.36128512859347,0.0009879976278170943,0.006347754504531622,-0.06997490674257277,0.9975281357765198,-0.055812969784530084,-0.014688364741070534,-0.003930460880711964,-0.005022576544433832,-0.0019522375660017133,-0.009820966981351377,-0.007664611361688003,-0.19228298239409924,-9.81082796573639
3.3,1.8999999761581416,82.0,24.15581512451172,-0.15108370780944824,-79.78282490467264,40.45907993932528,266.36370054721834,0.000973675400018692,0.006379958242177963,-0.0699458196759224,0.9975299835205078,-0.04795285083138162,-0.0130318110088909,-0.007571494004367785,0.0053459699265658855,0.0036948141641914853,0.007977394387125969,-0.006919977584620938,-0.19244889713823798,-9.8105367743969
3.4,1.8999999761581416,85.0,24.152057647705078,-0.15108370780944824,-79.78282503585321,40.45907992678207,266.36239997386934,0.0009665511315688492,0.006364643573760986,-0.06994816660881042,0.9975298643112184,-0.05882266496840244,-0.01629018327875106,-0.006818279740724224,0.006114992778748274,0.0024653144646435976,0.00418409937992692,-0.010427799912868069,-0.1740870685502887,-9.80932230770588
3.6,1.7999999523162842,85.0,24.152057647705078,-0.16698725521564484,-79.78282495493578,40.45907991618732,266.36266438007357,0.0009368715109303594,0.006391585804522038,-0.0699673518538475,0.9975283741950988,-0.05527424297034201,-0.014796970987405013,-0.0111927278805892,-0.0002928068279288709,-0.0011108764447271824,-2.600491643534042e-05,-0.0069713040324859326,-0.19030930956825606,-9.811155409812928
3.71,1.7000000476837158,86.0,24.15957069396973,-0.15108370780944824,-79.78282484304644,40.45907985991143,266.36588171958925,0.0008995692478492855,0.006453651003539561,-0.0699416920542717,0.9975298047065736,-0.04109926274883476,-0.018530690389523048,-0.00952008428707814,0.006732856389135122,0.0038246817421168093,0.007585173472762108,-0.00895840775279794,-0.1649392275698483,-9.80793710231781
3.9,1.600000023841858,82.0,24.15831756591797,-0.15108370780944824,-79.78282489805297,40.45907984808589,266.3650086307526,0.0009106100187636912,0.00644164439290762,-0.06996267288923264,0.9975284337997437,-0.04783388310918038,-0.01989597816578159,-0.009053255905136693,-0.01078740693628788,-0.0027209569234400988,-0.010518462397158146,-0.010097990683279932,-0.1671388587355614,-9.808588482141497
4.01,1.600000023841858,82.0,24.15831756591797,-0.15108370780944824,-79.78282484756495,40.45907983741171,266.3677713060379,0.000881548912730068,0.0064729610458016396,-0.07002300024032593,0.997524082660675,-0.04667340539061149,-0.015778640386879,-0.007995184374495928,-0.003393115010112524,-0.004398002289235592,-0.002508976962417364,-0.010284974818350749,-0.18304054442793133,-9.80946614921093
4.2,1.5,82.0,24.15831756591797,-0.15903547406196594,-79.78282490724321,40.459079828651646,266.367049612999,0.0008989783818833529,0.0064649684354662895,-0.07004665583372116,0.9975224137306212,-0.050911579614737835,-0.017501162110144054,-0.007655429934237153,0.0009254082106053828,0.0041709737852215776,-0.0012266769772395492,-0.007664051193860359,-0.1707947937771678,-9.809729858636855
4.3,1.5,81.0,24.15957069396973,-0.14313192665576935,-79.78282482523234,40.45907980270961,266.36881498336794,0.0008983287843875588,0.006518135312944651,-0.07004004716873169,0.9975225329399108,-0.047341534436516494,-0.015601671147879718,-0.007047937599938088,-0.003070939797908068,-0.0007537940982729198,-0.003937358036637306,-0.005088059767149389,-0.1932315286807716,-9.811598628759382
4.5,1.5,78.0,24.150806427001953,-0.12722837924957275,-79.78282488601809,40.459079794386476,266.36819426059725,0.0008955827797763051,0.0064956750720739365,-0.07005257159471512,0.9975218176841736,-0.05175942591078076,-0.01726744155337127,-0.006658690016111074,0.003976220265030861,2.313251570740249e-05,0.006091851275414229,-0.004580725301639177,-0.19540179586037995,-9.811355384588245
4.6,1.5,79.0,24.15456199645996,-0.18289080262184146,-79.78282484265712,40.459079763624814,266.3691976451874,0.0008899728418327867,0.00656352285295725,-0.07009176909923552,0.9975185990333556,-0.05050147745506147,-0.016929801456723848,-0.006449358143441249,0.008996223099529743,-0.001688228570856154,0.0066838553175330145,-0.01169057465507649,-0.16233277637511492,-9.808940484523774
4.8,1.399999976158142,74.0,24.157066345214844,-0.15903547406196594,-79.78282472591899,40.459079716653264,266.37215749263765,0.0008843883406370877,0.006638132967054844,-0.07009777426719667,0.9975177049636841,-0.04354864725607974,-0.01715639296168073,-0.004143295905617151,-0.009999203495681286,-0.00044718649587593967,-0.010424100793898106,-0.010339133511297406,-0.1615382494032383,-9.807470494508744
4.9,1.399999976158142,74.0,24.15581512451172,-0.15903547406196594,-79.78282484313496,40.45907969484328,266.371512093544,0.0009031434892676774,0.006618768908083439,-0.07014234364032745,0.9975146651268004,-0.05324448996725145,-0.02016002465691791,-0.0034315828233661702,-0.008948635309934616,-0.005455370061099529,-0.0055698356591165074,-0.004872649827157147,-0.19258833495900035,-9.81059173822403
5.1,1.2999999523162842,71.0,24.149553298950195,-0.17493902146816254,-79.78282468280395,40.45907962775257,266.3746700668335,0.0009136670269072057,0.006703991908580065,-0.0701172947883606,0.9975157976150512,-0.03879190891390345,-0.02218661761117857,-0.0017934046031078215,0.007690561469644308,0.005356329958885908,0.006525423377752304,-0.004108416742819828,-0.18555947011336685,-9.810535604953767
5.21,1.2999999523162842,71.0,24.15581512451172,-0.17493902146816254,-79.78282455109355,40.459079566102034,266.3764999294281,0.0009006832842715086,0.006764256861060858,-0.07012636959552765,0.99751478433609,-0.029656881622987533,-0.021004220597042773,-0.0002393571863600749,0.006543532013893128,0.002896323334425688,0.004320131614804268,-0.007880574046284892,-0.1813309282064438,-9.810014033317566
5.4,1.2999999523162842,69.0,24.15581512451172,-0.15903547406196594,-79.78282459258104,40.4590795506361,266.37653974533083,0.000889737973921001,0.006734128575772047,-0.0701320543885231,0.9975146651268004,-0.03494070751003788,-0.02239941965724216,0.00012444689424796253,-0.0016785614425316453,0.00019362180319149047,0.000732923683244735,-0.006777589889243246,-0.1893373926915229,-9.809535731077196
5.5,1.2999999523162842,68.0,24.15581512451172,-0.15903547406196594,-79.78282452602453,40.459079505896455,266.37769392967226,0.000891963893081993,0.006777361035346985,-0.07014618068933487,0.9975133538246156,-0.034885039219163444,-0.019320086833818632,0.0009405641823515994,0.004411108791828156,1.849807085818611e-05,0.006926346570253372,-0.008396742147160694,-0.1649264185130596,-9.80806632578373
5.71,1.2000000476837158,65.0,24.150806427001953,-0.15903547406196594,-79.78282457318866,40.45907949286853,266.37786523342135,0.0008901834371499717,0.006762598641216755,-0.07015703618526459,0.997512698173523,-0.04087070374000439,-0.02044326213343733,0.0014535553002552135,-0.00995364785194397,-0.0026217938866466284,-0.00971460808068514,-0.010745912427082659,-0.16615528397262094,-9.808076850771904
5.8,1.100000023841858,65.0,24.140789031982425,-0.05566241592168808,-79.78282449181867,40.45907943911868,266.3764269733429,0.0008757279720157385,0.006807456724345684,-0.07012394070625305,0.9975146651268004,-0.03854579463064554,-0.018928635025220842,-0.000525912645533892,-0.009641789831221105,-0.00514108221977949,-0.007016236893832684,-0.008840964941773562,-0.18727862460538747,-9.809968425035477
6.0,1.100000023841858,69.0,24.15331077575684,-0.1908425688743592,-79.78282454182742,40.459079426466495,266.3764455699921,0.0008773012668825687,0.006807033438235521,-0.07014342397451401,0.9975132942199708,-0.0420444579989766,-0.020664507754689417,-0.00021419122177179632,-3.4243705158587545e-05,0.0031362588051706557,0.0037746992893517017,-0.008025434816954658,-0.1721970839984715,-9.809671386480332
6.11,1.0,67.0,24.147050857543945,-0.17493902146816254,-79.78282446540463,40.45907930693941,266.37629202842714,0.0008968694601207973,0.006880954839289188,-0.07018706202507019,0.9975097775459292,-0.04027429561179947,-0.027588558413563568,0.0007895277052159112,-0.0034215254709124565,-6.28720736131072e-05,-0.010543289594352244,-0.0068630346120335155,-0.19673585638403893,-9.812145928144457
6.31,1.0,69.0,24.14204216003418,-0.15108370780944824,-79.7828242862476,40.459079283446115,266.3756138467789,0.0008527555619366468,0.006929505616426468,-0.07011906057596208,0.9975142478942872,-0.02704038593115496,-0.01829863704328053,0.0008481034115449933,0.009253717958927156,0.0026817538309842352,0.008597675710916521,-0.005187877562711947,-0.1962534062750637,-9.81068178534508
6.41,0.8999999761581421,71.0,24.14830207824707,0.015903547406196594,-79.78282436794505,40.45907925636507,266.37594405651095,0.0008420413942076268,0.006935806479305029,-0.07012178003787994,0.997514009475708,-0.03585379441894368,-0.021146444810834324,0.0014990839993182824,0.006125287152826786,0.003364912001416087,0.007360073272138834,-0.010170154689112679,-0.17597001817077398,-9.81002338886261
6.61,0.8999999761581421,73.0,24.143293380737305,-0.02385532110929489,-79.78282426559592,40.45907917887716,266.37453404903414,0.0008148972992785275,0.00697571551427245,-0.07010028511285782,0.9975152611732484,-0.033377073850735815,-0.02308327519311965,0.0014821900239690268,-0.0011392716551199555,-0.002086239168420434,0.0042320401407778254,-0.007792198863462546,-0.1884933471120894,-9.811216220855712
6.7,0.8999999761581421,75.0,24.150806427001953,-0.05566241592168808,-79.78282419227214,40.459079111720975,266.3709400081635,0.0007850769907236098,0.007030658889561892,-0.07008501142263412,0.9975160360336304,-0.03145992138615947,-0.019857890895273275,-0.0013811509006500266,0.003145333146676421,0.002450744155794382,0.008076020516455173,-0.008388397302478551,-0.16379165668040516,-9.808762144446373
6.9,0.8999999761581421,74.0,24.143293380737305,-0.11132483184337616,-79.78282423540685,40.45907909758572,266.3708771848679,0.0007894386071711779,0.007041583303362131,-0.07012990117073059,0.997512698173523,-0.036865215524370124,-0.020994434214512244,-0.0008895808079186934,-0.006215257570147514,-0.005154149606823921,-0.00900690071284771,-0.011829086286015807,-0.16826572682708502,-9.808159296512605
7.01,0.8999999761581421,75.0,24.13452911376953,-0.09542128443717957,-79.78282411759494,40.45907901378217,266.36607591152193,0.0007685476448386908,0.007094384171068668,-0.07017894089221954,0.997508943080902,-0.03094505056971804,-0.0205473945539839,-0.0033294807436794467,-0.00890013575553894,-0.005569616332650186,-0.00609081145375967,-0.00534864287415985,-0.1915828148648143,-9.810203483104708
7.2,0.8999999761581421,76.0,24.147050857543945,-0.09542128443717957,-79.7828241585343,40.45907899882082,266.36580304145815,0.0007886927342042327,0.007096240296959876,-0.0701923742890358,0.9975079894065856,-0.03327580113346716,-0.022169584118123184,-0.002971546590604529,0.007825479842722416,0.0070915170945227155,0.005384387448430061,-0.009689220059663058,-0.1802162844501436,-9.810532096624376
7.3,0.8999999761581421,77.0,24.150806427001953,-0.09542128443717957,-79.78282403326226,40.459078927784326,266.3603985691071,0.0007588962907902896,0.007140777073800564,-0.07019304484128952,0.997507631778717,-0.029280001239678145,-0.01830419285944404,-0.004697205314124568,-0.002584023168310523,0.0007569034351035953,-0.004654590040445328,-0.007574377518030814,-0.18639584122225644,-9.80998421251774
7.5,1.0,80.0,24.13578224182129,-0.17493902146816254,-79.78282407274136,40.459078914941614,266.35998801231386,0.0007339958101511003,0.007113972213119268,-0.07018959522247313,0.9975080490112304,-0.032444699089208016,-0.019474544687646613,-0.004463744139419269,0.007018837612122297,0.0025086784735322,0.007675393018871545,-0.006222887837793678,-0.19531626205891373,-9.810667752027511
7.61,1.0,83.0,24.130773544311523,-0.15108370780944824,-79.78282394646162,40.45907882866304,266.3557663345337,0.0007571268943138421,0.007152005098760128,-0.07021727412939073,0.9975058436393738,-0.02705340394554253,-0.019828879908676853,-0.0026705563765855467,0.00811647530645132,0.0036059177946299314,0.011322539299726486,-0.012355613209074363,-0.16254386086016895,-9.808550475239754
7.8,1.100000023841858,88.0,24.150806427001953,-0.06361418962478638,-79.78282384578355,40.459078762316295,266.3485745573044,0.000747022801078856,0.007177349645644426,-0.07020148634910582,0.9975067973136902,-0.028779113436934137,-0.016152523267719716,-0.005076289768609839,-0.010001417249441149,-0.0044644377194345,-0.005896435119211675,-0.008105300702154638,-0.17382136741653087,-9.809458547830582
7.9,1.100000023841858,86.0,24.150806427001953,-0.05566241592168808,-79.78282392549089,40.45907873893788,266.3477009916306,0.0007396131986752152,0.007164954673498869,-0.07025852054357529,0.997502863407135,-0.03570147979895225,-0.018564717793270347,-0.004501715160908929,-0.0026891990564763546,-0.004313158802688122,0.00122537009883672,-0.011671675129327923,-0.1770259887725115,-9.809610575437548
8.11,1.2000000476837158,84.0,24.149553298950195,-0.07156596332788467,-79.78282379874875,40.4590786329819,266.3418239736557,0.0007420998881570995,0.00721985287964344,-0.07032117247581482,0.9974980354309082,-0.030548055765545007,-0.021809083675588186,-0.0035448834539330686,0.00020045493147335947,-0.0009302736725658176,-0.004751929081976414,-0.008662136644707061,-0.16459586810320614,-9.809169110655787
8.2,1.2999999523162842,85.0,24.147050857543945,-0.09542128443717957,-79.78282361950036,40.45907855727553,266.33230666160586,0.0007151092868298293,0.007273198571056127,-0.0703079104423523,0.9974985718727112,-0.018198139851544243,-0.014552450006020231,-0.0063369780419503296,-0.007321946322917937,0.00013529301213566214,-0.005879383999854325,-0.009571399806300179,-0.1985681179538369,-9.809842709898948
8.3,1.399999976158142,85.0,24.149553298950195,-0.05566241592168808,-79.78282364466777,40.459078546021104,266.33171335697176,0.0007202513515949249,0.007259123027324675,-0.07036495953798294,0.9974946975708008,-0.020220431293982773,-0.015937250183127815,-0.006162186654662227,0.008491436019539833,0.00342547451145947,0.008094284683465958,-0.0050930664455518145,-0.19359241152182224,-9.810702835321427
8.5,1.399999976158142,87.0,24.150806427001953,-0.06361418962478638,-79.78282356767157,40.459078429626594,266.3225360298157,0.0007314361282624303,0.007290686946362256,-0.0704270452260971,0.9974900484085084,-0.02295912731682387,-0.0198943881372214,-0.007078408819065008,0.007444045506417751,0.0076209339313209066,0.005449097137898207,-0.012887217616662384,-0.17061692878603935,-9.808829972147942
8.7,1.399999976158142,93.0,24.150806427001953,-0.07156596332788467,-79.7828236010468,40.4590784148166,266.321888961792,0.0007250352064147593,0.00727432407438755,-0.07043526321649551,0.99748957157135,-0.02798172658175317,-0.02068279523825067,-0.006615665720119661,-0.004860260058194399,-0.004622010514140129,-0.0009400981944054363,-0.00937363829347305,-0.1836730669811368,-9.80947258114815
8.81,1.5,95.0,24.144546508789066,-0.05566241592168808,-79.78282349614395,40.45907833219236,266.3115805768967,0.0007227592868730426,0.007290469016879797,-0.07041753083467484,0.9974907040596008,-0.026096716405705583,-0.015910245668895068,-0.007541250876228345,-0.0010590318124741316,-0.00170478702057153,0.002956342650577426,-0.00912755045690574,-0.16963214803487064,-9.810004677772524
9.0,1.5,97.0,24.150806427001953,-0.09542128443717957,-79.78282353165406,40.45907832108124,266.31088487148287,0.0007177680963650348,0.0073034693486988544,-0.07045409083366394,0.9974880218505859,-0.03022962535036645,-0.016858352802354468,-0.007148361933500603,-0.005225172732025385,-0.005018599331378937,-0.005893118679523468,-0.013192067686468365,-0.16278927946463229,-9.808653386235235
9.1,1.5,97.0,24.15331077575684,-0.16698725521564484,-79.78282340181572,40.459078200822,266.30231753826143,0.0007114176987670362,0.007337141316384076,-0.07045770436525345,0.9974875450134276,-0.02682194397879125,-0.017992961159326182,-0.004935809864655419,-0.009176227264106274,-0.002683829283341765,-0.007056425791233778,-0.004858114014496096,-0.19440659975633026,-9.812316666841507
9.3,1.399999976158142,92.0,24.157066345214844,-0.15903547406196594,-79.78282323152429,40.45907811251498,266.2909152889252,0.0006877947598695755,0.007373315747827291,-0.07040223479270935,0.9974912405014038,-0.017144623080901773,-0.01360161510265942,-0.007631915327339634,0.010130248963832857,0.008360234089195728,0.005974584259092808,-0.005033736621262506,-0.1879195890761912,-9.809524621367457
9.41,1.5,96.0,24.149553298950195,-0.15108370780944824,-79.78282328674163,40.45907809207698,266.2895409846306,0.0007095726323314012,0.007358650211244821,-0.07038918137550354,0.9974923133850098,-0.02459665125322916,-0.015545906854593469,-0.006866861718281429,0.004523734096437693,0.002791917882859707,0.0012239066418260336,-0.006238623357494362,-0.17772069280967118,-9.81132848739624
9.6,1.5,96.0,24.15331077575684,-0.16698725521564484,-79.78282314186988,40.45907796680378,266.27851329088213,0.0006926125497557223,0.0073987049981951705,-0.0704105943441391,0.9974904656410216,-0.019773703036553885,-0.018840651526348243,-0.007900895087388988,0.0012935518752783535,7.536878456448903e-06,0.00495662074536085,-0.00805201281036716,-0.19641753030940887,-9.811546003818512
9.7,1.5,99.0,24.15331077575684,-0.15903547406196594,-79.78282304331897,40.45907787006573,266.2664786362648,0.0006766838487237692,0.007422801572829484,-0.07035847008228302,0.9974940419197084,-0.02100698060435662,-0.013013208844821735,-0.008815852686918016,0.005962069146335125,0.004759454168379307,0.005739630199968815,-0.01121460787486285,-0.16361074017360808,-9.808365118503572
9.91,1.7000000476837158,103.0,24.152057647705078,-0.15108370780944824,-79.78282307303229,40.45907786099971,266.2656547212601,0.0006753017078153789,0.007399393245577812,-0.07037537544965744,0.9974929690361024,-0.025944577690176805,-0.013634446904698422,-0.008454494597798805,-0.009346836246550085,-0.0052410918287932855,-0.005460015498101711,-0.01025957597536035,-0.17637791628018026,-9.809415278434754
10.01,1.7000000476837158,102.0,24.152057647705078,-0.15903547406196594,-79.78282294401616,40.459077714185455,266.252919831276,0.0006679332000203433,0.007430937606841327,-0.07043790817260742,0.9974883198738098,-0.020757748762806144,-0.018744822617046044,-0.009113991773171176,0.003506501670926809,0.0014258699957281351,0.003271459136158228,-0.01004818314104341,-0.175940709002316,-9.810922690629962
10.2,1.7000000476837158,99.0,24.140789031982425,-0.14313192665576935,-79.78282297348353,40.459077699864466,266.2520658159256,0.0006631956202909348,0.007424969226121902,-0.07046620547771454,0.9974863529205322,-0.0246240339978601,-0.019686884549878072,-0.00855328835470867,-0.006298259366303682,-0.002489432692527771,-0.010970311239361765,-0.011087709590792656,-0.1637270449474454,-9.808866809606553
10.3,1.7000000476837158,97.0,24.152057647705078,-0.15108370780944824,-79.78282285488667,40.45907758979792,266.2388735795021,0.0006368507165461779,0.007428300566971301,-0.07040930539369583,0.9974903464317322,-0.024830894945610426,-0.015394558525725834,-0.009348713658414195,-0.010129655711352823,-0.00497051514685154,-0.009139297530055046,-0.0047169166043749995,-0.19168581722304226,-9.81182082295418
10.5,1.7999999523162842,91.0,24.157066345214844,-0.15108370780944824,-79.78282288735399,40.459077578669635,266.2379858875275,0.0006424798630177975,0.007426457945257425,-0.07042830437421799,0.9974890351295472,-0.02664358050847284,-0.016670899452444,-0.0090928770073433,0.005237363744527102,0.003703483613207936,-0.0005588596686720848,-0.006937153209582903,-0.17604893730953336,-9.811109801530838
10.6,1.8999999761581416,92.0,24.15456199645996,-0.15903547406196594,-79.78282274764166,40.45907747754082,266.2255479478836,0.0006360888946801424,0.007448203396052122,-0.07040397077798842,0.9974905252456664,-0.024093678189461832,-0.011838589043415228,-0.009232764643649456,-0.007100889924913646,-0.0025872159749269485,-0.0104312589392066,-0.007149043970857746,-0.1951730235479772,-9.809862005710603
10.81,1.8999999761581416,89.0,24.147050857543945,-0.14313192665576935,-79.78282261153358,40.459077363935904,266.2157279038429,0.0006200110074132683,0.007466971408575773,-0.07039636373519897,0.9974910020828248,-0.02049842004456456,-0.01082523282035183,-0.007010077402102471,0.009403861127793787,0.005725222174078226,0.01046490203589201,-0.0038550981160369695,-0.19060601921752096,-9.811549512147904
10.91,1.8999999761581416,84.0,24.15581512451172,-0.15108370780944824,-79.78282267305508,40.4590773494716,266.2144812130928,0.0006100507453083992,0.007457926869392395,-0.0704556405544281,0.9974868893623352,-0.02770879587894809,-0.012476019493721477,-0.0062596163271618965,0.0013589777518063786,0.0017366112442687154,-0.0030123163014650345,-0.009193427563877777,-0.18019609328359365,-9.810668921470642
11.1,1.7999999523162842,86.0,24.152057647705078,-0.16698725521564484,-79.78282245347167,40.45907723771262,266.2050834679604,0.0005851027090102433,0.00750620337203145,-0.07046116888523102,0.997486174106598,-0.013288504073291504,-0.008381959451948211,-0.003721163591782819,0.0022693006321787834,0.0004544677212834358,0.006283347960561514,-0.0030399365827906877,-0.19464735886082046,-9.811508581638336
11.21,1.7999999523162842,85.0,24.14579772949219,-0.15108370780944824,-79.78282232686234,40.459077112226865,266.1944173359871,0.0005834304611198603,0.007508236914873123,-0.07046608626842499,0.9974857568740844,-0.015343089699259278,-0.008146322459267769,-0.00251411987721898,0.011420348659157751,0.006674728821963072,0.008545024320483208,-0.010096878341864795,-0.1678804866783321,-9.809893580675128
11.4,1.7000000476837158,80.0,24.150806427001953,-0.15903547406196594,-79.78282234897152,40.459077106869366,266.19421706438067,0.0005773748271167277,0.007503176108002663,-0.07050091028213501,0.9974833130836488,-0.019691443782786432,-0.0086719445226219,-0.0020542951618040877,-0.0041559655219316465,-0.004920054227113725,0.0015060255536809564,-0.009802175246877595,-0.18783546226099126,-9.810953096151351
11.51,1.600000023841858,80.0,24.15456199645996,-0.15108370780944824,-79.78282222852718,40.459076964350345,266.184155561924,0.0005732859135605395,0.0075238337740302095,-0.07054382562637329,0.9974801540374756,-0.01920313046796755,-0.01160766289653528,-0.0015165792599342721,0.007730786688625811,0.0044532353058457375,0.007869219407439232,-0.010645947880111636,-0.1657597381062806,-9.80761492073536
11.7,1.600000023841858,83.0,24.15331077575684,-0.15108370780944824,-79.78282225565097,40.45907695646896,266.18406472444536,0.0005710704135708513,0.007509199436753987,-0.07054463773965836,0.9974802136421204,-0.024077216706186923,-0.012108968731794272,-0.0009509499369325007,-0.006588909775018692,-0.003462280845269561,-0.006832221522927284,-0.01170909502543509,-0.16880182513967154,-9.809659692049028
11.8,1.600000023841858,85.0,24.15581512451172,-0.14313192665576935,-79.7828221427237,40.459076787243006,266.17173478841784,0.000576127553358674,0.007533541880548,-0.07061435282230377,0.9974750876426696,-0.02323659235585801,-0.01774270523116768,-0.0039562363100039185,-0.002869697520509363,-0.001891094609163701,0.00446694390848279,-0.013480529563967137,-0.1780974362231791,-9.809935095906258
12.0,1.600000023841858,88.0,24.15581512451172,-0.15108370780944824,-79.78282217444051,40.45907677409057,266.17138657808306,0.0005886264843866229,0.00753797171637416,-0.07063252478837967,0.9974738359451294,-0.026610993552037655,-0.0185550881016886,-0.0036284216145189173,-0.007603367324918509,0.0002655230346135795,-0.008289794437587261,-0.012187383561395107,-0.1627476728707552,-9.807389218211174
12.1,1.600000023841858,90.0,24.143293380737305,-0.17493902146816254,-79.78282194375616,40.45907664478624,266.16140315771105,0.0005652094841934743,0.007594786584377289,-0.07064492255449295,0.9974725246429444,-0.012376734105223629,-0.011857917207330485,-0.0019269121372078376,-0.005334696266800165,-0.005492784548550843,-0.00496182544156909,-0.006386020015343092,-0.1946877046488225,-9.81203950881958
12.3,1.399999976158142,95.0,24.15331077575684,-0.14313192665576935,-79.78282179640307,40.459076511016534,266.1513572716713,0.000547118776012212,0.007633944507688285,-0.0706242248415947,0.9974736571311952,-0.012645771309084914,-0.010384550850663662,-0.0018079139232850046,0.0017595776589587329,0.002424875041469932,0.001808194792829454,-0.010121216234983877,-0.1705004412867129,-9.808669758439065
12.41,1.399999976158142,97.0,24.15331077575684,-0.15108370780944824,-79.78282183670365,40.459076495274175,266.1511139059067,0.0005345914978533983,0.007620818912982941,-0.0706677958369255,0.9974707365036012,-0.01951505200280717,-0.011581267404489521,-0.0010253679804732823,-0.009071803651750088,-0.00472321966663003,-0.009599301964044573,-0.006730311952996999,-0.1935473514162004,-9.811006890535356
12.6,1.399999976158142,101.0,24.14830207824707,-0.16698725521564484,-79.78282168128892,40.459076371000435,266.1415777587891,0.0005232655094005167,0.007628781255334616,-0.07066700607538222,0.9974706768989564,-0.016219711211247708,-0.008701768556423373,-0.0010322008157728686,0.009193789213895798,0.006173430476337671,0.007644699886441232,-0.006247506671352311,-0.18500442316755653,-9.811549512147904
12.71,1.399999976158142,98.0,24.149553298950195,-0.15903547406196594,-79.78282153756544,40.45907622513626,266.13205555915835,0.0005223278421908617,0.007669633254408836,-0.07067397236824036,0.9974698424339294,-0.015207873965975909,-0.008366552060671963,-0.0008219029009461688,-0.00048132438678294415,-0.0013414123095571995,-0.002235729480162263,-0.00775404806539882,-0.1826429885812104,-9.810705174207687
12.9,1.399999976158142,98.0,24.15331077575684,-0.16698725521564484,-79.78282155838015,40.459076219410015,266.1320102000237,0.0005133111262694001,0.00766441412270069,-0.07071122527122498,0.9974672794342041,-0.017415085388898688,-0.008993195651422235,-0.0006588075333155638,0.0012626951793208714,0.00040798058034852147,0.006377883721143007,-0.0033065384961082607,-0.19434140330180527,-9.810978823900225
13.01,1.5,96.0,24.152057647705078,-0.13518016040325165,-79.78282142210553,40.45907608570955,266.122713842392,0.000496319611556828,0.007702477276325227,-0.0707077756524086,0.9974672198295592,-0.01851627448943574,-0.00582371211832777,-0.0006760459207104754,0.00517048593610525,0.006912422832101584,0.007190793752670287,-0.011679337037494408,-0.16596535909920931,-9.8086691737175
13.2,1.600000023841858,97.0,24.149553298950195,-0.16698725521564484,-79.78282144734602,40.459076083036436,266.12270913362505,0.0004867731186095625,0.007702914997935295,-0.07071693986654283,0.9974665641784668,-0.02257823273076644,-0.006120596291182866,-0.00010980607490121156,-0.008066833950579166,-0.0022784715984016657,-0.00032282661413773894,-0.007487625736976044,-0.18474482506513595,-9.810787035226822
13.32,1.5,100.0,24.15456199645996,-0.15903547406196594,-79.78282127544816,40.45907592375198,266.1134521150589,0.0004871716664638369,0.007742370944470167,-0.07080451399087906,0.9974601268768308,-0.017264824814110742,-0.007229911773624359,-0.00039629140196139316,0.0057095615193247795,-0.001805945299565792,0.008742718026041985,-0.007630778595339506,-0.165263565313071,-9.809577831029893
13.5,1.600000023841858,102.0,24.15581512451172,-0.22264966368675232,-79.78282129903656,40.45907591956894,266.1134696984291,0.0004915925674140453,0.007716403342783452,-0.07081546634435654,0.9974595308303832,-0.021197348938985942,-0.0075883283147931795,0.00014572281995853554,-0.008648470044136047,-0.0036609075032174587,-0.010639574378728868,-0.012707680687308312,-0.16689895844087005,-9.809826337695123
13.6,1.5,102.0,24.150806427001953,-0.198794350028038,-79.78282114877841,40.45907576556439,266.1034151697159,0.0004955216427333653,0.007735854480415583,-0.07078767567873001,0.9974613189697266,-0.02036026375187102,-0.008301891593186282,-0.002001517660175269,-0.004195198882371186,-0.00482751103118062,-0.0003257438074797392,-0.010922240240033715,-0.18424258578568692,-9.810467777252198
13.8,1.7000000476837158,99.0,24.14830207824707,-0.1908425688743592,-79.78282090908299,40.45907561964359,266.0972561621666,0.0005006107385270298,0.007817856967449188,-0.07082220166921616,0.9974582195281982,-0.005436435276316353,-0.005930185548220098,0.0025683014296259553,-0.0021770363673567768,0.0037139463238418094,0.0009552327101118864,-0.008898135179188103,-0.16754184152930976,-9.809115316271782
13.91,1.7000000476837158,97.0,24.15456199645996,-0.15903547406196594,-79.78282092953229,40.459075610049645,266.09786418914797,0.0004936651675961912,0.007817366160452366,-0.07086647301912308,0.99745512008667,-0.011246133801654928,-0.006811096969999815,0.003380898664301772,-0.009470497258007526,-0.004786583129316568,-0.006692713126540184,-0.005348463003756479,-0.19533585023134947,-9.811425551176072
14.1,1.7000000476837158,96.0,24.14830207824707,-0.21469789743423465,-79.78282076506363,40.45907543573647,266.09169636011126,0.0005009788437746465,0.007817087695002556,-0.07088471949100494,0.99745374917984,-0.010329431169207131,-0.010945695290380315,0.005201370760290287,0.011513266712427141,0.00254454487003386,0.009998006746172905,-0.007416097844252362,-0.1827634412236512,-9.811217390298843
14.21,1.7000000476837158,95.0,24.152057647705078,-0.15903547406196594,-79.78282060595326,40.45907526440987,266.0859464788437,0.0005143534508533777,0.007832443341612816,-0.07086382806301117,0.9974551796913148,-0.013254193573501412,-0.010477065787479796,0.00675094397888894,-0.004080628510564566,-8.420243102591486e-05,-0.0071715242229402065,-0.00807479525275994,-0.1885518740862608,-9.810230380296707
14.4,1.7000000476837158,98.0,24.14830207824707,-0.1908425688743592,-79.78282062408428,40.459075256303045,266.0866557145119,0.0005056121735833585,0.00783704686909914,-0.0709037333726883,0.9974523186683656,-0.014517385340014394,-0.011370070366809691,0.006996224530192301,0.007750891149044038,0.004202778916805983,0.008891040459275246,-0.0050889385625487215,-0.19353560216724874,-9.812026644945147
14.51,1.7000000476837158,99.0,24.143293380737305,-0.1908425688743592,-79.78282046550515,40.459075089821056,266.0798168563843,0.0005178314168006182,0.007876855321228504,-0.07089777290821075,0.997452437877655,-0.014195979016140385,-0.011017157546044395,0.0056343113868142156,0.006506065838038921,0.0050996169447898865,0.002801623661071062,-0.009297143122530542,-0.17424910951405764,-9.81147349834442
14.7,1.600000023841858,99.0,24.150806427001953,-0.17493902146816254,-79.78282048575278,40.459075081780256,266.08042875766756,0.0005154444370418787,0.007874301634728909,-0.07088825106620789,0.9974530935287476,-0.016825245228067838,-0.011583274515862196,0.006048906509725678,0.00047153746709227557,0.0017412001034244895,0.005964475218206644,-0.006837166963960044,-0.19432972714304925,-9.811912039518354
14.8,1.600000023841858,102.0,24.15456199645996,-0.15903547406196594,-79.78282028344167,40.4590749127521,266.075259783268,0.0005206953501328826,0.007925719022750854,-0.07087178528308867,0.9974538683891296,-0.009781340055555508,-0.010098533629490009,0.007432256941770623,0.007138325367122889,0.0028488070238381624,0.00939722266048193,-0.010012174799339843,-0.16166849613189702,-9.808092053532599
15.0,1.600000023841858,103.0,24.15456199645996,-0.14313192665576935,-79.78282029875055,40.45907490509617,266.07605282306673,0.0005199505249038339,0.007913720794022083,-0.07086966186761856,0.9974541068077089,-0.013843792441107313,-0.010343290570043776,0.008002042165830775,-0.010425100103020668,-0.003481445601209998,-0.009050293825566769,-0.01126455931342207,-0.17073168039321898,-9.80951643526554
15.1,1.600000023841858,101.0,24.149553298950195,-0.15108370780944824,-79.78282011385085,40.459074726204356,266.0711601161957,0.0005171179655008018,0.007922226563096045,-0.07082062214612961,0.9974575638771056,-0.011622733528106605,-0.010049723117426185,0.00881852540957378,0.0003662900417111814,-0.007127001881599426,0.0039716060273349285,-0.005315346863935702,-0.17394066888839008,-9.810817440748217
15.3,1.5,101.0,24.150806427001953,-0.15108370780944824,-79.78281993180984,40.459074574168675,266.06542847394945,0.0004968963330611587,0.007946953177452087,-0.07074319571256638,0.997462809085846,-0.01248407679470417,-0.003927240220586156,0.00919617186979258,-0.003820685902610421,-0.00018039885617326942,-0.009168236516416071,-0.008298648252384737,-0.1630490785650909,-9.809057428836823
15.4,1.399999976158142,100.0,24.152057647705078,-0.15108370780944824,-79.78281996625181,40.4590745694368,266.0673566246033,0.0004731105582322925,0.007944962941110134,-0.07073086500167848,0.9974637627601624,-0.017311968415652974,-0.004960240333273157,0.00979599631974054,-0.007594421505928038,-0.0037350370548665524,-0.0072592729702591905,-0.005990495847654529,-0.1931181292422116,-9.810763646364213
15.6,1.399999976158142,107.0,24.15331077575684,-0.16698725521564484,-79.78281977952079,40.45907437608818,266.06201849222185,0.00048512348439544434,0.007968426682054995,-0.07073987275362015,0.9974628686904908,-0.013158764611090269,-0.008203255610981206,0.009817931136724106,0.0031227937433868647,0.0019970312714576717,0.0042577581480145454,-0.008135593733168207,-0.17884783498942852,-9.810488827228548
15.71,1.399999976158142,110.0,24.152057647705078,-0.16698725521564484,-79.78281960403764,40.45907417186975,266.0578399085999,0.0004897401086054742,0.007988653145730495,-0.07077376544475555,0.9974603652954102,-0.012180416650391428,-0.011235652539575784,0.01010512135196734,-0.006520273629575968,-0.002818511100485921,-0.007963204756379128,-0.006736151174409315,-0.1960283981077373,-9.810834982395171
15.9,1.2999999523162842,114.0,24.152057647705078,-0.15903547406196594,-79.78281962044488,40.45907416300931,266.05888126134874,0.0004731187073048204,0.007960407994687555,-0.07078714668750763,0.9974596500396729,-0.0127837698305559,-0.011987867738711756,0.01030007452307822,0.009208876639604568,0.006849461700767279,0.009355361573398113,-0.003872000223782379,-0.19282352093607188,-9.812140080928804
16.01,1.2999999523162842,112.0,24.152057647705078,-0.14313192665576935,-79.78281940792948,40.459073947744976,266.0549160027504,0.00047434592852368956,0.007982572540640831,-0.07085169851779938,0.997454822063446,-0.006720196904825033,-0.013922257421467986,0.010454238898428465,0.008428164757788181,0.003097194479778409,0.006173871923238039,-0.009858516367385163,-0.17637057071551682,-9.811689845323565
16.2,1.2999999523162842,112.0,24.15456199645996,-0.16698725521564484,-79.78281941981467,40.45907393630295,266.0559984827042,0.0004687727487180382,0.007968877442181109,-0.07082747668027878,0.9974566698074341,-0.009440472526341587,-0.014230230144962743,0.010932463732257314,-0.00013687957834918052,-0.00229650316759944,0.003793527605012059,-0.007688619206892327,-0.19224334923550487,-9.811409178972244
16.31,1.2999999523162842,113.0,24.149553298950195,-0.15108370780944824,-79.7828191834312,40.4590737590794,266.0521544003487,0.00046284223208203917,0.007993839681148529,-0.07076700031757355,0.9974607825279236,-0.0033136849763463878,-0.00731801847575203,0.010838880728371513,0.005572112277150154,0.00326731288805604,0.009111798368394377,-0.01188206525752321,-0.16358493933454155,-9.808949840068818
16.5,1.2999999523162842,110.0,24.130773544311523,0.14313192665576935,-79.7828191905688,40.45907375301768,266.0532759809494,0.00046042201574891806,0.007980998605489729,-0.07083874940872192,0.9974557161331176,-0.00621942387376347,-0.008315359191998255,0.011518770367959754,-0.0046789287589490405,-0.002244343282654881,-0.002014302648603916,-0.01639008808415383,-0.16996914865449073,-9.81322415471077
16.6,1.2000000476837158,110.0,24.12952041625977,0.13518016040325165,-79.78281902892017,40.459073553889006,266.0482910656929,0.00046132461284287274,0.007985430769622326,-0.0708567425608635,0.9974544644355774,-0.010812521755460986,-0.008571445797321695,0.009002376457051228,-0.006643465254455805,0.0014555547386407852,0.00011945316509809344,-0.003808483416214585,-0.2041390161216259,-9.80814000070095
16.81,1.2000000476837158,108.0,24.130773544311523,0.15108370780944824,-79.78281881155384,40.45907335147801,266.0442437911034,0.000484166870592162,0.008035355247557163,-0.07087451964616777,0.9974527955055236,-0.004201784460544608,-0.008481526272032231,0.009404946128992786,-0.003349525388330221,0.003617528127506375,-0.004401007201522589,-0.015838188584893942,-0.1708127191476524,-9.808644030690196
16.91,1.2000000476837158,107.0,24.123260498046875,0.15903547406196594,-79.78281882860337,40.45907333778384,266.0462127709389,0.000489882891997695,0.008023005910217762,-0.07088233530521393,0.9974523186683656,-0.009002147522170245,-0.009076136600572169,0.010208154823708931,-0.009206997230648994,-0.003873430890962481,-0.012673929333686829,-0.0011744463827926667,-0.19244131403043868,-9.811415026187897
17.1,1.2000000476837158,106.0,24.12952041625977,0.18289080262184146,-79.78281862383483,40.459073114478436,266.04045943260195,0.0005182577879168093,0.008046306669712067,-0.07099573314189911,0.9974440932273864,-0.004795601251595599,-0.012380673365842832,0.006905042193919705,0.010755999945104122,0.0011586890323087573,0.0043424866162240505,-0.005256677135475911,-0.18235174242407085,-9.80912291765213
17.21,1.2000000476837158,103.0,24.11950492858887,0.21469789743423465,-79.78281842115126,40.45907287326806,266.0377548122406,0.0005432978505268693,0.008093088865280151,-0.07104356586933136,0.9974402785301208,-0.003944468297169482,-0.015343966348256875,0.008183587635837838,-0.0005795764736831187,0.0037844830658286814,-0.0037759139668196435,-0.006339917232398876,-0.184390392433852,-9.811813806295396
17.4,1.2999999523162842,100.0,24.12075614929199,0.278312087059021,-79.78281842937317,40.45907285989702,266.0385945224762,0.0005376125336624682,0.008074346929788591,-0.07107840478420258,0.9974378943443298,-0.005747826557428154,-0.016212993175306663,0.008520507421444437,0.0034450707025825977,0.0009259383659809828,0.0034817776177078485,-0.0032057045755209397,-0.1920405970327556,-9.815308102369311
17.5,1.2999999523162842,99.0,24.05815505981445,13.025005340576172,-79.78281826471056,40.459072671038214,266.03412256479265,0.0005485409055836499,0.00805751234292984,-0.07108477503061295,0.997437596321106,-0.008019457694973541,-0.011333965004355864,0.0060780310457219785,0.02157451957464218,0.014029722660779951,0.008060306310653688,-0.009075683255796321,-0.1701735088415444,-9.809443345069884
17.7,1.2999999523162842,100.0,24.09822082519531,0.44529932737350464,-79.78281827915576,40.45907266332579,266.0348006272316,0.0005101347342133521,0.008164653554558754,-0.07106420397758484,0.9974382519721984,-0.013402583386192726,-0.011481010358895493,0.0068337423617124676,-0.010469267144799229,0.015468236058950424,-0.008984541520476341,-0.03434806136414409,-0.16843049040064215,-9.814293025732043
17.8,1.2000000476837158,103.0,24.12576484680176,0.11132483184337616,-79.78281809242758,40.459072413645,266.0308264279366,0.0005589002976194023,0.00825562793761492,-0.07115482538938522,0.9974309802055359,-0.01092225290138707,-0.01582848146575454,0.005482851206294835,-0.005618201103061439,-0.005767038557678461,-0.016197172924876213,-0.04463086060713977,-0.14199420517310501,-9.818397771120072
18.0,1.2000000476837158,102.0,23.94546890258789,2.154930830001831,-79.78281810799997,40.45907239991721,266.0313529157639,0.0005403482937254012,0.00824818015098572,-0.07121066004037857,0.9974270462989808,-0.0110608113627266,-0.018014276175081646,0.006160300081238767,0.008061585016548634,-0.0011493632337078452,-0.002511349041014909,-0.02715694998856634,-0.17991506148129702,-9.818184932470324
18.11,1.2000000476837158,102.0,24.09321212768555,0.3419262766838074,-79.78281790383998,40.459072220240905,266.0297821545601,0.0005177368293516338,0.008411008864641191,-0.07112772017717361,0.9974316358566284,-0.011758722552425143,-0.007996136205312455,0.008318627230915079,0.006710586603730917,0.0024114216212183237,0.00738581595942378,0.002960302530555055,-0.1894709832966328,-9.810601093769074
18.3,1.2000000476837158,104.0,24.12200927734375,0.07951773703098297,-79.78281769256208,40.45907197766008,266.02724412918093,0.0005441709654405713,0.008416102267801763,-0.07117875665426254,0.9974279403686525,-0.004948201559478789,-0.013890950473048216,0.009437633040081729,0.005169729236513375,0.0228938851505518,-0.006343227345496415,-0.03531279484508558,-0.18798944503068926,-9.805242705345156
18.41,1.2000000476837158,105.0,24.06817054748535,1.2166213989257812,-79.78281771347167,40.45907195668008,266.0290776872635,0.0006157575407996774,0.008321255445480347,-0.07120192050933838,0.9974270462989808,-0.009465626241261935,-0.012161249837427082,0.00942376911588941,-0.008114252239465714,-0.01864252611994744,-0.0008316368330270053,-0.005412293585250154,-0.19997605439275504,-9.800808176994323
18.6,1.2999999523162842,105.0,23.85782623291016,4.508656024932861,-79.78281754068908,40.45907174330321,266.025360622406,0.000612487958278507,0.008349040523171425,-0.0712926909327507,0.9974203109741212,-0.008441674511816984,-0.01397516562926198,0.007102819386898958,0.0143719594925642,-0.005038376897573471,0.020133117213845253,-0.02850064471364021,-0.19201585600152613,-9.809328154921532
18.7,1.2999999523162842,106.0,23.798980712890625,5.359495639801025,-79.7828175711283,40.4590717218132,266.0269914650917,0.0006351309712044895,0.008381800726056099,-0.07130127400159836,0.9974194169044496,-0.01061745851667203,-0.015121640337650403,0.009074863592312665,0.014951546676456928,0.034194201231002815,-0.004096545744687319,-0.010252064815722406,-0.19003693895414472,-9.815746643543244
18.9,1.399999976158142,105.0,23.65249061584473,7.84044885635376,-79.78281737662941,40.45907147636093,266.0236592078209,0.0006855647661723198,0.0084770442917943,-0.0715167298913002,0.9974032044410706,-0.00823308048124786,-0.01985721054362787,0.005808270284829231,-0.019518835470080376,-0.026370145380496986,-0.008490521460771559,0.00406130754214246,-0.19595867006108167,-9.833940839767457
19.0,1.5,105.0,23.57486343383789,9.216106414794922,-79.78281719684941,40.459071210286375,266.0213882112503,0.0006159833865240216,0.008872652426362038,-0.07175883650779724,0.997382402420044,-0.001489238823507058,-0.027536990935101736,0.003544200086228796,0.04506499692797662,0.07262226194143295,-0.061792004853487015,-0.03153300618287176,-0.21168810043483974,-9.816617878675464
19.2,1.600000023841858,103.0,23.38329887390137,12.30139446258545,-79.78281720784496,40.4590711877719,266.0220210337639,0.0009741433314047754,0.009121796116232872,-0.07175105065107346,0.9973804354667664,-0.0035642148069859564,-0.021840612024991168,0.007041594327126228,0.01931267790496349,-0.0484834797680378,0.027749046683311462,0.02657524339389056,-0.20658994965255265,-9.835692665576936
19.31,1.600000023841858,101.0,23.28188323974609,13.812231063842773,-79.78281692737075,40.459071039234146,266.01421485185625,0.002043753396719694,0.009370455518364906,-0.07176481932401657,0.9973755478858948,-0.0027353074603629172,-0.012242369299392151,0.005494913641526665,-0.03563898801803589,0.049794502556324005,0.06110065057873727,-0.0639390382077545,-0.10378069572150707,-9.795838628411293
19.5,1.7000000476837158,99.0,23.04399299621582,17.374626159667972,-79.78281692488908,40.459071022896794,266.0148894572258,0.003355704713612795,0.009233786724507807,-0.07179535180330276,0.9973710179328918,0.0035571694815890315,-0.02071242855336924,0.009604894121799502,0.028220059350132942,0.011421550065279007,-0.022254319861531258,-0.03742268723901362,-0.2888554499298334,-9.876337831020356
19.6,1.7999999523162842,100.0,22.94758605957031,19.02064323425293,-79.78281673938292,40.45907079801202,266.0155544662476,0.006888385396450758,0.009365379810333252,-0.0722249373793602,0.9973206520080566,0.005232884603760961,-0.019942305744680408,0.017217845263775088,-0.011917230673134329,0.033000487834215164,0.08129986375570297,0.08880942994728687,-0.28566473398357634,-9.869472030401232
19.8,1.8999999761581416,98.0,22.70594024658203,22.78183174133301,-79.78281655382443,40.459070538105784,266.01546535730364,0.007516965735703706,0.00821314100176096,-0.07203947007656097,0.99733966588974,0.00929098427932853,-0.02339236126398218,0.02465035635279426,-0.0326332189142704,0.01398323941975832,-0.10289409011602403,0.0332801953330636,-0.2392014793306589,-9.848880475759506
19.9,1.8999999761581416,98.0,22.565710067749023,24.817485809326172,-79.78281657722762,40.459070489060906,266.02982095718386,0.008982069790363312,-0.001628537313081324,-0.07168550044298172,0.9973855018615724,-0.019491351952811795,-0.04665148464143309,0.15636632779580142,-0.10471072793006896,0.12428029626607895,-0.009672622196376324,0.09057016362436117,-0.10531416457146407,-10.164474585056306
20.11,2.0,100.0,22.87747001647949,19.27510070800781,-79.78281641081524,40.45907027305986,266.0356989884377,0.013533968478441237,-0.010991048999130726,-0.07041311264038086,0.9973655939102172,-0.03396549938806463,-0.054718963192100026,0.2533603348383169,-0.037110645323991776,0.21488502621650696,0.060556862503290176,0.15324052962474527,-0.09801751552149654,-10.98412558078766
20.2,2.0,104.0,22.883729934692386,19.00473976135254,-79.78281646699077,40.45906983999443,266.0805266284943,0.005365855526179075,-0.0034561771899461746,-0.07142758369445801,0.9974254369735718,-0.07355402881421362,-0.05935471193993245,0.30438942374106503,0.13464848697185516,-0.1396602988243103,0.041627690196037286,0.1660912752337754,0.005679601561278105,-10.61292094230652
20.4,2.0,105.0,22.82363319396973,20.491722106933594,-79.78281659269955,40.45906979566311,266.11050716876986,0.00010540022776694968,0.0007513509481213987,-0.07236071676015854,0.9973783493041992,-0.11151582027729684,-0.056382247766820076,0.2991788172849863,-0.01625288836658001,-0.12625621259212494,-0.02999858558177948,0.17393681338056924,-0.05100307856686413,-9.83371162891388
20.5,2.0,104.0,22.700931549072266,21.350513458251953,-79.78281673464902,40.45906975554556,266.1389760756493,-0.0033360684756189585,0.0016334168612957,-0.07306639850139618,0.9973202347755432,-0.11489823650937972,-0.06415005239628956,0.2680834768392276,0.009746644645929337,0.054644089192152016,-0.0059787342324852935,-0.031561949900351466,-0.13823024282231927,-9.588325622677804
20.6,2.0,99.0,22.69967842102051,21.97075080871582,-79.78281689529416,40.45906939493543,266.1640589618683,0.000265447364654392,0.0026138967368751764,-0.0738477110862732,0.9972661137580872,-0.10234613463773083,-0.04036656296638744,0.16316596565989092,0.13622823357582092,-0.00046428755740635097,0.009081169962882996,0.10838050841353834,-0.10786145838908852,-9.570475242733957
20.81,2.0,101.0,22.66337013244629,22.026412963867188,-79.7828173778648,40.459069307586006,266.174222984314,0.0014043410774320366,0.01100596971809864,-0.07385224848985672,0.9972074627876282,-0.14748612392663665,-0.0015490701318110235,0.16609097958843852,0.10056017339229584,0.032293692231178284,-0.05495559424161911,0.09653051376342774,-0.2725160270556808,-9.844484539031985
20.9,1.8999999761581416,101.0,22.68089866638184,22.074125289916992,-79.78281755604573,40.45906932978126,266.19143990516665,0.00331147201359272,0.0108742481097579,-0.0736779198050499,0.997217297554016,-0.14933720146499213,-0.0005459906431806247,0.16655013828206536,-0.02843477204442024,0.06724993139505386,0.03066760301589965,0.06328480786643922,-0.27854476220905783,-9.866845461130145
21.1,1.8999999761581416,101.0,22.633319854736328,21.469789505004886,-79.78281729016572,40.45906905034249,266.21590683698656,0.004969756118953228,0.007549369242042303,-0.07405374199151993,0.9972133636474608,-0.11262558887858022,-0.012157085321980616,0.1767803742499801,-0.056209195405244834,-0.005325264763087034,0.03224293887615204,0.07552023452706635,-0.2845698428526521,-9.831246442794802
21.3,1.8999999761581416,104.0,22.645841598510746,20.8177433013916,-79.78281745273175,40.459068897636655,266.25910905838015,0.004564736504107714,0.010536549612879751,-0.07411815971136093,0.997183322906494,-0.11274136599435595,0.014773339090552015,0.21785048729441966,0.019237767904996872,0.008215744979679585,-0.05617178976535797,0.14496202343143524,-0.14194768326357007,-9.942142395973207
21.4,1.8999999761581416,104.0,22.54317283630371,23.65652656555176,-79.78281757492094,40.45906892667529,266.28099677801134,0.0035486915148794647,0.011623725295066832,-0.07348322123289107,0.9972224235534668,-0.11686120512433107,0.01880377470934125,0.21124267790047727,-0.03432134538888931,0.07951199263334274,-0.03588177263736725,0.13778397236019374,-0.030827069096267225,-9.808182685375217
21.51,1.8999999761581416,105.0,22.58323860168457,22.614845275878906,-79.78281762272242,40.45906867656985,266.33088973999025,0.004559262655675411,0.011329555884003641,-0.07351557910442352,0.9972193241119384,-0.07991919357955085,0.01099770501387456,0.23980434145065785,0.06014430522918701,0.022144565358757973,0.02460288815200329,0.07391327348537742,-0.1114674088731408,-9.978350694179538
21.7,1.8999999761581416,106.0,22.644588470458984,21.883281707763672,-79.78281749710042,40.459068445737095,266.3914392375946,0.008237960748374462,0.015933392569422722,-0.07672399282455444,0.9968910813331604,-0.029960001995587168,0.02074118316227941,0.3033803768187717,0.07223300635814668,-0.028407374396920208,0.003216221695765853,0.09461038864217698,-0.14840796120464805,-10.129822815656665
21.8,1.8999999761581416,105.0,22.62956428527832,22.0105094909668,-79.78281752958459,40.459068463303645,266.42174784183504,0.008887900039553642,0.014698131941258909,-0.07762568444013596,0.9968346953392028,-0.03506872192164385,0.01631538799618118,0.2959692057860633,-0.026872269809246063,-0.02016131766140461,-0.03483318537473678,0.09265678821131587,-0.2480385956168175,-9.7863930362463
22.0,1.8999999761581416,105.0,23.37578582763672,10.520196914672852,-79.78281754875636,40.459068472978636,266.4512759828568,0.010489013977348804,0.013263178989291193,-0.07759488373994827,0.9968416094779968,-0.018028844094757444,0.008675740006156823,0.29413645852691217,-0.039446547627449036,-0.01841164194047451,0.03264816477894783,0.07769911721348763,-0.28001235852018,-9.833597023487092
22.21,1.7999999523162842,102.0,22.302780151367188,25.827362060546875,-79.7828174168007,40.45906840533881,266.5042667770386,0.009237917140126228,0.010547245852649212,-0.07625780254602432,0.9969896078109741,-0.012879979124101092,0.018214230557039936,0.14094248983356505,-0.08849634230136871,-0.03337398916482925,-0.013571110554039478,0.09810816563665868,-0.2330269657820463,-8.901711646914482
22.31,1.8999999761581416,103.0,22.306535720825195,25.95458984375,-79.78281733568933,40.45906833058305,266.5603161239624,0.0029618931002914906,-0.006830960512161255,-0.07767634093761444,0.99695086479187,-0.01600388485265096,0.008297048153037275,0.2232678437301636,-0.11089009791612624,-0.02897195518016815,0.07665874809026718,0.0009626435581594707,-0.3052833667583764,-9.48620867908001
22.41,1.8999999761581416,107.0,22.206371307373047,27.76759529113769,-79.78281736787694,40.459068337160616,266.5877383136749,0.00324074923992157,-0.007592454086989164,-0.07841689884662628,0.9968864917755128,-0.024717178455271858,0.004494955790204715,0.3277354804800589,0.09995859116315843,-0.013209550641477108,-0.08309180289506912,0.0707851867005229,-0.0018106177356094122,-10.70609164595604
22.61,1.8999999761581416,112.0,21.94719696044922,31.70372200012207,-79.78281715426847,40.45906808412281,266.6287452363968,0.0040849680081009865,-0.0028019677847623825,-0.07881945371627808,0.99687659740448,-0.019177514883886058,-0.008353400880021344,0.4803628656994003,0.2081313580274582,0.07930468022823334,-0.01219578180462122,0.16843715988099575,-0.052698140703141695,-11.17331107378006
22.81,1.8999999761581416,113.0,21.883342742919922,32.45119094848633,-79.78281736018212,40.45906785170281,266.75614730358126,0.004709786269813776,0.00778276054188609,-0.07955601811408998,0.9967889785766602,-0.06794061869854212,0.0017887221462097305,0.8438029710558659,-0.015198218636214731,-0.02251722663640976,0.05172397941350937,0.10985915961675348,-0.06680656758137048,-11.727924156188966
22.9,1.8999999761581416,115.0,21.954710006713867,31.00396728515625,-79.78281742241688,40.45906785357909,266.85062388420107,0.0033370607998222113,0.008361983112990856,-0.08017735928297043,0.9967399835586548,-0.0669988374557378,0.004904226612931027,1.0489445053105189,-0.010207611136138441,0.054645612835884094,0.06488317251205444,0.08893377464264632,-0.2726234696432948,-11.828276410102847
23.0,2.0,112.0,22.054872512817386,29.64421272277832,-79.78281743084116,40.459067657762425,267.10106114387514,0.0025549267884343863,0.006297981832176447,-0.07911447435617447,0.9968424439430236,-0.06906151128843563,0.0070561004160108,1.4452059304143845,0.052920565009117126,0.0584225207567215,-0.056439217180013664,0.07982696467079223,-0.0948605489730835,-11.792262239456177
23.2,2.0,114.0,21.636688232421875,36.4429817199707,-79.7828175076919,40.45906746328552,267.42334393501284,0.01022882666438818,0.008506841957569122,-0.07651719450950623,0.9969795346260072,-0.07132696559304949,0.02511586300408673,1.8443244893933544,0.06107276678085328,0.10399880260229112,0.0182266253978014,0.09544256620109083,-0.3505327942594886,-11.74370228290558
23.3,2.0999999046325684,117.0,21.803211212158203,33.453113555908196,-79.78281755746312,40.45906747070097,267.6209259414673,0.01280423067510128,0.009719924069941044,-0.07532892376184464,0.997029185295105,-0.07023225757751739,0.03576218655283277,2.102293760025668,0.0985027626156807,0.03971781954169274,0.00921134278178215,0.20158394733443852,-0.21466007569804788,-12.316031259298324
23.51,2.200000047683716,117.0,21.6091423034668,36.27599334716797,-79.78281759253686,40.45906746827345,267.8433766746521,0.013922718353569508,0.011863064020872116,-0.07455950975418091,0.9970488548278807,-0.07606477693688365,0.044191265028077485,2.3483062436216207,0.01169618871062994,-0.05115551501512528,-0.04576767608523369,0.2614195831865073,-0.033396838149055835,-12.331653850078585
23.7,2.299999952316284,118.0,21.955961227416992,29.62035751342773,-79.78281756265626,40.45906717261944,268.35371116638186,0.013395871967077257,0.0070279124192893505,-0.07469575107097626,0.9970916509628296,-0.08510238727338801,0.02214663311892696,2.8102358862602266,-0.12073713541030885,0.0203489288687706,-0.002446155995130539,0.14487207680940628,-0.13916719517670573,-12.062216491699221
23.8,2.4000000953674316,119.0,22.14752578735352,26.996273040771484,-79.78281744792932,40.45906690304352,268.6405017757416,0.013977264985442163,0.004135007504373789,-0.07479987293481828,0.997092068195343,-0.04705474126151553,0.006269725352970133,2.9633690083078124,0.002237609820440412,-0.018722847104072567,-0.0919117033481598,0.2313316021487117,-0.06625993971247228,-11.593998359441755
23.9,2.5,119.0,22.17381858825684,26.471454620361328,-79.78281745590034,40.459066745119216,269.2524803066254,0.015215790830552578,0.015655621886253357,-0.0742572695016861,0.9970001578330994,-0.04899209760472563,-0.018760289346050698,3.1261479235100267,0.13004758954048154,0.053367774933576584,-0.051696326583623886,0.19173632254824044,-0.11488463133573533,-10.531974427700042
24.11,2.5999999046325684,119.0,22.16880989074707,26.240854263305664,-79.7828172365671,40.459066240059705,269.9020390892029,0.019194439053535458,0.01697179302573204,-0.07596214860677719,0.9967815279960632,-0.05332310431527732,-0.0567406996394177,3.1894289770103814,0.1294952929019928,-0.0003131561097688973,0.11357132345438005,0.015001748953945937,-0.0954071905463934,-10.289385144710543
24.3,2.799999952316284,114.0,22.141263961791992,26.479406356811523,-79.78281687077394,40.45906578284559,270.2633786582947,0.021203506737947464,0.015151647850871088,-0.07722333818674088,0.9966732263565063,-0.04408761022948703,-0.07609162968757571,3.2168949798330337,0.016167016699910164,0.12881781160831451,-0.05173066630959512,0.11879616279155016,-0.07743803903460503,-9.90399749994278
24.4,2.9000000953674316,115.0,22.12248420715332,26.12952995300293,-79.78281681349901,40.45906559360514,270.58429292678835,0.02235540933907032,0.013556902296841145,-0.07709256559610367,0.9966810941696168,-0.03013687720893592,-0.07962169117587238,3.2151176435979902,-0.1506854146718979,-0.02862277813255787,-0.06677495688199997,0.05883119383826853,-0.18058570057153706,-9.788206842541696
24.5,3.2000000476837163,113.0,22.24768829345703,24.89700508117676,-79.78281631521929,40.459064825169385,271.26493648529055,0.020336035639047626,0.005406554788351059,-0.07770421355962752,0.9967544078826904,0.03542617008017722,-0.1317329213099283,3.175197806907096,-0.03304601088166237,0.024123109877109528,-0.023429499939084053,0.21932609897106886,-0.1016944274492562,-9.531094830036164
24.71,3.299999952316284,113.0,22.218891143798828,24.793630599975586,-79.78281617060087,40.459064155717506,271.8689303779602,0.013047942891716957,0.0018311850726604464,-0.07792587578296661,0.9968721270561218,0.06039988639616571,-0.20027964192078115,3.042137488155124,-0.00393550144508481,-0.05807323381304741,-0.06302705407142639,0.08472070958465339,0.07162002291530371,-9.360902262926102
24.8,3.5,117.0,22.19510269165039,25.25483322143555,-79.78281612708706,40.459063871793774,272.1698170089722,0.01190954726189375,0.0061513036489486686,-0.07865557074546814,0.9968117475509644,0.05690424641989321,-0.2352424136041535,2.9954404988680863,0.009486127644777298,0.04719632491469383,-0.03786320239305496,0.1063361116871238,-0.0011009804578498007,-9.355497681498527
25.0,3.5999999046325684,116.0,22.11997985839844,26.28061294555664,-79.78281609261839,40.459063580229646,272.4665332221985,0.0123857194557786,0.0090896962210536,-0.07941063493490219,0.9967235922813416,0.019298883662101963,-0.2506048669248121,2.957519057906954,-0.10538751631975174,0.00015893479576334355,0.014898990280926228,0.05570608547888697,-0.21146649096161127,-9.37102613210678
25.2,3.5999999046325684,114.0,22.191347122192386,25.350255966186523,-79.78281601261276,40.459063462458865,272.96072343826296,0.012214059941470623,0.008851685561239721,-0.07925035804510118,0.9967406988143921,0.012548509981243431,-0.20617939275352853,2.83116969828081,0.0942377895116806,0.02655373327434063,0.11779164522886275,0.2953900788724423,-0.22175057385116811,-9.47142516374588
25.3,3.700000047683716,115.0,22.047361373901367,27.03603172302246,-79.78281571474925,40.45906299304885,273.33888153076174,0.0090358667075634,0.009380272589623928,-0.08010250329971312,0.9967015981674194,-0.006907253353475536,-0.1918680564845881,2.8110904143291515,-0.09201434254646301,-0.08726073801517488,-0.13692669570446014,0.10559295798651874,0.16529135785996915,-9.367373961210252
25.4,3.700000047683716,118.0,22.033588409423828,26.59868431091309,-79.78281565897323,40.45906252460392,273.8954906845093,0.002955726580694318,0.008580043911933899,-0.08184982091188431,0.9966034293174744,0.02979412482615989,-0.22099992178235933,2.7814714646786927,0.08005131036043167,-0.02635820396244526,0.08881211280822754,0.1617291427217424,-0.4821268310397864,-9.774923138022425
25.61,3.799999952316284,117.0,22.06614112854004,26.66229820251465,-79.78281550681878,40.45906157386491,274.6389055633545,0.003966060001403093,0.003458491060882807,-0.08430556952953339,0.9964261054992676,-0.0046622712280902975,-0.2261744999900217,2.8622924688730498,-0.1302289515733719,0.050159845501184464,0.027505869045853608,0.16331207536160947,-0.21411548065021635,-9.850735212564473
25.7,3.799999952316284,119.0,22.081167221069336,27.083742141723643,-79.78281516760867,40.45906099843718,275.02012065887453,0.004041327629238367,0.002090162830427289,-0.08468122035264969,0.9963977932929992,0.02211529362997834,-0.21041541933054547,2.890979035123977,0.049705300480127335,-0.07044816017150879,0.07371816039085388,0.20045284001156688,-0.5024236860126258,-9.813545751571656
25.9,3.700000047683716,122.0,22.10871124267578,25.350255966186523,-79.78281517673005,40.45906079543453,275.3093204879761,0.002684386679902673,0.005864470265805721,-0.08365748077630998,0.9964737296104432,0.006511469396907276,-0.1975977726666752,2.8958005141941463,0.10772636532783507,0.0523662343621254,0.021991867572069168,0.2551967204734683,-0.09389325505122544,-9.853934808969498
26.1,3.700000047683716,124.0,22.0423526763916,27.56879997253418,-79.78281481208762,40.459060143734106,275.96478847503664,-0.0009930008091032503,0.011018386110663414,-0.08083812147378923,0.9966658353805542,-0.04798302134929837,-0.18992471267432925,2.9083056487149173,0.04985251277685165,-0.0214445348829031,0.07526693493127823,0.19997590821236366,-0.5714264586567879,-9.763460841178894
26.21,3.700000047683716,123.0,22.09493827819824,27.25072860717773,-79.78281476747543,40.45905948169985,276.608754196167,0.0002396930067334324,0.008651279844343662,-0.07945846766233444,0.9968006610870358,-0.07255743549297401,-0.17542840270641144,2.9375818527952164,-0.004437071736901999,0.09727034717798233,-0.05110576003789902,0.22001515679061406,-0.31572300385683777,-9.838693456649779
26.31,3.5999999046325684,122.0,22.124988555908203,25.81941032409668,-79.78281481174187,40.45905934569235,276.9022274398804,0.0021214112639427185,0.009711457416415216,-0.07803782820701599,0.9969009160995485,-0.08606113272982846,-0.14020002635697582,2.9266000523978515,-0.11381334811449052,-0.07034862786531447,-0.09963322430849077,0.147258873693645,0.03550389601383359,-9.669456324577332
26.51,3.5,123.0,22.087427139282227,26.65434646606445,-79.78281485881394,40.45905923081851,277.1942882919312,0.002291781594976783,0.010016372427344322,-0.07674028724431993,0.9969982504844666,-0.07581802065634362,-0.11088919958518006,2.914701322457348,0.012339475564658642,-0.028592739254236218,-0.02194890007376671,0.17382059996947646,-0.2519998284056783,-9.664554018974307
26.7,3.4000000953674316,126.0,21.97974967956543,27.560848236083984,-79.78281485574408,40.45905866914494,277.8401461029053,0.005307911429554224,0.009942458942532541,-0.07562507688999176,0.9970726370811462,-0.0770952532860179,-0.10393983031553453,2.928942424162416,0.13632284104824066,0.06377190351486206,0.053363475948572166,0.19273171965032812,-0.25050422027707103,-9.74152735054493
26.8,3.4000000953674316,129.0,22.087427139282227,26.1772403717041,-79.78281480258431,40.459058494502976,278.1669416809082,0.007501420099288225,0.010814862325787544,-0.07732616364955902,0.9969189763069152,-0.07540740580402809,-0.06164345132693282,2.9397501825557764,0.11972278356552125,0.05258724093437195,0.1552221179008484,0.32704694095999004,-0.2281936025060713,-9.768032779097558
26.9,3.4000000953674316,129.0,22.04861259460449,26.43964767456055,-79.78281487167699,40.459058370744536,278.7560110473633,0.00563916377723217,0.011429186910390854,-0.08141712099313736,0.9965986609458924,-0.08902670338734657,-0.02239829015605961,2.9464655110969917,-0.03824129328131677,-0.038876812905073166,0.09179998189210893,0.2189109466597438,-0.31110662709921605,-9.826326595544817
27.11,3.299999952316284,129.0,21.91965103149414,27.680124282836914,-79.78281488549712,40.45905811995338,279.3875885391236,0.005901650059968233,0.012140831910073755,-0.08484932035207747,0.9963023662567142,-0.10752249375954204,-0.028115734383592186,3.0086792532893685,0.012578542344272137,0.06278717517852782,0.039635784924030304,0.16779022028669716,-0.3408798452094197,-9.979653453826904
27.2,3.299999952316284,129.0,21.970985412597656,28.1572322845459,-79.78281473015475,40.45905798672312,279.7115297698975,0.005070127081125975,0.011805364862084387,-0.08760754019021988,0.9960722923278807,-0.09425853717373436,0.002419447843680407,3.017955140290025,-0.0521312914788723,-0.10903489589691162,-0.052577994763851166,0.1141998949740082,-0.14123977730982007,-9.956037719249727
27.41,3.299999952316284,126.0,22.04610824584961,25.93073463439941,-79.78281474566847,40.459057960664076,280.01408199310305,0.005101041402667761,0.012231538072228432,-0.08942142128944397,0.9959057569503784,-0.07894465035245625,-0.006914919336192347,3.0316895849262617,0.05303211510181427,0.05151624605059624,-0.006621271837502718,0.1547118078544736,0.027641030922532082,-9.930088945627212
27.6,3.2000000476837163,124.0,21.968481063842773,27.83916091918945,-79.78281485389275,40.45905766083053,280.64981369018557,0.005058795213699341,0.008937422186136246,-0.08799885958433151,0.9960677027702332,-0.09637591913725084,-0.018778086508897555,3.0205729006547792,-0.0850657969713211,0.15763774514198306,-0.05399017035961151,0.07701080856844783,-0.13372821567580104,-9.689959586262702
27.7,3.2000000476837163,123.0,22.103702545166016,24.300621032714844,-79.78281478149938,40.459057481255655,281.27609256744387,0.008715392090380192,-0.002399177988991141,-0.0809403732419014,0.9966779947280884,-0.022708250013116268,0.013999728226126808,3.019271407449117,0.05214003473520279,0.05301748216152191,0.039141714572906494,0.011024178222287444,-0.15728916915133595,-9.736466000676156
27.8,3.299999952316284,125.0,22.021068572998047,27.00422477722168,-79.78281482002525,40.4590574696722,281.5771837615967,0.008440948091447353,-0.00137633946724236,-0.07810799777507782,0.9969083070755004,-0.027262807181478024,0.03433164068652319,3.001520026369209,0.0997951477766037,-0.05800161510705947,0.06044738367199898,0.21781888777390124,-0.17156525580212476,-9.71244505405426
28.0,3.2000000476837163,125.0,22.073654174804688,26.54302215576172,-79.78281487245103,40.45905746353371,281.8772268676758,0.007226048968732356,0.003710897639393807,-0.0762576088309288,0.9970551133155824,-0.041400340030919136,0.03214974121320228,3.0008799114308977,0.20540782809257507,0.006198751274496317,0.1096765324473381,0.19810580419376486,-0.2519422698765993,-9.800700588226318
28.21,3.0999999046325684,121.0,22.0135555267334,25.41386985778809,-79.78281472663305,40.45905753486918,282.5136022949219,0.0070276022888720036,0.012334585189819336,-0.07493820041418076,0.9970871806144714,-0.0997634907410508,0.05844728353888892,3.0347276477206626,-0.020371653139591217,0.014231150038540363,0.023390144109725952,0.15079278465360405,-0.05514052268117667,-9.961515390872956
28.3,3.0,117.0,22.02607536315918,25.42182159423828,-79.78281460436867,40.45905750328465,282.83646492004397,0.006741943303495646,0.014099720865488052,-0.07578844577074051,0.9970015287399292,-0.10176734866422656,0.08075940668722735,3.0511793942851284,-0.142354354262352,-0.10115477442741394,-0.0363861694931984,0.09114838929846884,-0.0807683937996626,-10.046529228687287
28.4,2.9000000953674316,109.0,21.924659729003906,26.42374420166016,-79.78281456804795,40.45905757562173,283.4508982086182,0.006633782293647528,0.012063867412507534,-0.07917339354753494,0.9967658519744872,-0.06224509935578008,0.08760772017466482,3.0835798745798133,-0.025547582656145096,-0.04628612846136093,0.04008971527218819,0.2380100543238223,-0.04204067654907703,-9.965928869247435
28.61,2.9000000953674316,108.0,22.018564224243164,25.946638107299805,-79.78281437490143,40.45905754814454,283.77052787780764,0.0036974016111344095,0.008218780159950256,-0.08167917281389236,0.9966179728507996,-0.05910772218057767,0.09612961206042647,3.0606046842861248,-0.1787436604499817,0.022139672189950943,-0.02713197469711304,0.08515795340761542,0.11211053864099084,-9.767415897846224
28.7,2.9000000953674316,106.0,21.992271423339844,26.10567283630371,-79.78281417815202,40.459057582315225,284.3946009063721,0.0052398513071239,-4.118965807720088e-05,-0.08376315236091614,0.9964719414711,0.010284926704228826,0.08199563017880178,3.0225105134520605,-0.05552926287055016,0.020272765308618542,0.030409246683120724,0.07950705802068114,-0.12621593227609992,-9.732206304073337
28.9,2.799999952316284,106.0,21.90087127685547,28.38783264160156,-79.78281413323347,40.45905763557019,284.6967096710205,0.00907050259411335,-0.0009628268890082836,-0.08402567356824875,0.9964218735694884,0.033695425788607014,0.0917017051216666,3.0147641531651312,0.13494396209716794,0.07756439596414566,0.127511128783226,0.20471237216144805,-0.23409905277192594,-9.738063459992409
29.11,2.799999952316284,109.0,22.103702545166016,24.42784881591797,-79.78281393313716,40.45905767964211,285.3168421173096,0.011355828493833542,0.0017334733856841922,-0.08334631472826004,0.9964544177055359,0.004900252018115661,0.13118623538201546,3.031390550308574,-0.0767076388001442,-0.08068323135375978,-0.10967493802309036,0.07198809143621475,0.1327032809983939,-9.91848690032959
29.2,2.799999952316284,107.0,21.98350715637207,26.24880599975586,-79.78281388932821,40.45905772544136,285.62110809326174,0.012039019726216791,0.005130396690219641,-0.08309943974018097,0.9964553713798524,0.029160401372743606,0.11981754252788382,3.0441726236868423,0.17689186334609985,0.012636078521609306,0.0851048082113266,0.18991754611954093,-0.25391252573579554,-9.925390123128892
29.3,2.700000047683716,105.0,22.001035690307614,26.19314384460449,-79.7828136588587,40.45905792524486,286.23007110595705,0.009607789106667042,0.005637252237647772,-0.08399660140275955,0.9964038133621216,-0.011628716563969264,0.13518564141680012,3.0010898815497717,-0.1266935020685196,-0.005837670061737299,-0.06968165189027786,0.09432636927813293,0.15390087213367226,-9.686645384430886
29.51,2.5999999046325684,104.0,21.99978256225586,25.723989486694336,-79.78281344514113,40.45905802003928,286.8442869567872,0.008438996970653534,-0.00404581893235445,-0.0846022367477417,0.9963708519935608,0.03282267521454625,0.12603201566288438,2.9992143297666876,0.0434798076748848,-0.00016673242498654872,0.023826250806450844,0.11372606037184595,-0.2348679068125785,-9.751088717579842
29.61,2.5999999046325684,104.0,22.03734397888184,24.920860290527344,-79.78281340588092,40.459058079888976,287.14438346862795,0.010344676673412323,-0.004757228773087263,-0.08549627661705017,0.9962735176086426,0.04728630644710815,0.11840320241730347,2.9993878342578433,0.1445864588022232,0.055202078074216836,0.15424886345863342,0.19169625084847214,-0.2219583692774177,-9.821197417974473
29.81,2.5999999046325684,106.0,22.01981544494629,24.88109970092773,-79.78281332816123,40.459058039774106,287.4607172393799,0.012544125318527222,0.00028361415024846787,-0.087435282766819,0.9960912466049194,0.02200054291484681,0.127001069289819,2.9996177881080617,0.10410111397504808,0.05001040920615196,0.0046223034150898465,0.2802217071130872,0.15920341964811088,-9.758064445853234
30.0,2.799999952316284,110.0,22.0035400390625,26.360130310058594,-79.78281331359621,40.45905814795874,288.0595636749268,0.011275368742644787,0.006769641302525997,-0.09020614624023438,0.9958363175392152,-0.029861651783822905,0.11895312060998996,2.981758276616496,0.11578722298145296,0.0158502496778965,0.13537627458572388,0.1648001552000642,-0.5777844285964966,-9.719837104082108
30.1,2.9000000953674316,113.0,22.007295608520508,25.98639678955078,-79.78281315696593,40.45905820207039,288.67055229187014,0.012525774538516998,0.00418104836717248,-0.08673875033855437,0.996143639087677,-0.07616865043252358,0.11343272920019615,2.973409519245983,-0.09508538246154784,-0.01836042292416096,-0.2090768665075302,0.21571692338213325,-0.22078872514888645,-9.727992800474167
30.2,3.0,115.0,21.93592834472656,26.11362648010254,-79.78281311455066,40.45905814141124,288.9839525604248,0.012404689565300941,0.0059509966522455215,-0.0838390588760376,0.99638432264328,-0.07352217483557077,0.10649386902393077,2.986978198945174,-0.03323483094573021,-0.04464034363627434,-0.03968512639403343,0.12396355739794672,-0.284751216173172,-9.841919950246812
30.4,3.0,115.0,22.038597106933594,24.88109970092773,-79.78281319971535,40.459058199677465,289.5827227020264,0.012270506471395493,0.012522382661700249,-0.08054886758327484,0.9965964555740356,-0.09846513716874444,0.08766514410450571,2.987215270548994,0.04833107441663742,-0.04776562377810478,-0.0695299357175827,0.13659548009745778,-0.3723525565490127,-9.820816179513931
30.6,3.0,117.0,22.002286911010746,25.27868843078613,-79.7828130926467,40.45905822219813,289.8869791412354,0.0130375474691391,0.013799678534269331,-0.07931698113679886,0.9966686964035034,-0.10879317646745326,0.08407917386921525,2.9741448482202446,-0.004557895939797163,-0.018855566158890724,-0.008778352290391922,0.19225093234330412,-0.3764768535643816,-9.761469279527665
30.7,3.0,118.0,21.99978256225586,25.159412384033203,-79.78281312245403,40.45905824311171,290.1846533203125,0.01251317746937275,0.013822965323925018,-0.0782136544585228,0.9967622756958008,-0.10679100216648403,0.09187663469473878,2.972221972030212,0.05548552796244621,-0.020853504538536072,0.0011564207961782813,0.2552464035339654,-0.29582054357975723,-9.762632290720939
30.9,3.0,120.0,22.01105117797852,24.91290855407715,-79.78281319270583,40.45905823953039,290.79779724121096,0.013116905465722084,0.014122746884822844,-0.07819626480340958,0.9967516660690308,-0.09604203443029384,0.07603976346190257,2.9997071967089064,0.0878712385892868,0.08221601694822311,0.02158048935234547,0.2517243697308004,-0.3373232397437096,-9.953945585489272
31.0,3.0,122.0,21.96722984313965,25.859169006347656,-79.78281321175935,40.459058256161626,291.09889701843264,0.015792742371559143,0.013084889389574528,-0.07880589365959167,0.9966790080070496,-0.10125534953902326,0.08752477434255289,3.0095284072079385,0.058561980724334724,-0.01485509518533945,0.04653405025601387,0.2980128839984537,-0.3352964120730758,-9.893526306152344
31.1,3.0,125.0,22.021068572998047,24.61869239807129,-79.78281308838099,40.459058223789114,291.7014856719971,0.016801109537482258,0.010011289268732073,-0.07969651371240616,0.9966272711753844,-0.07660984023473699,0.1008551871512636,2.999162345165447,0.017828738316893578,0.009492570534348488,0.010884333401918413,0.2819450277462602,-0.18129745289683344,-9.787046754956243
31.3,3.0,128.0,22.038597106933594,24.03026008605957,-79.78281308959106,40.45905815576873,292.30690483093264,0.01251459214836359,0.007898339070379734,-0.0798683911561966,0.996695637702942,-0.06913813232006863,0.09035032495463297,2.9862385362182184,-0.015772197395563126,-0.02560617960989476,0.0481480211019516,0.31320058811455964,-0.2073805297538638,-9.806354845762254
31.4,3.0,136.0,22.064889907836914,24.730016708374023,-79.7828130905048,40.459058163189006,292.60508827209475,0.00869974121451378,0.007666406687349081,-0.08101845532655716,0.996645212173462,-0.05472295198817087,0.08061223158591402,2.971080627505022,0.0011897541116923096,-0.08801158517599106,0.08549078553915024,0.27475900070741777,-0.141042506871745,-9.66831027030945
31.61,2.9000000953674316,137.0,22.04610824584961,25.11965370178223,-79.78281308772182,40.45905811500759,292.91025260925295,0.006805432494729757,0.007091943174600601,-0.08350224792957306,0.9964591860771179,-0.058077328856048875,0.0650985659872825,2.96525303303823,0.012220258824527264,-0.06421234458684921,0.11132894456386566,0.2776042741164565,-0.1959704193100333,-9.718541945815087
31.8,2.9000000953674316,141.0,21.922155380249023,25.58085632324219,-79.78281304803943,40.459058062000615,293.5130796813965,0.014713220298290253,0.005844250321388246,-0.08908818662166595,0.9958980083465576,-0.03921293860587263,0.07137551825088212,2.9639075073503576,0.10334846377372743,0.10634143650531767,0.09289953857660294,0.2771856865659356,-0.2818515819311142,-9.757859793305398
31.9,2.799999952316284,141.0,21.99978256225586,25.032184600830078,-79.7828130594459,40.45905808519976,293.80956176757815,0.01881073229014873,0.0045654093846678725,-0.09213726967573166,0.9955581426620485,-0.05104971484418447,0.10474015292847016,2.961436253659892,0.07984377443790436,0.13022492825984955,0.18148452043533325,0.3637033186107874,-0.3711815419793129,-9.788486339449882
32.0,2.700000047683716,150.0,22.00979995727539,25.04808807373047,-79.78281309556705,40.45905799351754,294.41491989135744,0.01658553257584572,0.004203949589282274,-0.09458866715431212,0.9953694343566896,-0.08567084532982594,0.112091512803604,2.9629743047447583,-0.0873221829533577,-0.10723794996738434,-0.07638740539550781,0.16954348962754012,-0.12485416143201293,-9.695020351409912
32.2,2.700000047683716,150.0,21.99602699279785,24.45965576171875,-79.7828130630075,40.45905796011443,295.01846031188967,0.0154415313154459,0.010173000395298004,-0.0910644829273224,0.9956733584403992,-0.0683653819891778,0.08391279977603554,2.9915238142336835,0.09745310992002487,-0.03923419862985611,-0.004598422907292843,0.2370146572217345,-0.2820452344045043,-9.88680785536766
32.4,2.5999999046325684,151.0,21.987262725830078,24.491464614868164,-79.78281309743859,40.45905796186108,295.3182726287842,0.01566917635500431,0.010781990364193916,-0.08877968043088913,0.9958696961402892,-0.08844266436680329,0.08090232993694361,2.9948136613808227,0.10482165962457657,0.01885691098868847,0.0028103413060307503,0.32489640813320875,-0.2806336069107056,-9.849837080240249
32.5,2.5999999046325684,152.0,22.032337188720703,23.688335418701172,-79.78281313126269,40.459057963899724,295.6183615112305,0.015693804249167442,0.00988904479891062,-0.08726047724485397,0.996012806892395,-0.09082334341328616,0.08268294688425393,3.0042410319123083,0.07058098912239075,0.016787735745310783,0.07409176230430603,0.3496657618135214,-0.4201376108452678,-9.90872088074684
32.61,2.5999999046325684,151.0,21.937179565429688,25.42182159423828,-79.78281314496883,40.45905795971615,296.2235765838623,0.014724582433700563,0.009042688645422459,-0.08640829473733902,0.9961099624633788,-0.09367186701583148,0.0880682444095054,3.004912508210145,0.04023047909140587,-0.01851130649447441,0.1159350574016571,0.29100578175857666,-0.29952519323676824,-9.85571587085724
32.81,2.5999999046325684,150.0,21.952205657958984,25.46953201293945,-79.78281312695428,40.459057969548674,296.8259783172608,0.012728141620755196,0.009287668392062187,-0.08736731112003326,0.9960516095161438,-0.07921413004439165,0.08960268975885463,3.0095739790344314,0.08724413812160492,-0.012833933345973492,0.08972716331481934,0.2246130051836372,-0.21920202836394312,-9.844180483818057
32.91,2.700000047683716,148.0,22.111215591430664,22.88520622253418,-79.78281315802741,40.45905798685839,297.1278410339356,0.012858767062425612,0.009865516796708107,-0.08835802972316742,0.9959569573402404,-0.09070770284790876,0.08327354360823791,3.0179274266084817,0.05399357154965402,-0.02774359844624996,0.13684029877185822,0.27922461066395043,-0.3089946493506432,-9.87746283531189
33.1,2.5999999046325684,147.0,22.04610824584961,24.03821182250977,-79.78281317287053,40.459057929841755,297.4269018554688,0.013771050609648228,0.01340656541287899,-0.08928590267896652,0.9958205819129944,-0.081692285422825,0.07655776570278798,2.968832003242869,0.13412977755069733,-0.02364194951951504,-0.004637351725250482,0.20478889759629965,-0.1788518549501896,-9.480598860383036
33.3,2.5999999046325684,144.0,22.044857025146484,23.89508056640625,-79.78281316977906,40.45905790290027,298.0215673828125,0.018127469345927242,0.012010657228529452,-0.08846309781074524,0.9958420991897584,-0.09588916468661328,0.08617165286162629,2.9028713512688404,0.005605406127870083,0.07421816885471344,0.09393491595983504,0.2720636901073158,-0.29420497616752983,-9.51379642724991
33.4,2.5,145.0,21.998531341552734,24.714113235473643,-79.78281317342568,40.45905790746495,298.31132415771486,0.01848382130265236,0.007755347061902285,-0.0877658948302269,0.9959394931793212,-0.0728453781224122,0.09834887710535438,2.8855610967204184,-0.00037211805465631187,0.05310706049203874,0.08111406117677689,0.3243299591168761,-0.2946676005609334,-9.575792700648307
33.5,2.4000000953674316,147.0,21.970985412597656,24.61074066162109,-79.78281312960969,40.45905791854922,298.90495208740236,0.015355070121586325,0.002521065296605229,-0.08558714389801025,0.99620920419693,-0.03429590829339309,0.0857527297669243,2.897860221210463,-0.0460662953555584,0.03446246311068535,0.042248625308275216,0.3054005120694637,-0.04891451708972455,-9.76774568080902
33.71,2.4000000953674316,148.0,21.981002807617188,24.14953804016113,-79.78281302959009,40.459057809205156,299.48977951049807,0.013051305897533894,0.0027523634489625692,-0.08375972509384155,0.9963967204093932,-0.03193292521202731,0.06437202278234906,2.9237745175493304,-0.04005050286650658,0.00492277555167675,-0.15295343101024628,0.27281567858532074,0.06765754759311676,-9.795642746686935
33.81,2.4000000953674316,149.0,22.05111694335937,23.78375625610352,-79.7828130340192,40.45905779613592,299.78289703369137,0.01240913663059473,0.002988799940794707,-0.08330104500055313,0.99644273519516,-0.03178246858970497,0.06292043308078943,2.9371597953218265,-0.023517996072769158,-0.006991286762058735,-0.0684724822640419,0.2476196608878672,0.014360683984123173,-9.892432876825334
34.0,2.299999952316284,153.0,21.9497013092041,25.41386985778809,-79.78281303732324,40.459057785416654,300.0766706848145,0.01263174694031477,0.0044462778605520725,-0.08324883878231049,0.9964388608932496,-0.023912833227229875,0.06077723222950138,2.940450192843023,0.03170666098594665,0.028293965384364125,-0.007611698936671019,0.27391000326722864,-0.08776860728859902,-9.872210866212844
34.2,2.299999952316284,156.0,21.950952529907227,24.49941635131836,-79.78281299306683,40.459057776438655,300.66415313720705,0.014383009634912012,0.0071061840280890465,-0.08420205116271973,0.996319591999054,-0.04337802997436545,0.0790502098915434,2.96669022816052,-0.03734336793422699,0.10465481132268906,-0.07057024538516997,0.29396498451009395,0.061314223101362586,-9.935552583932877
34.31,2.299999952316284,158.0,21.952205657958984,24.403993606567386,-79.78281298662073,40.459057734132706,301.2517042541504,0.01380180474370718,0.0062625007703900355,-0.08520916104316711,0.9962478280067444,-0.05733511257991815,0.09742569782756888,2.974058623184554,-0.17007999122142792,-0.025269713252782815,-0.048742618411779404,0.3608701233565808,0.031710505723021934,-9.956106716394423
34.4,2.200000047683716,161.0,21.942188262939453,25.000377655029297,-79.78281297019733,40.45905774212628,301.5501890563965,0.012769599445164205,0.00434263376519084,-0.08528260141611099,0.9962655305862428,-0.0404670430159708,0.0931076881946976,2.991786916936383,-0.10703854262828827,-0.02412872202694416,-0.1138872280716896,0.2405152390524745,0.15656954135745765,-9.968796343803406
34.61,2.200000047683716,164.0,21.968481063842773,24.78567886352539,-79.78281288562205,40.45905777258788,302.13360504150387,0.01336032710969448,0.0036375655326992273,-0.0848403200507164,0.9962984323501588,-0.01911978192349292,0.10383411432942836,2.9496259279463555,-0.012719575315713879,-0.002791468054056168,-0.025618594139814373,0.25554254673421384,0.13371589084155858,-9.780747549533844
34.71,2.200000047683716,167.0,22.04986572265625,23.322553634643555,-79.78281280597761,40.45905776022503,302.4245481872559,0.014370006509125231,0.004052103031426668,-0.0848151296377182,0.9962849020957948,-0.012708778253477729,0.10682031271688834,2.9265737380366565,0.021322043612599373,0.01592128723859787,0.025083361193537712,0.25100273195654155,-0.1538529980555177,-9.618864460587504
34.9,2.200000047683716,168.0,21.97974967956543,23.60086441040039,-79.78281278448105,40.45905778434204,302.7160635375977,0.016645843163132668,0.004090098664164543,-0.08495520800352098,0.996237337589264,-0.01767144051654533,0.10880578191768672,2.902769090236472,0.012048031203448772,0.02775147184729576,0.004448136314749718,0.27172086054459216,-0.1717821692302823,-9.605072633028033
35.1,2.0999999046325684,166.0,22.0035400390625,24.03821182250977,-79.78281267602982,40.459057768748906,303.29550842285164,0.02148501574993133,0.004091791808605194,-0.08568396419286728,0.9960823059082032,-0.002683813468545625,0.12564357917347518,2.8805099674216166,0.05535455048084259,-0.00847980659455061,-0.014198302291333675,0.30332341661676765,-0.15587980745360255,-9.662270681262015
35.2,2.200000047683716,166.0,21.954710006713867,25.47748374938965,-79.78281264855711,40.45905777703126,303.58380035400387,0.01947098970413208,0.004238815046846868,-0.08624877780675888,0.996074378490448,-0.007185338744716361,0.1307897936035759,2.8788341683101137,0.02348214574158192,-0.09229877591133118,0.07023659348487854,0.3124726463109255,-0.3148910181596875,-9.746599810123444
35.3,2.200000047683716,161.0,21.91714859008789,24.809534072875977,-79.78281258884934,40.45905774997382,304.167555847168,0.015031231567263603,0.003022566204890609,-0.08677203953266144,0.996110200881958,-0.01647368660922475,0.07970277362692127,2.9251789651635653,-0.07773978263139725,-0.03542448580265045,-0.02429852820932865,0.15584355471655728,-0.1378236329276115,-9.978983362913134
35.5,2.0999999046325684,158.0,22.04110145568848,23.489540100097656,-79.78281247198954,40.45905769530179,304.75006011962887,0.015326595865190031,0.0038546365685760975,-0.08637914806604385,0.9961370825767516,-0.0071991232482839,0.08589354868538837,2.9265040734969783,0.013296714052557944,-0.022128023207187653,-0.016697857528924942,0.2638356344215572,-0.07049933094531298,-9.896058150529864
35.7,2.0999999046325684,153.0,21.954710006713867,25.19917106628418,-79.7828124535379,40.45905768556696,305.0420370483398,0.01256391778588295,0.004782442934811115,-0.08652105927467346,0.9961593747138976,-0.016344199534883058,0.08137643013248871,2.913033505669957,-0.010334780439734459,-0.04354061931371689,-0.05173818022012711,0.2831203546375036,-0.07649799861945213,-9.695559464693073
35.8,2.0999999046325684,151.0,21.96347427368164,24.61869239807129,-79.78281248565851,40.4590576563281,305.326678314209,0.010498248040676115,0.005224674940109253,-0.08713022619485855,0.9961279630661012,-0.037800450833842,0.06742284067552115,2.9097682772911417,0.0042212558910250655,-0.007208085153251886,-0.06278374046087265,0.2087901107221842,-0.08748232212848962,-9.783276470303537
35.9,2.0,145.0,21.945945739746094,25.135557174682607,-79.78281248820933,40.45905765718908,305.9089193725586,0.012132917530834677,0.00806876178830862,-0.08874986320734024,0.9959474205970764,-0.04489611035988688,0.060495061881839424,2.9112961373103214,0.04057316109538078,0.018539158627390855,0.06939233839511871,0.2416722385771573,-0.17359252201393247,-9.817806032896042
36.1,2.0,142.0,21.938432693481445,23.92688751220703,-79.78281235097181,40.4590575825761,306.49109176635744,0.013130106031894684,0.00527996988967061,-0.0896158441901207,0.995875895023346,-0.02052908431015076,0.07309976128873724,2.9276488069655264,0.057605516165494926,0.012188767082989216,0.08910561352968216,0.2794918832369149,-0.20402199871838086,-9.800556746721268
36.21,2.0,138.0,21.885847091674805,25.914831161499023,-79.78281225649485,40.459057513986735,306.7747259521485,0.012322726659476757,0.00399147579446435,-0.08976185321807861,0.995879054069519,-0.004839429675592864,0.07096627295343114,2.9257093662472977,0.05235160142183304,-0.02226664125919342,0.004325713962316513,0.2715245768241584,-0.1954267196170986,-9.907195926904679
36.41,2.0999999046325684,136.0,21.945945739746094,24.55507850646973,-79.78281223508536,40.4590575090066,307.0682707214356,0.01060082484036684,0.003501277416944504,-0.08963875472545624,0.9959117770195008,-0.0033697482773696746,0.06678423462079283,2.9459684123303638,0.059220492839813225,-0.028395257890224457,0.0262286514043808,0.27282918199896816,-0.22725715264678004,-10.002428358793258
36.6,2.0999999046325684,133.0,21.902122497558594,25.23097801208496,-79.78281223107669,40.459057484431185,307.64997009277346,0.015054093673825262,0.005942593328654765,-0.08922919631004332,0.9958796501159668,-0.018839038592349217,0.06267366022314473,2.9585954641972165,0.10384633392095566,0.06976337730884552,0.03247303515672684,0.31292639024555685,-0.1567563233524561,-9.90763212919235
36.71,2.200000047683716,133.0,21.96347427368164,24.69820976257324,-79.78281222487476,40.459057483360866,307.94541076660164,0.015341482125222685,0.007565991953015327,-0.08931345492601395,0.9958567619323728,-0.034252992716462934,0.08569874566870804,2.9485377663945656,0.0506034716963768,-0.05412792041897774,-0.031467966735363014,0.29773705987259746,-0.18250599928200245,-9.752322480082512
36.8,2.0999999046325684,134.0,21.99978256225586,23.27484130859375,-79.78281217670231,40.45905749862442,308.52244094848635,0.013196402229368687,0.008024096488952637,-0.0897659882903099,0.9958431720733644,-0.0287282214871762,0.06957409920512918,2.9037407085704943,0.028609313070774082,-0.04774356633424759,0.01813850738108158,0.20686694322153928,-0.2676215969212353,-9.63487706065178
37.01,2.200000047683716,133.0,22.004791259765625,23.99845314025879,-79.78281215615974,40.459057491510094,308.8120603942872,0.012458060868084429,0.006922384724020958,-0.08964034169912337,0.9958722591400146,-0.0321572117872677,0.060198879493195724,2.8883280302510927,-0.053353238850831985,-0.017998168244957924,0.0231087263673544,0.1884366839379072,-0.214648582264781,-9.671751356720925
37.1,2.299999952316284,129.0,21.95721244812012,24.865196228027344,-79.7828121158002,40.459057429790285,309.38893035888674,0.0137039702385664,0.0029292905237525697,-0.08726014941930771,0.9960870146751404,-0.0024840570134388373,0.04893525639764817,2.8743409372257833,0.003373968880623579,0.010116006247699259,-0.025192245841026303,0.14655902593396605,-0.1937612498737872,-9.65216610789299
37.31,2.299999952316284,127.0,21.950952529907227,24.82543754577637,-79.78281207684479,40.459057373944894,309.6789656066895,0.013899360783398151,0.002417979296296835,-0.08443945646286011,0.9963287711143494,-0.002789638269441321,0.04777062084710909,2.884831442886332,-0.04367741942405701,-0.06705676019191742,-0.06631553918123245,0.16227315304800868,-0.14438023461028934,-9.689083088636401
37.5,2.4000000953674316,126.0,21.89210700988769,25.40591812133789,-79.78281205358115,40.45905730954554,310.25401977539065,0.010269524529576302,0.0019837415311485533,-0.0811973288655281,0.9966431856155396,-0.02111773471486894,0.03065150778552825,2.8732231215920643,-0.04431867226958275,-0.037196967750787735,-0.009068193845450878,0.19957255996763704,0.04284622186794877,-9.793610254526136
37.6,2.4000000953674316,124.0,21.875829696655273,25.07194328308105,-79.78281190980437,40.45905734903882,310.5513868713379,0.007324562408030033,0.0035328792873770007,-0.08119352161884308,0.9966652393341064,0.008477306337422181,0.03906326461945138,2.8909583937251813,0.1338791847229004,-0.029867731034755707,0.043413206934928894,0.2713385805487633,-0.1211962255463004,-9.78717773258686
37.8,2.299999952316284,122.0,21.87958526611328,25.07194328308105,-79.78281191244473,40.459057256856326,311.12707809448244,0.0025375222321599718,0.006221560761332512,-0.08556728810071945,0.996309757232666,-0.02804386315428857,0.0008866851019594838,2.929167349226764,-0.01621335744857788,-0.03424171358346939,0.08921463787555695,0.11656520334072412,-0.273774640224874,-9.985111244916915
37.9,2.299999952316284,121.0,21.875829696655273,25.07989501953125,-79.78281188168495,40.459057240310976,311.71452239990236,0.0057064094580709926,0.008507152087986471,-0.0911143496632576,0.9957877993583679,-0.025847436853746502,0.02778377678725263,2.9522942361545264,-0.030859483405947682,0.0812784805893898,-0.0448395274579525,0.17462110206484796,-0.14962682244367898,-9.89686038851738
38.1,2.200000047683716,122.0,21.94719696044922,24.11773109436035,-79.78281185586712,40.459057233740936,312.0021276855469,0.007355285342782736,0.008761296048760414,-0.0936155691742897,0.9955427646636964,-0.03928734652145799,0.046145016128126735,2.9561938493234514,-0.13918238878250122,0.0020767273381352425,-0.035218562930822365,0.19746049085631967,0.07546676448080689,-9.914794968366623
38.21,2.0999999046325684,122.0,21.914644241333008,24.777727127075195,-79.7828118170903,40.459057242149946,312.2974501037598,0.0090591823682189,0.007031789049506187,-0.09528732299804688,0.9953837990760804,-0.03229688884038373,0.057659336116128,2.9500077447263937,-0.1008238047361374,0.0544084869325161,-0.0736590102314949,0.17715343980118636,0.09222740158438683,-9.788447163105012
38.4,2.0,125.0,21.95345687866211,23.89508056640625,-79.78281174645349,40.45905733672428,312.87515930175783,0.010856365785002708,0.0011697763111442327,-0.09576927870512007,0.9953436851501464,-0.0034069036367836807,0.08353645935299693,2.9409146553993635,-0.06813117861747743,0.05154984071850777,-0.05026381090283394,0.21351330880075686,0.022525512082502246,-9.843609795570377
38.5,2.0999999046325684,127.0,21.91714859008789,25.11170196533203,-79.78281170645668,40.4590573557742,313.1699858093262,0.01222726609557867,0.0009344068821519613,-0.09550933539867401,0.995353102684021,0.006090240188592914,0.09031062119394136,2.953530706650648,-0.0228343103080988,0.04532063007354736,-0.05999155715107918,0.2048800776153803,0.133920625615865,-9.890642459392547
38.6,1.8999999761581416,136.0,21.96096992492676,24.197248458862305,-79.78281167925259,40.459057410079076,313.7515058898926,0.012514038011431694,0.0015467591583728788,-0.09490213543176652,0.9954067468643188,-0.011518485294700192,0.11199877986925008,2.9586597697538464,-0.037505794316530235,0.007647077087312938,-0.0790647566318512,0.2734856415912509,-0.03328118205070496,-9.869213583469392
38.8,2.0,140.0,22.0035400390625,22.92496490478516,-79.78281157631682,40.459057496476284,314.337592163086,0.011921053752303123,0.002971813781186939,-0.09491425007581712,0.9954096674919128,-0.02310010414236173,0.11413166911001325,2.953882632763936,-0.01735346019268036,0.005803531035780907,-0.04894028231501578,0.27877514250576496,-0.02610150472261012,-9.85484229683876
39.0,2.0999999046325684,148.0,22.05988121032715,22.304725646972656,-79.78281156659195,40.459057540925,314.63226226806637,0.012311863712966442,0.0038357460871338853,-0.09379150718450546,0.9955083727836608,-0.03402160584084798,0.1222210804528378,2.937920975305603,0.003153807250782848,0.0044086198322474965,0.034979965537786484,0.289381151162088,-0.2469246644899249,-9.701671559214592
39.1,2.0999999046325684,152.0,22.027328491210934,22.439905166625977,-79.78281151149368,40.459057578131656,314.91954711914065,0.013849175535142422,0.004909087903797626,-0.09144803136587144,0.9957014918327332,-0.035870564787457836,0.1304135393040691,2.9118228592837143,0.02621967904269696,0.014474202878773212,-0.025622224435210228,0.3599088776484132,-0.17099047450348734,-9.591456221938136
39.21,2.299999952316284,162.0,21.908382415771484,24.88905143737793,-79.78281145458487,40.459057686904586,315.50043395996096,0.017224986106157303,0.009277606382966042,-0.08619958162307739,0.9960858225822448,-0.05131649415815698,0.1750966257952352,2.8614401679122734,-0.01806667260825634,0.0429704524576664,-0.058968149125576026,0.4352368758246303,-0.045005027591250836,-9.460796095132828
39.41,2.5,166.0,21.97348976135254,24.24495887756348,-79.78281142323094,40.459057772836935,315.7864065551758,0.018915124237537384,0.009678366594016552,-0.08510753512382507,0.9961452484130859,-0.048835362806943436,0.1975488884353899,2.8485718445195536,0.001049207174219191,0.05193281918764114,0.0015168244717642665,0.4379154853150249,-0.0858130973763764,-9.61817215025425
39.51,2.700000047683716,175.0,21.928415298461914,24.51531982421875,-79.78281139726535,40.45905792738658,316.36048797607424,0.0277686920017004,0.0004008621908724308,-0.08608423173427583,0.9959008097648621,-0.022766405748939244,0.2358316775635514,2.8102584694698702,-0.08617211133241652,0.1312757283449173,-0.01935720257461071,0.4882188988476992,-0.014665320493513719,-9.539721812009812
39.7,2.799999952316284,178.0,21.884593963623047,24.75387191772461,-79.78281134593206,40.45905802104518,316.64186767578127,0.03050527535378933,5.29437602381222e-05,-0.08811672031879425,0.9956430196762084,-0.001383675514496373,0.266908612677392,2.8038270971319137,-0.07937601953744887,0.06127263233065605,-0.099761962890625,0.5189152826741338,0.18082046627998352,-9.672807948589323
39.9,2.9000000953674316,185.0,21.87708282470703,25.437725067138672,-79.78281120362263,40.45905815874349,317.2139387512207,0.0286183413118124,-0.0013191514881327748,-0.09151837974786756,0.9953912496566772,-0.0200941921597526,0.2700923429147335,2.8450390906260035,-0.0578468032181263,-0.061350405216217034,0.032370727509260185,0.5293318780884146,0.0022997213364578787,-9.865336879491807
40.01,3.0999999046325684,188.0,21.837017059326172,25.86712074279785,-79.78281118372631,40.45905824025933,317.49952606201174,0.02694674953818321,0.0001814670249586925,-0.09289859980344772,0.99531090259552,-0.023258703699441715,0.2487107249499717,2.8476756389396365,-0.012032240629196169,-0.02993471175432205,0.1039794534444809,0.4245825545489788,-0.17921895045787098,-9.850115407705307
40.2,3.2000000476837163,191.0,21.8570499420166,25.75579643249512,-79.78281108363413,40.459058472223866,318.07181457519533,0.0291782021522522,0.0015735931228846312,-0.0949036031961441,0.9950575828552246,-0.04533193832979784,0.24013875076714924,2.875170679095528,0.08627256006002426,0.024356329813599583,0.12889526784420013,0.398825533054769,-0.2285207359492779,-9.938032972812653
40.3,3.2000000476837163,192.0,21.803211212158203,26.02615547180176,-79.7828111449242,40.45905862518789,318.63623336791994,0.033045638352632516,0.006253733299672604,-0.09540734440088272,0.9948700666427612,-0.10485378593538414,0.2445340270465777,2.8657119438867515,-0.07400080561637877,-0.01637684553861618,-0.10397259891033173,0.482183402851224,-0.1266299608256668,-9.903556619882584
40.5,3.2000000476837163,190.0,21.82699966430664,26.88494682312012,-79.78281118726223,40.45905868273484,318.9238806152344,0.030807998031377792,0.006411490496248007,-0.0953352153301239,0.9949477314949036,-0.11709523857537725,0.2370320263047015,2.8704250148119828,-0.12563884258270264,-0.12522053718566895,-0.0247405506670475,0.3856658260524273,-0.1118528500199318,-9.816758211851118
40.61,3.2000000476837163,189.0,21.86581420898437,24.865196228027344,-79.78281119910893,40.459058784937724,319.20403961181637,0.02970617823302745,0.004719623364508152,-0.09552256762981416,0.9949727654457092,-0.10277744060651592,0.2084924320702044,2.8794860218344507,-0.01047967653721571,-0.0214079637080431,-0.0341985821723938,0.3696266577020288,-0.2360906509682537,-9.899334930181505
40.8,3.2000000476837163,187.0,21.855796813964844,25.501338958740234,-79.78281123241675,40.4590589145448,319.7667532348633,0.03332652151584625,0.008097554557025433,-0.0938805341720581,0.9949926137924194,-0.06484319018219895,0.1862445508795908,2.8624613180276706,0.2692946791648865,0.02955909632146358,0.06309141963720323,0.4914823395386338,-0.27614765960723164,-9.737721982598305
40.91,3.0999999046325684,185.0,21.8570499420166,26.169288635253906,-79.78281127663938,40.45905892472622,320.05411437988283,0.030358299612998962,0.012945910915732384,-0.09207101166248324,0.9952053427696228,-0.11160454665550423,0.18696880599654755,2.871710834510929,-0.03411703556776047,-0.06293495744466783,-0.15040774643421173,0.453810556344688,0.13673839883878827,-9.818402448892591
41.0,3.0,182.0,21.805715560913086,26.376033782958984,-79.78281134889103,40.459058954481456,320.6201239013672,0.023649992421269417,0.009595273062586784,-0.08967499434947968,0.9956440329551696,-0.1171466600622848,0.12804237694795695,2.868373694785271,-0.16650596261024475,-0.11993580311536788,-0.06195509433746337,0.3718347856029868,-0.28532409712672235,-9.762409511804579
41.21,3.0,177.0,21.791942596435547,25.994348526000977,-79.78281136361042,40.459058961436895,321.1869078063965,0.017144300043582916,0.0010421151528134944,-0.09153977781534196,0.9956533312797546,-0.05423980104985311,0.10458739962579544,2.8804261459689933,0.02151372842490673,-0.03803805634379387,-0.0386200025677681,0.5069224971905351,-0.4142648867145181,-9.870554934740069
41.3,2.9000000953674316,174.0,21.885847091674805,24.24495887756348,-79.78281140122492,40.45905895735961,321.4754095458985,0.017982538789510727,0.003642422147095203,-0.09281037747859956,0.9955148100852966,-0.04401991921014025,0.08616108518628876,2.8820367477584807,0.09421304613351822,-0.0015920799924060702,0.04323723167181015,0.3144517095386982,-0.18786402225494386,-9.819941436052325
41.5,2.9000000953674316,174.0,21.81447982788086,25.92278289794922,-79.78281144840689,40.45905895178688,321.7632131958008,0.02111305668950081,0.0068441559560596926,-0.09316946566104888,0.9954029321670532,-0.06329595025848443,0.08715562606207443,2.8711707714631283,0.13338463008403778,0.03879959881305695,-0.0046291914768517035,0.37073284126818185,-0.17717885691672566,-9.743085048794748
41.7,2.799999952316284,172.0,21.837017059326172,25.326400756835927,-79.78281152913478,40.45905888678098,322.33043579101565,0.02571006864309311,0.011252399533987044,-0.09116055071353912,0.9954407215118408,-0.08745388268855184,0.08440996302310905,2.8651001096908435,0.1544770896434784,0.04504849761724472,0.07388469576835632,0.4122816938906908,-0.4727296976745129,-9.846485456228256
41.8,2.799999952316284,170.0,21.77316093444824,26.209047317504893,-79.78281155539692,40.45905888767953,322.61114028930666,0.024742985144257545,0.011954662390053272,-0.08965938538312912,0.9955933094024658,-0.09667777766622626,0.08918995413324582,2.87363700635711,0.05755963549017906,0.008583098649978638,0.002395749557763338,0.3534077605605125,-0.17122911399230362,-9.839962302446368
41.9,2.700000047683716,168.0,21.82073974609375,25.95458984375,-79.7828115978152,40.45905878350456,323.1869764709473,0.018593821674585342,0.012406101450324059,-0.08907955139875412,0.9957736730575562,-0.0770997302952478,0.05134253992510037,2.8895429232381247,-0.06498806178569794,0.004259463865309954,-0.03474235907196998,0.3151064149662852,-0.03890946972649545,-9.921341511011123
42.11,2.700000047683716,166.0,21.855796813964844,25.86712074279785,-79.78281164416923,40.45905871721364,323.7531614685059,0.011784354224801064,0.00982738845050335,-0.08908893167972565,0.9959055185317992,-0.061515341773421474,0.013623033767207226,2.8835467824116354,-0.1528792530298233,-0.08858167380094527,-0.019636096432805058,0.2035359854623676,-0.021644619908183813,-9.811985714435576
42.31,2.700000047683716,166.0,21.93342399597168,23.89508056640625,-79.78281158995702,40.459058744982826,324.02956298828127,0.012009299360215664,0.0036324341781437397,-0.0877467691898346,0.9960638880729676,-0.045924256376449486,0.0149700526002156,2.8787386692240444,-0.1370571106672287,-0.030543847009539608,-0.016844399273395542,0.18602039515972132,-0.2677744467929006,-9.824432097673416
42.4,2.700000047683716,165.0,21.82449531555176,25.76374816894531,-79.7828115822901,40.45905869951101,324.3175268554688,0.013381341472268105,0.00021370177273638544,-0.08678710460662843,0.9961370229721068,-0.004575334671197578,0.02558386639633901,2.8757831110854046,-0.023312836885452267,0.017213277518749237,0.05010936036705972,0.2929926656372845,-0.2382498084381223,-9.71681350886822
42.5,2.5999999046325684,163.0,21.79820251464844,26.04205894470215,-79.78281153976496,40.45905855061355,324.88949493408205,0.012985365465283394,0.002667491091415286,-0.08886973559856415,0.9959551095962524,0.0032192452775212945,0.01968750221089011,2.8658609963941157,-0.04092248901724816,0.01975650154054165,-0.03410494327545166,0.3005760657973588,0.07385156708769501,-9.7696892952919
42.7,2.5,161.0,21.76815414428711,25.87507247924805,-79.78281145027138,40.45905851561624,325.45878890991213,0.015449867583811285,0.005262556951493025,-0.0911148637533188,0.9957066774368286,-0.007449592269959145,0.045585951011916766,2.875022906398364,-0.03602122887969017,0.003425256581977009,0.005786627996712923,0.3191197976097465,-0.06896168681792915,-9.843426192998887
42.81,2.4000000953674316,159.0,21.793193817138672,25.7876033782959,-79.78281142316196,40.45905847964094,325.7461882019043,0.01502235606312752,0.005813050083816052,-0.09156849980354308,0.9956685900688172,-0.007101703398165645,0.05711132049174099,2.8747176900160434,-0.04379093647003174,-0.11026175320148468,0.008922848850488663,0.28875045586377385,-0.1871705059334636,-9.802566434741019
43.01,2.4000000953674316,160.0,21.669240951538086,27.823257446289066,-79.78281138788542,40.45905844566349,326.0340986633301,0.013738883659243584,0.005774038378149271,-0.09152253717184068,0.9956915378570556,0.0037877813677451135,0.055029363573635866,2.887906007476427,-0.010972985066473484,-0.08541572839021683,-0.015563156455755234,0.31762532237917185,-0.2637466836534441,-9.93141041636467
43.2,2.299999952316284,162.0,21.75062561035156,27.43362045288086,-79.78281123235675,40.45905841013477,326.6126165771485,0.011453457176685332,0.0003332334163133055,-0.09097541868686676,0.9957872629165648,0.02200300812922507,0.050608774497696914,2.9548778869124988,0.01124869380146265,-0.04201487451791763,0.05916392430663109,0.3432156616821885,-0.044912892831489436,-10.092452090978624
43.31,2.299999952316284,164.0,21.74436378479004,26.58278083801269,-79.78281114448504,40.459058352248576,326.89651016235354,0.0113248648121953,-0.0019951967988163233,-0.09083054959774016,0.995799958705902,0.03271663452508551,0.04352876780315658,2.963901049463129,0.029040230438113213,0.045199036598205566,0.106466144323349,0.3559232327342033,-0.15999933533370495,-10.106226961612702
43.4,2.4000000953674316,169.0,21.783178329467773,26.41579246520996,-79.7828110804786,40.459058322076814,327.49710754394533,0.015447473153471947,-0.002695763949304819,-0.09100285917520523,0.9957272410392758,0.04746988147891466,0.07520792379786062,3.034594642346319,0.12763264775276184,0.08631602674722673,0.13089707493782046,0.38807977594435217,-0.2317248822189868,-10.10356647849083
43.61,2.4000000953674316,176.0,21.872074127197266,24.34037971496582,-79.78281104532381,40.459058347049435,327.7832556152344,0.016584884375333786,0.0004140802484471351,-0.09185124188661577,0.9956344962120056,0.0338731822082857,0.09525145466725143,3.0176035814001585,0.09983128309249878,0.0077793593518435955,0.051964111626148224,0.3705748202651739,-0.07998320410028101,-9.9683741748333
43.71,2.4000000953674316,181.0,21.811975479125977,25.19917106628418,-79.7828110078467,40.45905842681646,328.3749723815918,0.017863500863313675,0.0035846489481627937,-0.09341395646333693,0.9954606890678406,-0.002384065369221043,0.11665255114170575,2.997200697879524,0.04875100776553154,-0.02354646101593972,0.0521172434091568,0.3899729947373271,-0.23686135053634644,-9.795225255489347
43.91,2.4000000953674316,183.0,21.765649795532227,25.81941032409668,-79.78281098739656,40.45905844042033,328.6752005004883,0.017594335600733757,0.002277115127071739,-0.09468819200992584,0.9953489303588868,-0.014383043370160862,0.12460382265270988,3.0072575726080344,-0.036836810410022736,-0.01576145924627781,0.09930501878261566,0.3366925809904933,-0.3195147039368749,-9.887151671648024
44.1,2.5999999046325684,187.0,21.97974967956543,22.424001693725586,-79.78281091860089,40.459058490491174,329.277663269043,0.021757768467068672,0.0012420250568538904,-0.09798280894756316,0.9949495196342468,-0.013074605840198036,0.13013466617786096,3.052562779342718,-0.03285979479551315,0.05466058477759361,-0.013872670009732243,0.367245817668736,-0.009032422425225376,-10.026955089569093
44.2,2.5999999046325684,188.0,21.908382415771484,23.77580451965332,-79.78281091032181,40.45905850182344,329.5827627563477,0.024595392867922783,0.0034688548184931287,-0.09888585656881332,0.9947887659072876,-0.02601752550376616,0.1461868913438783,3.0363168519366264,0.016843071207404137,0.044346500188112266,-0.09033893793821336,0.4709201671555638,0.04435182508081198,-9.72480665266514
44.41,2.700000047683716,190.0,21.914644241333008,23.664478302001953,-79.78281091276196,40.459058576615696,330.18198303222664,0.020478377118706703,0.005696849897503853,-0.09653738886117937,0.9951024055480956,-0.06120228966446429,0.14796818212868784,2.985491700948734,-0.02317635156214237,-0.08748060464859009,0.007345887366682291,0.4173174256458879,-0.21564520362764605,-9.626905551552774
44.5,2.700000047683716,190.0,21.92716407775879,24.08592414855957,-79.78281095608988,40.459058698604935,330.7896032714844,0.015925038605928418,0.0069964486174285394,-0.09454871714115144,0.9953683614730836,-0.056311368624680926,0.11455884578026596,2.984846081502284,0.03539716452360153,0.01746954396367073,-0.08077391237020493,0.3536462538689375,-0.07985492167063057,-9.655458675026894
44.7,2.700000047683716,188.0,21.890853881835934,24.63459587097168,-79.7828109666456,40.45905871361514,331.08795837402346,0.01649376004934311,0.00950662512332201,-0.09496095031499864,0.9952989816665648,-0.05934327871954158,0.1044878170502803,2.975816458707252,0.05463790521025658,0.029004070907831192,0.025614548474550247,0.3404875701293349,-0.1607661428488791,-9.709311531186104
44.81,2.5999999046325684,184.0,21.93467712402344,23.338457107543945,-79.78281090257357,40.459058765238325,331.3996878051758,0.016879159957170486,0.010602464899420738,-0.09610669314861298,0.9951714277267456,-0.06422182205815713,0.1106474787610316,2.9990837889097244,0.02617065981030464,0.02557746134698391,0.042743325233459466,0.3227319516241551,-0.15165928719565272,-9.734811238646508
44.9,2.5999999046325684,180.0,21.848285675048828,25.04808807373047,-79.78281088616744,40.459058790096066,331.99660400390627,0.017444690689444542,0.0050287991762161255,-0.0974862575531006,0.995071291923523,-0.05133047585764992,0.10349622165776816,2.957394105676279,-0.0293982345610857,-0.008237410336732864,0.029559034854173664,0.2841023396886885,-0.028304068632423882,-9.586797160506249
45.1,2.5,177.0,21.883342742919922,23.88712882995605,-79.78281094458697,40.45905881731132,332.30393127441414,0.018185846507549286,0.002632779534906149,-0.09748119860887527,0.9950677752494812,-0.020656008937001376,0.09784442501979028,2.9682244250322856,0.05942849814891815,-0.021823136135935783,0.015498637221753597,0.3039790173992515,-0.12230303037911655,-9.648775892257689
45.2,2.299999952316284,171.0,21.87708282470703,23.64857482910156,-79.78281088330183,40.4590588487434,332.9061575317383,0.015571529045701029,0.0006943487096577883,-0.09612848609685898,0.9952468872070312,0.010818834975957032,0.08673436768072465,2.974001937505056,0.05617564544081688,-0.0350787416100502,0.058788418769836426,0.329150184430182,-0.09975602064281702,-9.688676122426989
45.4,2.299999952316284,169.0,21.864561080932614,24.42784881591797,-79.78281085607466,40.45905883175468,333.2031011962892,0.013337744399905205,0.002252007136121393,-0.09427066147327423,0.9954547882080078,0.01834262907786014,0.0749508529936635,2.9630173878172155,0.08819881081581116,-0.016302991658449173,-0.03767155855894089,0.3233947700634599,-0.07689092237502337,-9.717854313254355
45.6,2.0999999046325684,163.0,21.845781326293945,24.51531982421875,-79.78281083433322,40.459058790119684,333.80770782470705,0.007966130971908571,0.0031236952636390924,-0.091062992811203,0.9958084225654602,-0.008914146459458438,0.05197946509419813,2.9853736661906782,-0.010225244797766209,-0.09475216269493104,0.0026948382146656518,0.2209538724459708,-0.18455422410741448,-9.745354353189473
45.7,2.0999999046325684,159.0,21.86330986022949,24.197248458862305,-79.7828108177812,40.45905878194471,334.10613922119137,0.005443931557238102,0.001978896791115403,-0.08980055153369904,0.9959429502487184,-0.0073435017798801185,0.044667370525113735,2.9863987826087888,-0.03562503308057785,-0.042634569108486176,-0.045833956450223916,0.20738858794793488,-0.06561459439806641,-9.825940679311753
45.9,1.8999999761581416,157.0,22.052370071411133,20.412202835083008,-79.78281073689139,40.45905872803919,334.71136383056637,0.010568553581833841,0.0019719945266842838,-0.08853863179683685,0.9960147738456726,0.0185732075782626,0.03620807531293888,3.0008545087132603,0.06394006311893463,0.09093140065670012,0.01170224230736494,0.25894708804786204,-0.02058145905844868,-9.803148232698437
46.0,1.7999999523162842,153.0,22.170061111450195,18.82980155944824,-79.78281065474069,40.45905875566774,335.3032064819336,0.016384195536375046,4.791708852280863e-05,-0.08994776755571365,0.9958117604255676,0.014460274318246806,0.08593301471603618,2.9026211975615728,0.0005847577122040093,0.038828544318676,0.05630021542310715,0.2638361460529268,-0.08067761577665808,-9.579064217805863
