time,wind_speed,wind_angle,battery_voltage,battery_current,position_x,position_y,position_z,orientation_x,orientation_y,orientation_z,orientation_w,velocity_x,velocity_y,velocity_z,angular_x,angular_y,angular_z,linear_acceleration_x,linear_acceleration_y,linear_acceleration_z
0.0,0.4000000059604645,256.0,24.57274627685547,-0.04771064221858978,-79.78278675834613,40.45906273142616,270.68230392837523,0.00565720722079277,-0.00481784250587225,0.9908660650253296,0.1346452236175537,-0.011286891547124759,0.016102749203663627,0.025399996061431472,-0.007609058637171985,-0.0009132846025750039,-0.008666029199957848,-0.07950241679325701,0.13516588155180218,-9.809968425035477
0.1,0.4000000059604645,254.0,24.571495056152344,-0.04771064221858978,-79.78278675100564,40.45906271455364,270.68479993247985,0.005668461788445711,-0.004827030003070831,0.990864098072052,0.13465853035449982,-0.010669334391197377,0.01637564929941181,0.025044540830908117,0.004090674221515656,0.0003765533911064267,0.006449835374951364,-0.07595926905982196,0.09168107064440847,-9.812555233240126
0.3,0.4000000059604645,254.0,24.58025932312012,-0.03180709481239319,-79.78278681993861,40.45906246403824,270.6802108516693,0.0056508732959628105,-0.004834253340959549,0.9908685684204102,0.13462603092193606,-0.010843142469000524,0.018283827885437663,0.02242970980852952,-0.013015465810894966,-6.233945168787614e-05,-0.00809795968234539,-0.0757624782761559,0.12202001600526274,-9.80900012612343
0.4,0.4000000059604645,254.0,24.57525062561035,-0.04771064221858978,-79.78278681410124,40.459062445551794,270.6824114551544,0.0056545683182775966,-0.004844655748456717,0.9908630847930908,0.13466575741767886,-0.009277373609736371,0.01839095368069331,0.0221085123973774,0.008866033516824245,0.0009388676262460648,0.012824051082134249,-0.07756641282700003,0.08869333530776204,-9.811978697776793
0.6,0.4000000059604645,253.0,24.58651924133301,-0.039758868515491486,-79.78278691861091,40.459062219016936,270.67742111587523,0.005652266088873148,-0.00482269423082471,0.990869641304016,0.13461875915527344,-0.0044073731863597705,0.016281788670449975,0.02008035689969375,-0.008550441823899746,0.0013735543470829725,-0.003319822484627366,-0.076781634259969,0.1327656543441117,-9.808175668716432
0.7,0.4000000059604645,255.0,24.585268020629893,-0.03180709481239319,-79.7827869191244,40.459062203717416,270.67940142059325,0.005642111413180828,-0.004814104177057743,0.990863800048828,0.1346626579761505,-0.0028774763409059306,0.01642318519822014,0.019871148955612688,0.011558378115296364,0.001240480225533247,0.011284569278359413,-0.07334984400775284,0.09719273834489288,-9.811465312242511
0.9,0.4000000059604645,252.0,24.581512451171875,-0.05566241592168808,-79.78278698485029,40.45906196863814,270.6751775970459,0.005639979150146246,-0.004836383275687695,0.9908639788627625,0.1346602588891983,-0.00562684072065265,0.01820142331653779,0.01931715364611039,-0.00031566340476274485,-0.0016232600901275873,0.0027945309411734343,-0.07911906785331667,0.1365770613681525,-9.807965168952943
1.0,0.4000000059604645,252.0,24.584014892578125,-0.04771064221858978,-79.78278703005732,40.459061744492296,270.66741921806334,0.005622627679258585,-0.00483716605231166,0.9908709526062012,0.1346098929643631,-0.008008598022868551,0.0177195873123935,0.015799251271280415,0.007690508384257555,0.004462848883122207,0.003565678372979164,-0.07606241303030402,0.11309815163724125,-9.809341603517533
1.2,0.4000000059604645,251.0,24.581512451171875,-0.04771064221858978,-79.78278701862644,40.45906170800411,270.67052557373046,0.005639638286083937,-0.004867629148066044,0.9908580780029296,0.13470280170440674,-0.00979260783312496,0.01844866981716724,0.01556812838346456,0.008072902448475361,-0.00010395859135314822,0.008678652346134186,-0.0810460360441357,0.13066566338762642,-9.810445557832717
1.3,0.4000000059604645,252.0,24.584014892578125,-0.04771064221858978,-79.78278709023924,40.45906150120825,270.66283609771733,0.005613809917122126,-0.0048659532330930216,0.9908658266067504,0.13464699685573578,-0.007923858659164444,0.015836291300061762,0.01284203712353416,0.00456984993070364,0.0009569579269737004,0.0017801246140152214,-0.07695986470207572,0.08891777702607215,-9.811990392208099
1.5,0.4000000059604645,254.0,24.57525062561035,-0.04771064221858978,-79.78278717935446,40.45906125598216,270.65892555618285,0.005617127753794193,-0.004894837271422148,0.990870475769043,0.13461153209209442,-0.002654805295236864,0.018680787896296003,0.014738576225671582,0.011772959493100643,0.0016087284311652186,0.011195913888514042,-0.07967022274620833,0.11709725428372622,-9.810280666351321
1.61,0.4000000059604645,253.0,24.585268020629893,-0.015903547406196594,-79.78278718013995,40.45906123830604,270.66038134002685,0.005598825868219136,-0.004903748631477356,0.9908652305603028,0.13465087115764618,-0.005539382949803775,0.019163459661647703,0.014810707208085812,-0.007377689238637686,0.0022414328996092077,-0.004685616120696068,-0.07961511273868382,0.13649630583822728,-9.807854656577113
1.81,0.4000000059604645,253.0,24.56398200988769,0.03180709481239319,-79.78278723305145,40.459060987898326,270.65645077133183,0.005636435002088547,-0.004913222044706346,0.9908688068389891,0.1346219927072525,-0.007747690035030644,0.019590084366985002,0.015542629309471959,0.009785200469195844,-0.0015211839927360411,0.0114413034170866,-0.07751624554395678,0.10388441070914267,-9.811245456933976
1.9,0.4000000059604645,250.0,24.57024383544922,0.007951773703098297,-79.78278722847196,40.459060968163705,270.65797974967955,0.0056358720175921926,-0.0049313842318952075,0.990863561630249,0.13466022908687592,-0.010903659025168707,0.020182360902854288,0.015604731993898256,-0.008649979718029499,-0.00021165637008380145,-0.007922586984932423,-0.07957653025165201,0.13599572936072946,-9.808775593042377
2.1,0.4000000059604645,252.0,24.58025932312012,0.007951773703098297,-79.78278729240522,40.459060785675604,270.656861328125,0.005646859761327505,-0.004923743661493063,0.9908711314201356,0.13460426032543182,-0.005957697933705809,0.011941188715226916,0.019144588447392613,0.009543729946017264,0.006053614430129528,0.004528607241809368,-0.07767314278520644,0.0965346616320312,-9.810974146127704
2.2,0.4000000059604645,251.0,24.56398200988769,0.07156596332788467,-79.78278728755149,40.45906077302796,270.65875675582885,0.005649741739034653,-0.004931352101266384,0.9908690452575684,0.13461977243423462,-0.009179911389889916,0.01257051704887105,0.019233728941308727,-0.008351419121026995,-0.0015952090034261346,-0.0072689363732934,-0.0788224130216986,0.13501957325264813,-9.810796390771866
2.4,0.4000000059604645,251.0,24.571495056152344,0.03180709481239319,-79.78278735940444,40.459060504426,270.65677072906493,0.0056366571225225925,-0.0049629341810941705,0.9908725023269652,0.1345931589603424,-0.008856826746577295,0.022130170680670462,0.018785239482686625,0.007499441504478455,0.0021145669743418694,0.0011517711682245135,-0.07516244888305665,0.09190767765976487,-9.812740005254748
2.5,0.4000000059604645,251.0,24.57900810241699,0.039758868515491486,-79.78278746046249,40.4590603075439,270.65532400512694,0.005624416284263134,-0.004955695942044258,0.9908827543258668,0.13451863825321198,-0.003917852301044652,0.01863154285894967,0.022535581559770042,-0.009715494699776173,-0.0013741732109338045,-0.0020572314970195293,-0.07937669252045453,0.12600687604397534,-9.809946790337564
2.71,0.4000000059604645,250.0,24.56273078918457,0.007951773703098297,-79.78278746426633,40.45906027230704,270.65973689460753,0.005609422922134399,-0.004958130419254303,0.9908697009086608,0.13461512327194214,-0.004353866343708653,0.01956950514412993,0.022070907065846367,0.001283338526263833,-0.0014636432752013204,-0.003047102829441428,-0.07633991366252303,0.08903854030184448,-9.811928411722183
2.8,0.4000000059604645,249.0,24.57024383544922,0.007951773703098297,-79.78278752715427,40.45906003584293,270.65881159210204,0.005613654386252165,-0.004964825697243214,0.9908786416053772,0.13454876840114596,-0.009440173967764176,0.02264310472234233,0.024393833074647885,-0.007438128348439931,3.609806299209595e-05,-0.004183908458799125,-0.07745209062471986,0.11308417313732208,-9.8110431432724
3.01,0.4000000059604645,250.0,24.57274627685547,0.039758868515491486,-79.78278759341985,40.45905982191686,270.65755679512023,0.005590843502432108,-0.00494781881570816,0.9908851385116576,0.1345030963420868,-0.010477340372015215,0.01857955855634424,0.02003972235236817,-0.005613252520561218,-0.002202874980866909,-0.008024816401302814,-0.07470934905577452,0.09643937028944492,-9.81120686531067
3.1,0.4000000059604645,251.0,24.56523513793945,0.02385532110929489,-79.7827875876786,40.459059802901756,270.659516834259,0.005610931199043989,-0.0049362112767994395,0.9908816814422609,0.13452798128128052,-0.010685949516320471,0.01928170524603902,0.019802019445815,-0.004903812427073717,-0.0038200530689209695,0.0009477222338318824,-0.0784250216279179,0.10302333511412144,-9.810231549739838
3.3,0.4000000059604645,249.0,24.56899070739746,0.03180709481239319,-79.78278768691183,40.45905960838313,270.66193511390685,0.005558362230658531,-0.0049328189343214035,0.9908852577209472,0.13450390100479126,-0.004668373849644018,0.01369975442970952,0.022769895960443383,-0.008917425759136677,0.00016927282558754086,-0.008379775099456309,-0.07331971714273096,0.10580174926668406,-9.811168273687365
3.41,0.4000000059604645,249.0,24.567739486694336,0.03180709481239319,-79.7827876866729,40.45905959509549,270.66418244743346,0.0055791637860238535,-0.004925284069031477,0.9908820390701294,0.13452652096748352,-0.003992709582485833,0.0143811291219356,0.022547960709634763,0.0005763981607742608,0.0020335079170763493,0.005849024746567011,-0.07796579592861236,0.0962739032227546,-9.810571857690812
3.6,0.4000000059604645,248.0,24.56523513793945,0.04771064221858978,-79.78278776891038,40.459059402297285,270.6674313774109,0.005576103925704956,-0.004893625620752573,0.99088853597641,0.13448047637939453,-0.004454586193793442,0.00993397196161311,0.024797960463276168,-0.011408232152462006,-0.004469581414014101,-0.009321481920778751,-0.07554691244848072,0.11120707073248924,-9.809871361255649
3.7,0.4000000059604645,246.0,24.57525062561035,0.039758868515491486,-79.78278776776669,40.45905939238269,270.66987779045104,0.005574469454586506,-0.004888779018074274,0.9908829331398008,0.13452209532260895,-0.0034082797458662795,0.010462316534068058,0.024438863788426714,0.0028661678079515696,0.0010708057088777423,0.0043554757721722135,-0.07734291214495898,0.09228291358798743,-9.811578748226166
3.9,0.4000000059604645,245.0,24.57399940490723,0.02385532110929489,-79.78278783162334,40.459059136519606,270.6735620727539,0.005562327802181244,-0.004880869295448065,0.99088853597641,0.13448145985603333,-0.010290260317774623,0.016979912515657954,0.026203472421876144,-0.010804217308759693,0.0007663053693249823,-0.006988328881561756,-0.07531598397530616,0.11657250322401524,-9.809232260584832
4.0,0.30000001192092896,247.0,24.57024383544922,0.02385532110929489,-79.7827878979666,40.45905894368589,270.67483117485045,0.005564505700021982,-0.004868514835834503,0.990897297859192,0.1344175785779953,-0.009153266345387932,0.014633473666554774,0.026917072205360423,0.007235731929540634,0.0017411778680980206,0.009150405414402485,-0.07272479492705315,0.0908565858285874,-9.814070831537247
4.2,0.30000001192092896,249.0,24.57399940490723,0.05566241592168808,-79.78278788280072,40.45905891214953,270.6801529159546,0.005545002408325672,-0.004873777274042368,0.9908895492553712,0.1344747394323349,-0.012470119452187556,0.015441760539209088,0.026803972858863368,-0.010322141461074352,-0.003280179109424353,-0.008159433491528034,-0.07525155953597278,0.1240157163888216,-9.809442175626756
4.3,0.30000001192092896,253.0,24.57525062561035,0.04771064221858978,-79.78278797359214,40.45905870210782,270.6799597969055,0.005546513479202986,-0.004857863765209913,0.9908974766731262,0.13441672921180725,-0.007871942810183484,0.016757305007130918,0.024245156596674856,0.00546766584739089,-5.640928065986373e-05,0.008869815617799759,-0.07671269193291665,0.08990262173116208,-9.812728310823443
4.5,0.30000001192092896,253.0,24.57650375366211,0.039758868515491486,-79.78278808906181,40.45905849025385,270.6841283073425,0.00554875610396266,-0.0048693898133933535,0.9909032583236694,0.1343739777803421,-0.003255301426116965,0.015278247936973832,0.025994353548232048,-0.0101690711453557,-0.00037272044573910534,-0.0018978607840836046,-0.07578747512307019,0.12882430208846926,-9.809061521887779
4.6,0.30000001192092896,256.0,24.57650375366211,0.039758868515491486,-79.78278809079721,40.45905847607981,270.686700843811,0.0055561126209795475,-0.0048528402112424365,0.9908987879753112,0.13440701365470886,-0.0015070101005797544,0.015481064881679529,0.025726521375333274,0.008556381799280643,-0.0011843027314171195,0.009411640465259552,-0.07634982652030886,0.09142492605373263,-9.811005721092224
4.8,0.30000001192092896,258.0,24.5539665222168,-0.07156596332788467,-79.78278816829831,40.45905826286364,270.6910729637146,0.005563693121075629,-0.0048823519609868535,0.990903913974762,0.1343681812286377,-0.006497493116986402,0.01305542150190073,0.02700068806919351,-0.005774367600679398,-0.0009786566952243447,-0.0033919999841600657,-0.07779449991881847,0.1336661529634148,-9.808575033545496
4.9,0.30000001192092896,261.0,24.584014892578125,-0.05566241592168808,-79.78278816530963,40.459058249682215,270.693740152359,0.005568879656493664,-0.004878512583673,0.9908998012542723,0.13439841568469998,-0.005030917192592502,0.013347933624367644,0.02674741475891821,0.010476872324943542,-0.00043907895451411605,0.010108708404004574,-0.07578445558436216,0.09663787412457167,-9.811405670642854
5.1,0.30000001192092896,264.0,24.585268020629893,-0.04771064221858978,-79.78278825472333,40.45905802049785,270.69821860694884,0.005572048481553793,-0.004865333903580904,0.9909065961837769,0.13434801995754242,-0.007343589846197698,0.018276423518136808,0.027415795824407032,-0.007416019216179849,0.0007943212985992433,-0.0017435101326555016,-0.07881343206390737,0.13601490640081465,-9.80852006971836
5.2,0.30000001192092896,267.0,24.582763671875,-0.02385532110929489,-79.78278825197742,40.459058002577045,270.7009306182861,0.005566562991589308,-0.0048543578013777716,0.9909023642539978,0.13438022136688232,-0.006351236224895882,0.01837159091213204,0.02719426771172033,0.013120350427925587,0.0028593344613909717,0.010322766378521921,-0.0739765741629526,0.1025886403117329,-9.81142438173294
5.4,0.30000001192092896,269.0,24.57399940490723,-0.04771064221858978,-79.78278837481732,40.45905780678426,270.7036268939972,0.0055448999628424644,-0.00485159270465374,0.9909096360206604,0.1343274563550949,-0.001943661698501196,0.016116523897194618,0.02414462046349353,-0.0007904027588665485,0.0016353758983314035,0.003029114566743374,-0.07880306239239873,0.13655832286924124,-9.809104206562044
5.5,0.30000001192092896,269.0,24.57525062561035,-0.04771064221858978,-79.7827884523223,40.45905762787713,270.7056875457764,0.005531910341233015,-0.004825644195079804,0.990919291973114,0.13425765931606293,-0.003032646510711293,0.009468643663057271,0.02594596588245376,0.014187218621373175,0.002416236791759729,0.003328737569972873,-0.07378728882875292,0.11099435085430742,-9.810663074254991
5.71,0.30000001192092896,271.0,24.582763671875,-0.04771064221858978,-79.78278844729184,40.45905760794317,270.7108381023407,0.005528362933546305,-0.004819905385375023,0.9909127950668336,0.13430623710155487,-0.004824250425229365,0.010254164235216207,0.025666082010223988,0.002825610805302859,-7.899745833128692e-05,0.006668387446552515,-0.0803073317091912,0.1343615696299821,-9.809674894809724
5.8,0.30000001192092896,270.0,24.582763671875,-0.04771064221858978,-79.78278855099266,40.45905739516649,270.71076562309264,0.005496709607541561,-0.004828192759305239,0.9909176230430604,0.13427165150642395,-0.004014257570820532,0.01350463482994076,0.023427942067858167,0.00796674005687237,0.003518546232953668,0.0017731649568304422,-0.0760158774163574,0.1172886592335999,-9.807944118976591
6.0,0.30000001192092896,270.0,24.584014892578125,-0.04771064221858978,-79.78278864170746,40.45905718606614,270.7131924858093,0.0055043743923306465,-0.004818380810320377,0.9909220337867736,0.13423846662044525,-0.00426195390507532,0.01550823090923806,0.022445435390504986,0.0057777720503509045,-0.00027578178560361266,0.008459450677037239,-0.0800544761773199,0.12950083407573404,-9.810539113283156
6.1,0.30000001192092896,271.0,24.58777236938477,-0.04771064221858978,-79.78278864038211,40.45905717097919,270.7154171695709,0.005492653697729111,-0.0048097516410052785,0.990917146205902,0.13427601754665375,-0.005213200413993768,0.0157360643440492,0.022341593028556005,0.0032660719007253647,0.0014612139202654366,9.390094055561347e-05,-0.0744459913764149,0.1266163477767259,-9.809859082102776
6.3,0.30000001192092896,268.0,24.57399940490723,-0.039758868515491486,-79.78278874138411,40.45905698608039,270.7177505722046,0.005496653728187084,-0.004779726266860962,0.9909251928329468,0.13421747088432312,-0.0022347076112051475,0.010648949198823884,0.02107103661337977,0.006522866897284986,0.0019781875889748326,0.008000461384654045,-0.08068194637075067,0.12246529974974693,-9.809495970010758
6.4,0.30000001192092896,269.0,24.57274627685547,-0.04771064221858978,-79.7827887404421,40.459056975629785,270.7198462715149,0.005485367495566607,-0.004772638902068138,0.990919291973114,0.1342618763446808,-0.004010373666500607,0.010815241521470276,0.021032436572930985,0.002894390374422073,0.00028671123436652124,-0.0025015962310135365,-0.07729179468937218,0.13261713506653905,-9.809273191094398
6.6,0.30000001192092896,268.0,24.581512451171875,-0.039758868515491486,-79.78278884684244,40.45905676030318,270.72197558784484,0.0054954225197434425,-0.0047809453681111344,0.9909247756004332,0.1342204064130783,-0.002199228165134912,0.013885356174869013,0.02022949458529657,0.010885653086006641,0.001372201950289309,0.00995730422437191,-0.07669955397024751,0.11482067741453647,-9.811467651128767
6.7,0.30000001192092896,271.0,24.582763671875,-0.03180709481239319,-79.78278884681292,40.45905674697817,270.7239861717224,0.00549784954637289,-0.0047770971432328216,0.9909202456474304,0.13425381481647491,-0.004619925920017381,0.014201721032759662,0.02026654270069116,-0.008028203621506691,0.0018497933633625507,-0.006413515191525221,-0.07907913319766521,0.13635748928412794,-9.808316586613657
6.9,0.30000001192092896,269.0,24.57900810241699,-0.039758868515491486,-79.78278896194674,40.45905654712849,270.7288146247864,0.005496098659932613,-0.0047478508204221725,0.9909237623214722,0.13422909379005432,-0.0014521129681055256,0.01261070090166146,0.023249599587444155,0.0093317162245512,0.0011154033709317446,0.008662180043756962,-0.07869974940083921,0.10560210339725018,-9.811295742988587
7.01,0.20000000298023224,271.0,24.57024383544922,-0.04771064221858978,-79.78278906878731,40.45905637297661,270.72913315200805,0.0054837348870933065,-0.00473433593288064,0.9909321665763856,0.13416773080825806,-0.0027430955838558275,0.011501272524562192,0.022152413528381702,-0.007852427661418915,-0.004483394790440798,-0.006273042876273394,-0.07826711026020347,0.1363909280486405,-9.808513053059578
7.2,0.20000000298023224,271.0,24.58025932312012,-0.02385532110929489,-79.78278907079572,40.4590563511379,270.733495973587,0.0054696099832654,-0.004744057543575764,0.9909217953681946,0.1342450976371765,-0.001603506073652478,0.01178375723259296,0.021776199279381497,0.008957946673035622,0.0021810277830809355,0.004154292400926352,-0.07707500003278256,0.09597013123333456,-9.81101858496666
7.31,0.20000000298023224,274.0,24.571495056152344,-0.039758868515491486,-79.78278918148091,40.45905616105125,270.73386409187316,0.005468243733048439,-0.004741412587463857,0.9909333586692808,0.13415957987308502,-0.003810136192202561,0.013808188346614658,0.021076553874454,-0.008191176690161228,-0.005435142200440168,-0.005197102203965187,-0.07917713801376522,0.13343940890394151,-9.809920477867127
7.5,0.20000000298023224,276.0,24.582763671875,-0.015903547406196594,-79.7827892936067,40.45905596176651,270.7364623775482,0.005463920999318361,-0.00473051518201828,0.9909392595291138,0.1341167539358139,-0.0022320786758216644,0.015116213636166182,0.020398459764769405,0.006819286849349736,0.0034093048889189963,0.0007100327056832613,-0.07569249898195267,0.09221694968640803,-9.813089668750765
7.6,0.20000000298023224,276.0,24.57399940490723,-0.039758868515491486,-79.78278929470963,40.459055947463774,270.7384817829132,0.005477167200297117,-0.004737073555588722,0.990935444831848,0.13414378464221954,-0.004553235673843684,0.01562707306473,0.020452245520346104,-0.012092670425772669,-0.0015682093799114227,-0.006362991407513618,-0.08079168216325343,0.12808002462610604,-9.809749739170076
7.8,0.20000000298023224,275.0,24.57900810241699,-0.039758868515491486,-79.7827894131624,40.459055743154615,270.7411809196472,0.005462198983877897,-0.004734545946121216,0.9909399151802064,0.1341114044189453,-0.003049556295100524,0.016570753632802783,0.02003131915940865,0.005176255479454993,0.0021871444769203663,-0.0013894307194277644,-0.07570434872992338,0.12543988798744976,-9.809177881479263
7.9,0.20000000298023224,273.0,24.581512451171875,-0.05566241592168808,-79.78278941401938,40.459055727494935,270.7431571712494,0.00545956427231431,-0.004741609562188387,0.9909374713897704,0.13412973284721375,-0.005154826421408296,0.016988035238566204,0.01997368725229624,-0.010035350918769836,-0.006113528273999691,-0.0022031934931874275,-0.08052404413931072,0.1233542318455875,-9.809462056159974
8.1,0.20000000298023224,270.0,24.57900810241699,-0.03180709481239319,-79.78278951716398,40.45905557949227,270.74574615859984,0.005437579471617937,-0.0047369194217026225,0.990942120552063,0.13409607112407684,-0.0017041524403738015,0.008986710278451179,0.01970137457092053,-0.001100334571674466,-0.0012570637045428155,-0.0012575768632814288,-0.07625573202967642,0.09150679620914162,-9.813046399354937
8.2,0.20000000298023224,266.0,24.58025932312012,-0.05566241592168808,-79.7827895175582,40.459055570851895,270.74770023727416,0.005438918713480234,-0.004736038390547037,0.9909386038780212,0.13412170112133026,-0.0032759160354458024,0.009407758220361459,0.019629745422243668,-0.011251717805862428,-0.0033731216099113226,-0.004963359795510769,-0.07957261992618443,0.11882147940807045,-9.810073674917222
8.4,0.20000000298023224,263.0,24.57650375366211,-0.007951773703098297,-79.78278963401596,40.459055362236256,270.7502587070465,0.005407616961747408,-0.004743116907775402,0.9909423589706421,0.13409532606601715,-0.0039098318116338095,0.01529248780106696,0.01948707177417076,-0.003629821119830012,-0.0010482767829671502,-0.006128555629402399,-0.07653067450504751,0.09254390040412544,-9.810245583057405
8.5,0.20000000298023224,257.0,24.566486358642567,-0.04771064221858978,-79.78278975330953,40.45905522336617,270.75049450302123,0.005424636416137218,-0.004731944296509028,0.990950644016266,0.13403381407260895,-0.0015141917510862522,0.008700650818409138,0.019374977811153764,-0.0070947795175015935,0.0013240684056654572,-0.0007588040316477418,-0.07729026893153787,0.11068995759822428,-9.812072253227234
8.7,0.20000000298023224,254.0,24.585268020629893,-0.039758868515491486,-79.78278975608319,40.4590552071928,270.7543330421448,0.005409941542893647,-0.004734330344945192,0.9909442663192748,0.13408151268959045,-0.002225390058867596,0.009090966645636859,0.019196046285109573,-0.007213876117020845,0.001954419771209359,-0.009168789722025394,-0.07429048284888268,0.09754451232030988,-9.812404375076293
8.8,0.20000000298023224,251.0,24.582763671875,-0.039758868515491486,-79.78278987586765,40.45905502826368,270.7550740470886,0.005429306998848915,-0.004726353567093611,0.9909526705741882,0.1340187042951584,-0.001438455693479619,0.012330979912981259,0.01923915942011159,-0.003164549823850393,-0.0016447012312710285,0.001954855863004923,-0.07741341677494347,0.10008778617717326,-9.811618509292604
9.0,0.20000000298023224,249.0,24.57900810241699,-0.04771064221858978,-79.78279000767816,40.45905485554872,270.75922419929503,0.005406965967267753,-0.004728169646114111,0.9909580945968628,0.13397954404354095,0.00017453612493474323,0.014380136323958896,0.02215116680593076,-0.0099269961938262,0.0005878661177121103,-0.004628916271030903,-0.07413132894784212,0.10816706676967444,-9.810860710144043
9.1,0.20000000298023224,247.0,24.57900810241699,-0.039758868515491486,-79.78279001337059,40.459054843067776,270.76141312026976,0.005412356927990913,-0.004730179905891418,0.9909548163414,0.13400314748287198,0.0014815773072107527,0.014698011731690303,0.02187114683250092,0.003338368842378259,-0.00047394746798090637,0.003832049900665879,-0.07628930327016861,0.09432808689773084,-9.811792756319047
9.3,0.20000000298023224,247.0,24.57274627685547,-0.039758868515491486,-79.78279011225246,40.45905468846125,270.76462032699584,0.005392023827880621,-0.004714623559266329,0.9909597039222716,0.13396924734115598,-0.003196880345610207,0.01185191900792642,0.021290903056861887,-0.011370415799319744,-0.00486951507627964,-0.008519873023033142,-0.07487938425969333,0.11687487736344335,-9.810280666351321
9.4,0.20000000298023224,244.0,24.577754974365234,-0.07156596332788467,-79.78279011347416,40.459054677432796,270.7667210330963,0.005386404693126679,-0.004738161340355872,0.9909548759460448,0.13400401175022125,-0.0014290457212899296,0.012104351355646916,0.020952659847937424,0.0041898898780345925,9.507109643891454e-05,0.006059587933123112,-0.07494464466813952,0.09179810632020237,-9.813300168514251
9.6,0.20000000298023224,243.0,24.571495056152344,-0.039758868515491486,-79.7827902286828,40.459054527910546,270.772056602478,0.005383352283388375,-0.004716413095593453,0.9909589290618896,0.13397474586963656,-0.0024503677143915426,0.010608422193381765,0.02401706255769504,-0.009755308739840984,-0.003968544304370879,-0.00336965243332088,-0.07637695211917163,0.12084806953556836,-9.808474461436273
9.7,0.20000000298023224,244.0,24.584014892578125,-0.03180709481239319,-79.78279023029238,40.45905451813813,270.7744298210144,0.005379491019994021,-0.004728313535451889,0.9909555315971376,0.1339995265007019,-0.00047584813062961055,0.010720907362292113,0.0236749053536615,0.0031304873991757627,0.0024022366851568213,0.009838416241109371,-0.07662776112556458,0.09077601302415134,-9.812544708251954
9.9,0.20000000298023224,246.0,24.58025932312012,-0.07156596332788467,-79.78279034659728,40.459054394052266,270.77980163002013,0.00537061458453536,-0.004738442599773407,0.9909596443176272,0.13396906852722168,-0.0009739135876084072,0.006282120971354375,0.02575880948485076,-0.010126491077244282,-0.004145754501223564,-0.0022765942849218845,-0.07502030672505497,0.12675122659653426,-9.80972693502903
10.0,0.20000000298023224,251.0,24.577754974365234,-0.04771064221858978,-79.78279045534998,40.45905424109308,270.78206016922,0.005365002900362015,-0.004765375982969999,0.9909692406654358,0.13389749825000766,-8.403104873545218e-05,0.011626235846216335,0.026775506603978868,0.007607788313180208,0.0018525554332882168,0.01281746570020914,-0.07659576132427902,0.09071805249899627,-9.813092007637024
10.2,0.20000000298023224,251.0,24.57399940490723,-0.039758868515491486,-79.78279045908215,40.45905421915053,270.7873814334869,0.0053571201860904685,-0.004789766389876604,0.9909622073173524,0.13394902646541595,-0.002666353857926033,0.012432660872929107,0.02662734270092589,-0.008270402438938621,-0.002700594486668706,-0.0036683198995888225,-0.075009950757958,0.13141949739307165,-9.809478428363802
10.3,0.20000000298023224,252.0,24.57525062561035,-0.05566241592168808,-79.78279058597326,40.459054094399065,270.78951432609557,0.005352068692445755,-0.004779645707458258,0.9909693598747252,0.13389644026756287,0.003990660999346368,0.011017870452996906,0.02738934285496336,0.007943515665829182,0.0007566057611256838,0.010975014418363571,-0.07690616168081761,0.09326489863917233,-9.810489996671675
10.5,0.20000000298023224,250.0,24.577754974365234,-0.04771064221858978,-79.782790677057,40.459053950101705,270.79254939460753,0.005364601965993643,-0.0047747502103447905,0.9909753203392028,0.1338520646095276,-0.002629784871408416,0.012301411989858723,0.02464772375939477,-0.005867760628461839,-0.0010121357627213,-0.0011790316784754395,-0.07786579940468072,0.13541380349546672,-9.809276699423787
10.61,0.20000000298023224,247.0,24.57525062561035,-0.04771064221858978,-79.78279067820733,40.459053938634185,270.7949905624389,0.005356843117624521,-0.004798699636012316,0.9909704327583312,0.13388778269290924,-0.0009493030401075877,0.012379606685164872,0.024319463090031447,0.01096299197524786,-0.00035095243947580457,0.00637382734566927,-0.07326664452441037,0.10257057789713143,-9.811251304149627
10.8,0.20000000298023224,247.0,24.57900810241699,-0.04771064221858978,-79.7827907826759,40.45905379120962,270.7993891468048,0.005361404735594988,-0.004819341935217381,0.9909790754318236,0.13382315635681152,-0.0017220095262038405,0.014385739939028306,0.026092997037351105,0.0027868202887475486,0.002514129504561425,0.007003947161138058,-0.07900695662945509,0.13666127954609691,-9.80892118871212
10.9,0.20000000298023224,248.0,24.582763671875,-0.05566241592168808,-79.78279078469272,40.459053777892386,270.8019790878296,0.005336233414709568,-0.0048190588131546966,0.9909735321998596,0.13386495411396027,-0.0012635241223263268,0.014554258036458706,0.02595033994047101,0.007177817169576882,-8.911225449992344e-05,0.002967629116028548,-0.07592482987325637,0.11616592987440527,-9.808695486187936
11.1,0.20000000298023224,249.0,24.57525062561035,-0.04771064221858978,-79.78279088755062,40.459053654510754,270.8038261165619,0.005319015122950077,-0.004812504164874554,0.9909793138504028,0.13382327556610107,0.00019784390141593239,0.012666333698551007,0.02389127717620715,0.010134615935385229,-0.002591592259705067,0.008297582156956196,-0.08037544263526797,0.12906316998414696,-9.81004911661148
11.2,0.20000000298023224,252.0,24.48259925842285,0.9939717650413512,-79.78279089009871,40.45905364270776,270.80620505714415,0.005301014520227909,-0.004820318426936865,0.990991711616516,0.13373161852359772,-0.002814489057544225,0.012765616330117757,0.023867576839328337,-0.0015929769724607468,0.0052116336300969115,-0.027838017791509632,-0.07532195909880103,0.1351053080521524,-9.811757673025133
11.4,0.20000000298023224,253.0,24.545202255249023,0.278312087059021,-79.78279099291021,40.459053529148996,270.8074758281708,0.005316874478012322,-0.004819029476493597,0.9909824728965759,0.1337994784116745,0.000669195345590404,0.010628458960228288,0.022001487646515897,0.014369258657097816,-0.003953193780034781,-0.008888079784810543,-0.08002219771966339,0.13189055456779894,-9.811429059505462
11.5,0.20000000298023224,250.0,24.54895782470703,0.2465049922466278,-79.78279106715033,40.45905343399549,270.80386545562743,0.0053179068490862855,-0.004811652470380068,0.9909824728965759,0.13379955291748047,-0.002413340984964566,0.006587695090533235,0.016661829945796517,-0.00583288399502635,-0.003147596959024668,0.010643712244927885,-0.08752796695567668,0.15354358898475767,-9.808666834831238
11.7,0.30000001192092896,252.0,24.53643798828125,0.3101191818714142,-79.78279106482572,40.45905341986185,270.80713393592845,0.0053270095959305755,-0.004813345614820719,0.9909713864326476,0.13388174772262573,-0.0011642368807560125,0.007062300036749874,0.016088720863534318,0.005896441638469696,0.004641010891646147,0.0227305106818676,-0.06842416324652732,0.09053480624221266,-9.810720376968382
11.8,0.30000001192092896,255.0,24.55021095275879,0.2862638533115387,-79.78279115168677,40.459053305277855,270.8039448490144,0.005321810953319073,-0.0047997902147471905,0.9909869432449341,0.13376711308956146,-0.004637428880085982,0.010680105151186177,0.013694041588109513,-0.0074305604211986065,-0.0044210245832800865,-0.023872189223766327,-0.08048050065524877,0.13481710427440705,-9.813376182317734
12.0,0.30000001192092896,256.0,24.53894233703613,0.3339745104312897,-79.78279121972392,40.4590532099193,270.80227472686767,0.005300648044794798,-0.004790100269019604,0.9909901022911072,0.1337444931268692,-0.0017599950506352222,0.00881533918555048,0.012227448399902158,0.008393675088882445,0.0018983444897457962,-0.00680296728387475,-0.07023377599194648,0.10036341844126584,-9.813777301311491
12.11,0.30000001192092896,259.0,24.525169372558594,0.3578298389911652,-79.7827912200802,40.45905320099874,270.8034742107391,0.005314072594046593,-0.004792621824890375,0.990977942943573,0.133834108710289,-0.003055007414594757,0.009670143064740679,0.012103525097710968,-0.006173234432935715,-0.0064665782265365115,0.0011980507988482716,-0.08434085070155561,0.12172141514718532,-9.809005388617516
12.3,0.4000000059604645,262.0,22.97513008117676,28.538917541503906,-79.78279129149958,40.45905311317375,270.8024499645233,0.005311965476721525,-0.004805734381079675,0.9909780025482178,0.13383348286151886,0.0015155325150838636,0.008676533360405797,0.014724908992745957,0.010402699932456015,-0.005812919232994318,0.013190513476729393,-0.08259890120476485,0.10175067035481336,-9.813005468845368
12.4,0.4000000059604645,264.0,24.199636459350586,2.298062562942505,-79.78279129263238,40.45905310613724,270.8040366401672,0.005248160101473332,-0.004813468549400568,0.9909734725952148,0.13386937975883484,-0.0034127176958265192,0.008752781277861945,0.015090946361053069,-0.013679691590368748,-0.003499025478959084,-0.0016284582670778036,-0.08313021210953593,0.10379665679298344,-9.795382545590401
12.6,0.5,265.0,24.54645347595215,0.22264966368675232,-79.78279136149945,40.459053042513524,270.8003301849365,0.005284027196466923,-0.004787229001522064,0.990972936153412,0.13387279212474826,-0.0002766614440936724,0.005760576743433052,0.010065359253405586,0.0027544517070055012,-0.02168484590947628,-0.0024393848143517967,-0.0717521471483633,0.0849308804422617,-9.789303195476533
12.7,0.5,269.0,22.70343589782715,18.686668395996094,-79.78279136288663,40.45905303947809,270.8014345397949,0.005324641242623329,-0.004818333312869072,0.9909653663635254,0.13392587006092072,0.0006059269948949478,0.0035794113572487547,0.012282282537680666,0.0014902864350005984,0.022159986197948456,-0.011429897509515284,-0.07182475768961012,0.15514229083433748,-9.815706882476807
12.9,0.5,271.0,24.5001277923584,0.44529932737350464,-79.78279143373119,40.45905295975562,270.79697015190123,0.005271064583212136,-0.00481112627312541,0.990973174571991,0.13387061655521393,0.002681922191636245,0.004645477620745679,0.009100289166282064,0.03576299175620079,-0.03424783796072006,-0.02805688418447972,-0.10897130560129882,0.11010250428691506,-9.777487142086027
13.0,0.5,274.0,24.53017807006836,0.2306014448404312,-79.78279149164415,40.459052879190935,270.79066564941405,0.005294481758028269,-0.004853337537497282,0.9909963607788086,0.1336963176727295,6.919295453263978e-05,0.009757060701523296,0.008960825393583505,0.011968351900577543,0.003764328546822071,-0.028236852958798405,-0.05625269050709904,0.09873338830657304,-9.820494582653048
13.2,0.5,275.0,24.412485122680664,2.154930830001831,-79.78279149578955,40.45905286496336,270.792573474884,0.0053152102045714855,-0.004787994083017111,0.9909950494766236,0.13370749354362488,0.00048473997069533085,0.0077044143347885065,0.0090194469266072,0.007153323851525784,0.038523059338331216,0.020639633759856224,-0.09169219862669707,0.14362762486562133,-9.790407734513282
13.3,0.5,275.0,24.242206573486328,3.999742269515991,-79.78279154681724,40.45905282378353,270.782367729187,0.005341554060578346,-0.004753170069307089,0.9910046458244324,0.1336366832256317,0.0019843345750525285,0.002476531151245168,0.005168004376091786,0.00846383534371853,-0.00121862452942878,0.019351709634065628,-0.08052559730596841,0.08372481912374496,-9.802533105611802
13.5,0.5,275.0,24.01934051513672,5.78093957901001,-79.78279160481316,40.45905277994189,270.7752080192566,0.005302689969539642,-0.0047815837897360325,0.9909955859184264,0.13370466232299805,-0.0007719920283380638,-0.005184915432018756,0.007750021541362516,-0.011089983396232128,0.02940769121050835,0.0032222706358879805,-0.11321918900124728,0.18426443975418808,-9.832226436138154
13.6,0.5,279.0,23.931697845458984,7.19635534286499,-79.7827916051596,40.459052780644534,270.7759163608551,0.00535120815038681,-0.004767517093569039,0.9909839630126952,0.13378901779651642,-0.00018295339737861905,-0.0038310787562515656,0.0064632277011214346,-0.020574277266860008,0.0322098582983017,0.027247039601206783,-0.07647291497793049,0.10283577653579416,-9.84267424106598
13.8,0.5,277.0,23.62244033813477,9.41490077972412,-79.78279166767544,40.45905269950981,270.7669265499115,0.005376054905354978,-0.004664957523345947,0.9909820556640624,0.13380587100982666,0.002200312320641461,0.004265745765483661,0.00810420769533025,0.016520395874977112,-0.010669350624084473,-0.019330069422721863,-0.05219601105898618,0.0967886683344841,-9.749152119755744
13.9,0.5,278.0,23.533544540405273,11.11658000946045,-79.78279166936127,40.45905269393385,270.7676542034149,0.005467252340167761,-0.004529168829321861,0.9909693598747252,0.13390037417411804,0.011289442735471774,0.00608653727015105,0.0058382902675892644,0.1834805011749268,0.10380356013774872,-0.14304372668266296,-0.13997143400833012,-0.002054017223417759,-9.693086677193644
14.1,0.6000000238418579,281.0,23.254337310791016,14.066688537597654,-79.78279172550059,40.45905265708147,270.758309387207,0.005067480728030205,-0.003364782314747572,0.9909687042236328,0.1339559257030487,-0.00021711205575591003,-0.007247279529191688,0.006981226466660297,0.08151359111070633,-0.06509725749492645,-0.05006497353315354,-0.11435978891327978,0.4073608233779669,-9.767928698658944
14.2,0.6000000238418579,277.0,23.0715389251709,15.736560821533205,-79.78279172747736,40.45905266120117,270.75973298454284,0.004817561246454716,-0.002232782542705536,0.9909642338752748,0.13402149081230166,0.010871855483989184,-0.0022350420787431613,0.016823865345799396,0.0861053317785263,0.014433260075747969,-0.1706470549106598,0.0017005850141867994,0.5291998406499625,-9.90461028814316
14.4,0.6000000238418579,278.0,22.76854133605957,19.13991928100586,-79.78279173195159,40.45905260401384,270.7472808589935,0.0038753475528210397,0.0011151900980621576,0.9909487962722778,0.1341799944639206,-0.0005015447389193098,-0.004698659401898103,0.01254222243563752,0.037880510091781616,0.022303560748696327,0.009951919317245485,-0.09450806236825884,0.06145073731429875,-9.791132789254187
14.5,0.6000000238418579,277.0,22.61579132080078,20.80183982849121,-79.7827918102099,40.45905259026559,270.73324491882323,0.003151599317789077,0.0023228342179209,0.9909527897834778,0.134153813123703,0.003510113196952843,-0.0024938617198611546,0.010361697478099893,0.009862245991826056,0.09053998440504074,-0.08347001671791078,0.0989085124153644,0.08177562237717212,-9.975163961648944
14.7,0.699999988079071,280.0,22.296518325805664,24.491464614868164,-79.78279181259776,40.45905261347385,270.738132976532,0.0008310939301736653,0.009565482847392559,0.99110209941864,0.13275712728500366,0.003434031726756766,-0.020067068250938274,0.05182205042009348,0.0142492251470685,0.18826207518577576,0.003490356029942632,-0.06840755806770175,0.11038159919902683,-9.989902453422546
14.8,0.8000000119209291,288.0,22.145021438598643,26.01025199890137,-79.78279183728942,40.45905253585817,270.7238540878296,-0.0004949033609591423,0.01878020353615284,0.9912113547325134,0.13094750046730042,-0.010995101634431102,-0.027759033923908258,0.11453296147331796,0.008217886090278625,0.16000133752822876,-0.012327073141932487,0.12672908026725055,-0.09157281492836772,-10.563554069995881
15.0,0.8000000119209291,293.0,22.491838455200195,21.6129207611084,-79.78279185754478,40.45905243739014,270.7448578109741,0.00030675361631438136,0.02734089642763137,0.9912011623382568,0.1295093148946762,-0.016313023204553734,-0.05079551014907175,0.275058566059512,0.02220041863620281,-0.1230498105287552,0.085722416639328,0.13149174705147745,-0.2397611675038934,-10.883396766185761
15.1,0.8000000119209291,290.0,22.4567813873291,21.469789505004886,-79.78279181588933,40.45905249622749,270.772921585083,0.0013644543942064047,0.017000067979097366,0.9913992881774902,0.12975630164146426,-0.023791210072732768,-0.07360578491518797,0.2917823071167913,-0.0531323291361332,-0.17430615425109866,0.002352022100239992,0.2035708129405976,0.09076535099186003,-10.200025656223296
15.3,0.8999999761581421,293.0,22.471805572509766,21.15966987609864,-79.78279175881048,40.45905289364666,270.79779603385924,-0.002345335902646184,-0.0008197695715352893,0.9914807677268982,0.13022935390472412,-0.002921647518620381,-0.09195902394191773,0.21279835258074808,0.050724852830171585,-0.1067008525133133,0.04599301889538765,0.1516449158359319,0.001082074079895392,-9.746182903647425
15.4,0.8999999761581421,299.0,22.632068634033203,19.195581436157227,-79.7827917287029,40.459052968142096,270.8177476158142,-0.005064280703663826,-0.0026630738284438853,0.991441249847412,0.130428284406662,-0.00816499767941854,-0.07528838831765472,0.1802507193350151,0.0170852430164814,-0.02824786677956581,-0.0180722214281559,0.11761436741799115,-0.16441409278661012,-9.487094532251355
15.6,1.0,302.0,22.42422866821289,21.87532997131348,-79.78279159084227,40.45905297452319,270.81914689445495,-0.0027881162241101265,-0.000497985805850476,0.9915462732315063,0.1297227293252945,-0.037404770414943,-0.029192157338904283,0.015615251447503913,-0.09225119650363922,0.03863396495580673,0.03645654022693634,0.1729117416590452,-0.3051688892394304,-9.03951356291771
15.71,1.0,306.0,22.207622528076172,24.403993606567386,-79.78279155290213,40.45905298686511,270.8181078662872,-0.0017069136956706645,0.0026313299313187604,0.9915846586227416,0.12942212820053098,-0.0255752636307624,-0.007670320933279956,-0.03426194342852176,0.016186432912945747,-0.002172538312152028,0.02491151727735996,0.06888532583601772,0.0181051312526688,-9.317642807364463
15.9,0.8999999761581421,306.0,22.14627265930176,24.3801383972168,-79.78279135684951,40.459053093970304,270.8176186313629,-0.0035675629042088985,0.006809308193624021,0.9915862679481506,0.12921948730945587,-0.010232403844683016,-0.022340071669474992,-0.006585777857798146,0.04134655371308327,0.0938916876912117,-0.02434527687728405,0.08406141774728895,0.054273682096973065,-9.635393954515457
16.0,1.0,309.0,22.312795639038086,22.654603958129893,-79.78279127628839,40.45905319159456,270.8157723178864,-0.0009459055727347733,0.009166316129267216,0.9915799498558044,0.12916791439056394,-0.024327607914376246,0.0039046187782360853,0.04029284202322734,-0.003708359319716692,0.016584007069468498,-0.06479715555906296,0.16775162866339088,-0.09192590452730656,-9.845656321048738
16.2,1.0,314.0,22.18258285522461,24.252910614013672,-79.78279120718099,40.459053151399715,270.8213262786865,-0.0007850148249417543,0.008553575724363327,0.9915547966957092,0.12940403819084167,-0.0462873305674121,0.02612774274275803,0.035283395444637766,-0.018175961449742317,-0.017451001331210136,-0.024047715589404103,0.3077630064636469,-0.10166679935529828,-9.774023836255076
16.3,1.0,306.0,22.15253257751465,24.491464614868164,-79.78279117391186,40.45905315193863,270.81824424171447,-0.003042935626581311,0.009166236966848372,0.991446018218994,0.13015951216220856,-0.04598601533761538,0.017420416549578183,0.07011601805356918,-0.056522771716117866,-0.02902513369917869,-0.032265543937683105,0.20141450598835947,-0.015378757319413124,-9.905601975917817
16.5,0.8999999761581421,306.0,22.140012741088867,23.96664619445801,-79.78279113914805,40.45905315257202,270.814633392334,-0.005036870017647743,0.008080024272203445,0.9913124442100524,0.1311837136745453,-0.02311642268464164,0.016900355353682756,0.08261522559068249,0.00746594276279211,0.004731202498078346,-0.008756175637245178,0.17573596509173514,-0.07472046333365143,-9.856916888952256
16.6,0.8999999761581421,310.0,22.129995346069336,24.252910614013672,-79.78279111264125,40.45905312756719,270.82295920753484,-0.0038934673648327593,0.006747369654476643,0.9913300275802612,0.13116510212421414,-0.03012780664999032,0.025285152789406764,0.08208978134073662,-0.02832655422389508,-0.019562510773539543,0.048648104071617126,0.12946977074258031,-0.20033786913380028,-9.760819069147107
16.8,0.8999999761581421,318.0,22.107460021972656,25.159412384033203,-79.78279111614714,40.4590530707309,270.81292917633056,-0.007292255759239197,0.007403485942631959,0.9913137555122375,0.1311071515083313,-0.009653464520932116,0.042859875110975,-0.04899366178270835,0.14361226558685306,0.0028210433665663004,-0.0060319658368825895,0.15242164534516633,-0.0079112096875906,-9.549659739732745
16.9,1.0,320.0,21.962221145629886,27.012176513671875,-79.78279111915201,40.45905303077225,270.8054995765686,-0.010695070959627628,0.010046187788248062,0.991236686706543,0.13128048181533813,-0.012700787477998026,0.043707813006140885,-0.08830180399123473,-0.03942809626460075,0.037487924098968506,0.05729382485151292,0.18566598080098629,-0.04244731385260821,-9.469229534268381
17.1,1.0,319.0,21.606639862060547,31.441314697265625,-79.78279127788849,40.459053030624105,270.7963829269409,-0.007939673028886318,0.015487819910049437,0.9911156892776488,0.1318594068288803,0.0040152875938346865,0.0537213858543942,0.01882525319666978,-0.13803094625473022,-0.009608954191207886,-0.06894540786743164,0.2675111759081483,-0.19026011986657976,-9.806978743672367
17.21,0.8999999761581421,319.0,21.410066604614254,32.872634887695305,-79.78279130387105,40.459052997012186,270.80383565330504,-0.003158806823194027,0.01572748646140099,0.9910789728164672,0.1323072910308838,0.02585953373227842,0.04469276041069389,0.13148343364228712,0.03639763221144676,-0.024338293820619583,0.02647961489856243,0.3664608289673925,-0.3204387101903558,-10.828720622062683
17.4,0.8999999761581421,322.0,21.08077812194824,37.14273452758789,-79.78279147271205,40.45905302122152,270.8385210266113,-0.001989880343899131,0.01592620462179184,0.9909703731536864,0.13311684131622314,0.021983386429304003,0.033249408575964264,0.4705492070429,0.08369067311286926,-0.007275510113686323,0.03824466466903687,0.2765402818657458,0.06953326585236938,-11.274964917898181
17.5,1.100000023841858,321.0,21.093297958374023,35.32973098754883,-79.78279143810072,40.45905303072984,270.87413909339904,-0.0049023465253412715,0.013660634867846966,0.990949809551239,0.13344676792621613,0.021563985602187728,0.04323414975944108,0.6659953616526115,0.04331036657094955,-0.10871298611164093,0.13193278014659882,0.2636018371582031,0.021700611566193403,-11.953717896938324
17.7,1.2000000476837158,319.0,20.68012237548828,41.22199630737305,-79.78279152109258,40.45905301719952,271.0570919742584,-0.008147100917994976,0.012228545732796192,0.9910290241241456,0.13283658027648926,0.014663847012008357,0.036661820003289824,1.1888217396471497,-0.1213303953409195,0.04655111581087112,-0.016845289617776867,0.23881355311721564,0.02629999028518796,-12.165956622362135
17.8,1.2999999523162842,316.0,20.628787994384766,42.335243225097656,-79.78279152570316,40.459053069231175,271.16312410736083,-0.004099562764167786,0.015081207267940044,0.9911248683929444,0.1320127248764038,0.025125013617794026,0.03666231649806795,1.4610721091352046,-0.05372362211346626,0.077416330575943,0.04360169917345047,0.3824470069259405,-0.2079141247272492,-12.725833368301391
18.0,1.399999976158142,316.0,20.6337947845459,41.84223556518555,-79.7827915746536,40.45905315173788,271.477324508667,0.004051045048981905,0.014607488177716732,0.9914645552635192,0.12949284911155698,0.04680386872712576,0.05910189546269463,1.9742266302777327,-0.008660857565701008,-0.03129468485713005,0.07087905704975128,0.4130002436041832,-0.14491782213561238,-12.73500648021698
18.1,1.7000000476837158,306.0,20.63629913330078,41.60367965698242,-79.78279162287178,40.45905316926337,271.688173078537,0.0052138674072921285,0.009635325521230698,0.9916887283325196,0.12819334864616394,0.05192953354062527,0.055403674825501126,2.2345996863418645,-0.011254980228841305,-0.0755966380238533,0.0802227184176445,0.3186511432752013,-0.097484176363796,-12.466607587337494
18.3,1.7999999523162842,302.0,20.713926315307614,38.74899291992188,-79.7827916183603,40.45905330304543,272.10352136993407,0.004760661162436009,0.0014197089476510882,0.9919047355651855,0.12688708305358887,0.049823259633406274,0.03740438119435713,2.6582894378160282,0.0840606540441513,-0.04596728459000588,-0.04686286672949791,0.20866540057584645,-0.06985604586079718,-12.382671976089478
18.4,2.0,299.0,20.805326461791992,38.08899688720703,-79.78279164380669,40.459053281634795,272.3797469367981,0.0037970354314893493,-0.003500437131151557,0.991737186908722,0.12818293273448944,0.036267871917969034,0.049129285766867474,2.86180341369965,0.010510453954339027,-0.06726735085248947,-0.03198064118623733,0.2057292395085097,0.10747218914330006,-11.932919350862505
18.6,2.0999999046325684,299.0,21.20723533630371,33.254318237304695,-79.78279164306038,40.45905335948772,272.8290786972046,0.0038081791717559104,0.0007301061414182186,0.9911863207817078,0.13241910934448242,-0.005704215028997,0.04786676238011095,3.06241132205774,-0.2056496441364289,0.16858740150928495,0.029347693547606468,0.18217537578195334,-0.031672923658043146,-11.752148001194
18.71,2.200000047683716,300.0,21.378765106201172,31.31408500671387,-79.7827916469043,40.45905328587421,273.1395912399292,0.010007064789533615,0.009306126274168491,0.9909124374389648,0.13381311297416687,-0.024673390632178518,0.09440955755126404,3.1376473507873817,-0.22475656867027285,0.1557629108428955,0.03806469589471817,0.2576131554320455,-0.052178222732618455,-10.712260458469393
18.9,2.299999952316284,303.0,21.70805549621582,27.05988693237305,-79.78279162015293,40.45905336195256,273.5844974746704,0.020545441657304764,0.019004881381988525,0.9903366565704346,0.13583116233348844,0.02999019957127158,0.18015689224991133,3.051791587503983,-0.016085652634501457,0.014787726104259491,0.0030841585248708725,0.3029486100934446,-0.07234322299249471,-10.275494499206543
19.0,2.0999999046325684,295.0,21.642948150634766,28.13337707519531,-79.78279156103055,40.45905350100353,273.7610507240296,0.020905043929815292,0.017985859885811806,0.9902987480163574,0.13619107007980347,0.03628994203883114,0.16346677949340813,2.910299169883154,0.062018685042858124,0.009781260974705221,-0.012110327370464802,0.2707234169170261,0.05326893858611584,-9.545647380352019
19.2,2.0999999046325684,293.0,21.5991268157959,27.25868034362793,-79.78279131233609,40.4590533851839,274.3349900474548,0.0261065736413002,0.011172458529472351,0.9904015064239502,0.13527189195156095,-0.043011247138770886,0.11657731095343365,2.833442415598433,-0.0036880625411868095,-0.013502119109034538,-0.031497057527303696,0.17848375445231796,0.03123186772456393,-9.438345710635184
19.31,1.7999999523162842,294.0,21.624168395996094,28.29241180419922,-79.78279127993974,40.45905347806689,274.5358987083435,0.026708144694566727,0.009746096096932888,0.9904400110244752,0.13498316705226898,-0.05073822670077551,0.090558212880913,2.7359462276430886,-0.008704273030161858,0.07024194300174713,-0.017291029915213585,0.15457043314352634,0.203599592205137,-9.409879710674288
19.51,1.7000000476837158,291.0,21.557809829711914,28.79337310791016,-79.78279112933237,40.45905317613831,275.03159143829345,0.01750921458005905,0.014867699705064297,0.99058198928833,0.13498109579086304,-0.0846558645714231,0.1073884975139831,2.6010116089322124,0.15008898079395294,0.07482638955116272,0.03301896899938584,0.16934068260714413,0.173369852732867,-9.435681134462355
19.6,1.399999976158142,292.0,21.629175186157227,28.83313179016113,-79.78279090395013,40.45905309908893,275.2893176307678,0.011856066063046455,0.019992990419268608,0.9905490875244141,0.13517533242702484,-0.1505756053037701,0.10985048779906742,2.5605673556740007,0.013196749612689018,0.1114734336733818,0.019177060574293137,0.22226591454818845,0.23225590076297525,-9.407139705419539
19.8,1.2000000476837158,290.0,21.480182647705078,29.461322784423828,-79.78279010912638,40.459052625192044,276.04954054260253,0.005145078990608454,0.02234726399183273,0.9903111457824708,0.1369602382183075,-0.2244367982302704,0.1654478630038525,2.596512964208167,0.06894019991159439,-0.01608569175004959,-0.009943263605237007,0.2400246028415859,0.1914132456108928,-9.446124846339227
19.91,1.100000023841858,295.0,21.64795684814453,26.98036956787109,-79.78278983713378,40.45905253291133,276.30820276641845,0.002416951349005103,0.021798443049192432,0.9902833700180054,0.13732433319091794,-0.2450998520944772,0.14213397722891724,2.5711744251912423,0.0034746427554637194,-0.007801268249750137,-0.02775505743920803,0.1843818591535092,0.13976712863892318,-9.552165271639824
20.1,1.0,304.0,21.554052352905273,28.228797912597656,-79.78278888559423,40.459052312018706,276.98062422180175,-0.0016607852885499597,0.021488217636942863,0.9900373220443726,0.13914646208286285,-0.26910172477399674,0.11235973949612274,2.5500144767696646,0.013996261171996592,0.011738316155970095,-0.0489339604973793,0.1770779741741717,-0.10947922764346003,-9.41026913523674
20.2,0.8999999761581421,109.0,21.560312271118164,29.03192710876465,-79.78278860915792,40.459052255870034,277.2340212097168,-0.00220808875747025,0.02115998975932598,0.990020215511322,0.13931070268154144,-0.2591155464239557,0.09464692997743926,2.5102683163016435,0.010798749513924122,-0.035131074488162994,-0.04211317375302315,0.2289415710233152,0.04493432653136552,-9.407430312037468
20.4,0.8999999761581421,109.0,21.537776947021484,27.67217254638672,-79.78278753916244,40.45905222042399,277.8738508453369,-0.007192881777882577,0.019654864445328712,0.989989161491394,0.13958317041397095,-0.2505707914446267,0.06329421717744353,2.5207648031113643,0.0446939691901207,-0.0034623588435351853,-0.02534417994320393,0.2425896118953824,0.01978237308561802,-9.477195196151731
20.5,0.8000000119209291,103.0,21.561565399169922,28.268556594848643,-79.78278683582477,40.45905220630161,278.2516308059692,-0.009696435183286669,0.018580934032797813,0.9899135828018188,0.14011409878730774,-0.2532874193665759,0.05098730939051144,2.554770059468064,0.11456822603940965,-0.035389456897974014,0.015170057304203509,0.23491702342405915,-0.04461484471801669,-9.574957718253136
20.6,0.8999999761581421,98.0,21.574085235595703,27.7596435546875,-79.7827865996063,40.45905219890278,278.50654985809325,-0.010763333179056644,0.01813122071325779,0.9898751378059388,0.14036652445793152,-0.2565276609971652,0.03249976481448108,2.5332143415722688,-0.05335167422890663,0.03704622760415077,0.009300251491367815,0.2183290756121278,0.2286353779211641,-9.563960859775543
20.8,0.8999999761581421,109.0,21.534019470214844,28.10951995849609,-79.78278570878231,40.459052180330055,279.1343765487671,-0.009259885177016258,0.014904709532856941,0.9898685812950134,0.14089840650558472,-0.22333679129135056,0.023072113415559942,2.543541367766066,-0.0826381966471672,0.03454472869634628,0.00899602472782135,0.2213889966532588,0.2259499710425735,-9.561870480179786
21.0,0.8999999761581421,114.0,21.560312271118164,28.061809539794922,-79.78278495775399,40.459052274622046,279.76017095947265,-0.008037947118282318,0.013644879683852196,0.9899529218673706,0.14050805568695068,-0.16962816994199084,0.002553486895366079,2.5795728180478865,0.044655922800302505,0.03828803822398186,-0.016353391110897064,0.1915110768377781,0.1912190815061331,-9.651014206409457
21.1,1.0,112.0,21.48894691467285,29.381805419921875,-79.78278481329926,40.45905229760003,280.01739599609374,-0.007576835807412863,0.01313684694468975,0.990044355392456,0.1399364173412323,-0.16558088046965347,0.006552137781345155,2.5613521829069104,-0.14211393892765045,-0.03334490582346916,-0.09568595141172408,0.16577766347676515,0.27189222050830725,-9.60563981294632
21.3,1.100000023841858,114.0,21.383773803710934,29.69987487792969,-79.78278410850842,40.45905245823662,280.670569442749,-0.007615783717483281,0.011577856726944448,0.9901054501533508,0.13963939249515533,-0.13474002466495402,8.507097018023782e-05,2.6413164527517323,-0.06801996380090714,-0.007377364672720431,-0.0753631517291069,0.24296569749712946,-0.10808667669072748,-9.76184993326664
21.4,1.100000023841858,120.0,21.395042419433594,29.2863826751709,-79.78278401142343,40.459052494506075,280.9349098434448,-0.007471080869436264,0.01077029760926962,0.9901124238967896,0.1396624892950058,-0.08900080021176285,-0.005260230568373332,2.6456753112967304,0.1506257802248001,-0.03697172924876213,0.039007827639579766,0.28955947296693924,-0.28664677385240794,-9.868959814310074
21.6,1.2000000476837158,125.0,21.41257095336914,28.713855743408203,-79.78278357888223,40.45905285085332,281.31309225463866,-0.007033715955913067,0.010722015053033829,0.9900671243667604,0.1400097906589508,-0.08071140757139929,-0.030123428660805376,2.732724278545767,-0.08791450411081314,0.014947326853871347,-0.006834100466221571,0.1890163074620068,0.13463889210484922,-9.872249457836153
21.7,1.2000000476837158,135.0,21.39629364013672,29.143251419067386,-79.78278351533741,40.459052989198454,281.85842134857177,-0.00736106326803565,0.00962919183075428,0.989991307258606,0.14060711860656738,-0.04114614953048162,-0.02710504972351665,2.7192763972091742,-0.09080802649259567,-0.006198766175657511,0.04516790062189102,0.20724235273897648,0.11105548166669904,-9.749161475300788
21.9,1.100000023841858,145.0,21.38502693176269,29.397708892822266,-79.78278291785932,40.45905306953392,282.50636389160155,-0.0048090508207678795,0.007241131737828255,0.9900097846984864,0.1407306343317032,-0.04983002858777665,-0.017854606986635088,2.7742627964073203,-0.050131745636463165,0.018790051341056824,0.007052221801131964,0.17497474897652865,-0.17911205604672434,-9.772381938099864
22.0,1.2000000476837158,159.0,21.35247230529785,29.42951583862305,-79.78278289936729,40.45905311701807,282.7836256256104,-0.0035233695525676008,0.005505347624421121,0.9899917840957642,0.14097383618354795,-0.018569374783507724,-0.013181721814708391,2.7732298013057908,0.024918684735894203,-0.10954904556274414,0.018930688500404358,0.1893817949853837,-0.19665408672764892,-9.825134932994844
22.2,1.2000000476837158,169.0,21.37250518798828,29.278430938720703,-79.78278276417349,40.459053619052355,283.38396742248534,-0.00314910220913589,0.004285021219402553,0.9898719787597656,0.1418633908033371,0.011311592674698176,-0.03970438865502527,2.805801552967083,-0.00017033613403327763,-0.059655886143445976,0.0328754223883152,0.2002874917164445,0.011868495605885985,-9.797011579871178
22.3,1.2999999523162842,193.0,21.38627815246582,28.499156951904297,-79.78278254463194,40.45905379763098,283.6674747695924,-0.003334640990942717,0.0048878896050155145,0.989818811416626,0.1422104835510254,-0.0009107015052549107,-0.033454589487485316,2.8109044361529603,0.0045130522921681395,0.11916343122720716,0.037502851337194436,0.18343797236680984,0.21888141822069884,-9.836387314796447
22.4,1.399999976158142,203.0,21.390033721923828,29.56469535827637,-79.78278255609723,40.459053844947135,283.9486112823486,-0.003149837953969836,0.005941262003034353,0.9897795915603638,0.14244718849658966,0.005590436272192389,-0.01992158089608631,2.807338353310228,-0.016240328550338745,-0.051355373114347465,0.0700366422533989,0.1801673322916031,-0.051721418146044015,-9.841265062093736
22.6,1.399999976158142,223.0,21.3599853515625,29.683971405029297,-79.7827823999234,40.45905408072166,284.50971891784667,-0.0022376291453838357,0.007817653007805347,0.9896809458732604,0.1430579423904419,0.006594382490331272,0.008735225946043944,2.815124871572777,0.0345541350543499,-0.07042538374662399,-0.019904395565390587,0.1728381215594709,-0.08400205937214196,-9.86759624361992
22.8,1.399999976158142,231.0,21.362489700317386,29.07963752746582,-79.78278240493647,40.45905451086546,285.07111837768554,-0.005448656156659125,0.011972073465585709,0.9895366430282592,0.14368103444576266,0.038045906652360524,-0.006115251133976853,2.8175030181826473,0.06163229793310165,-0.004784810822457075,-0.005082421936094761,0.15163466493599118,0.06316797318868339,-9.867475790977476
22.9,1.600000023841858,232.0,21.20723533630371,31.02782249450684,-79.78278246149988,40.45905457899857,285.3525362243652,-0.006384160369634628,0.012592189013957977,0.9894622564315796,0.14410142600536344,0.043674623501999583,0.0017020954915135179,2.8167192983375604,0.10313475131988524,0.008539693430066109,0.030819283798336983,0.2382648650184274,-0.14191823705099524,-9.821861661672592
23.0,1.7000000476837158,234.0,21.33369255065918,29.071685791015625,-79.78278252833431,40.45905464989979,285.63506033325194,-0.005372816696763039,0.011271344497799872,0.9893837571144104,0.14478948712348938,0.035893882291067096,0.008252025750553102,2.8366934687329524,-0.07785501331090927,-0.07679150253534317,0.007930431514978409,0.2201667093113065,-0.10897404648363593,-9.940002315044405
23.2,1.7000000476837158,244.0,21.30739974975586,29.09554100036621,-79.78278270271805,40.459054989454216,286.1862993469238,-0.0012941634049639106,0.0057061826810240746,0.9892898201942444,0.145847886800766,0.08061264050525521,-0.008990049525261667,2.8300669024170224,-0.02186164632439613,-0.12839683890342712,0.06318160146474837,0.22546227671206,-0.12644055671989918,-9.869467352628707
23.4,1.7999999523162842,249.0,21.332439422607425,28.061809539794922,-79.78278268952545,40.459055225298535,286.4559393157959,-0.0007415834115818143,0.0039948876947164536,0.989246904850006,0.14619867503643036,0.07050782037370408,-0.011898327650513407,2.8216463732239427,-0.1549995243549347,0.06920164823532103,0.017842924222350117,0.1292810884024948,0.30492199055850505,-9.822380894422533
23.5,1.7999999523162842,250.0,21.232275009155273,29.707826614379893,-79.7827829213373,40.459055545239465,287.01124098205565,-0.00018159164756070825,0.005740467458963394,0.989223301410675,0.14630228281021118,0.08956775553019028,-0.0268093625808793,2.7960506409732098,-0.1530964821577072,0.08429286628961563,-0.02147895097732544,0.09851953553035857,0.2730591785721481,-9.722007005810738
23.7,2.0,243.0,21.288618087768555,29.6760196685791,-79.78278314093656,40.45905568170213,287.56947996520995,0.001375043299049139,0.008090709336102009,0.989118993282318,0.146888867020607,0.09321648880688352,-6.975110344072111e-05,2.7920350228094954,-0.12527242302894592,0.02305088005959988,-0.017244141548871994,0.20843248039484025,-0.10097900234162807,-9.76638386428356
23.81,2.299999952316284,244.0,21.2235107421875,29.898670196533203,-79.7827831474438,40.45905566973595,287.8225870361328,0.0017648868961259727,0.008484242483973503,0.9891091585159302,0.14692874252796173,0.09719007736268004,0.03469270491305035,2.768770799821246,0.02718818373978138,0.01059158518910408,0.0956980362534523,0.14814845446497202,-0.14747448063455526,-9.875892273187636
24.0,2.299999952316284,246.0,21.801958084106445,23.354360580444336,-79.78278323917807,40.45905569904996,288.1003256072998,0.0031161310616880647,0.008245735429227352,0.98916894197464,0.14651700854301453,0.07650642775681371,0.03933979800137002,2.778826295344275,-0.11010339111089706,-0.06363102793693542,0.00011697794980136678,0.1167212509084493,-0.08333196845836938,-9.870848464965821
24.1,2.4000000953674316,240.0,21.811975479125977,22.121835708618164,-79.78278340597818,40.4590559431962,288.62596228027337,0.0022727318573743105,0.004162376746535301,0.9896858930587769,0.14317579567432406,0.08576526914211234,0.026282583891008,2.6229086884771107,0.0041304430924355975,-0.06955897808074951,-0.07052035629749298,0.08162348513491452,0.017500679902732373,-9.015594942569733
24.3,2.5,241.0,21.862056732177734,22.225208282470703,-79.78278366650065,40.45905602731885,289.14578535461425,-0.0009092069230973721,0.001305237878113985,0.9900192618370056,0.14092333614826202,0.063757627119664,-0.0011453541769343015,2.415059586241448,0.016702994704246518,0.00744281429797411,-0.04854601621627808,0.05862442624289544,-0.01865675666369497,-8.71118421792984
24.4,2.5,239.0,21.93467712402344,21.19942855834961,-79.78278373007409,40.459056049803,289.38070585632323,-2.9876944608986378e-05,0.0020493417978286748,0.9900502562522888,0.14069931209087372,0.053598736539110216,-0.0017575332645766509,2.280792123321347,0.009140235371887684,0.007938835769891739,0.0279908124357462,0.05181504668667914,-0.15019355468451978,-8.574930644631388
24.5,2.5,235.0,21.87332534790039,22.83749389648437,-79.78278369214758,40.45905623653647,289.6077947845459,0.0012965659843757749,0.0019930724520236254,0.9900144934654236,0.14094583690166473,0.045940351175350884,0.0019286408961059988,2.158575746698188,-0.07391302287578583,0.008234769105911255,0.02039333246648312,0.086254151025787,-0.033885283938143405,-8.417394960522651
24.7,2.5,230.0,21.9209041595459,21.34256172180176,-79.7827837885178,40.459056272207974,290.01384642028813,0.0022301934659481053,0.0031683838460594416,0.9897696971893308,0.14262184500694275,0.04667157934240628,2.5080350333850712e-05,1.903802936490156,0.038356196135282516,0.03459116443991661,0.03795183449983597,0.07404063771944494,-0.09182221694849432,-8.588358775377277
24.9,2.5,227.0,21.8132266998291,23.69628715515137,-79.7827837321517,40.4590564695139,290.2095728149414,0.0017824824899435048,0.003386545227840543,0.9895687699317932,0.14401057362556458,0.0393151131732397,-0.003095919954804665,1.80376430124338,0.015399500727653503,0.010439138859510422,0.07342785596847534,0.07284782856702805,-0.014183010854758324,-8.627204752564431
25.0,2.5,221.0,21.594118118286133,24.91290855407715,-79.78278378486355,40.45905651364835,290.5495157470703,-0.0002454234636388719,0.00440816069021821,0.9891983866691588,0.14651702344417572,0.026780302307549176,-0.007672611987711696,1.6117741838337638,0.03172165155410766,0.008393950760364529,0.029686959460377693,0.037974298945628114,-0.12414176043123007,-8.9615052741766
25.2,2.4000000953674316,218.0,21.71807098388672,23.69628715515137,-79.78278371130527,40.4590567489948,290.7297830810547,-4.842294583795592e-05,0.004172600340098143,0.989124596118927,0.14702093601226807,0.015628018937131245,-0.015112557015697954,1.5827187820281001,-0.02198496274650097,-0.04087023809552194,0.03939973562955856,0.03380931353196502,-0.1906995563954115,-9.098614879846574
25.31,2.299999952316284,221.0,21.61540412902832,24.38809013366699,-79.78278360035706,40.459056922742775,291.062041305542,-8.93941760296002e-05,-0.0003382267022971064,0.9892865419387816,0.14598646759986875,0.006772781742570329,-0.02004502624105549,1.5019978744167972,0.003071962622925639,-0.0882529690861702,-0.048265751451253884,0.07974186941049992,0.02095341506414116,-9.22446508705616
25.5,2.200000047683716,217.0,21.64795684814453,24.157489776611328,-79.78278359883514,40.459056945062144,291.2097711791992,-0.0019163612741976976,-0.004246884025633335,0.9893544316291808,0.1454518884420395,0.00244274379175327,-0.02371192004149676,1.4523731092980283,0.019149597734212875,-0.0469641350209713,0.009377900511026379,0.05391392301768065,-0.0028909821901470425,-9.255071167945863
25.6,2.200000047683716,213.0,21.630428314208984,23.8076114654541,-79.78278348425034,40.45905707877952,291.53994085693364,-0.005294712260365486,-0.005358250811696053,0.9893203973770142,0.14556235074996948,-0.011300750509753252,-0.03047514556258357,1.4136051849453983,-0.01720614545047283,0.0948137864470482,0.011713829822838306,-0.004002615544013679,0.13809190135449173,-9.297575747966766
25.7,2.0999999046325684,211.0,21.547792434692386,26.344226837158203,-79.78278349454948,40.4590570865326,291.67895033264165,-0.0078051378950476655,-0.0029403646476566787,0.9892907738685608,0.14572028815746307,0.00482078685004248,-0.015562357715338981,1.3706351593501989,0.07177887856960298,0.03752137720584869,-0.035624008625745766,-0.07756020016036927,0.03755972221959383,-9.301643071174622
25.9,2.0999999046325684,208.0,21.65546989440918,24.14953804016113,-79.78278341454869,40.459057304735744,292.00680639648436,-0.008577936328947544,0.001333526335656643,0.989265501499176,0.14587147533893585,0.008388716086789863,-0.0001632795279011079,1.369504521707917,0.019286133348941803,0.04612089693546295,0.0026608656626194715,0.14649000138044355,-0.0863868554122746,-9.494857295751572
26.1,2.0999999046325684,210.0,22.697175979614247,14.464276313781738,-79.7827833193188,40.459057389764716,292.33716871643065,-0.0061158984899520865,0.0020066902507096533,0.9895402193069458,0.14411383867263794,0.02480539128290957,0.00970962786068652,1.1597362899504209,-0.026100371032953262,-0.00028186611598357564,-0.14266614615917206,0.02025533517356962,0.08388294976204634,-9.283462908267976
26.2,2.0,208.0,22.11246681213379,19.50570106506348,-79.78278335512265,40.45905739474996,292.43807890319823,-0.006510710809379816,0.004491848871111871,0.99284428358078,0.11915404349565505,0.009401888887912912,0.0013915693074498302,0.8713814251636682,-0.0036368882283568382,0.012555737048387527,-0.8098062872886658,-0.07081936550326645,-0.1795463214442134,-7.255891179442406
26.3,2.0,207.0,21.997278213500977,19.784013748168945,-79.78278340823215,40.459057627792866,292.51178839111327,-0.007726320065557956,0.006294705905020237,0.9971691966056824,0.07452738285064697,0.01787468898013618,-0.012821787013207606,0.6659659344857056,0.05112447589635849,-0.028628658503293988,-1.0367509126663208,0.037329538352787496,-0.18327203935012226,-7.539571770429611
26.5,1.8999999761581416,198.0,21.76815414428711,22.56713485717773,-79.78278358855128,40.45905799181914,292.56610968017577,0.005355810280889273,-0.007202737964689732,-0.9998843669891356,0.012282843701541424,0.008684712721889304,-0.0663562591775428,0.36981543669176986,-0.02304779179394245,-0.009219901636242868,-1.3304591178894043,-0.051184246321208784,-0.2628305894136429,-8.425606790184975
26.7,1.8999999761581416,189.0,21.743112564086914,22.7977352142334,-79.78278360626928,40.45905815232032,292.62273313903813,0.0022343441378325233,-0.0051325527019798756,-0.9876452684402466,0.1566063016653061,-0.011449792475987862,-0.09954483169721026,0.2232898730151973,-0.007465451024472714,-0.08114328235387802,-1.587382197380066,-0.0962319403141737,-0.1906392204388976,-8.7724004727602
26.8,1.7999999523162842,193.0,21.749372482299805,22.805686950683594,-79.7827838343268,40.45905846857229,292.5948972930908,0.004955063574016093,-0.003151617245748639,-0.973835289478302,0.22717924416065216,-0.023745062978065928,-0.1288335711899444,0.1670368868985666,0.10595003515481947,-0.08001692593097688,-1.5484815835952759,-0.09707276992499828,-0.29081032030284404,-9.25369005560875
27.0,1.7999999523162842,196.0,21.662981033325195,23.79170799255371,-79.78278400433375,40.45905878892785,292.5692777862549,0.009662713855504991,0.002416556933894753,-0.9252340197563172,0.3792663216590881,-0.07457190137044081,-0.13750771606635653,0.074274450867165,0.0795065313577652,-0.04909135773777962,-1.5900638103485107,0.006975244050845504,-0.12127903673797845,-9.345788964629174
27.1,1.7000000476837158,175.0,21.6817626953125,23.25893783569336,-79.78278403615232,40.45905892642113,292.5752840270996,0.012784483842551708,0.004438078496605158,-0.8915374279022217,0.4527449607849121,-0.09346943630470073,-0.13573847706198244,0.04464529375243593,0.020686347037553787,0.0027984511107206345,-1.507678747177124,-0.09090882704593242,-0.039561680951155725,-9.488483245968819
27.2,1.7000000476837158,168.0,21.576589584350586,24.793630599975586,-79.78278408144907,40.45905905985509,292.57894232177733,0.01662314496934414,0.004755458794534206,-0.8519358038902283,0.5233608484268188,-0.09141303585945576,-0.12101480206292678,0.026479668406869085,0.05993526428937913,0.0466066300868988,-1.538632869720459,-0.055890487474389385,-0.16765699513256552,-9.564998740553856
27.4,1.7000000476837158,180.0,21.495206832885746,25.652421951293945,-79.7827842090548,40.45905920528389,292.5583963623047,0.023893984034657482,0.007107668556272984,-0.7613515257835388,0.6478599905967712,-0.06593518286744475,-0.08200542126222589,0.021515051749020558,0.08295884728431703,-0.04191380739212036,-1.6074873208999634,0.15051918977871534,-0.1323268664907664,-9.86320966243744
27.6,1.7000000476837158,188.0,21.461400985717773,27.28253555297852,-79.78278445613842,40.45905918448806,292.5625715484619,0.02685629203915596,0.008905679918825626,-0.6499015688896179,0.7594915628433228,-0.01299977350614964,-0.06758984483100024,0.09404917331471274,0.068650983273983,0.015471176244318484,-1.4109407663345337,0.15363338029012086,-0.3986997082829475,-9.95400756597519
27.7,1.600000023841858,182.0,21.496458053588867,25.42977333068848,-79.78278453777862,40.45905917800712,292.5732336273193,0.027476010844111443,0.007312600966542959,-0.5973649024963379,0.8014653921127319,0.025343055192558254,-0.06819735278361623,0.12179934251970935,0.07621468603610992,0.0024521066807210445,-1.1494368314743042,0.19021423749625685,-0.10983800914138556,-10.009365495443344
27.9,1.600000023841858,179.0,21.50271797180176,25.31049728393555,-79.78278438254219,40.45905869229557,292.64223577880864,0.026903366670012474,0.004923657048493625,-0.5138847827911377,0.8574231863021851,0.11101134265043357,-0.06370018134418914,0.239496189157588,-0.0754571259021759,-0.05400301516056062,-0.6797319650650024,0.2474983859807253,-0.05353527925908566,-9.972722164392472
28.0,1.600000023841858,196.0,21.507726669311523,28.006147384643555,-79.78278464104615,40.45905873541607,292.5132417907715,0.02461848221719265,-3.695743725984357e-05,-0.4920589625835418,0.8702137470245361,0.1226945047591894,-0.08044034803070547,0.2166550467911557,-0.2245320826768875,0.0805048793554306,-0.32906708121299744,0.3460468835011125,0.15824610253795982,-10.059181433916091
28.21,1.600000023841858,203.0,21.159656524658203,30.05770492553711,-79.7827846413901,40.459058580252105,292.5355196228027,0.02011657878756523,-0.00453018955886364,-0.4796607494354248,0.8772116899490356,0.16398136864740545,-0.06641805556804388,0.25747322143508977,0.06206437200307846,-0.07272692024707794,-0.20828856527805328,0.6305089183151722,0.2114269491657615,-10.251357192993163
28.3,1.600000023841858,205.0,21.22100830078125,28.66614532470703,-79.78278496735975,40.45905846306975,292.41950323486327,-0.013789009302854538,0.015885038301348686,-0.4770641028881073,0.8786168694496155,0.16857711056210611,0.007875675042596189,0.3375097635310563,-0.10689985007047652,-0.5287177562713623,0.11647135019302368,0.5387205329909921,0.2188136087916792,-10.642304370403288
28.5,1.600000023841858,202.0,21.38502693176269,26.805429458618164,-79.78278482934614,40.4590585383204,292.36366941833495,-0.056695889681577676,0.03916940465569496,-0.4861790835857392,0.8711379170417786,0.17609921741962287,0.20086135581853126,0.4487504454211368,-0.05269160121679306,-0.4445205628871918,0.18467487394809728,0.40118598092347385,-0.03137489610118792,-10.650682260990145
28.6,1.600000023841858,211.0,21.361236572265625,26.05796241760254,-79.78278438241975,40.45905854919923,292.408476852417,-0.0689968392252922,0.04593317210674287,-0.4914822578430176,0.8669342398643494,0.1742168980559453,0.3579597322428192,0.5210261923556989,-0.02330546826124192,-0.2533835768699646,0.11067508906126022,0.1861483395472169,-0.060776183330453926,-10.340158857107165
28.8,1.600000023841858,213.0,21.40255546569824,27.314342498779297,-79.78278374496634,40.45905864844559,292.4563875427246,-0.07697688043117523,0.04914012551307678,-0.4964970052242279,0.8632211089134216,0.17264706171225935,0.5386729695524304,0.5862063492322379,-0.02548123337328434,-0.19060255587100985,0.13000990450382233,0.2353061738982797,-0.2370658020861447,-10.2397995865345
28.9,1.5,201.0,21.35247230529785,26.853139877319336,-79.78278220447143,40.45905941380184,292.4342298736572,-0.08830554783344269,0.05082754418253898,-0.5034053325653076,0.8580219745635986,0.1509952704421908,0.938868523049111,0.6494879539824443,0.061501201242208474,-0.12922930717468262,0.0950421392917633,0.26437578924000266,-0.3335995866358281,-10.12329381465912
29.1,1.399999976158142,199.0,21.441368103027344,25.668325424194336,-79.78278132450694,40.45906002950401,292.3755483856201,-0.09335435926914216,0.05199118331074715,-0.5047357678413391,0.8566351532936096,0.1206915236884651,1.1393753011404075,0.6709173525553777,-0.0057807243429124355,-0.06389445811510086,-0.0225271973758936,0.2100768636167049,-0.049122988600283864,-10.168892741203306
29.2,1.399999976158142,193.0,21.23477935791016,29.071685791015625,-79.78277813077453,40.45906118496949,292.46112158203124,-0.10396193712949753,0.058865804225206375,-0.5029701590538025,0.8560068607330322,0.0907587315724434,1.6077502541213782,0.8016912529211848,0.04356829822063446,-0.16045668721199036,0.012169220484793186,0.3210420332103968,-0.2268429322354496,-10.149843682050708
29.4,1.399999976158142,188.0,21.205982208251953,28.228797912597656,-79.7827741489716,40.459062856189156,292.4533338775635,-0.12252343446016313,0.06203202530741692,-0.4993122816085816,0.8554690480232239,0.06796197524603073,2.083349053222607,0.955550732300328,-0.03325309604406357,-0.20602335035800934,-0.026689188554883003,0.2309549866430461,-0.024774789763614538,-10.209209293127062
29.5,1.5,171.0,21.2385368347168,27.94253349304199,-79.78277185044021,40.45906388795231,292.405001663208,-0.1303349733352661,0.062241163104772575,-0.4974379241466522,0.8553914427757263,0.06600947376143282,2.3183393492267452,1.0424237800902798,-0.10286086052656174,-0.09889324009418488,-0.02255859971046448,-0.04700153653509915,-0.010587491712067278,-10.268243951797484
29.71,1.5,161.0,21.2134952545166,28.7218074798584,-79.78276909683517,40.4590650310096,292.4429064025879,-0.13569559156894684,0.06293576955795288,-0.4941385090351105,0.8564186692237854,0.06610759187633798,2.585628652788835,1.164486634924958,0.05417560040950775,-0.12035010755062105,-0.02252787165343761,-0.04749374418519438,-0.17415242945775392,-10.251496356725694
29.8,1.7000000476837158,143.0,21.23352813720703,28.20494270324707,-79.78276288697715,40.45906773742526,292.43069174194335,-0.14356669783592224,0.06983190029859543,-0.4907684326171875,0.8565386533737183,0.0487394344038881,3.1196637683268578,1.360495412905992,-0.040341172367334366,-0.2300569266080857,0.03341078758239746,-0.1838488854467869,-0.0865435790643096,-10.284255967140199
29.9,1.8999999761581416,134.0,21.284862518310547,28.30036354064941,-79.7827592769693,40.45906933067949,292.4655790557861,-0.1458417922258377,0.0724247545003891,-0.4903922080993652,0.8561543822288513,0.016421963462563624,3.3903944289635404,1.486634477530186,-0.061768867075443275,-0.08807885646820067,0.09514474868774414,-0.2627081633359194,-0.04550504675600678,-10.214467109441758
30.1,2.200000047683716,113.0,21.297382354736328,26.996273040771484,-79.78275117485626,40.459072802088606,292.44557859802245,-0.14262846112251282,0.07313039153814316,-0.4942837655544281,0.8543961048126221,-0.002306709665750084,3.9315886347522486,1.6760844104249095,0.09900128096342088,0.0993318185210228,0.02980913408100605,-0.26505731876939537,0.019328044429421425,-10.280696182250976
30.3,2.4000000953674316,104.0,21.268585205078125,27.37795829772949,-79.78274670117798,40.4590748151576,292.4778299560547,-0.13934282958507538,0.07209573686122894,-0.4944164454936981,0.8549492359161377,-0.031646902920350606,4.212928088568871,1.7406873059975376,-0.0012118576560169454,-0.023648478090763092,0.02248811163008213,-0.3225882197543979,-0.337736199349165,-10.253094985485076
30.41,2.9000000953674316,90.0,21.39379119873047,25.54904937744141,-79.78273678813073,40.45907901257092,292.46639921569823,-0.13476601243019104,0.0699583888053894,-0.4969588816165924,0.8543862700462341,-0.06440863199995908,4.738887731630772,1.7995310980881714,0.0011186612537130713,-0.004309254232794046,-0.0869750902056694,-0.2913465099781752,0.0748062620870769,-10.068662109375
30.5,3.2000000476837163,84.0,21.229772567749023,27.77554702758789,-79.78273120983019,40.459081071533625,292.4196272125244,-0.1357513815164566,0.06993408501148224,-0.5002843141555786,0.8522889018058777,-0.021764638090005103,4.986740512405289,1.809460155918306,-0.03300093486905098,0.012812927365303041,-0.0790380984544754,-0.28108294716104865,0.08658720477484166,-10.009598214626315
30.7,3.799999952316284,75.0,21.46515655517578,24.92881202697754,-79.7827199375605,40.45908609307674,292.46311476135253,-0.13637934625148773,0.07020708918571472,-0.5022222995758057,0.8510255813598633,-0.11473334447322135,5.446478225567561,1.920362899361867,0.04893410205841065,-0.0566890500485897,0.021989824250340455,-0.5419508272781969,-0.057751423241570586,-9.712409386038779
30.9,4.099999904632568,71.0,21.296131134033203,26.75771903991699,-79.78270728353056,40.45909095026132,292.40896894836425,-0.13380537927150726,0.07435675710439682,-0.5063731670379639,0.8486185669898987,-0.16480487046199796,5.883089787670933,1.9626051032003875,-0.01878785341978073,0.0484929084777832,0.05399182811379434,-0.6145240194350481,-0.028074903460219503,-9.623375002741817
31.0,4.599999904632568,66.0,21.4238395690918,25.87507247924805,-79.78270007829173,40.45909315065396,292.35234548950194,-0.13013620674610138,0.07239387184381485,-0.5101165175437927,0.8471156358718872,-0.09029771449766434,6.097697760751602,1.962030736044096,0.05196428298950195,0.05031245946884155,-0.03273802250623703,-0.7928944292664528,-0.06775844860821963,-9.663610278367996
31.11,4.900000095367432,64.0,21.38627815246582,25.859169006347656,-79.78269338702617,40.4590960194201,292.3530912628174,-0.1274327039718628,0.07013031095266342,-0.5101948976516724,0.8476696610450745,-0.14971551938793762,6.324744269707796,1.928576798704024,0.062318690121173866,-0.02826698310673237,-0.022084562107920647,-0.6492249785363674,-0.10295148745179176,-9.551567101478577
31.3,5.400000095367432,63.0,21.55154800415039,23.87917709350586,-79.78267871023252,40.459101502932036,292.29360296630864,-0.12594272196292874,0.07376396656036377,-0.5132831335067749,0.8457173705101013,-0.10779567712219687,6.743965637386867,1.914168542454637,-0.035811062902212136,-0.030455680564045906,0.009958820417523384,-0.7330608947575092,-0.05877011784352362,-9.599937023520473
31.5,5.699999809265138,62.0,21.47266960144043,24.38809013366699,-79.78266302751855,40.459107113460576,292.2268839111328,-0.12439319491386415,0.07685384899377823,-0.5173485279083252,0.8431905508041382,-0.09965935029615187,7.11961509794855,1.9564812201957285,-0.030846500769257545,0.009926317259669304,-0.06304541230201721,-0.8234125826507808,0.03253873184323311,-9.723931909203527
32.4,7.599999904632567,61.0,21.640443801879886,22.47171401977539,-79.78258389458307,40.45913562470982,291.8333101501465,-0.08825201541185379,0.051309894770383835,-0.53134685754776,0.8409813046455383,-0.19025513223434906,8.5231332979653,1.5350040492262274,0.05239003151655197,0.2858738303184509,-0.03897857666015625,-1.3573337575793267,-0.006194320991635323,-9.624197705984116
32.5,8.0,66.0,21.73810386657715,20.69051551818848,-79.7825738473209,40.459138575253746,291.75047018432616,-0.07559237629175186,0.04661005362868309,-0.5350718498229979,0.8401259779930115,-0.1418033004242844,8.632665985322948,1.3562415695930627,-0.01820523478090763,0.1175915226340294,-0.11294195055961607,-1.3079157221317292,0.008531545021687634,-9.781251579523088
32.7,8.199999809265138,68.0,21.62166404724121,23.354360580444336,-79.78255538239961,40.4591455819732,291.66598989868163,-0.05398055911064148,0.03710862994194032,-0.535626232624054,0.8419107794761658,-0.21879598821245225,8.721870198965819,0.9251990735554936,-0.061517439782619476,0.08817493915557861,-0.08453913778066635,-1.4586538718640805,-0.08482250595465303,-9.62662430047989
32.8,8.5,68.0,21.524003982543945,23.31460189819336,-79.78254478213205,40.45914841485745,291.6043577423096,-0.04826807603240013,0.03049340285360813,-0.5382661819458008,0.8408388495445251,-0.1381478832110792,8.752362279581519,0.7801677495955095,-0.004667471628636122,0.13961391150951385,0.1707661747932434,-1.2924515908956529,-0.042368202852085236,-10.009228670597077
33.0,8.5,68.0,21.739356994628906,21.326658248901367,-79.78253548448097,40.459151873914436,291.57005026245116,-0.04265665635466576,0.025500940158963203,-0.5380905866622925,0.8414206504821777,-0.18010834623938576,8.737453267251892,0.6701274160906315,0.13177552819252014,0.1494428664445877,-0.10161712020635603,-1.279450745433569,-0.023957782988436517,-9.990402975082398
33.11,8.800000190734863,75.0,21.654216766357425,22.185449600219727,-79.78251525123308,40.45915793205646,291.49612715148925,-0.02839620225131512,0.025301763787865642,-0.5408312082290649,0.8402708768844604,-0.1292799909405526,8.717124251147265,0.5005427745970595,0.07836880534887314,0.04805846884846687,-0.05296638607978822,-1.3352103786170484,-0.00957735551521182,-9.97606092453003
33.2,9.0,78.0,21.57032966613769,22.821590423583984,-79.78250597865525,40.45916127676888,291.47276022338866,-0.02433488890528679,0.024195242673158646,-0.5397014617919922,0.8411567807197571,-0.11437786528367595,8.664389664917756,0.4311866534750449,0.05067505687475205,0.03589097782969475,0.0925564542412758,-1.3056408628821374,-0.18322266692295672,-10.024810330867767
33.4,9.100000381469727,77.0,21.82449531555176,19.87943458557129,-79.78248612458667,40.459167784680034,291.36167433166514,-0.027197424322366714,0.02173664979636669,-0.5387646555900574,0.8417366147041321,-0.035376953404927164,8.61183689451424,0.3905179930818398,-0.012763681821525095,0.04143992438912392,-0.03937070444226265,-1.0434783178567888,-0.03463348771445453,-10.046114076375963
33.6,9.199999809265137,77.0,21.696786880493164,21.207380294799805,-79.78246701257348,40.45917467637643,291.2310514678955,-0.02467761002480984,0.015690471976995468,-0.5352866649627686,0.8441641330718994,0.04789636371549305,8.501933495567538,0.4204568379296674,-0.09321266412734984,0.21855676174163816,-0.07437548786401749,-1.3306641684472562,-0.20161882963031533,-9.864670296907423
33.7,9.300000190734863,77.0,21.616655349731445,21.39027214050293,-79.7824579381754,40.45917785913932,291.21420957946776,-0.016660602763295174,0.008828778751194477,-0.5343356728553772,0.8450621366500854,0.08552043739384167,8.423527697011494,0.3321845370209016,-0.1304638832807541,0.12714385986328125,0.02467421442270279,-1.3491165192425252,-0.26785466328263285,-9.877196202278137
33.8,9.199999809265137,83.0,21.600378036499023,22.121835708618164,-79.7824481823475,40.459181504193076,291.1033716430664,-0.006565530784428121,0.0011506217997521162,-0.5339115858078003,0.845514178276062,0.10440157483872088,8.366238054357286,0.16107230599636985,-0.042919009923934937,0.2413719296455384,0.17854538559913635,-1.4029712757468225,-0.040148682016879315,-9.890239001512528
34.0,9.199999809265137,82.0,21.725584030151367,22.320629119873047,-79.7824297573185,40.45918828104676,290.9838342895508,0.011414458975195885,-0.009319780394434929,-0.5335160493850708,0.8456616401672363,0.11234541449917236,8.177254114156598,-0.2534421996314956,-0.08629751205444336,0.2950149476528168,-0.10588839650154114,-0.8805123245716096,0.03971543988212943,-9.972459039688113
34.2,9.100000381469727,83.0,21.751876831054688,19.855579376220703,-79.7824210641011,40.45919132910221,290.9693365325928,0.017725689336657524,-0.011273199692368507,-0.5334633588790894,0.8455623388290405,0.11192782574673987,8.03856174776714,-0.37610500826303095,-0.08608593046665193,0.21864299476146692,0.0123116634786129,-0.6803023450076581,0.3713584933429957,-10.145817289352415
34.3,8.899999618530273,89.0,21.82073974609375,20.348588943481445,-79.78240414764896,40.45919797609224,290.8428507080078,0.019930064678192142,-0.008551629260182379,-0.5352646112442017,0.844406008720398,0.06489618314279214,7.757733416864831,-0.5154440569590047,0.08953028917312622,-0.12761156260967255,0.10724093019962312,-0.9258282458782195,-0.10302594808861612,-9.82619678735733
34.5,8.899999618530273,91.0,21.783178329467773,20.33268547058105,-79.78238726258897,40.45920426564594,290.7564077606201,0.016307231038808826,-0.005019534844905138,-0.5379688143730164,0.8427921533584595,0.013224900383179505,7.528370405883198,-0.4298556804503112,-0.02745250053703785,-0.04245121404528618,-0.0456005409359932,-1.0092770764231682,-0.023449363019317392,-9.868424209356313
34.6,8.800000190734863,91.0,21.72433280944824,22.0661735534668,-79.7823792693309,40.459207109282715,290.7371244659424,0.013523835688829422,-0.0059370798990130424,-0.5389553904533386,0.8422048687934875,0.00486658564820148,7.41910991621333,-0.4452132903781143,-0.07739924639463425,-0.06005902215838432,-0.14625224471092224,-0.7509842187166215,0.09332779275253417,-9.596819288134576
34.71,8.600000381469728,91.0,21.815731048583984,20.30883026123047,-79.78237139350104,40.459209906113294,290.7156362762451,0.009185753762722015,-0.0037534390576183796,-0.5402706861495972,0.8414328098297119,-0.01506432738012316,7.308243817916589,-0.4377213708222705,-0.07137611508369446,-0.07161376625299454,-0.15531577169895172,-0.8262979643046856,-0.03549172649625689,-9.598172918558124
34.9,8.300000190734862,87.0,21.92716407775879,19.577266693115234,-79.78235569572067,40.45921573906156,290.6271810760498,0.0067907962948083895,0.005654687061905861,-0.5425119996070862,0.84000164270401,-0.03961144345469665,7.116421915297461,-0.3851758665642217,0.24606311321258545,-0.13672591745853424,-0.1390397697687149,-0.913773626089096,-0.09627864494919776,-9.32635983645916
35.1,8.199999809265138,87.0,21.55655670166016,23.75194931030273,-79.78234775328369,40.459218765646256,290.59200384521483,0.004732792265713215,0.00857127457857132,-0.5430945158004761,0.8396144509315491,-0.05364973922623752,7.04475849042081,-0.3491798209286273,0.04842370003461839,-0.09605173766613008,0.07722661644220352,-0.9266200319677592,-0.2065113411471248,-9.227146035432817
35.21,8.0,88.0,21.65797233581543,21.34256172180176,-79.78233283423535,40.45922400009327,290.5251474609375,-0.0014085223665460946,0.00833675917237997,-0.542385995388031,0.8400869965553284,-0.031455108803296605,6.890844829744996,-0.32261894596244545,-0.05741544812917709,-0.050353679805994034,-0.2810259759426117,-0.6078839944303036,0.320208256803453,-9.634247900247574
35.41,7.900000095367432,88.0,21.739356994628906,20.809791564941406,-79.78231809985195,40.459229416079715,290.447934173584,-0.017640044912695885,0.0146052036434412,-0.540524423122406,0.8410165905952454,-0.004852103333711649,6.7829780135867725,-0.18714380856655347,-0.059222083538770676,-0.2453293949365616,-0.07927145063877106,-0.7974783539772035,-0.13158395033329726,-9.551541373729707
35.5,7.599999904632567,83.0,21.82449531555176,19.410280227661133,-79.78231074217233,40.45923228939765,290.3995294799805,-0.02507023513317108,0.020412333309650414,-0.5395004749298096,0.8413645029067993,0.0055465258915866926,6.739804641401207,-0.06845217754948156,0.0512387789785862,-0.2283601313829422,-0.09417439997196198,-0.7484520088881255,0.08587904300540686,-9.287201033234597
35.71,7.599999904632567,79.0,21.642948150634766,22.31267738342285,-79.78230353781049,40.45923479286916,290.360568069458,-0.03077135793864727,0.02707686461508274,-0.5383371710777283,0.8417323231697083,0.03146990778350532,6.718506418981992,0.018938974997410915,0.2259313464164734,-0.1929320544004441,-0.13780951499938965,-0.836994348987937,0.048531743735074996,-9.317604800462725
35.8,7.5,77.0,21.676753997802734,21.573162078857425,-79.78228913367425,40.45924002611381,290.2616396179199,-0.04019976034760475,0.03785191103816032,-0.5377959609031677,0.8412650227546692,0.0756115999708308,6.687055934557887,0.22772440899657875,0.08784884214401245,-0.18941418826580048,0.09491123259067537,-1.0161898009479051,-0.09985053540207446,-9.653657732605934
36.0,7.300000190734862,78.0,21.61540412902832,22.479665756225586,-79.78227494964278,40.459245150149656,290.1646700134277,-0.05203745886683464,0.04189998656511307,-0.5396683812141418,0.8392226099967957,0.09028080551936826,6.678466508646848,0.4141457335973153,0.12671896815299988,-0.1803255379199981,0.09128587692975998,-1.0617681160569192,-0.0772478948906064,-9.623855059146882
36.1,7.300000190734862,72.0,21.629175186157227,22.67845916748047,-79.78226773340772,40.45924759486004,290.1249475708008,-0.05910158157348633,0.044733621180057526,-0.5403884649276733,0.8381445407867432,0.08328472239279239,6.713066240623551,0.4945807618758311,0.1333305388689041,-0.21943315863609314,-0.0501384437084198,-1.0358829309046271,0.0988216538541019,-9.522338039875027
36.2,7.300000190734862,71.0,21.79444694519043,20.714370727539066,-79.78226046972463,40.459250041854894,290.0844927062988,-0.06629754602909088,0.04735932499170303,-0.5403780937194824,0.8374683260917664,0.06994012642029733,6.751456203553343,0.5884481541526394,-0.06752052158117294,-0.2865232229232788,0.008716531097888947,-1.13186015188694,-0.05445735775865615,-9.341374316811562
36.4,7.300000190734862,71.0,21.455141067504886,24.97652244567871,-79.78224596057314,40.45925507997343,289.9710073699951,-0.08402222394943237,0.04799491912126541,-0.5381461977958679,0.8372786045074463,0.09417807431971664,6.812277537543232,0.7737224425945125,0.08315180242061615,-0.08504554629325868,-0.12822702527046204,-1.2535984508693219,0.16841179758310318,-9.323120478987695
36.6,7.300000190734862,70.0,21.20848655700684,27.958436965942386,-79.78223863734391,40.459257704385344,289.9051981201172,-0.08579619973897934,0.048817865550518036,-0.5368112325668335,0.8379079103469849,0.1007653954869926,6.845851053797366,0.9086334966612984,0.05078816786408424,-0.03846145048737526,-0.09871381521224976,-1.251590955555439,-0.017187474709935487,-9.758319969177249
36.7,7.5,66.0,21.343708038330078,25.87507247924805,-79.78222362447892,40.459262784535,289.82953550720214,-0.08165137469768524,0.049768686294555664,-0.5385890603065491,0.8371248841285706,0.0969070361021287,6.98244207581586,1.0430126822961152,0.2290397584438324,-0.10628646612167356,-0.00858883000910282,-1.1565883192420006,0.07454755933955312,-10.23526799440384
36.9,7.5,66.0,21.42634391784668,24.65049934387207,-79.7822162786276,40.45926541629849,289.7671728363037,-0.08306941390037538,0.056946612894535065,-0.5405081510543823,0.8352889418601991,0.07322917171594677,7.028723097848777,1.0702895686859781,-0.00844474695622921,-0.19695359468460089,-0.01841042935848236,-1.0448370645940304,-0.05593985533341767,-10.14136521935463
37.0,7.699999809265138,66.0,21.468914031982425,23.839418411254893,-79.78220092400201,40.4592708938802,289.66482832336425,-0.09184087812900543,0.06913037598133087,-0.5417034029960632,0.8326727151870728,0.005349847364527538,7.13674360078557,1.327456499398186,-0.053770385682582855,-0.19588994979858398,0.2420448511838913,-1.6139613282680512,-0.16311942787840966,-9.63903735458851
37.11,7.699999809265138,66.0,21.39629364013672,25.47748374938965,-79.78219304691287,40.45927355357284,289.6399355163574,-0.0965333953499794,0.06709310412406921,-0.5409868359565735,0.8327744007110596,0.0068528468501570785,7.216817825588852,1.4381087614561918,-0.06355758011341095,-0.0121936434879899,0.008723697625100613,-1.231386194229126,0.12547291561961174,-10.052079405784607
37.3,7.900000095367432,64.0,21.31616401672364,26.28061294555664,-79.78217711549041,40.45927910683461,289.55566885375976,-0.09964073449373244,0.05592474341392517,-0.5383497476577759,0.8349394202232361,0.04160069373550245,7.363430016408932,1.5579648731561395,-0.06156406551599504,-0.03713138774037361,-0.07005154341459274,-1.1915904830396176,0.33045173808932304,-10.427717403173448
37.4,8.0,66.0,21.1846981048584,28.268556594848643,-79.78216895551215,40.45928187513485,289.53957464599614,-0.09974085539579393,0.04794923961162567,-0.5371552109718323,0.8361920118331909,0.052147329314605716,7.448587858356688,1.5990065881838786,-0.28925272822380066,0.10902603715658188,0.011645698919892313,-1.1864116041362287,0.0688877743575722,-10.649331554174424
37.6,8.300000190734862,65.0,21.294878005981445,25.14350891113281,-79.78215240344275,40.45928767543043,289.46485998535155,-0.09421297162771224,0.032413315027952194,-0.5356914997100829,0.8385153412818909,0.06515863742201156,7.585349903083879,1.6125334095622377,-0.07217250019311905,0.10753849148750304,-0.1481105387210846,-1.4750547270476817,0.13063784343190493,-10.566794596910476
37.8,8.399999618530272,65.0,21.47266960144043,24.077970504760746,-79.78213564912339,40.45929371880917,289.41987326049804,-0.08328452706336975,0.038749273866415024,-0.5365725159645081,0.8388397097587585,0.02969120747262845,7.689359094687491,1.4956255989923442,0.2648616135120392,-0.058891013264656074,0.05019694194197655,-1.1043914676457645,0.06065742546692491,-10.495117088556288
37.9,8.399999618530272,68.0,21.526508331298828,23.44978141784668,-79.78212724794737,40.45929670068319,289.42487242126464,-0.07597190141677856,0.04700364917516709,-0.537320613861084,0.8386330604553223,0.0035955150057376366,7.734182322091375,1.4765683350503156,0.29172202944755554,0.1143922209739685,-0.08621490746736526,-1.3494707143306732,0.02396951853297651,-9.846960250139237
38.0,8.600000381469728,69.0,21.47642517089844,24.45965576171875,-79.78211889912156,40.45929982234035,289.37649824523925,-0.0687875896692276,0.05182575434446335,-0.5380731821060181,0.8384865522384644,-0.03143338752562007,7.747819196056013,1.4210761430675594,0.1164623573422432,0.19703736901283264,0.08646722137928009,-1.3773870760202411,-0.20991361666470768,-9.883513534069062
38.2,8.699999809265138,69.0,21.46640968322754,24.849292755126953,-79.78210201005884,40.45930580870996,289.3809194793701,-0.05872931331396102,0.04961100593209267,-0.538988471031189,0.8387974500656128,-0.03787721090369418,7.804597147264078,1.2866649741721334,-0.0321994312107563,0.09372427314519882,0.10150403529405594,-1.4413374888896944,0.011101943906396627,-9.554352130293847
38.4,8.800000190734863,69.0,21.43886375427246,24.44375228881836,-79.78209335549697,40.4593089929071,289.34005644226073,-0.05718211829662322,0.04713943228125572,-0.5395832061767578,0.8386644721031189,-0.020661309125015136,7.834367271026922,1.1964668779454466,-0.12436685711145401,0.17621316015720367,-0.09092214703559877,-1.2120734256505967,-0.04007245807908477,-9.79577898681164
38.5,8.800000190734863,71.0,21.610395431518555,21.994606018066406,-79.7820761676692,40.459315218735625,289.31098654174804,-0.05424580350518226,0.047407831996679306,-0.5405774116516113,0.8382040858268738,-0.017443642853608828,7.857890723252969,1.136172642562704,0.07790802419185637,-0.042670294642448425,-0.0682835578918457,-1.4237620742619042,0.1516846494935453,-9.698067335486412
38.7,8.899999618530273,73.0,21.61540412902832,22.185449600219727,-79.78205911305565,40.45932112921905,289.30977728271483,-0.0616099014878273,0.0410066619515419,-0.5415235757827759,0.8374215960502625,-0.015859828020236014,7.866526679085897,1.1340186707315771,-0.15711617469787598,-0.11393493413925172,-0.02481695078313351,-1.4871305429935455,-0.09757358394563198,-9.66257532119751
38.8,9.100000381469727,73.0,21.511484146118164,23.624719619750977,-79.78205039701375,40.45932428005923,289.28122045898436,-0.06448971480131149,0.03862510621547699,-0.5414783954620361,0.8373472690582275,-0.012881676893826792,7.854576862442514,1.1429443638609942,-0.06403768062591553,0.12701229751110074,0.017523085698485374,-1.4916925406455994,0.00781513262540102,-9.689262013435364
38.9,9.100000381469727,73.0,21.61164665222168,23.70423889160156,-79.78204185758635,40.45932722132778,289.277840637207,-0.06384848058223724,0.037954095751047134,-0.541032612323761,0.8377151489257812,-0.008591110034372528,7.870076943794084,1.1492443783592732,-0.15295997262001038,0.03989660367369652,-0.14088289439678192,-1.3221715262532234,0.1099402531888336,-9.545317012667656
39.1,9.100000381469727,73.0,21.617908477783203,21.779909133911133,-79.7820244600429,40.45933346261525,289.2567568054199,-0.06064429506659508,0.038952022790908813,-0.5400869846343994,0.8385172486305237,0.0033535249145868057,7.900392953619571,1.1118528128757612,0.1286364495754242,-0.043421030044555664,0.0686073824763298,-1.5066564425826074,-0.020959262279793615,-9.480190140008927
39.2,9.199999809265137,73.0,21.557809829711914,24.332427978515625,-79.78201589016784,40.459336422468866,289.25022604370116,-0.05856553092598915,0.04091213271021843,-0.5394258499145508,0.8389970064163208,0.023353027179770718,7.906428019898044,1.0682170330245635,0.1777995079755783,-0.052333444356918335,0.10820253193378447,-1.3499838075041772,-0.03749803866259754,-9.537219788432122
39.4,9.199999809265137,73.0,21.710559844970703,20.68256378173828,-79.78199849838109,40.459342416499254,289.2498865356445,-0.0515875481069088,0.041425105184316635,-0.5393232107162476,0.8394958376884459,0.05310202189566075,7.9078075871062135,1.0764240173074948,0.028131358325481408,-0.030649226158857342,-0.0204363651573658,-1.6112672236561776,-0.17754377799108625,-9.553850439190867
39.5,9.199999809265137,72.0,21.550296783447266,23.29074668884277,-79.78198968357538,40.45934561625838,289.2405882110596,-0.05247979238629341,0.03807630389928818,-0.5396526455879211,0.8393874168395996,0.0543198995796476,7.910481965756099,1.020176735445007,0.0348641462624073,0.0032446207478642464,-0.1209106370806694,-1.1531523491442204,-0.014251345619559288,-9.744814070463182
39.71,9.199999809265137,74.0,21.468914031982425,23.78375625610352,-79.78197253797859,40.45935148989801,289.2335386505127,-0.0580497682094574,0.030099073424935337,-0.539202094078064,0.8396341800689697,0.05155842611286361,7.900380000319668,0.9841262914524008,-0.02261574752628804,-0.031097875908017162,0.05016747862100601,-1.340002610385418,0.1816214617341757,-9.776563866734506
39.9,9.199999809265137,74.0,21.584102630615234,22.193401336669922,-79.78196378154965,40.45935460501088,289.2230062713623,-0.061126045882701874,0.028005294501781464,-0.5387628674507141,0.8397702574729919,0.0541261278610509,7.893054864924643,1.016958143495839,-0.1865622699260712,0.044579345732927315,0.0027114818803966045,-1.2376715125143531,0.2869763923622668,-9.758039302825928
40.0,9.199999809265137,74.0,21.47266960144043,23.65652656555176,-79.78194659907383,40.45936052794733,289.2230882873535,-0.05958991870284081,0.0326976552605629,-0.5386843085289001,0.8397614359855652,0.06148053767904984,7.844784511133847,1.078985619612239,0.03685346990823746,0.0053827203810215,0.048526253551244736,-1.4257891577482225,-0.14519833317026495,-9.63330123603344
40.2,9.199999809265137,74.0,21.457645416259766,24.70616149902344,-79.78192957014069,40.45936638736474,289.2264108886718,-0.058280292898416526,0.038880106061697006,-0.5387726426124573,0.8395331501960754,0.0599182379545645,7.839214369282278,1.0747545382994796,0.18880058825016025,-0.00959805864840746,0.01054598018527031,-1.2811537469923495,0.2777763101644814,-9.77706497311592
40.3,9.199999809265137,75.0,21.572834014892575,23.86327362060547,-79.78192098740294,40.45936938986785,289.22786238098143,-0.0598599910736084,0.040506839752197266,-0.5385590195655823,0.8394821882247925,0.05360741840694108,7.814427417271949,1.1267216133839453,0.01897892728447914,0.031413227319717414,-0.0982721820473671,-1.338043793141842,0.20689365768805149,-9.681144323945047
40.4,9.100000381469727,73.0,21.501466751098643,23.27484130859375,-79.78191250136021,40.45937230635058,289.22993948364257,-0.061101201921701424,0.03907754644751549,-0.5383591651916504,0.8395886421203613,0.05001551639390413,7.814238628486298,1.1623998733737424,-0.13345420360565186,-0.008722650818526745,0.1989639103412628,-1.5370856451988222,-0.15314188526943326,-9.616456577181816
40.6,9.199999809265137,73.0,21.49896240234375,23.266889572143555,-79.78189532122306,40.45937844217375,289.2284536590576,-0.06032780185341835,0.04058823361992836,-0.5375780463218689,0.8400731682777405,0.07292111448418999,7.815990663055367,1.1817278495332,0.057562846690416336,-0.04863247647881508,0.047696832567453384,-1.5693903422355653,-0.004788129581138492,-9.539141768217087
40.7,9.199999809265137,73.0,21.39253807067871,25.46953201293945,-79.78188682168799,40.45938135470586,289.23225309753417,-0.05872393026947975,0.04106520488858223,-0.5374673008918762,0.8402345776557922,0.08388803026918258,7.819949959920307,1.1875417558109975,-0.01384046580642462,-0.07052848488092422,0.08297649770975113,-1.2813436353206635,-0.14610609512776138,-9.779065890312195
40.91,9.199999809265137,72.0,21.401302337646484,24.88905143737793,-79.7818695261465,40.45938764989347,289.23868849182134,-0.056982357054948814,0.044461019337177284,-0.5380600094795227,0.8398022055625916,0.08928489559486512,7.841575128851862,1.1751725836981728,0.19836857914924624,-0.08165325969457626,-0.15942519903182986,-1.4055705092847348,0.2323993402719497,-9.580313183069233
41.1,9.199999809265137,72.0,21.49270248413086,23.95869445800781,-79.78185220730825,40.45939385325502,289.23935415649413,-0.05751727148890495,0.044483106583356864,-0.5385704636573792,0.8394372463226318,0.05978752952961716,7.840258067902631,1.2194043438545978,-0.10256105661392212,0.12478480488061905,-0.002365841763094068,-1.3510177414119244,0.0662909071147442,-9.77266260445118
41.2,9.199999809265137,72.0,21.61540412902832,22.789783477783203,-79.78184367098413,40.45939677214247,289.24567892456054,-0.056997071951627724,0.04112808033823967,-0.5389719605445862,0.8393861651420593,0.07476528956184754,7.850068435614662,1.2077427143862869,-0.06995390355587006,0.02863315865397453,-0.15308453142642975,-1.2412039616703987,0.035565451662987475,-9.651011282801626
41.3,9.199999809265137,72.0,21.54904556274414,23.068096160888672,-79.78183498705394,40.45939997997459,289.24153425598143,-0.05586228147149086,0.04043549671769142,-0.5398799180984497,0.8389124870300293,0.06872886278324936,7.8467085376993655,1.171743009656907,0.1207416132092476,-0.06609035283327103,0.05301325023174287,-1.4023846538364888,-0.09936229289509356,-9.620183592438698
41.5,9.100000381469727,73.0,21.58535385131836,21.33460998535156,-79.78181776491068,40.45940605938983,289.24086096191405,-0.05497397854924202,0.04022466763854027,-0.5419920682907104,0.8376182913780212,0.0222337870236784,7.843303817088809,1.1365424413269347,-0.07420298457145691,-0.07909959554672241,0.1623980849981308,-1.4338461823761464,-0.01232384752482176,-9.687416632175447
41.71,9.100000381469727,73.0,21.564069747924805,22.36833953857422,-79.78180073031076,40.459411877858244,289.25303175354014,-0.05911143869161607,0.03765484318137169,-0.5420305728912354,0.8374311327934265,0.01663582347757073,7.822944678228392,1.165810506004434,0.09722716361284256,-0.12068700045347215,0.16523556411266327,-1.3305850848555565,0.07145214387215675,-9.569362517595293
41.8,9.100000381469727,73.0,21.427595138549805,24.44375228881836,-79.78179185011224,40.459415191841714,289.2475023498535,-0.059046231210231774,0.03814306110143662,-0.5413393378257751,0.837860643863678,0.007109178368177162,7.848031168831112,1.1819271021050792,0.025806700810790062,0.037995975464582436,-0.15125392377376554,-1.2360646976530552,0.2533040315844119,-9.83926063656807
41.9,9.100000381469727,73.0,21.537776947021484,22.7977352142334,-79.78178331711621,40.45941811402707,289.2552690734863,-0.059728533029556274,0.04027833417057991,-0.5403844118118286,0.8383285999298096,0.01582928111131451,7.845654313949952,1.1899174887326398,-0.06427799165248871,-0.1141449362039566,0.2093041837215424,-1.500897227525711,-0.2371317111700773,-9.607481685876847
42.1,9.100000381469727,73.0,21.42634391784668,25.18326759338379,-79.78176618672076,40.45942429784165,289.2546873321533,-0.06408736109733583,0.038627009838819504,-0.5379008054733276,0.8396806716918945,0.04017666701075084,7.835307815272156,1.1997140011203993,-0.06121653690934181,-0.08322364836931229,-0.037170793861150735,-1.3681917446851728,-0.2402480943873525,-9.469166384339333
42.2,9.100000381469727,72.0,21.43886375427246,24.3721866607666,-79.78175767585213,40.45942723569206,289.2590227355957,-0.06519705802202225,0.03608370944857597,-0.5368961691856384,0.8403510451316833,0.0497523502557708,7.8275903191848215,1.225707212963058,0.00496445968747139,-0.005700823850929737,0.12802451848983765,-1.378542485833168,0.19575805574655533,-9.836054023504255
42.4,9.100000381469727,72.0,21.54153251647949,23.05219268798828,-79.78174062766993,40.459433260039134,289.26022245788573,-0.06131666153669357,0.040654025971889496,-0.5363516211509705,0.8407820463180542,0.08969830717084236,7.8249458446236515,1.2202456000309905,0.046951208263635635,-0.04789444804191589,-0.03517308086156845,-1.4062332911789417,-0.1827557484805584,-9.63836317062378
42.6,9.100000381469727,73.0,21.46640968322754,23.974597930908203,-79.78173199267192,40.459436405073625,289.25407316589354,-0.05919769406318665,0.04163274168968202,-0.5366893410682678,0.8406705260276794,0.07128354487319642,7.816046888125888,1.2004118584281904,0.05100158974528314,0.057825017720460885,-0.037232279777526855,-1.3021199619770047,0.10784129463136197,-9.727989292144775
42.7,9.100000381469727,74.0,21.46014976501465,24.28471755981445,-79.78171499405153,40.45944228664885,289.2625513305664,-0.05641821399331093,0.040201202034950256,-0.5380273461341858,0.8400759696960449,0.060311177400935424,7.833459312691247,1.1620796261467086,-0.055121053010225296,-0.004461430944502354,0.3184504806995392,-1.4153027611970903,-0.2655048683099449,-9.719953463673592
42.8,9.100000381469727,75.0,21.58535385131836,22.757976531982425,-79.78170640294856,40.4594454657617,289.2556982269287,-0.05475214123725891,0.0418870709836483,-0.5386873483657837,0.8396807312965393,0.046589554519535316,7.8219229908419585,1.1484583050006862,0.08173179626464844,0.0018545020138844848,-0.1472395807504654,-1.2929860264062882,-0.1054684397019446,-9.740002981424333
43.0,9.100000381469727,75.0,21.516490936279297,23.10785484313965,-79.78168938283036,40.45945148457791,289.2589426269531,-0.0537969246506691,0.04422049596905708,-0.5396423935890198,0.8390092849731445,0.04051338599315416,7.802788166925829,1.146219126415693,-0.0050381445325911045,0.02303214743733406,-0.21470578014850614,-1.333457383364439,0.2961040604487062,-9.712429266571998
43.1,9.199999809265137,75.0,21.45263671875,23.92688751220703,-79.78168090614231,40.459454391613505,289.2656564941406,-0.05444183200597763,0.04411034658551216,-0.5397325158119202,0.8389155268669128,0.049083326190617664,7.78723661930545,1.1501777487989189,0.15369096398353574,-0.007818724028766155,0.15142765641212466,-1.5336911903321744,-0.08148221092298627,-9.71315490603447
43.3,9.100000381469727,75.0,21.54904556274414,23.23508262634277,-79.78166391768613,40.45946032598958,289.2657938232422,-0.0591929517686367,0.04523304477334023,-0.5388299822807312,0.8391141295433044,0.06669231707782575,7.77873584481428,1.1451540521898087,0.010061812587082386,-0.002950095105916261,0.12926934659481049,-1.3809325352311137,-0.18947697669267646,-9.471752023100851
43.5,9.100000381469727,75.0,21.660476684570312,22.090028762817386,-79.7816468368525,40.459466338381745,289.2632780303955,-0.06566255539655685,0.03984296321868897,-0.5371444225311279,0.839986264705658,0.09929907190115464,7.7794468190994275,1.2319860141967218,-0.08581988513469696,0.1171819269657135,-0.1812541335821152,-1.4374284790456295,0.017409353703260418,-9.478266990780831
43.6,9.100000381469727,76.0,21.515239715576172,22.89315795898437,-79.78163834928063,40.45946922696968,289.26408293151854,-0.06434919685125351,0.03788227587938309,-0.5366324782371521,0.8405056595802307,0.10891367482867294,7.793753543194736,1.2130472471469531,0.008010487072169779,0.008885538205504417,-0.025696508586406708,-1.3289645290374756,0.06044021967798473,-9.639463616609572
43.71,9.100000381469727,75.0,21.61289978027344,21.795812606811523,-79.78162985307367,40.45947212459249,289.26386358642577,-0.0633234977722168,0.03733348101377487,-0.5362581014633179,0.8408469557762146,0.11471436772620225,7.8036285576381115,1.1596450123587674,0.09160947799682616,-0.013344300910830498,0.14640897512435913,-1.3209148134291169,-0.10121230624616147,-9.619411175251008
43.9,9.100000381469727,76.0,21.473920822143555,25.1673641204834,-79.7816127130537,40.459478194251425,289.25317289733886,-0.06503871828317642,0.03950713947415352,-0.5366410613059998,0.8403722643852234,0.09930129000671704,7.828850052158325,1.1324509093679471,0.12970444560050964,0.0475982278585434,-0.16461175680160522,-1.1284597036242483,0.034757750183343886,-9.74688223063946
44.1,9.100000381469727,76.0,21.5352725982666,22.996530532836914,-79.78160407337835,40.45948134845822,289.2475252380371,-0.06242954358458519,0.040903348475694656,-0.5372754335403442,0.8400980234146118,0.07706310210130145,7.83237457885556,1.1938299714741372,0.08056647330522537,-0.04557812586426735,0.0745808333158493,-1.6002247568964958,-0.21253601979464293,-9.558364489674569
44.2,9.100000381469727,75.0,21.58660697937012,21.65267944335937,-79.78158705173104,40.459487248584146,289.24856855773925,-0.058901507407426834,0.041540540754795074,-0.5388694405555725,0.8393002152442932,0.021666717048310344,7.849075530912692,1.1624909448544185,-0.15022297203540802,0.040454909205436713,0.2257670611143112,-1.400798450410366,-0.2691374327614904,-9.81583201289177
44.4,9.100000381469727,76.0,21.524003982543945,22.439905166625977,-79.78156988274758,40.45949338461345,289.2373762359619,-0.057024210691452026,0.04246620833873749,-0.5384122729301453,0.8396768569946289,0.02507287556096995,7.855487694454622,1.1247561555765022,0.10082536935806274,-0.0021357135847210893,0.17018383741378784,-1.3765874692797662,0.04989586260169745,-9.533444241285324
44.5,9.100000381469727,78.0,21.48894691467285,23.529298782348643,-79.78156123416728,40.459496563142295,289.2228441467285,-0.056710481643676765,0.04479071870446205,-0.5379421710968018,0.8398786187171936,0.024058310773774967,7.866509084986085,1.118910369934417,-0.012468674220144749,-0.023517802357673645,-0.017168475314974785,-1.3764195080101491,0.0925601812452078,-9.686479908227922
44.6,9.199999809265137,77.0,21.640443801879886,21.87532997131348,-79.78155270315013,40.45949951710436,289.22223570251464,-0.05607214570045471,0.046171344816684716,-0.5373572111129761,0.840221107006073,0.03852913090391285,7.862069141389401,1.1281425279415291,-0.05348769947886467,-0.032275810837745667,0.07505591213703157,-1.3710136109590532,-0.15814412344247106,-9.683739318251613
44.8,9.199999809265137,77.0,21.5064754486084,23.51339530944824,-79.78153546364675,40.45950567618464,289.2045278778076,-0.056108769029378884,0.043563149869441986,-0.5366200804710388,0.8408288359642029,0.06739484944315599,7.874396834212866,1.1211738490063097,-0.10158690065145493,0.05403447896242142,-0.03572600334882736,-1.3486925961077214,-0.2822624219208956,-9.633946768641474
45.0,9.199999809265137,77.0,21.577842712402344,22.47171401977539,-79.7815269176981,40.45950862186758,289.2034521331787,-0.056025903671979904,0.04077725112438202,-0.5362129211425781,0.8412336707115173,0.07566560366706608,7.877163206711215,1.122276227583077,-0.15314534306526184,0.002434911206364632,-0.039182547479867935,-1.4793079917132854,-0.06101265295408665,-9.770240687727927
45.1,9.199999809265137,78.0,21.534019470214844,23.115806579589844,-79.78150970463967,40.459514686614,289.188750289917,-0.05509605631232262,0.04168181493878365,-0.5351703763008118,0.8419143557548523,0.1098285989854034,7.8784287108936475,1.0929961436292173,-0.05938316136598588,-0.06008727103471756,0.05524005740880966,-1.4084328675270081,-0.243100220002234,-9.612239565253258
45.3,9.199999809265137,79.0,21.526508331298828,22.63870048522949,-79.78150115185491,40.45951761697543,289.189576171875,-0.054413724690675735,0.04438581690192223,-0.5346806049346924,0.8421317338943481,0.13298152785581308,7.873426214752357,1.0935233998818958,0.08348845690488815,0.02273392491042614,-0.11947409063577652,-1.1426172745227814,-0.2425405683740973,-9.674096674919127
45.4,9.199999809265137,79.0,21.501466751098643,24.22110366821289,-79.78148395588677,40.45952377110883,289.1678495635986,-0.05581453815102577,0.044058907777071,-0.5343542098999023,0.8422643542289734,0.13629458921137486,7.870625383972378,1.1236118001803823,0.0540832094848156,0.1049157977104187,-0.1970313340425492,-1.1317772676050664,-0.010483984574675559,-9.812007933855057
45.6,9.199999809265137,79.0,21.61540412902832,21.787860870361328,-79.78147536127577,40.45952690188676,289.1532545318604,-0.05657832697033883,0.04229476675391197,-0.5339877605438232,0.8425360918045044,0.13237111794443132,7.870177892935015,1.1280443894553198,-0.027722867205739014,-0.0724569708108902,0.06002236902713776,-1.4158592699468135,-0.2795647907070816,-9.707995322942734
45.7,9.100000381469727,78.0,21.622915267944336,22.72616958618164,-79.78145827900295,40.459532769411524,289.15234854125976,-0.055058062076568604,0.03868167474865914,-0.5341469645500183,0.8427096009254456,0.14010464800459893,7.865677912794903,1.0720492699884538,-0.10407358407974243,0.05399128794670105,-0.15592533349990845,-1.3698981083929542,0.12103497030213475,-9.630427329540254
45.81,9.100000381469727,78.0,21.490198135375977,24.03821182250977,-79.78144964967174,40.459535879749296,289.13747885131835,-0.04392347857356072,0.03311394527554512,-0.5341805815696716,0.8435788750648499,0.15692977371795025,7.8000058812886035,1.0670415967549292,0.16637803614139554,0.4857023358345032,-0.20755477249622345,-1.665799818634987,0.1930302565544844,-9.991551368236543
46.0,9.0,77.0,21.4138240814209,24.11773109436035,-79.78143271635419,40.45954184926868,289.1193857421875,0.02037996426224709,-0.005270156543701887,-0.5332784056663513,0.84567791223526,0.1640545752364582,7.646660765365209,0.4483137754953447,-0.030022526159882545,0.7889848947525024,-0.0983932837843895,-1.4748926129937172,-0.13174668565392494,-10.254699461460113
46.2,9.0,77.0,21.30990219116211,25.57290458679199,-79.78141663089434,40.45954732427389,289.15090277099614,0.07961955666542052,-0.0406627431511879,-0.5286431312561035,0.8441231846809387,0.22601980037113456,7.2150257963248094,-0.6563300243932776,0.07900580018758774,0.3933229744434357,0.02927250228822232,-1.2119710993766786,-6.38351496309042e-05,-10.312743601799012
46.31,8.800000190734863,99.0,21.388782501220703,24.44375228881836,-79.78140845319619,40.45955025937605,289.1183634033203,0.09748561680316924,-0.05109487473964691,-0.5259038805961609,0.8433926105499268,0.25055056914123314,6.920669158473671,-1.0263527307756606,-0.15857750177383426,0.3268653154373169,-0.17224732041358948,-0.7233239650726319,0.20598849043250084,-10.580581161975859
46.4,8.699999809265138,108.0,21.447628021240234,24.2052001953125,-79.78140106830706,40.459552743867405,289.1416864624024,0.10488028824329376,-0.05794067308306694,-0.5243096351623535,0.8430554866790771,0.2911324036558812,6.583276459806332,-1.2120695767157499,-0.1457609087228775,0.07440392673015593,0.07830306887626648,-0.7372477204352618,-0.3695043778046966,-10.45404390692711
46.6,8.5,109.0,21.54403686523437,22.0661735534668,-79.78138709700458,40.45955766173261,289.17022802734374,0.10277717560529707,-0.055416040122509,-0.5266706943511963,0.8420119285583496,0.29797829427170097,5.963139460518903,-1.1903491817834218,0.08534127473831178,-0.18252648413181305,0.2503121495246887,-0.8746836007386446,-0.19555769724771385,-10.360253398418427
46.8,8.300000190734862,109.0,21.869569778442386,19.05245018005371,-79.78137425932725,40.45956217711583,289.1981306304932,0.08841320872306824,-0.057553213089704514,-0.5340060591697693,0.8388732075691223,0.19356341842267386,5.433427426271738,-1.0296541740754146,0.06624194979667664,-0.05031605064868927,-0.007222986314445734,-0.977531957924366,-0.2605212498642505,-10.162140376567839
46.9,8.0,108.0,21.713064193725586,20.78593635559082,-79.78136844773316,40.459564113467714,289.2109632720947,0.09560895711183548,-0.06025441363453865,-0.5345704555511475,0.837533712387085,0.14015934002465638,5.127672384134634,-1.0108993486796312,0.19709563255310056,0.2663004398345947,0.0683683454990387,-1.0826311276853084,-0.21593769231811166,-9.434640914797782
47.1,7.699999809265138,107.0,21.564069747924805,22.67845916748047,-79.78135735551292,40.459568182225105,289.2089185943604,0.13831351697444916,-0.06993074715137483,-0.53050297498703,0.8333941698074341,0.10319318647232296,4.480022390389421,-1.2781614897048748,0.0196282397955656,0.3078935146331787,-0.01536237169057131,-0.894432352334261,0.08145249975845219,-9.400615966916085
47.2,7.199999809265138,108.0,21.47892951965332,23.903032302856445,-79.7813525064613,40.45956979922974,289.19833853149413,0.15660615265369415,-0.07491988688707353,-0.5283944606781006,0.8310601711273193,0.14463490376095345,4.0684016558708045,-1.4530239471481026,0.08278825879096985,0.2955354452133179,0.08788163214921951,-0.2561365324817598,-0.1488076549395919,-9.569402863383294
47.3,6.9000000953674325,108.0,21.566574096679688,22.32858085632324,-79.78134792509739,40.459571648049696,289.1851072540283,0.16438648104667666,-0.07929009944200516,-0.5277801156044006,0.8295410871505737,0.14388161245271516,3.681706478268339,-1.546133583006989,0.008852064609527588,0.08186795562505722,0.0271734856069088,-0.3701903658360243,-0.3118632202595473,-9.513322218060496
