time,wind_speed,wind_angle,battery_voltage,battery_current,position_x,position_y,position_z,orientation_x,orientation_y,orientation_z,orientation_w,velocity_x,velocity_y,velocity_z,angular_x,angular_y,angular_z,linear_acceleration_x,linear_acceleration_y,linear_acceleration_z
0.0,2.0,130.0,25.49550819396973,0.007951773703098297,-79.78278712729606,40.45904798120861,270.4089294960797,-0.014744428917765616,-0.0020304531790316105,-0.980863392353058,0.19412782788276672,-0.0026921874166442807,0.00740767848655713,0.030661011144331327,0.003975624218583107,0.003151580691337585,-0.002025485970079899,-0.017390063601778822,0.2660570099204779,-9.806057807207107
0.1,2.0,129.0,25.47797966003418,0.007951773703098297,-79.78278714304132,40.45904790337789,270.43338358309865,-0.014748341403901575,-0.002024764660745859,-0.9808651208877563,0.19411863386631006,-0.0017851174939503996,0.00906283173149739,0.029781471728607494,-0.0050206538289785385,-0.003492195857688785,-0.006964638829231261,-0.02240608041873202,0.2911203689128161,-9.802686302661897
0.3,2.0,129.0,25.48173522949219,0.007951773703098297,-79.78278713664196,40.45904789661865,270.4363532690406,-0.014756392687559128,-0.0020424120593816038,-0.9808708429336548,0.1940890550613404,-0.0013755705332748314,0.00926798985780982,0.029747700130470064,0.00012660952052101493,-0.002197178080677986,0.00767630897462368,-0.01806778901489452,0.2659807951189578,-9.806414487361911
0.4,2.0,131.0,25.486743927001953,0.0,-79.78278713904473,40.459047804891135,270.4637906281352,-0.014732014387845991,-0.0020509141031652693,-0.9808804988861084,0.19404220581054688,-0.0016121936339085546,0.011731908933814657,0.03171302409675534,-0.005738781299442053,-0.001441014464944601,-0.006022079847753048,-0.02052055208478123,0.2940665433369577,-9.80207819223404
0.61,2.0,131.0,25.49175262451172,0.015903547406196594,-79.78278713179192,40.459047795899096,270.46695415210723,-0.014739979989826681,-0.0020618645939975977,-0.9808840751647948,0.19402337074279785,-0.0013705546915012796,0.011902829859915188,0.031748041637780305,-0.002829858800396323,-0.002300740219652653,0.005284520797431469,-0.019945766218006613,0.26670771365985274,-9.806619139909747
0.71,1.8999999761581416,135.0,25.486743927001953,0.015903547406196594,-79.78278713881478,40.459047712755606,270.49484792631864,-0.014738714322447775,-0.002050927141681313,-0.9808916449546814,0.1939850151538849,-0.00192987836401722,0.011296393445806168,0.033533570475663216,-0.006647188682109118,-0.00011127736797789112,-0.00774325942620635,-0.020386915798299016,0.2942850830219686,-9.803055846691132
0.9,1.8999999761581416,136.0,25.48173522949219,0.015903547406196594,-79.78278713086678,40.4590477041438,270.49819250684976,-0.014751010574400425,-0.00205974536947906,-0.9808965921401978,0.19395911693573,-0.0016821732941943275,0.011543756936790429,0.03361627782602372,-0.0030358354561030865,0.0007599764503538609,0.004625272471457721,-0.020528879798948758,0.267306742630899,-9.807062943577767
1.0,1.7999999523162842,135.0,25.486743927001953,0.02385532110929489,-79.78278711225106,40.45904761780847,270.5247638328076,-0.014737076126039028,-0.0020747953094542027,-0.9809020161628724,0.19393271207809448,-0.005502255131971843,0.012346828048908529,0.032320232753473815,-0.005781309213489294,-0.0006539486348628997,-0.005404619034379721,-0.021174126898404214,0.2942556094005704,-9.803085082769394
1.2,1.7999999523162842,135.0,25.49049949645996,0.007951773703098297,-79.78278713033798,40.45904755654063,270.55308687222004,-0.014736004173755647,-0.0020794207230210304,-0.9809141755104064,0.19387130439281464,-0.003254169868345488,0.006309530536601668,0.03333188332814675,0.004711723420768976,0.0043934970162808895,-0.003642057301476598,-0.0200185937457718,0.26608878588303925,-9.807627784609798
1.3,1.7999999523162842,132.0,25.49801254272461,0.015903547406196594,-79.78278712190195,40.45904755281096,270.5564178330898,-0.01473274640738964,-0.002089465968310833,-0.9809166193008424,0.19385866820812225,-0.0053390347446780045,0.006538724583609859,0.03368720384407325,-0.0063994978554546824,-0.0032268837094306946,-0.004678573925048113,-0.023450667222496124,0.2888023133575917,-9.803473337888716
1.4,1.7999999523162842,133.0,25.49049949645996,0.015903547406196594,-79.78278713011488,40.45904747357985,270.57959240210056,-0.01473744586110115,-0.0020620254799723625,-0.9809192419052124,0.1938454955816269,-0.0025090043417236693,0.007697351916740836,0.03207648189900718,0.0069796452298760405,-0.0009489894728176297,0.0068376618437469006,-0.016289824324194343,0.26612176783382896,-9.80563680768013
1.6,1.7999999523162842,134.0,25.48799705505371,0.015903547406196594,-79.78278713240769,40.459047386277796,270.60624347162246,-0.014733182266354559,-0.0020521075930446386,-0.9809256196022034,0.19381357729434967,-0.002788829953374889,0.008718471619865154,0.03037418259421793,-0.00460737431421876,-0.0014510599430650473,-0.003888058243319392,-0.02206603285158053,0.2876640614680946,-9.803379197716714
1.81,1.7000000476837158,136.0,25.48924827575684,0.03180709481239319,-79.78278712503962,40.45904738024184,270.60927140247816,-0.014733498916029932,-0.002039806917309761,-0.9809361100196838,0.1937607377767563,-0.002178027794955936,0.008671954972075497,0.03040051182233939,0.004511989653110504,0.0028737601824104786,0.00694881146773696,-0.017194459391757847,0.2673297294974327,-9.80544151067734
1.9,1.7000000476837158,136.0,25.482988357543945,0.015903547406196594,-79.78278713050348,40.45904728774292,270.6361435903311,-0.014766198582947252,-0.002050881739705801,-0.9809435606002808,0.19372043013572693,-0.002157409185898412,0.009732047335837732,0.029242679791514844,-0.007435698062181474,-0.004050448071211577,-0.0030075253453105692,-0.022128543241415173,0.2815529171191156,-9.805181309580805
2.11,1.7000000476837158,134.0,25.482988357543945,0.015903547406196594,-79.7827871232199,40.45904728085753,270.63906031382083,-0.014764681458473206,-0.0020518021192401648,-0.9809489250183104,0.1936931163072586,-0.0016754593374298373,0.009367723920406114,0.02924815271289138,0.007229268550872803,0.00030342946411110466,0.008072942495346071,-0.013878260141937064,0.2717944440990687,-9.806507458090783
2.21,1.7000000476837158,132.0,25.49801254272461,0.015903547406196594,-79.78278710341165,40.459047202992785,270.6667365534305,-0.014784593135118484,-0.0020619907882064572,-0.9809569120407104,0.1936509907245636,-0.00613168570551275,0.008625296441996921,0.028896590068698564,-0.003886653576046229,-0.0023150637280195947,0.0022620765957981352,-0.02169988294830546,0.27237759422510865,-9.805815732479095
2.4,1.7000000476837158,130.0,25.486743927001953,0.0,-79.78278708589328,40.45904711079749,270.6942826611996,-0.014794046059250832,-0.0020478256046772003,-0.9809648990631104,0.1936102956533432,-0.008242915889783984,0.009995454128383657,0.028755879116364493,-0.0013126577250659466,-0.004254824947565794,-0.0028521432541310787,-0.012643212850671262,0.2813221896439791,-9.804407722949984
2.5,1.600000023841858,128.0,25.474224090576172,0.0,-79.78278707246857,40.45904710528622,270.6971234483719,-0.01479798834770918,-0.0020466905552893877,-0.9809695482254028,0.19358639419078827,-0.007927639686332984,0.010379975805894118,0.028632708319990718,0.002709784545004368,-0.0007885873783379793,0.0065088276751339436,-0.01849611811805516,0.26526138659566645,-9.805840290784836
2.7,1.600000023841858,126.0,25.480484008789066,0.015903547406196594,-79.78278707930009,40.45904700705596,270.7251740498544,-0.014782563783228397,-0.0020731878466904163,-0.980977475643158,0.19354686141014105,-0.0063410635016072255,0.010361583539412444,0.027850517709568392,-0.008837999776005745,-0.00282171368598938,-0.0053170393221080295,-0.011774848792701959,0.28932563915848736,-9.803173375725748
2.8,1.600000023841858,127.0,25.486743927001953,0.007951773703098297,-79.78278706719955,40.45904700083333,270.72793648672103,-0.014792424626648424,-0.0020746239461004734,-0.9809828996658324,0.19351863861083984,-0.005790197666251443,0.010362060566140856,0.027801257549878517,0.0037550413981080055,-0.00033346633426845085,0.007379883900284767,-0.016222850864287458,0.2664776439964772,-9.805853739380836
3.0,1.600000023841858,127.0,25.47797966003418,0.015903547406196594,-79.7827870829708,40.45904690457999,270.7542265458107,-0.014782645739614962,-0.002061360981315375,-0.980987548828125,0.19349581003189087,-0.00411359652327857,0.010312153816346285,0.027390128664062558,0.0016472586430609224,0.0009934285189956429,-0.002854113467037677,-0.014023426406783984,0.2937378932721913,-9.803033627271653
3.1,1.600000023841858,125.0,25.47672843933105,0.0,-79.78278709058694,40.45904679705612,270.7841642303467,-0.014806221239268781,-0.0020568703766912213,-0.9809956550598145,0.1934534162282944,-0.0013147881639538886,0.011092096122172577,0.02693496541067219,0.007717014756053686,0.003109523793682456,0.008914949372410774,-0.012112932060845195,0.2712797612138093,-9.804926370978356
3.3,1.600000023841858,126.0,25.48924827575684,0.007951773703098297,-79.78278708229442,40.45904678896983,270.786866168499,-0.014796473085880281,-0.002048747381195426,-0.9810026288032532,0.19341881573200226,-0.003847973901749215,0.010701929293480955,0.027314229304271187,-0.002278428524732589,-9.476391824136954e-06,-0.0070820762775838375,-0.016921753019560132,0.2962968541122973,-9.801573577523232
3.4,1.7000000476837158,124.0,25.47797966003418,-0.015903547406196594,-79.78278708813372,40.459046678775,270.8181035919189,-0.014807142317295074,-0.00203172885812819,-0.981014370918274,0.1933584362268448,-0.001513943170912334,0.011139176963773095,0.027063278788454243,0.006180849857628346,0.004649314563721418,0.00642527686432004,-0.0113586081226822,0.2751030545309186,-9.805866018533706
3.6,1.7000000476837158,123.0,25.47797966003418,0.015903547406196594,-79.78278709172763,40.45904658201615,270.84781898093223,-0.014840291813015938,-0.0020272394176572557,-0.9810221791267396,0.1933165192604065,-0.0031929497531970447,0.009374061498477994,0.024977759401156128,-0.003820139216259122,-0.002283240435644984,0.000981562421657145,-0.017294972115196292,0.2973601702786982,-9.802815526127816
3.7,1.7000000476837158,121.0,25.4942569732666,0.03180709481239319,-79.78278708337959,40.45904657576885,270.85031736922264,-0.014839489944279194,-0.002012263517826796,-0.9810251593589784,0.19330142438411715,-0.0034097242796476595,0.008942213540505832,0.025187781325206042,0.0034547669347375627,0.0012078704312443733,0.006121440324932337,-0.0128677219490055,0.2767572135664523,-9.805615757703784
3.9,1.7000000476837158,124.0,25.48173522949219,0.02385532110929489,-79.7827870733403,40.45904656998261,270.8528357846737,-0.01483999565243721,-0.0020067826844751835,-0.9810280799865724,0.19328664243221289,-0.006130733734324836,0.008999147154352384,0.02549424215504929,-0.003176242345944047,-0.0008753336733207108,-0.0044427807442843905,-0.018437419838737697,0.29540827833116057,-9.802215601801873
4.0,1.7000000476837158,125.0,25.48173522949219,0.015903547406196594,-79.78278708254231,40.45904643220592,270.882679115057,-0.014833020977675915,-0.001991562778130173,-0.981030523777008,0.19327491521835327,-0.0019359442633444825,0.012984266426714313,0.022508288800984003,0.008224000222980976,0.002979890676215291,0.004784995224326849,-0.01242982145631686,0.2827754420042038,-9.803198518753053
4.2,1.7000000476837158,128.0,25.48173522949219,0.007951773703098297,-79.78278710792456,40.45904635007549,270.91026256513595,-0.014817914925515653,-0.00201462022960186,-0.98103266954422,0.19326475262641907,-0.0028554107641345517,0.006988169713034618,0.017881340225419953,-0.0048908116295933715,-0.001747409231029451,-0.003638208378106356,-0.02102669940562919,0.29442876007407903,-9.80261321246624
4.3,1.7999999523162842,130.0,25.482988357543945,0.015903547406196594,-79.78278709426253,40.459046340591605,270.91380683612823,-0.014835504814982413,-0.00202430714853108,-0.9810388684272766,0.19323189556598666,-0.003811221615543454,0.006847404868880756,0.017868737516977738,0.0030718876514583826,0.0066470857709646225,-0.00013554934412240982,-0.01057040573679842,0.2902487135119736,-9.801563052535057
4.5,1.7000000476837158,134.0,25.479232788085927,0.007951773703098297,-79.78278713272005,40.45904621336899,270.94560686779016,-0.01483211014419794,-0.00201562256552279,-0.9810473322868348,0.1931896209716797,0.0012209612998516821,0.007543368375529691,0.01681726179721641,0.0039614890702068814,0.0026557836681604385,0.007699052803218366,-0.021846387677360333,0.28694098016247155,-9.803848144412044
4.61,1.7000000476837158,134.0,25.49175262451172,0.015903547406196594,-79.78278714135811,40.459046109359214,270.97658644151693,-0.014816046692430971,-0.0020286405924707647,-0.981050670146942,0.19317379593849185,-0.0010267860104547623,0.006166281316130619,0.016858315625761816,-0.0005780724459327757,0.0015067021595314145,-0.004852442070841789,-0.01497413913253695,0.2946023675613105,-9.801971188187599
4.8,1.7000000476837158,136.0,25.486743927001953,0.0,-79.78278713720924,40.45904610450211,270.9782686634064,-0.014835896901786327,-0.002036075806245208,-0.98105126619339,0.19316890835762024,-0.0018504761596595657,0.0067071082864193325,0.01695297009933127,-0.0020967721939086914,-0.003597090719267726,-0.0014511956833302975,-0.02238770965486765,0.27555884499102834,-9.803898430466653
4.9,1.7000000476837158,137.0,25.485492706298828,-0.007951773703098297,-79.78278717202575,40.45904597822261,271.0093261404037,-0.014803338795900343,-0.002019508508965373,-0.98106187582016,0.19311775267124176,0.001924786434559668,0.006727140840310631,0.011703961450406957,-0.0005686176009476185,-0.0009680148214101792,-0.007391325198113919,-0.01691413793480024,0.2980891901627183,-9.80146189570427
5.1,1.7000000476837158,137.0,25.49049949645996,0.007951773703098297,-79.78278718335139,40.45904585046525,271.043469707489,-0.01478544622659683,-0.0020000780932605267,-0.9810701608657836,0.1930771768093109,0.0022221509653874037,0.008210068360771063,0.012626947472386038,0.006007610354572535,0.002323649590834975,0.003620266448706389,-0.020028378695715214,0.2688507547415793,-9.804846264123915
5.2,1.600000023841858,137.0,25.4942569732666,-0.015903547406196594,-79.78278718086673,40.45904584311943,271.0447523994446,-0.014790979214012625,-0.002012912184000016,-0.9810765385627748,0.1930442899465561,-0.00020658758891306279,0.008454555709135574,0.013058282988408035,-0.008242927491664886,-0.00260639563202858,-0.0074244015850126735,-0.021278348949272188,0.2941756669990718,-9.802840669155124
5.41,1.7000000476837158,138.0,25.485492706298828,-0.007951773703098297,-79.78278717684503,40.45904583611622,271.046054582119,-0.014795361086726187,-0.002006647875532508,-0.9810803532600404,0.19302447140216827,0.00017057234289030411,0.00875896837439397,0.01300454258648514,0.002744618570432068,-0.0008400607039220631,0.007522733882069588,-0.0184890032443218,0.2648332059569657,-9.806044943332672
5.5,1.600000023841858,139.0,25.47797966003418,-0.02385532110929489,-79.78278718535627,40.459045722130455,271.0794286532402,-0.014797856099903584,-0.001999581465497613,-0.9810877442359924,0.19298677146434784,-0.003010056312628012,0.00668916901702476,0.0109166535439062,-0.007709049154073002,-0.0007535339682362974,-0.007832412607967855,-0.021959236655384302,0.2872466250881553,-9.803769207000732
5.71,1.600000023841858,136.0,25.38783264160156,0.3101191818714142,-79.7827871611495,40.459045552762255,271.118157784462,-0.014799093827605247,-0.001968334661796689,-0.9811006784439088,0.1929212510585785,-0.004903089233848189,0.01629801814575219,0.016990993944179026,-0.0033027634490281343,-0.0018603557255119085,-0.008875606581568718,-0.022179155917838214,0.2760080207884312,-9.805205867886544
5.8,1.600000023841858,135.0,25.42163848876953,0.2942156493663788,-79.78278714853822,40.459045540928656,271.1198491854668,-0.014810719527304173,-0.0019739039707928896,-0.9810987710952759,0.192930206656456,-0.005120606761734575,0.016601371241831413,0.01719395879172168,-0.0045260158367455006,-0.004153913352638483,0.008493654429912567,-0.01821558424271644,0.2781969990581274,-9.806579378843306
6.0,1.5,134.0,25.40285682678223,0.3021674156188965,-79.78278715535974,40.45904534010555,271.16208473873144,-0.014811849221587181,-0.0019403983606025574,-0.9811100363731384,0.1928732544183731,0.0007762478862029106,0.0297384837972805,0.02840824018295725,0.005788728129118681,-0.00038804419455118483,-0.0025785183534026146,-0.013980668642325328,0.2857275732792914,-9.801862429976463
6.1,1.600000023841858,133.0,25.42414093017578,0.3101191818714142,-79.78278715697812,40.45904515939247,271.20653651189804,-0.014824531972408296,-0.0019254568032920358,-0.9811204671859741,0.19281938672065727,0.0013363277457957767,0.031722796345567336,0.03430543207837011,0.0051338127814233294,-0.0017725577345117927,0.011662882752716541,-0.013782832897268235,0.2671567432768643,-9.809254480004313
6.3,1.7000000476837158,134.0,25.42038536071777,0.3578298389911652,-79.78278712504873,40.45904510760477,271.2134376568794,-0.01482789684087038,-0.0019187956349924207,-0.981123983860016,0.19280079007148745,-0.0021029232199612337,0.032387638672028166,0.034932940244871105,-0.003327022772282362,-0.004390400368720293,-0.003710067830979824,-0.016939895376563072,0.2966224526613951,-9.804452746510506
6.4,1.7000000476837158,132.0,25.41162109375,0.3578298389911652,-79.78278715046173,40.459044981830225,271.2549131317138,-0.014822041615843771,-0.0019167690770700574,-0.9811272025108336,0.192784920334816,-0.002846307875425529,0.02646725571878849,0.0354972150829271,0.0040682503022253505,0.0038821049965918064,0.00020769023103639486,-0.011508642879780382,0.2773372756317258,-9.809739798903466
6.6,1.7000000476837158,132.0,25.390336990356445,0.4373475611209869,-79.78278713364061,40.459044961448576,271.2584698600769,-0.014814615249633787,-0.0019160071387887,-0.9811368584632874,0.19273632764816284,-0.005171240808033886,0.02622264007401201,0.03585604489118638,-0.0027037158142775297,0.0021452379878610373,-0.0022774029057472944,-0.012129756510257722,0.29446292974054816,-9.801821499466897
6.7,1.7999999523162842,132.0,25.35152244567871,10.202125549316406,-79.78278717271512,40.45904480082622,271.30197123718256,-0.014801172539591791,-0.0019084012601524594,-0.981148362159729,0.19267922639846802,-0.001264765617848439,0.022958445333624632,0.03347407078856597,0.008415628224611279,-0.0006597123574465513,0.0055062337778508655,-0.011813665396766737,0.28135635931044817,-9.815559532642363
6.9,1.8999999761581416,131.0,25.09360122680664,0.7156596779823303,-79.78278715774356,40.45904478407019,271.3053387207985,-0.01483858563005924,-0.0018900365103036163,-0.9811497926712036,0.19266898930072784,-0.006077113407302845,0.021876054518304468,0.0337195029575952,-0.0018594545545056464,-0.004266913514584303,-0.009650664404034616,0.004380352527368814,0.338495606482029,-9.802309157252314
7.0,2.0,131.0,25.31270980834961,0.2942156493663788,-79.78278720282759,40.45904462183993,271.34940914344793,-0.014790688641369345,-0.0018538266886025667,-0.9811496138572692,0.19267381727695465,-0.003437793341750808,0.019616198234274053,0.030936052078975894,0.02347130142152309,-0.037289101630449295,0.040016863495111465,0.009059634818695487,0.2946656819432974,-9.822980818748476
7.21,2.0,131.0,24.63034248352051,2.958059787750244,-79.78278726221559,40.459044451573185,271.394989768982,-0.01475402060896158,-0.0019386537605896594,-0.9811677932739258,0.19258347153663635,-0.0003151015042908344,0.015706880715489244,0.030733638454415527,0.008199930191040039,0.047863930463790894,0.02655058354139328,-0.0315964461886324,0.2591330843232572,-9.789582692384721
7.3,2.0999999046325684,131.0,25.15620231628418,0.6997560858726501,-79.78278725075731,40.4590444372224,271.39803556632995,-0.014802638441324234,-0.0018764614360407,-0.9811617136001588,0.19261150062084198,-0.002436486022001375,0.01910217946280677,0.03149759679573203,0.0006386643508449197,-0.02210136689245701,-0.009918253868818285,0.0016082424041815105,0.3168651843443513,-9.843299893140793
7.5,2.0999999046325684,133.0,25.396596908569336,0.2465049922466278,-79.78278734757737,40.45904427970283,271.4405167503357,-0.014778254553675653,-0.0018835116643458605,-0.981171488761902,0.1925632357597351,0.002153584812597107,0.01651416138400823,0.029310261097335037,0.033669427037239075,-0.0038726527709513907,-0.04791184142231941,-0.023754117158241567,0.31682421728968624,-9.794179773330688
7.6,2.299999952316284,132.0,25.263879776000977,1.6142101287841797,-79.78278739804341,40.459044095592546,271.48759273719793,-0.014777985401451588,-0.0018864949233829973,-0.98118257522583,0.1925068795681,-0.001485442815101741,0.014969721463162028,0.029093684775880282,0.016795732080936432,-0.006680029444396496,-0.0226505808532238,-0.026247379048727454,0.26039429219439625,-9.814160878658297
7.8,2.299999952316284,134.0,24.61907386779785,4.794919490814209,-79.7827873774987,40.45904407126029,271.49343387317657,-0.014801338315010069,-0.001892395201139152,-0.9811908006668092,0.19246305525302887,-0.0018599557890665512,0.01678047988015612,0.02968695928662826,0.02455229870975017,-0.006851617246866226,-0.03043860755860805,0.006804886793252082,0.21137998871505265,-9.8348015499115
7.9,2.299999952316284,135.0,24.427509307861328,5.772987842559815,-79.78278748587404,40.4590438774616,271.536027352333,-0.01477986853569746,-0.0019161105155944824,-0.9811915755271912,0.19246043264865875,0.002954342812237458,0.015008551556503815,0.024310385831241656,0.009065991267561913,0.04757602512836456,0.02842014841735363,-0.009037129890639336,0.25871098844334484,-9.782246775627137
8.1,2.4000000953674316,139.0,24.064414978027344,8.19827938079834,-79.78278759741812,40.45904376136365,271.5784377260208,-0.01468938309699297,-0.001806380227208137,-0.981187343597412,0.19249027967453008,0.0009790166420813326,0.0036067750321961962,0.016963171847544027,-0.02724260836839676,-0.017962310463190082,0.06424296647310257,-0.013229636047035457,0.2488797541335225,-9.826137145757677
8.2,2.4000000953674316,139.0,23.86784362792969,9.73297119140625,-79.78278759433316,40.45904375961674,271.58019200992584,-0.014438824728131294,-0.001738782273605466,-0.9812039732933044,0.19242478907108307,0.0054843628238333535,0.0005717919218617585,0.018152756252083468,0.0646597221493721,0.01525346003472805,-0.07616319507360457,-0.07015641001984478,0.18586924463510515,-9.825826073884963
8.4,2.4000000953674316,141.0,23.44214630126953,12.28549098968506,-79.78278768922459,40.45904356356953,271.6199514074325,-0.012924045324325563,-0.0015892816008999946,-0.9812316298484802,0.19239291548728946,0.005749813973928271,0.01154235651670492,0.014521782209435247,0.07802607864141464,-0.12270661443471907,0.03483375161886215,-0.04434989732690156,0.5047660075128079,-9.812046525478364
8.5,2.4000000953674316,142.0,23.24432182312012,13.875845909118652,-79.78278768537419,40.45904355590071,271.62149361801147,-0.012023127637803556,-0.0014654180267825725,-0.9812567234039308,0.19232429563999176,0.007306112268903722,0.009358564516592257,0.01935659964557591,0.14285357296466827,-0.04768745601177216,-0.15901821851730347,-0.02750204077921808,0.6761941643804312,-9.854976782798767
8.7,2.4000000953674316,142.0,22.831144332885746,17.223543167114258,-79.782787778204,40.459043438928106,271.6627762718201,-0.0096292020753026,-0.004499528091400862,-0.9813273549079896,0.19205111265182487,-0.001840885977652188,-0.008326420158290212,0.022654044846613538,0.001941703259944916,0.0065058497712016106,0.035082124173641205,0.09376655319705604,0.09749551448039713,-9.914956351518633
8.8,2.4000000953674316,144.0,22.640832901000977,18.479923248291016,-79.7827877822328,40.459043441900185,271.66553477478027,-0.008168429136276245,-0.006175678223371507,-0.9813581109046936,0.19191567599773407,-0.003082163142709796,-0.011692976911743556,0.029189927099702237,0.015366557054221632,0.07438518106937407,0.10503208637237547,0.03347985033877194,0.1949043622612953,-9.894482910633089
9.0,2.4000000953674316,144.0,22.265216827392575,21.62882423400879,-79.78278779679125,40.45904337932103,271.7013242645264,-0.006575692445039749,-0.008969346992671491,-0.9813271760940552,0.1920243203639984,-0.003083168605086964,-0.016771993025080006,0.03801349156285762,-0.001925171818584204,0.1848023682832718,-0.2833319902420044,0.25055010264739397,0.13579738084226847,-9.91130184173584
9.21,2.4000000953674316,144.0,21.82699966430664,24.817485809326172,-79.7827878392182,40.459043256679074,271.73584763240814,-9.62133490247652e-05,-0.01873750984668732,-0.9809240102767944,0.19348683953285212,-0.003830694064101472,-0.05382986928402777,0.07465167252897095,0.045525390654802315,0.18970495462417605,-0.055398188531398766,0.0199905659398064,0.11452550265938045,-10.080450096130374
9.31,2.299999952316284,147.0,21.64545249938965,26.360130310058594,-79.78278791611379,40.45904343213101,271.76115957927703,0.010992202907800673,-0.04056944325566292,-0.980040967464447,0.19430147111415866,-0.015382664746566653,-0.1487791341527957,0.20492668343644813,0.031690455973148346,0.21046996116638186,-0.017240598797798157,0.053520556152798236,0.08825367037206887,-10.215374597311019
9.41,2.299999952316284,145.0,21.72182846069336,24.97652244567871,-79.78278776286774,40.45904317336722,271.78692177963256,0.012142758816480637,-0.049800027161836624,-0.979805052280426,0.19327352941036224,-0.011143557578340502,-0.17070564968984475,0.24938730201767445,0.01017004158347845,-0.07028760761022568,-0.022451503202319145,0.6579276088625193,0.1117042393796146,-10.52234055519104
9.6,2.299999952316284,144.0,22.256452560424805,19.815820693969727,-79.78278784859053,40.45904335218308,271.8133509559632,0.009157034568488598,-0.037748686969280236,-0.9804258942604064,0.1930188089609146,-0.0027878836862729765,-0.18736762391144965,0.2992792020852209,-0.002872806740924716,-0.5702736973762512,0.06069377809762955,0.6522256234288216,-0.23906533056870105,-10.088382428884506
9.7,2.299999952316284,146.0,22.2526969909668,20.33268547058105,-79.78278838392444,40.45904393999836,271.8780043525696,-0.0051487386226654035,0.003048137528821826,-0.9815965890884399,0.19087283313274386,-0.006210711256215862,-0.2903378865134807,0.218878994004329,-0.0929328128695488,-0.3710813820362091,0.13280808925628662,0.11709397436119615,0.10022008856758476,-9.564361394047738
9.9,2.299999952316284,141.0,22.09619140625,21.962799072265625,-79.78278873872273,40.459044506669,271.9384293956757,-0.008270533755421637,0.022753093391656886,-0.981523871421814,0.1898023933172226,-0.013223451368122354,-0.2512939066542048,0.05152691516057268,-0.008897662162780762,-0.030678126960992813,0.017705332487821582,-0.0056098643783479936,0.23917792601510884,-9.418608434200287
10.0,2.299999952316284,140.0,22.06238555908203,21.899185180664066,-79.78278882242297,40.45904470601008,271.9409948987961,-0.006629296578466892,0.022324301302433014,-0.9814146161079408,0.1904811412096024,-0.016509957849823884,-0.21370695901633666,-0.013738778112598129,0.010426620952785015,0.0730452910065651,-0.038541942834854126,-0.09623188549652696,-0.0033478781394660475,-9.247276244759561
10.2,2.299999952316284,140.0,21.75438117980957,24.61869239807129,-79.78278889944332,40.45904488833373,271.98717502784734,-0.005875261500477791,0.015943743288517002,-0.9813523292541504,0.19146563112735748,-0.03219754998073385,-0.19933235345816447,-0.02705319223652217,-0.042786069214344025,0.1762954741716385,0.04230239614844322,0.03459866937249899,-0.17393142297863962,-9.33513943076134
10.3,2.299999952316284,141.0,21.730592727661133,24.89700508117676,-79.7827889848857,40.4590451886316,271.97972790431976,-0.0008426955319009721,0.0018148643430322407,-0.981088161468506,0.1935514658689499,-0.02919625404329115,-0.14414301169391106,-0.0399748468622096,0.034503474831581116,0.13979126513004306,0.01268662977963686,0.17268163545057175,-0.13794975919649005,-9.717994646430016
10.5,2.4000000953674316,141.0,21.783178329467773,23.608816146850586,-79.7827892026572,40.45904550938409,272.042328040123,0.0011885002022609115,-0.0005078414687886834,-0.980868637561798,0.1946665644645691,-0.030967570049463256,-0.1325803310365258,0.03801556740378822,-0.06732724606990814,-0.07858207076787949,0.011229565367102623,0.1787854890525341,0.2004498250409961,-9.790880189538004
10.6,2.4000000953674316,140.0,21.75563240051269,24.61869239807129,-79.78278927121605,40.45904557640853,272.07528440189355,0.0011697182198986411,0.0014873228501528502,-0.9806494712829592,0.19576311111450195,-0.008151368102814612,-0.1332290138352172,0.06224114110056957,0.1408534049987793,-0.05102187767624855,-0.0022710554767400018,-0.010316489255055784,0.029247941714711487,-9.911978949308397
10.8,2.4000000953674316,141.0,21.60538673400879,25.42182159423828,-79.78278933922729,40.45904578723512,272.09366862010955,-0.0041015055030584335,0.005215350538492203,-0.9808157086372375,0.19482453167438507,-0.013668672556942244,-0.11108644436932386,0.11896531215950365,-0.05535706877708435,-0.018942270427942283,0.08832406252622604,0.02873929333873093,0.21258195698261265,-10.075168890953064
10.9,2.4000000953674316,141.0,21.64545249938965,24.42784881591797,-79.7827895601097,40.45904575225901,272.116887251854,-0.005683938506990671,0.0061688199639320365,-0.980872929096222,0.1944683939218521,0.014624616686785488,-0.08365426415784585,0.14601037925761476,0.16452839970588684,-0.05431930348277092,-0.017531562596559525,0.03983557275496424,0.0999525053612888,-10.051232728958132
11.1,2.4000000953674316,140.0,21.65797233581543,25.23097801208496,-79.78278979220109,40.45904583264736,272.1514752311706,-0.0035935174673795704,0.009000976569950579,-0.9808721542358398,0.19441190361976626,0.005380561353013724,-0.04263896057907037,0.15656757361966073,0.018940575420856483,-0.07797133177518845,0.03236684203147888,0.16281319823116064,0.3183342607319355,-10.060988223552704
11.2,2.4000000953674316,140.0,21.51899528503418,26.002300262451172,-79.78278981066174,40.45904585836917,272.1677254838944,-0.0020398355554789305,0.010478024370968342,-0.9810125827789308,0.1936505138874054,0.009708791367179996,-0.01587268266507938,0.16359231675559147,0.09066708385944366,-0.10261239111423492,0.009508847258985044,0.11025084083899857,-0.2119047397747636,-9.877895529270171
11.4,2.4000000953674316,140.0,22.568214416503906,18.29703140258789,-79.78278984523031,40.45904593081629,272.2010928792953,-0.004433325491845608,0.011655811220407486,-0.9811956286430359,0.1926130503416061,0.013027956816476885,0.002299368655147429,0.05767990845985493,-0.03987302258610725,-0.051479984074831016,-0.020706376060843468,0.0911250369809568,0.07845618546009064,-9.89439403295517
11.5,2.5,140.0,21.60538673400879,25.92278289794922,-79.78278986150741,40.459045925572326,272.20208100509643,-0.005202671512961389,0.008587324991822244,-0.9809837341308594,0.19383041560649872,0.023536173332777462,0.0024464701208124326,-0.02359261416199245,0.06742972880601883,0.1349908709526062,-0.030294399708509445,-0.22098932119086387,0.05642671826295555,-9.065740079283717
11.7,2.5,140.0,21.05072784423828,31.46516990661621,-79.78279014988979,40.45904604788618,272.22969154548645,0.0004849103570450097,-0.007780909538269044,-0.9807157516479492,0.19528409838676453,0.01630842999513118,-0.00012576700874586096,0.022302420727931,-0.1230308562517166,0.10268398374319077,0.025171255692839626,-0.10770797811448576,0.09210783516056836,-9.42230095088482
11.8,2.5999999046325684,140.0,20.844141006469727,32.642032623291016,-79.78279017299383,40.45904604178017,272.23622862529754,-0.0032026327680796385,-0.010409556329250336,-0.9807933568954468,0.19474534690380094,0.019084777181822426,-0.007526842888273755,0.1136695767736228,-0.116575226187706,0.03867114707827568,0.027265753597021103,0.1729710178077221,0.14567387625575065,-10.627004545927047
12.0,2.5999999046325684,141.0,20.447240829467773,38.30369567871094,-79.78279029053049,40.459045909683574,272.302211443901,-0.008169962093234062,-0.002971367677673697,-0.9810336828231812,0.19364242255687714,0.012062822794593864,-0.0005948270148850777,0.4261152547861121,0.012192966416478157,-0.1127455085515976,-0.05194363370537758,0.04076582822017372,0.16730532165616752,-10.895019861459732
12.1,2.5999999046325684,141.0,20.26944923400879,38.38321304321289,-79.7827904311385,40.459045972329434,272.3543545408249,-0.008069658651947975,0.0020759361796081066,-0.9809762835502625,0.19394902884960166,0.010038418978525912,-0.013268199206891505,0.6262874420946354,0.07564347982406616,-0.05847503989934921,7.817865844117478e-05,-0.12925895120948555,0.1423956165276468,-12.006802428960805
12.3,2.5999999046325684,141.0,20.28948211669922,36.83261489868164,-79.78279043912829,40.459045986956646,272.4285948677063,-0.0022230143658816814,0.000795962056145072,-0.9811221957206726,0.1933746635913849,0.018111256030595844,-0.02700572976936031,0.8539254349955809,0.1542983204126358,0.15523996949195862,0.034000884741544724,-0.013115752385929227,0.1532392231374979,-12.104011219739911
12.4,2.700000047683716,139.0,20.065364837646484,38.566104888916016,-79.78279056259474,40.45904599868289,272.6474912567138,0.012781070545315742,-0.008831007406115532,-0.9820382595062256,0.18804162740707397,0.02480142939649901,-0.038915408141387234,1.2905583100504814,0.09912511706352234,0.0163075253367424,0.09869401901960373,0.027009684664662928,0.09643974487669768,-12.044170814752581
12.6,2.799999952316284,139.0,20.31201934814453,36.95984649658203,-79.78279082666532,40.459046052018095,272.9486847324372,0.013965485617518423,-0.004362974315881729,-0.9843154549598694,0.17581002414226532,0.0679347121426684,-0.05290784920603274,1.6814815059622992,-0.011439071968197823,-0.2516295313835144,0.15170159935951233,0.06069851129315794,-0.07719726165756584,-11.993287174701695
13.9,3.4000000953674316,142.0,20.2193660736084,35.75912857055664,-79.78279142295888,40.459045948725965,276.4736254615784,0.0005263129714876413,0.03929681703448296,-0.9799509644508362,0.1953245848417282,-0.13423359436025153,0.0011490558303392515,3.631866476188653,0.024508107453584668,0.06602045893669127,-0.03523727506399155,-0.10477965597063303,0.07208443801850081,-10.958466829061509
14.2,3.5,144.0,20.86041641235352,29.31818962097168,-79.78279119641785,40.45904549059935,277.2092469139099,0.004634646698832512,0.015654036775231358,-0.9805160760879515,0.19575947523117065,-0.13528529411353454,0.06603241831584451,3.6802714595039268,-0.17119477689266205,0.4428552985191345,0.03828766942024231,-0.2592730337753892,-0.03288006762508303,-9.833080129623411
14.4,3.5,145.0,21.02318382263184,28.10951995849609,-79.78279081216705,40.459045018128656,277.93263034057617,3.577939423848875e-05,-0.021725380793213844,-0.9808874726295472,0.1933594197034836,-0.046589208294121526,0.33089939747145186,3.551899302532316,-0.045571409165859215,0.28577038645744324,0.09869983792304993,0.014688964029774073,0.10164891052991153,-9.232037231326103
14.5,3.5,150.0,21.17092514038086,26.59868431091309,-79.78279076542809,40.4590445863818,278.6130741043091,0.0051092319190502175,-0.024074563756585118,-0.9816114902496338,0.1892971247434616,-0.017098346496356855,0.39186643475140004,3.3638293387865303,0.015020244754850863,-0.1049368530511856,0.06393331289291382,0.02693406143691391,0.07658509472385049,-9.013176534175873
14.7,3.5,152.0,21.07201385498047,26.932659149169922,-79.78279098578864,40.459044965607745,278.8044002456665,0.0054656206630170345,-0.01851128786802292,-0.9821587800979614,0.18706069886684412,-0.03077152921985155,0.2742005563481197,3.1979439815944666,-0.028332658112049106,-0.08149590343236922,0.04640009626746178,0.02076888972893357,-0.029359701192006468,-9.04513390660286
14.8,3.5,152.0,21.016923904418945,27.497234344482425,-79.78279085558192,40.45904484561714,279.4313552780152,0.00250991340726614,-0.008071555756032467,-0.9826581478118896,0.18523383140563965,-0.029764244598416926,0.13431306255085831,3.062982796772297,0.02872717753052712,-0.035300593823194504,0.02411354333162308,-0.08724832386709751,0.010295174326747656,-9.070854054093363
15.0,3.5,152.0,20.94305229187012,29.1114444732666,-79.78279075656198,40.459043811967504,279.8670490188598,0.0004996766801923511,-0.00391375832259655,-0.9827212691307068,0.1850497275590897,-0.006999329397952336,0.14186941838867634,3.039327574092288,-0.014770693145692347,-0.12979502975940704,-0.04633940756320954,-0.13519554703496398,-0.15231818617321552,-9.141214769482614
15.1,3.4000000953674316,149.0,20.89923095703125,29.055782318115234,-79.7827902380593,40.4590430504456,280.6543710632324,-0.004479556810110807,-0.0020669810473918915,-0.982519268989563,0.1860958486795425,-0.007964698836478995,0.10437125267432766,3.01891181450739,0.0018961532041430475,-0.007068656850606203,0.012967577204108238,-0.1297759364359081,-0.007681628814898431,-9.300981166362764
15.3,3.4000000953674316,147.0,20.98562240600586,28.1015682220459,-79.78279016588594,40.45904297516113,280.95390395355224,-0.005649794824421407,-0.003370118327438832,-0.9823737144470216,0.1868122220039368,-0.004865339470712858,0.09275504351521068,2.9702192975941735,-0.0042602336034178725,0.045406561344861984,-0.023497514426708214,-0.1079208807181567,0.04097228975035249,-9.30580979704857
15.41,3.4000000953674316,147.0,20.844141006469727,29.06373405456543,-79.78279001886943,40.4590426143689,281.66158370208734,-0.0006874344544485211,-0.004860865883529186,-0.9820364117622375,0.188627690076828,-0.008711311108402137,0.09470230949177284,2.9541410675190782,0.06305975466966629,-0.012994807213544846,-0.05326113104820252,-0.1135320607200265,0.01134447544813156,-9.412233799695967
15.5,3.299999952316284,148.0,21.06324958801269,27.21096992492676,-79.78278994825345,40.459042567135945,281.95538119506836,0.003397144842892885,-0.005016634706407785,-0.9819067120552064,0.1892685890197754,-0.033647887549302376,0.08151568981125247,2.9185438491654487,0.00028744421433657413,0.0572308674454689,-0.03666222468018532,-0.03948793751187623,0.10821742591448127,-9.453999876379967
15.7,3.2000000476837163,152.0,21.26357650756836,25.5570011138916,-79.78278978925017,40.45904222866953,282.59787921142583,0.006480936426669359,-0.0039099669083952895,-0.9817894101142884,0.1898220181465149,-0.04572841293514904,0.08224969726499587,2.8421771322772367,0.10133734345436096,0.00026983959833160043,0.01532948575913906,-0.0613176720449701,-0.05009362639859319,-9.156248545646667
15.9,3.2000000476837163,153.0,21.282358169555664,25.175315856933594,-79.78278974508245,40.459042199609954,282.8778608245849,0.007433044724166394,-0.0028105017263442282,-0.9817929863929749,0.18978814780712128,-0.056170979629520335,0.06479775136862018,2.7537632474112463,-0.06882492452859879,0.005113132763653994,-0.021363003179430958,-0.003876084994990379,0.09653875468298792,-9.003559618592263
16.0,3.0999999046325684,154.0,21.37375831604004,23.72809410095215,-79.78278968159924,40.45904195990253,283.46739939880365,0.004763122648000717,-0.00020108399621676654,-0.981597363948822,0.1909029483795166,-0.03976526958463561,0.05059104985251794,2.6018161942620766,-0.049217883497476585,-0.0417061522603035,-0.02483137510716915,-0.06178966568782926,-0.11350752068683505,-8.854290727972984
16.2,3.0,155.0,21.34996795654297,24.674354553222656,-79.78278961787497,40.45904174970609,283.7584264678955,0.002645805943757296,-0.00037399132270365953,-0.9814473986625672,0.19171297550201416,-0.022206062017342,0.05052148425211884,2.5234577224283217,-0.00955051090568304,0.0334487110376358,0.026092566549777985,-0.060043467823415984,-0.10568146107718347,-8.747272063493728
16.3,2.9000000953674316,153.0,21.142127990722656,26.55892562866211,-79.78278959176772,40.459041685525214,284.24161128234863,0.0060613811947405356,-0.004797290544956922,-0.9813072681427002,0.19229216873645785,-0.000526544055636584,0.04197151054788967,2.319833097470177,0.03469619154930115,0.030239010229706764,0.025521235540509224,-0.008330902727320792,-0.1447438491974026,-8.869482378959656
16.5,2.799999952316284,158.0,20.92176818847656,27.72783470153809,-79.7827896521211,40.4590414976079,284.7423074645996,0.010263686068356035,-0.006427381653338671,-0.9814859628677368,0.1911509931087494,-0.0066513671839329705,0.04647231214988635,2.2721037791048264,-0.01604300178587437,0.061671145260334015,0.034414276480674744,0.04876627190038562,-0.14525380862876774,-9.179939709305764
16.9,2.700000047683716,169.0,20.835376739501953,28.95240974426269,-79.78278969819597,40.45904124899172,285.4558132095337,0.005667465273290873,-0.0024926504120230675,-0.9822203516960144,0.18763001263141632,0.007586567433880961,0.02290007466756422,2.279878924594601,-0.0465967021882534,-0.06409521400928497,0.03724989667534828,-0.11718253226950764,-0.10359837222844363,-9.785477362275124
17.2,2.5999999046325684,174.0,20.775278091430664,28.745662689208984,-79.78278906929017,40.459040902399174,286.38607100677484,0.007355568930506706,-1.8292193999513984e-06,-0.9822550415992736,0.18740630149841309,-0.04462492222733623,0.04042910763326689,2.3290218027997964,0.03232034295797348,0.024538028985261917,0.001159846200607717,-0.05209579983260483,-0.07208770423661919,-9.81793934941292
17.41,2.5999999046325684,176.0,20.642560958862305,30.049753189086914,-79.782789038948,40.459040879537646,286.6194284362793,0.007445537019520999,-0.00042373439646326005,-0.9821732044219972,0.1878305822610855,-0.05238066516250984,0.037989345895448286,2.3377262333192705,-0.037936761975288384,-0.04233025014400482,0.0002593390818219632,0.0021305894816759973,-0.167067796792835,-9.873682025671004
17.5,2.5,181.0,20.78654670715332,28.66614532470703,-79.78278967193056,40.4590411512161,287.02635554504394,0.004998164251446724,-0.0012834465596824884,-0.9820213913917542,0.1886994242668152,-0.016516858081896343,-0.0033823377102840096,2.354269097938886,-0.045620065182447433,-0.007242886349558829,-0.08024395257234572,0.005668692849576475,-0.016609801780432462,-9.994048129320145
17.7,2.5999999046325684,183.0,20.59999084472656,30.0736083984375,-79.78278994215593,40.45904135284732,287.4418600006104,0.0038225161843001842,0.0007458736654371022,-0.9817360639572144,0.19020827114582065,-0.0173029684463437,-0.033714507598061424,2.3638250717420144,-0.07729316502809525,0.0836319625377655,-0.0608738586306572,-0.010486527885077522,-0.13640349042601885,-9.986592929363251
17.8,2.700000047683716,187.0,20.740219116210934,27.97434043884277,-79.7827899714643,40.45904138198848,287.67902926635736,0.004890712443739176,-0.0006857419502921402,-0.9816716909408568,0.19051618874073029,-0.002926433087891348,-0.042054797812878034,2.377220529254773,0.06651739031076431,-0.022907745093107224,-0.017566321417689323,-0.03762846583267674,-0.13478449691087008,-9.959976403713226
18.0,2.700000047683716,189.0,20.574949264526367,30.20878982543945,-79.78279022772487,40.459041457544025,287.8588426513672,0.0071474178694188595,-0.0013410574756562712,-0.9815900325775146,0.1908620446920395,-0.011481334453597824,-0.03876157153686849,2.3503034193684704,0.039396874606609344,0.03471486270427704,-0.009184859693050385,0.07836968321353198,-0.022236303314566608,-9.922268879413606
18.1,2.700000047683716,191.0,20.506086349487305,31.75938415527344,-79.78279048851212,40.45904172865134,288.2867372436524,0.010178493335843086,0.004217657260596752,-0.9815781116485596,0.19074343144893646,-0.02414267806017965,-0.06583550171869534,2.365838072607596,-0.016656089574098587,0.029844559729099274,0.01923410408198833,-0.014568420024588703,0.034318651696667084,-10.064733949899674
18.31,2.799999952316284,192.0,20.4384765625,31.29022979736328,-79.782790553916,40.45904177577157,288.524661819458,0.011660340242087841,0.00661819614470005,-0.9815717935562134,0.1906231939792633,-0.01023325147548774,-0.08318151752617914,2.3920432115527843,0.07579362392425537,-0.013659676536917686,0.036342088133096695,-0.08378148229792715,-0.208535756841302,-10.058504326343538
18.4,2.9000000953674316,194.0,20.54239654541016,29.866863250732425,-79.78279084299542,40.459041926908434,288.95786456298833,0.009461091831326485,0.0073318216018378735,-0.9816851019859314,0.1901343613862992,-0.01638742068091531,-0.09653581385173746,2.395084728016029,-0.0967940166592598,0.014812616631388663,0.06470102816820145,-0.0016875429823994634,-0.22097146891057493,-10.032704071998596
18.6,2.9000000953674316,194.0,20.3558406829834,31.85480690002441,-79.78279092347712,40.459041970659364,289.19860820007324,0.005939389578998089,0.005308052524924278,-0.9817699193954468,0.1899065673351288,-0.011372712736132001,-0.09805742584532848,2.4169582738606348,-0.09395063668489456,0.02126813307404518,0.051700275391340256,-0.012233887198381126,-0.18598618894815447,-10.075414474010467
18.71,3.0,197.0,20.37462043762207,32.10131072998047,-79.78279134045225,40.45904214582145,289.64483432006836,0.00790676847100258,0.004192847292870283,-0.9817835688591005,0.1897919625043869,0.023527679198614912,-0.10589630947869212,2.4574439720690515,0.04897303506731987,-0.029597405344247818,0.009881895035505295,0.01094446651171893,-0.09418839326128364,-10.210984507799148
18.91,3.0999999046325684,195.0,20.359596252441406,31.70372200012207,-79.78279143526902,40.459042204200394,289.89293269348144,0.009533540345728396,0.006316585931926966,-0.9819037318229676,0.18903544545173645,-0.005821700564211699,-0.10887621768665348,2.5052716491673963,-0.015306510031223297,0.021458636969327927,0.07653497904539107,-0.08255131035111846,-0.10090737394988536,-10.329606971740725
19.3,3.5999999046325684,195.0,20.686382293701172,28.25265312194824,-79.78279209233213,40.45904291233449,291.0974271697998,0.0149384168908,0.012469395995140077,-0.9814862608909608,0.19054153561592105,-0.04019479391380307,-0.1611354029107078,2.598190895543622,-0.009043843485414982,-0.1629176139831543,-0.16629022359848022,-0.09843098675832153,-0.3113165421411395,-9.87537420988083
19.5,3.5999999046325684,194.0,20.5949821472168,28.348073959350586,-79.78279235216633,40.459043325020986,291.56938151550287,0.013651352375745772,0.02133234404027462,-0.9810693860054016,0.1919935196638108,-0.05332326738054174,-0.2323084252271798,2.5146561765822644,-0.04378724843263626,-0.06997563689947127,0.02618657611310482,-0.09364749840460718,-0.12616895355284213,-9.723462377786637
19.6,3.9000000953674316,195.0,20.861669540405273,26.07386589050293,-79.78279255864524,40.45904343541872,291.81164530944824,0.010460403747856615,0.021171214058995247,-0.9810609221458436,0.1922549903392792,-0.03995544505315948,-0.2405569674505404,2.4853419193708848,-0.0684342309832573,0.05584438145160675,-0.0356086827814579,-0.2640677323378623,-0.22306747645139696,-9.508143339157103
19.8,4.0,195.0,20.91926383972168,24.88905143737793,-79.78279278124853,40.45904363938326,292.29719142150884,0.007876039482653141,0.018690513446927067,-0.9811915159225464,0.1919686645269394,-0.02049562833676177,-0.22335563716198228,2.3514851787101407,-0.036902494728565216,0.01593441516160965,0.055998478084802635,-0.25971769625321034,-0.14081362492404878,-9.261493749618527
19.9,4.099999904632568,193.0,21.0281925201416,24.539175033569336,-79.7827928755908,40.459043860331434,292.54725054931635,0.008931450545787811,0.01785423420369625,-0.9811460375785828,0.19223414361476893,-0.02543839490559433,-0.21242373893076605,2.3036170207284314,0.05228273570537567,-0.02937599457800388,0.037989143282175064,-0.3092412556707859,-0.368020098656416,-8.891784244179727
20.11,4.199999809265137,192.0,21.302391052246094,22.408098220825195,-79.78279308465748,40.459044005738285,292.9964254302978,0.012436504475772379,0.02056795544922352,-0.9809908270835876,0.19256024062633514,-0.05326802401188525,-0.19014477121283424,2.111927925845152,0.036376126110553735,-0.0760592371225357,-0.08465529978275299,-0.2187014884315432,-0.4568423376604915,-8.847238401174545
20.2,4.300000190734863,192.0,21.256065368652344,21.74810218811035,-79.78279314135266,40.459044105507736,293.20173434448236,0.014029765501618384,0.022191442549228668,-0.9808080196380616,0.19320060312747955,-0.07041598110055522,-0.18573316258666267,1.9804070656586408,-0.048713378608226776,-0.014457601122558115,-0.029265008866786964,-0.16475962668657304,-0.39945732470601797,-8.522341371774674
20.4,4.400000095367432,191.0,21.33369255065918,22.169546127319336,-79.78279319143411,40.45904420998115,293.58280162048334,0.010791175067424774,0.022749897092580795,-0.980472207069397,0.1950394660234452,-0.08234032616716545,-0.16410767137030471,1.7342829427416313,-0.06765507161617279,-0.004711010493338108,-0.026213685050606728,-0.27876158427447084,-0.32030583221465353,-8.369676418304444
20.5,4.400000095367432,192.0,21.467660903930664,20.292926788330078,-79.78279320216016,40.45904429866446,293.74949053955083,0.010347550734877586,0.0209811981767416,-0.9804284572601318,0.1954811066389084,-0.07810739677077455,-0.15401032798339098,1.5884522549839744,-0.04189136251807213,-0.025359980762004845,0.05088642984628677,-0.3663471737131477,-0.3978270478919149,-8.314086939096452
20.7,4.400000095367432,190.0,23.03898429870605,4.87443733215332,-79.7827931798799,40.45904429597846,293.9137208862305,0.011123649775981905,0.019097281619906425,-0.9804808497428894,0.1953687369823456,-0.0782683030405746,-0.12460916430064865,1.4582335092830525,0.04267038777470589,0.05477185919880867,-0.0049258642829954616,-0.3067632056772709,-0.3075036093592644,-8.208231870532035
20.8,4.400000095367432,191.0,22.272729873657227,17.167879104614258,-79.78279310975532,40.459044489176776,294.158658782959,0.01201869174838066,0.009758571162819862,-0.978097677230835,0.20757025480270386,-0.14128080178398372,-0.13449443978341108,0.8990886629157652,-0.05557401105761528,0.14194294810295105,-0.5762307047843933,-0.38906956337392334,-0.6018983459472657,-6.745937376022339
21.0,4.5,193.0,21.620410919189453,19.513652801513672,-79.78279298527704,40.45904450218697,294.26324252319336,0.010300055146217344,0.0031817909330129623,-0.9696196913719176,0.2443797737360001,-0.16381417691855898,-0.11331760668784566,0.6327109499882426,-0.08654289692640305,0.004577949643135071,-0.9060776829719543,-0.2409933951124549,-0.5060096371918917,-6.732911533713341
21.1,4.5,194.0,21.716819763183594,19.521604537963867,-79.78279287815188,40.45904465249908,294.3137624664306,0.013757769949734213,0.007052217610180378,-0.95614892244339,0.29247263073921204,-0.19346745954162198,-0.11279069071739135,0.38098768043085984,0.01506833452731371,-0.17253641784191132,-1.0541493892669678,-0.2189488073810935,-0.6213456004858017,-7.182158374786378
21.21,4.5,188.0,21.710559844970703,18.75823402404785,-79.78279255996672,40.45904482204442,294.39190081787115,0.01611926220357418,0.016272217035293586,-0.9120119214057922,0.4095236361026764,-0.2526975597746971,-0.09642733990281817,0.03616127000657678,-0.09060019254684447,-0.037489820271730416,-1.4385052919387815,-0.2622285089269281,-0.628663317784667,-7.901370577812194
21.4,4.5,193.0,21.659225463867188,19.720399856567386,-79.78279213570046,40.45904485231011,294.44965724182134,0.022965647280216217,0.018770378082990646,-0.841948390007019,0.5387423038482666,-0.2509021318313633,-0.02467108881502915,-0.2553126243658962,0.13308626413345334,-0.04347808286547662,-1.567156434059143,-0.20021973710507154,-0.3302070686593652,-8.13724316418171
21.5,4.5,196.0,21.515239715576172,20.889310836791992,-79.7827919856379,40.45904506215013,294.41810778808593,0.02748117037117481,0.019933931529521942,-0.7976747751235962,0.6021314859390259,-0.2323239219659235,0.02434851846778259,-0.3999208169275161,0.09661348164081572,-0.0610017329454422,-1.6686047315597534,-0.09546824826858938,-0.4204299350827933,-8.326057943701745
21.7,4.5,183.0,21.043216705322266,25.79555511474609,-79.78279176946384,40.459044975386604,294.41885546875,0.031072374433279037,0.02086281031370163,-0.748341977596283,0.6622564792633057,-0.18285839994208047,0.07690389487706943,-0.4795488445234701,0.10195070505142212,-0.15344497561454773,-1.4953489303588867,-0.15250802882015707,-0.5941195026040077,-8.452505151629449
21.8,4.400000095367432,176.0,20.8529052734375,27.425668716430664,-79.78279145395466,40.45904529003551,294.31321124267583,0.03669658675789833,0.013273246586322784,-0.6410693526268005,0.7664902210235596,-0.11086744939043514,0.12560537444630518,-0.5771108000222922,-0.018970618024468425,0.09567652642726898,-1.2609889507293701,0.18808292739093305,-0.4288512777909637,-9.3855810213089
22.0,4.400000095367432,187.0,20.850400924682614,26.33627510070801,-79.78279124679393,40.4590452015433,294.25940875244135,0.040903382003307336,0.010391229763627052,-0.5900596976280212,0.8062559366226196,-0.04840201505409279,0.15334458057303868,-0.5732504576949461,0.015068165957927704,0.058884426951408386,-1.0630697011947632,0.5363387793302536,-0.4075863066315651,-9.554930419921877
22.2,4.400000095367432,193.0,20.56743621826172,28.578676223754893,-79.78279067280795,40.45904547106152,294.0512178344726,0.05091762915253639,0.006825605407357216,-0.4874903559684754,0.8716157674789429,0.10714799382532264,0.17669542811962935,-0.5181806526970152,0.06260070949792862,-0.10422177612781523,-0.5191618204116821,0.7005040365457536,-0.6548982395231724,-9.910242326259613
22.3,4.5,192.0,20.54239654541016,29.039878845214844,-79.78279040699691,40.45904547070886,294.0032403869629,0.05663776770234107,0.014549526385962963,-0.471995621919632,0.8796594142913818,0.1884792913869956,0.16367628382636334,-0.4544318547418854,0.3091278076171875,0.030123833566904068,-0.25574854016304016,0.9898118416965008,-0.183985198661685,-10.289166458845141
22.5,4.599999904632568,192.0,20.562429428100586,28.30831527709961,-79.7827901963409,40.45904554476574,293.93148211669916,0.07022172957658768,0.03190899267792702,-0.4636517465114594,0.8826538920402527,0.25676818548441044,0.16321894305037407,-0.4025360889985555,0.3649129569530487,-0.1871805489063263,0.1602712720632553,0.9538179901242256,-0.7076281379163265,-10.164220815896988
22.6,4.400000095367432,203.0,20.71267509460449,27.60855865478516,-79.78278982980645,40.45904546285325,293.89258364868164,0.0637882798910141,0.04371509328484535,-0.4632922410964966,0.8828251957893372,0.322882842095531,0.2037842825527432,-0.3589339276915471,-0.06065890192985535,-0.4938440322875977,-0.020553719252347943,1.3351377269625664,-0.7940458922088146,-9.987439606189726
23.2,4.199999809265137,201.0,20.124210357666016,32.72949981689453,-79.78278484834652,40.45904581716373,293.628421585083,-0.055880509316921234,0.057257119566202164,-0.4992761015892029,0.862741231918335,0.3174978258443083,1.250544879935573,0.2932694601836355,0.004866976290941238,-0.1471981555223465,-0.008401909843087195,0.7729474570602181,-0.4931278556585312,-10.829587179422381
23.3,4.099999904632568,202.0,20.099170684814453,31.74348068237305,-79.78278324620912,40.459046198665156,293.64228419494634,-0.05849514156579971,0.059998933225870126,-0.5026771426200867,0.8604035973548889,0.2825861676517852,1.4600932261182415,0.4263968504443981,-0.03240365535020828,-0.062289200723171234,-0.007952963002026081,0.5986682343855501,-0.5156927724927665,-10.803782247304916
23.71,3.9000000953674316,197.0,20.181804656982425,31.711673736572266,-79.78277750858491,40.45904785983785,293.52516345214843,-0.07923220843076706,0.05555852875113487,-0.5047104358673096,0.8578479290008545,0.2351767431029409,2.057949829871045,0.7158324353033589,0.07805269956588745,-0.12479735165834427,-0.2022309452295304,0.42387935377657415,-0.31169942513108256,-10.775894536972046
23.8,3.700000047683716,192.0,20.23188781738281,31.02782249450684,-79.78277503773872,40.45904867519236,293.56132487487787,-0.08326364308595657,0.0568060576915741,-0.5026562213897705,0.8585901856422424,0.20383550515590093,2.2705274295302136,0.8471235120962988,0.046273134648799896,0.03538917750120163,-0.17796115577220914,0.3581059983372689,-0.2293116084113717,-10.731315364837648
24.0,3.5,188.0,20.32829475402832,29.97023582458496,-79.7827695086285,40.45905042214759,293.55320529174804,-0.08367089182138443,0.06459905952215195,-0.4970616400241852,0.8612525463104248,0.20278295012524028,2.6838343862053966,1.025003949132687,0.11602197587490085,0.09712953120470047,-0.15309596061706546,0.2298491502553225,-0.31512059446424245,-10.538029804229737
24.1,3.4000000953674316,179.0,20.145496368408203,31.425411224365234,-79.78276305931102,40.45905241774692,293.55825595092773,-0.08498876541852951,0.07242638617753983,-0.4887675940990448,0.8652384877204895,0.2573959009692633,3.1114537488986564,1.1432707411242091,0.06720864027738571,-0.05308811739087105,-0.1658909022808075,0.2679372186586261,-0.4957567638158799,-10.425825244188307
24.3,3.299999952316284,173.0,19.966453552246094,32.70564651489258,-79.78275943808691,40.459053762678316,293.60450915527343,-0.08826010674238205,0.07471475750207901,-0.4837993979454041,0.8675057291984558,0.26057065171692273,3.3370343662690987,1.2445185946482775,-0.1140282303094864,-0.03422912210226059,-0.16563183069229126,0.30675187669694426,-0.30381176875904203,-10.375934461355213
24.4,3.2000000476837163,165.0,20.085397720336914,31.94227600097656,-79.78275556942205,40.45905522444141,293.65361003112787,-0.09261918812990187,0.07419314235448837,-0.4792641401290894,0.8696108460426331,0.2937703495290807,3.5557827231959926,1.3591088582122772,-0.12688912451267242,-0.12230762839317325,0.04135577380657196,0.14220161687582733,-0.4564256139099598,-10.507285144329073
24.6,3.2000000476837163,161.0,20.184309005737305,30.24854850769043,-79.78274718071106,40.45905776120117,293.6579320831299,-0.0963972583413124,0.06718257814645767,-0.4733670949935913,0.8729935884475708,0.3985891411359971,3.9690205489015256,1.5192619564582521,-0.13449455797672272,0.0485600009560585,-0.062009498476982124,0.06028924274258316,-0.35623836111277346,-10.45767035007477
24.7,3.2000000476837163,150.0,20.25192070007324,29.25457572937012,-79.78274227775286,40.45905879045815,293.63799838256836,-0.09561415761709212,0.06451219320297241,-0.4739465415477753,0.8729667067527771,0.5078858424911987,4.179683349540094,1.5264998060775574,-0.013362718746066092,-0.03502611443400383,-0.03936391323804855,0.049647561502642934,-0.36487904749810696,-10.37360843896866
24.9,3.299999952316284,146.0,20.25567626953125,29.83505630493164,-79.78273241484544,40.45906256786939,293.7408273620605,-0.0963449776172638,0.06821563839912415,-0.4769577980041504,0.8709625005722046,0.4769234598562725,4.634785662926256,1.6252397012434083,0.1135498434305191,-0.09829798340797424,0.05318926274776459,-0.0024731712229549892,-0.39242791168391705,-10.233242518901823
25.0,3.299999952316284,139.0,20.2093505859375,29.95433235168457,-79.78272680699206,40.45906399083647,293.7486055297852,-0.09692417085170746,0.07234389334917067,-0.4813087284564972,0.8681670427322388,0.4974580367538114,4.822156520090153,1.6684473685852168,0.03958097472786904,-0.032350026071071625,0.06521673500537872,-0.07376522015780211,-0.4512412532418967,-10.087860857248307
25.11,3.4000000953674316,134.0,20.206846237182614,30.43939018249512,-79.78271484586828,40.459067806724356,293.838626663208,-0.09989465028047564,0.07509347796440125,-0.4877800941467285,0.863974928855896,0.464224890326048,5.240581083988542,1.8166012055515035,-0.03891686350107193,-0.06620185077190399,0.09869903326034546,-0.26192458162084226,-0.5712601784616709,-10.010476466417312
25.3,3.5,125.0,20.359596252441406,29.381805419921875,-79.78270888386956,40.45907008320717,293.8867395324707,-0.10253646969795227,0.07461854070425034,-0.4901423454284668,0.8623681664466858,0.40461837186628746,5.450130645138001,1.8875365154721733,-0.0789005309343338,-0.047834303230047226,0.05311606079339981,-0.33779244225472216,-0.34827306468039754,-9.958021094799044
25.51,3.5999999046325684,121.0,20.179302215576172,30.121318817138672,-79.78269532200541,40.45907443233599,294.009488861084,-0.1019936203956604,0.07549949735403061,-0.4953860938549042,0.8593543171882629,0.4333621792942583,5.868567045112562,2.00222235833927,0.0362740270793438,-0.0141598554328084,0.03789044544100762,-0.3861965339630842,-0.07868952590972185,-9.804552149176596
25.6,3.9000000953674316,113.0,20.24315643310547,29.98613929748535,-79.78268865999127,40.45907694073504,294.054166595459,-0.10044489800930023,0.0771607980132103,-0.4961089789867401,0.8589720129966736,0.3820806132576083,6.074641937110902,2.037237128640334,-0.04801326245069504,-0.03357868641614914,0.1368853747844696,-0.3884021402522922,-0.5376735524833203,-9.853581637144087
25.8,4.099999904632568,110.0,20.407175064086914,26.88494682312012,-79.78267378006211,40.45908186713916,294.1840570373535,-0.10598069429397584,0.07110235095024109,-0.4965091943740845,0.8585984110832214,0.3955796147177053,6.467943797299718,2.168319643414735,-0.1588868647813797,-0.05091731995344162,-0.12874111533164978,-0.562696017511189,-0.14838275422342126,-9.94801066160202
25.9,4.5,104.0,20.539892196655273,25.93073463439941,-79.78265818619795,40.459087266286105,294.29627398681635,-0.11588553339242935,0.06816548109054565,-0.4937607944011688,0.8591417074203491,0.4785664635714871,6.829335856546825,2.288548100283692,-0.03831679001450538,-0.049846652895212167,-0.16665993630886078,-0.5350665348395706,-0.14754822864197195,-9.703962498307227
26.1,4.699999809265137,100.0,20.588722229003906,26.670249938964844,-79.78265049480956,40.45909018471408,294.33845309448236,-0.11800219863653184,0.07132884114980698,-0.4918940961360931,0.8596674203872681,0.466958959078654,6.991782205812862,2.3348802710624605,0.07580236345529556,-0.07980437576770782,-0.0469355583190918,-0.7196581263095141,-0.3402387711033225,-9.422084019184114
26.2,5.099999904632568,94.0,20.56868934631348,25.81941032409668,-79.78264168577337,40.459093090650384,294.41373614501947,-0.11780498921871185,0.07541990280151367,-0.4916135966777802,0.8595055937767029,0.5110018090479709,7.167352936168858,2.3921577512880203,0.09293000400066376,-0.0379975289106369,-0.03688383102416992,-0.5221282180398703,-0.4361338021606207,-9.246631881594658
26.4,5.300000190734863,92.0,20.67010498046875,24.47555923461914,-79.78262539062328,40.459099334810645,294.4728010101318,-0.10487348586320876,0.0759081244468689,-0.4951067268848419,0.8591326475143433,0.4582279342386096,7.524825773296001,2.3731300937087267,-0.0398809053003788,0.1440046727657318,0.11253318935632706,-0.8712544280290604,-0.2867625121772289,-9.375114505290986
26.5,5.599999904632568,87.0,20.71267509460449,24.88109970092773,-79.78261606585433,40.459102470664256,294.5374906463623,-0.0993688702583313,0.0723375603556633,-0.4990283250808716,0.8578251600265503,0.4613668412356477,7.737982594550034,2.280532853567642,-0.016314219683408737,-0.07648691534996033,0.050448983907699585,-0.8786284978687764,-0.3512923475727439,-9.376253542900086
26.6,5.9000000953674325,87.0,20.731454849243164,24.268814086914066,-79.78259772910219,40.45910904380353,294.6097219390868,-0.10296472907066344,0.06943533569574356,-0.5057385563850403,0.8537010550498962,0.3748967530330369,8.104826162845725,2.1427810955093767,0.026258088648319244,-0.07632815092802048,0.16322988271713254,-0.6816843344271183,-0.3977324691787362,-9.476744960546494
26.8,6.300000190734862,83.0,20.73646354675293,24.141586303710927,-79.78257971496272,40.459115944929906,294.6249483032226,-0.11069518327713013,0.07293965667486191,-0.5113410353660583,0.8490918278694153,0.2203571890672698,8.403285249174234,2.2411137651887016,-0.005352667067199946,-0.13818149268627167,0.2468646168708801,-0.9449204282462598,-0.4284512186050416,-9.420239807367324
27.0,6.5,81.0,21.03445243835449,21.19942855834961,-79.78256957222173,40.45911942555642,294.6663968963623,-0.11209773272275923,0.07628222554922104,-0.5131739377975464,0.8475067615509033,0.18029944081325147,8.542105328419444,2.334939606234846,0.032161753624677665,-0.01437137648463249,0.053503893315792084,-0.9519858381897212,-0.22224477320909505,-9.365894030928613
27.1,6.9000000953674325,79.0,21.12459945678711,21.55725860595703,-79.78256015370361,40.459123028712185,294.664123336792,-0.1115204617381096,0.07898006588220596,-0.51376873254776,0.8469752073287964,0.13363745831585205,8.690386396875594,2.3654606888842205,-0.03175941109657288,-0.08679770678281784,0.12022557109594345,-0.99766772210598,-0.2707498024776578,-9.309327481985092
27.3,7.099999904632568,77.0,20.948060989379886,23.06014442443848,-79.78253981571399,40.45913029335541,294.6885812683105,-0.1141367256641388,0.07974813878536224,-0.5117860436439514,0.8477547764778137,0.14261305348878822,9.008040336441448,2.3841853938486084,0.01731988973915577,-0.011086569167673588,0.0320371612906456,-1.065109434351325,-0.4092225402966142,-9.218385736942292
27.4,7.400000095367432,75.0,20.936792373657227,23.4179744720459,-79.78252991126989,40.45913407293626,294.6704900665283,-0.1128312423825264,0.07861614227294922,-0.509960949420929,0.8491339087486267,0.1783393955833677,9.147175933479435,2.4193855675612257,0.044222183525562286,0.08015026897192001,-0.07845187187194824,-1.4236917614936833,-0.13029061932116748,-9.479304871559144
27.61,7.5,74.0,20.986873626708984,22.59099006652832,-79.7825085803128,40.45914156990153,294.68307666015625,-0.09262914955615996,0.07140495628118515,-0.5096440315246582,0.8523991107940674,0.2742604392401779,9.446785687639695,2.279846728024425,-0.022816915065050125,0.25089317560195923,0.1290464550256729,-1.3568064849078656,-0.2959765363298357,-9.467484140396119
27.7,7.900000095367432,74.0,21.073265075683594,21.70039176940918,-79.78248657903463,40.459149120097045,294.69805316162115,-0.07708639651536943,0.06506649404764175,-0.5098244547843933,0.8543437123298645,0.3655979823391276,9.742831335344633,1.9028258065351824,0.009723370894789696,0.10283771902322768,-0.08724935352802278,-1.147499626502395,-0.43206892747432,-9.439302899837497
27.9,8.0,75.0,20.850400924682614,24.57893371582031,-79.78246429770081,40.45915670653519,294.69774226379394,-0.07221128046512604,0.05767655745148659,-0.5081341266632079,0.8563052415847778,0.4828429352058654,9.932580898812637,1.7007545219281326,-0.2416595667600632,-0.010778458788990973,-0.05173357576131821,-1.3563351993262769,-0.24573581591248514,-9.496426103711126
28.0,8.300000190734862,74.0,20.85916519165039,23.44978141784668,-79.78245354281314,40.45916064233717,294.6775606079101,-0.07547099888324738,0.05510425940155983,-0.5067741274833679,0.8569992184638977,0.5137007633155544,9.983136131676002,1.6542409319498492,0.01106953714042902,-0.03166620060801506,0.2703495323657989,-1.439110722988844,-0.3917789803817868,-9.675056787729263
28.2,8.5,73.0,20.797813415527344,23.69628715515137,-79.78244172583233,40.459164493011954,294.6654088897705,-0.08151649683713913,0.056624658405780785,-0.5057423114776611,0.8569560050964355,0.5964979712273955,10.059415750318788,1.7285594394809731,0.05074925348162651,-0.1879525929689408,-0.15168437361717224,-1.2550652249157428,-0.17283541722223164,-9.78298294007778
28.3,8.699999809265138,73.0,20.95181655883789,22.583038330078125,-79.78241984227469,40.459172428882155,294.6288812561035,-0.0874105915427208,0.062126807868480675,-0.5036249756813049,0.8572407364845276,0.636886071943911,10.124608101092702,1.9572873302109008,0.0592365562915802,-0.02429692633450032,-0.09164810925722122,-1.4307069584727288,-0.032682792618870735,-9.602238487601278
28.8,9.100000381469727,72.0,20.7802848815918,24.47555923461914,-79.78236284661176,40.45919281361824,294.43443087768554,-0.06295361369848251,0.04654389619827271,-0.5032195448875427,0.8606047630310059,0.6902885520138801,10.42831191888988,1.5302451721575614,-0.12615245580673218,0.10677778720855713,-0.10098665952682497,-1.5050738936662675,-0.2775140077248216,-9.416090623140336
28.9,9.100000381469727,76.0,20.711421966552734,24.563030242919922,-79.78235102140063,40.45919693357908,294.34869174194336,-0.056751374155282974,0.04306681454181671,-0.5034632086753845,0.8610746264457703,0.7245383068622092,10.470876636500009,1.328965244929865,-0.022430406883358955,0.10512032359838486,0.14476941525936127,-1.5154088473320009,-0.35399518646299843,-9.425522181987764
29.1,9.199999809265137,77.0,20.559925079345703,25.77169990539551,-79.78233976043845,40.45920101118245,294.31513575744634,-0.0482037179172039,0.04247472435235977,-0.5035709738731384,0.8615617156028748,0.7312870516493235,10.482966921385437,1.1601065858480375,-0.03391531854867935,0.19894644618034368,-0.15054064989089966,-1.2599825870990753,-0.1641993172466755,-9.466272597312928
29.2,9.199999809265137,77.0,20.71017074584961,24.96857070922852,-79.78232808445239,40.45920532510139,294.24213008117675,-0.04001708328723908,0.04265013709664345,-0.5041490197181702,0.8616341948509216,0.7181126791510984,10.496888930938908,1.0197156280156712,0.04663235694169998,0.043375685811042786,0.08178363740444182,-1.3949733079969884,-0.2523807196877897,-9.717226322293282
29.4,9.300000190734863,77.0,20.602495193481445,26.19314384460449,-79.78229380824148,40.45921759849978,294.0911920471192,-0.02828672900795937,0.04716821387410164,-0.5078312754631042,0.859699010848999,0.7018947765341718,10.462910065036171,0.7935382880002894,-0.09478607028722763,-0.049646519124507904,0.049273431301116936,-1.4879877448081966,-0.4379847382754088,-9.89764274597168
29.5,9.300000190734863,81.0,20.53738784790039,26.24880599975586,-79.78228258825098,40.4592216124295,294.0662057800293,-0.033065881580114365,0.042288098484277725,-0.5084172487258911,0.8594360947608948,0.6896919509134481,10.433146488627859,0.8279977270158115,-0.12130921334028245,0.012558870017528534,-0.018934857100248337,-1.6223455046117303,-0.2966309676691889,-10.12896093606949
29.7,9.199999809265137,82.0,20.593730926513672,24.849292755126953,-79.7822709926342,40.45922575951219,293.9701669616698,-0.035013936460018165,0.039025600999593735,-0.5085102915763855,0.8594581484794617,0.6938072261184891,10.402343145678751,0.8763412885518191,0.13102485239505768,-0.007092127110809088,0.03380301222205162,-1.5467508003115655,-0.3644024628773332,-10.261627242565156
29.9,9.199999809265137,82.0,20.764009475708008,24.730016708374023,-79.78224869031982,40.45923366138132,293.9467542572021,-0.032329097390174866,0.04037773609161377,-0.5084906220436096,0.8595125675201416,0.7002584456210406,10.335890904074516,0.9356354134399671,0.037161227315664284,0.013852301985025406,-0.03346805274486542,-1.054375846758485,-0.1425177867896855,-10.33621666431427
30.1,9.199999809265137,82.0,20.830368041992188,22.96472358703613,-79.78222615994024,40.459241711140926,293.8563383026123,-0.037123121321201324,0.03961556032299995,-0.5084388852119446,0.8593849539756775,0.7222457456712306,10.254966744999852,1.0327236561444908,-0.003086839336901903,0.11562028527259828,-0.1633480042219162,-1.1114589972048998,-0.10684067158028483,-10.140947728157043
30.2,9.100000381469727,83.0,20.97936248779297,23.46568489074707,-79.78221478357368,40.459245785480725,293.7780244750976,-0.032929908484220505,0.03616845980286598,-0.5076242685317993,0.8601890802383423,0.7049850386905708,10.218450728428248,0.9991405995139596,0.033638346940279014,0.1630232036113739,-0.02495632879436016,-1.4612130519747737,-0.13994150357320906,-10.069424586296082
30.3,9.0,82.0,20.81909942626953,25.159412384033203,-79.78220379461672,40.459249659884975,293.7688768310547,-0.026320546865463257,0.02978785894811153,-0.5069829821586609,0.8610389828681946,0.7387381779992478,10.182660774104416,0.8796219583651683,0.10745158791542052,0.1699482947587967,-0.03210416063666344,-1.2405155982077125,-0.2789620341360569,-9.811912039518354
30.4,8.899999618530273,83.0,20.579957962036133,26.59073257446289,-79.78219285976394,40.45925350855869,293.75951365661615,-0.015892641618847847,0.024095609784126282,-0.5066310167312622,0.86167973279953,0.7558275831610453,10.13279511788942,0.6982915381363973,-0.0061016730032861215,0.2492325156927109,-0.1574995368719101,-1.1928730697929857,-0.15984023625031116,-9.869628735780717
30.5,8.899999618530273,83.0,20.635047912597656,25.25483322143555,-79.78217102941102,40.45926118754432,293.6576707763672,0.01626276597380638,0.01349459495395422,-0.5071266293525696,0.8616125583648682,0.7808446352999205,9.934372826626783,0.13796586785045056,0.1535634547472,0.3351644575595856,0.2468723505735397,-1.0912724353373051,-0.4018516864255071,-10.153535614013672
30.7,8.800000190734863,90.0,20.75649642944336,24.63459587097168,-79.78215991771887,40.45926525674833,293.57802943420415,0.027144666761159897,0.008544683456420898,-0.5082520246505737,0.8607381582260132,0.7482052635732723,9.839635174453626,-0.22993646494638176,0.14028622210025787,0.11489400267601013,0.0815553069114685,-0.9310473243892192,-0.5192275605350734,-10.0417204785347
30.91,8.699999809265138,97.0,20.91300392150879,23.131710052490234,-79.78213906299578,40.459272561301376,293.55560664367675,0.03244265913963318,0.004016040824353695,-0.5099952220916748,0.8595558404922485,0.7193252469784073,9.537896306464003,-0.5364046788288346,-0.058354981243610375,0.05446535721421242,-0.011699856258928776,-1.1074877145141364,-0.3439309954270721,-9.884343838691713
31.01,8.5,98.0,21.00189781188965,21.636775970458984,-79.78212839259254,40.45927632641095,293.5199296875,0.032624129205942154,0.0027039148844778533,-0.5106766223907471,0.8591494560241699,0.6895136310779599,9.424939297224224,-0.5829858022620786,-0.07309222221374513,-0.003275903174653649,-0.1046232208609581,-0.9608366954326628,-0.04743897221982479,-9.834109239578249
31.1,8.399999618530272,99.0,20.918010711669922,22.59894180297852,-79.78210808493814,40.459283494015004,293.4802320404052,0.0328853540122509,0.00203168811276555,-0.5109795928001404,0.8589612245559692,0.6672960526439399,9.147910921596704,-0.6463516119371818,0.07033482193946837,0.09015142172574996,0.07292500138282776,-0.9421663896739484,-0.1863642479851842,-9.609970845580099
31.4,8.300000190734862,101.0,20.755245208740234,24.30857276916504,-79.78208866058114,40.45929023701363,293.44062403869634,0.02969077788293362,0.005571808200329542,-0.5118035674095154,0.8585712909698486,0.6464783649556458,8.873617806073533,-0.6458890381828651,-0.05727709457278252,-0.017719991505146027,-0.0497967042028904,-0.7073992925137281,-0.3401145908609033,-9.639820881485939
31.5,8.199999809265138,102.0,20.751487731933594,25.032184600830078,-79.7820788388,40.45929371515384,293.4303892059326,0.022351091727614403,0.008066719397902489,-0.513008177280426,0.8580547571182251,0.6122420257705085,8.786214913403231,-0.5825091255871357,-0.12044129520654676,-0.18321570754051208,0.02803897857666016,-0.8338145600259305,-0.5190644232183695,-9.647443896532057
31.6,8.0,104.0,20.731454849243164,24.55507850646973,-79.78206943793434,40.45929698915022,293.4083364410401,0.011712469160556791,0.01044156774878502,-0.5135146379470825,0.8579374551773071,0.5781182902366692,8.68343743252791,-0.4764919577238233,-0.12951260805130005,-0.2540433406829834,0.004027621820569038,-0.7284855946898461,-0.2883103432506323,-9.643299390077592
31.81,7.900000095367432,104.0,20.632543563842773,25.978445053100586,-79.7820507139638,40.45930363760887,293.38582591247564,-0.009959449991583824,0.01957988366484642,-0.5130861401557922,0.8580560088157654,0.5213589422552787,8.564036650211477,-0.09506603507313093,0.08124087750911713,-0.2310322374105453,-0.19702894985675806,-0.8842796856164933,-0.1742482689768076,-9.632250491380693
31.9,7.699999809265138,98.0,20.681373596191406,25.620615005493164,-79.78204156095212,40.45930685913075,293.36260394287115,-0.01800852082669735,0.026426218450069427,-0.5116927027702332,0.858573317527771,0.5289866721569709,8.51839070089921,0.08685763509404004,0.1537211388349533,-0.2537277638912201,0.027765290811657902,-1.0171950104087593,-0.3673148879036308,-9.540990073084833
32.1,7.699999809265138,94.0,20.691389083862305,25.175315856933594,-79.78202312751625,40.45931343922656,293.3286931915283,-0.03240232914686203,0.037319865077734,-0.5094635486602783,0.8590717911720276,0.5217656429927158,8.496057209922169,0.4046739736181083,-0.10647061467170717,-0.2736095190048218,-0.03072222881019116,-0.8782300101220608,-0.40391608245670796,-9.33416119158268
32.2,7.5,95.0,20.642560958862305,25.914831161499023,-79.78200497260688,40.45931976431864,293.2787301940918,-0.04595137387514114,0.04512147977948189,-0.5064717531204224,0.859848141670227,0.5573731861655072,8.477921998016505,0.6676836219805848,0.031262096017599106,-0.12966258823871613,-0.07124774158000946,-0.7905179746448994,-0.2450774377025664,-9.471947320103643
32.3,7.400000095367432,95.0,20.512346267700195,26.58278083801269,-79.7819958654691,40.45932302325113,293.2514589233398,-0.05159170553088188,0.04759037494659424,-0.5050987005233765,0.8602027297019958,0.5740354719993135,8.510712089419886,0.8114711036146371,0.03667808696627617,-0.1980612426996231,-0.1233220025897026,-0.7408001963049173,-0.25270851094275715,-9.749403550028802
32.5,7.300000190734862,88.0,20.536136627197266,26.670249938964844,-79.78198694236659,40.4593261935696,293.23078707885736,-0.058404851704835885,0.049287844449281686,-0.5045654773712158,0.8599845767021179,0.5674288781371591,8.518859969729844,0.9435273103210908,-0.1997764408588409,-0.3104706406593323,0.08080753684043884,-0.8162237964570522,-0.4603312250599265,-9.593929594159128
32.7,7.199999809265138,87.0,20.39841079711914,27.266632080078125,-79.78196882973317,40.459332834676665,293.18705729675287,-0.07520394772291182,0.05723324790596963,-0.5035773515701294,0.8587658405303955,0.5484620082632704,8.593352697440046,1.2300663693412677,0.1080627366900444,-0.236447274684906,-0.11007770150899887,-0.5983583319559693,-0.24011594731360675,-9.834555966854095
32.8,7.099999904632568,87.0,20.20809936523437,31.13119506835937,-79.78195954521631,40.45933623856246,293.1631944580078,-0.08102311193943024,0.06316620856523514,-0.5027667284011841,0.8582953214645386,0.5250311061561506,8.657648850798488,1.4084056581479591,0.1174907460808754,-0.15302914381027222,0.04879745095968247,-0.8654360830038786,-0.20122657282277945,-9.75713239967823
32.9,7.099999904632568,87.0,20.052845001220703,29.84300804138184,-79.78194078090372,40.4593431083587,293.1115453643799,-0.08777373284101486,0.0672965794801712,-0.501625657081604,0.857985258102417,0.4939435649921375,8.818229047020559,1.7688778093585578,-0.1126011162996292,-0.11639202386140825,-0.014553458429872991,-0.8311317113041878,-0.3577729263156653,-10.189940378665924
33.1,7.099999904632568,82.0,20.320783615112305,28.11747169494629,-79.78192162702281,40.459350220156004,293.06411723327636,-0.0929097905755043,0.07116259634494781,-0.5019780993461609,0.8569256663322449,0.5242675239507941,9.02091141266304,1.9498745129675288,0.13589850068092346,-0.1068490520119667,0.15089930593967438,-0.972396640777588,-0.32983990006148817,-10.154045491218568
33.2,7.099999904632568,81.0,20.240652084350586,28.936504364013672,-79.78191176701344,40.45935390498217,293.05420092773437,-0.09513594210147858,0.0758991464972496,-0.5034132599830627,0.8554319143295288,0.4972892360854589,9.124586585173533,2.0886057584993303,0.13785630464553833,-0.021424580365419388,-0.031674318015575416,-0.9812332454323768,-0.4295721298456192,-10.096183784008023
33.41,7.199999809265138,80.0,20.36210060119629,27.3620548248291,-79.78190177073158,40.459357644567326,293.0473192138672,-0.0931803658604622,0.07780107110738754,-0.5050956010818481,0.8544840216636658,0.4603704811540198,9.222971628305396,2.238858120057368,0.11269214004278184,0.17315933108329773,0.11858335882425307,-0.935314403101802,-0.3014352593198419,-10.449201242923737
33.61,7.300000190734862,80.0,20.160520553588867,28.864938735961914,-79.78187154990806,40.45936875528201,292.97001818847656,-0.06783516705036162,0.06821700930595398,-0.5109043121337891,0.85423743724823,0.37266888115055663,9.531748601452811,1.9841187976708707,-0.11376552283763885,0.13977698981761932,0.105242520570755,-1.0998487658053635,-0.2693842583522201,-10.003311288356784
33.7,7.400000095367432,80.0,20.45475196838379,26.15338516235352,-79.78186117170355,40.45937259957568,292.9690301818848,-0.06553059071302414,0.059781830757856376,-0.5126835107803345,0.8539833426475525,0.3650374164727614,9.628270291702144,1.8521833397827576,-0.03874009475111962,0.13887901604175568,0.1457819938659668,-1.2366144821047784,-0.3393520408496261,-10.1704609644413
34.2,7.900000095367432,82.0,20.870433807373047,22.71026611328125,-79.78181882371072,40.45938811880081,292.9172475738525,-0.04922429844737053,0.0593743622303009,-0.5175793170928955,0.8521521687507629,0.30604154156897423,9.845807429978851,1.4584522707788417,-0.105166494846344,0.04310685768723488,0.09047742933034897,-1.328040668964386,-0.44076282352209095,-9.59443128526211
34.6,8.5,82.0,20.75900077819824,24.75387191772461,-79.78176521286676,40.459407357548855,292.89433459472656,-0.04317067191004753,0.04399028792977333,-0.5169467926025391,0.8537957668304443,0.3715973459659121,9.910694804456133,1.1971177259828345,0.03317486122250557,0.026687704026699063,-0.2539330422878265,-1.2751062642037871,-0.3299366714805365,-9.859235894680022
34.8,8.600000381469728,81.0,20.74648094177246,23.815563201904297,-79.78175456535548,40.45941119583072,292.89148120117187,-0.04338294640183449,0.04886673763394357,-0.5162685513496399,0.8539302945137024,0.4048257038576864,9.912953771049793,1.172211620046422,0.1505730003118515,-0.07243216782808304,-0.09298071265220642,-1.2589112310111523,-0.2461664268001914,-9.681396923661232
35.2,8.899999618530273,80.0,20.764009475708008,24.2052001953125,-79.78171124204762,40.45942637629906,292.8880060119629,-0.04900222271680832,0.040614817291498184,-0.5129185318946838,0.8560746312141418,0.5136168349177197,9.923351961111004,1.2780080838421068,-0.101826511323452,-0.03566088527441025,0.10638171434402466,-1.3143755798041823,-0.2945546213909984,-9.511523614525798
35.3,8.899999618530273,80.0,20.87293815612793,22.424001693725586,-79.7816898784841,40.45943402194492,292.8768556518554,-0.04944659024477005,0.03367212042212486,-0.5128885507583618,0.856368362903595,0.519690191274651,9.924222288757058,1.1511392298077172,0.014698039740324019,-0.06805143505334854,-0.20596015453338626,-1.0480082289129495,-0.0470482685789466,-9.554315877556801
35.5,9.0,82.0,20.7164306640625,23.974597930908203,-79.78167872779913,40.45943780412803,292.87964419555664,-0.05036133900284767,0.03240295127034186,-0.5123515725135803,0.8566853404045105,0.5206821243233817,9.950818030478887,1.1081152421387759,-0.05782454460859299,-0.04660021141171456,-0.06921813637018204,-1.0255552862584592,-0.18782131930813195,-9.512778427004816
35.7,8.899999618530273,83.0,20.841636657714844,23.219179153442386,-79.78165695253985,40.45944549807447,292.88274745178217,-0.047495968639850616,0.03801858052611351,-0.5108652710914612,0.8575053811073303,0.5156722897423602,9.949045666407798,1.1037196992672458,0.1712847501039505,-0.11691024899482727,0.20289747416973114,-1.211767762452364,-0.5172126831114292,-9.553361027240754
35.81,8.899999618530273,83.0,20.764009475708008,24.53122329711914,-79.7816356125429,40.45945325787599,292.86064318847656,-0.04542099311947823,0.042837947607040405,-0.5097974538803101,0.858025848865509,0.505643231890972,9.945866559382916,1.107805527836697,-0.10644812136888504,0.033412910997867584,0.0427376963198185,-1.1277440775185823,-0.34670677833259106,-9.596969561576843
36.0,8.899999618530273,84.0,20.735212326049805,24.70616149902344,-79.78162473449282,40.45945695747403,292.8651159210205,-0.044148512184619904,0.04148136824369431,-0.5096694231033325,0.8582350611686707,0.5253623964096223,9.9354729554825,1.1381100945147151,-0.01347753405570984,-0.03230617195367813,0.24136631190776825,-1.4555609871447086,-0.5902152436226606,-9.581130623817444
36.1,8.800000190734863,84.0,20.57745361328125,24.94471549987793,-79.78161408572224,40.45946083852562,292.85566310119634,-0.04395642876625061,0.03928803652524948,-0.5096545219421387,0.8583570122718811,0.517555726668626,9.930243592104187,1.0939168971369684,-0.08442732691764833,-0.06495384871959686,-0.003400397254154086,-0.9599588821828364,-0.3903367280960083,-9.716268548369408
36.3,8.800000190734863,85.0,20.65758514404297,23.93483924865723,-79.78159258921437,40.45946852113553,292.8473394317627,-0.0461784191429615,0.03943457454442978,-0.5089904069900513,0.8586275577545166,0.5318516068370469,9.92213095541183,1.1181611374591882,-0.040461309254169464,0.0033862979616969824,-0.03979936987161637,-1.110803743600845,-0.27409883178770544,-9.953939738273624
36.4,8.899999618530273,86.0,20.79280662536621,24.02230834960937,-79.78157120487263,40.45947618742765,292.843021194458,-0.042988646775484085,0.04467867687344551,-0.5096650123596191,0.8581360578536987,0.5297375232582779,9.901034912888374,1.1865817737489321,0.06368625164031982,-0.07991764694452286,-0.22037653625011444,-1.0617314247787,-0.15817136781290175,-9.812075761556626
36.5,8.800000190734863,86.0,20.653827667236328,24.91290855407715,-79.78156059271124,40.45948006171165,292.8411920471192,-0.042510319501161575,0.0488889180123806,-0.5102103352546692,0.8576061129570007,0.5097102302345,9.890552774755113,1.1880860712761692,0.04593822732567787,-0.009847536683082579,-0.01638760231435299,-1.2598464931547642,-0.29226510755717755,-9.779278728961943
36.7,8.800000190734863,87.0,20.612510681152344,26.320371627807607,-79.78154971187273,40.45948396828767,292.8354051513672,-0.042606156319379807,0.051343005150556564,-0.5108875036239624,0.8570547103881836,0.4967997145954621,9.898771178962525,1.2189162526312372,0.03639369457960129,-0.02556455694139004,-0.13686813414096832,-1.0983902509510517,-0.16277749367058278,-9.697869114875793
36.9,8.800000190734863,86.0,20.71517944335937,24.006404876708984,-79.78151767786096,40.45949556066842,292.82509974670415,-0.044763609766960144,0.04425717890262604,-0.511865496635437,0.8567561507225037,0.4703675087036263,9.896314305064193,1.2228482835489465,0.013227351009845734,-0.029210275039076805,0.03276446461677551,-1.3884530778229238,-0.4421500023454428,-9.736511608958244
37.0,8.800000190734863,87.0,20.698902130126953,24.809534072875977,-79.78150706749855,40.45949942042103,292.8257177276612,-0.041792023926973336,0.039185620844364166,-0.5116417407989502,0.8572868704795837,0.4823850071269096,9.864817818559054,1.2508440133084076,0.04931652545928955,0.2581622898578644,-0.06250768899917603,-1.428761736005545,-0.01956704936921597,-9.989556298255922
37.1,8.699999809265138,87.0,20.737716674804688,24.300621032714844,-79.78149630260407,40.45950316247961,292.81762866210937,-0.02146372385323048,0.02638631872832775,-0.5114749670028687,0.8586247563362122,0.4977836244324131,9.7911096234563,1.1761794790266482,0.0072045079432427874,0.6715917587280273,-0.2640634775161743,-1.4904198941588402,-0.2359250103123486,-10.224247162342072
37.3,8.600000381469728,92.0,20.711421966552734,25.11965370178223,-79.78147553881924,40.459510675453465,292.84154109191894,0.05367853119969368,-0.012993108481168749,-0.5103558897972107,0.8581879734992981,0.544511434045968,9.57046431709381,0.025794557233509208,0.03647377341985703,0.9096952080726624,-0.043602366000413895,-0.9691764329373836,-0.1694585040025413,-10.44669629573822
37.5,8.5,107.0,20.528623580932614,26.312419891357425,-79.78146473596634,40.45951444214328,292.81094912719726,0.08659554272890091,-0.03110622055828572,-0.5086540579795837,0.8560401201248169,0.5581547698077128,9.361680530557406,-0.7820107418383351,0.04198042675852776,0.7359299659729004,-0.14559492468833926,-0.5988539931178093,-0.3104542240127921,-10.715308027267458
37.6,8.300000190734862,107.0,20.686382293701172,24.952667236328125,-79.78145475596523,40.45951803370054,292.8353517456054,0.10586857050657272,-0.045155640691518784,-0.5070438981056213,0.854201078414917,0.5713549832959876,9.035124012575137,-1.379953695612158,-0.23373353481292725,0.27065810561180115,-0.05856949463486673,-0.3428446558490396,-0.12402562011033295,-10.774557863473893
37.8,8.199999809265138,108.0,20.9843692779541,21.74810218811035,-79.78143545384869,40.45952481055424,292.8611333770752,0.11683883517980576,-0.05197836458683014,-0.5049366950988771,0.8536310791969299,0.5957192996898105,8.348296584131656,-1.8371391706417883,0.029052516445517537,-0.05334868654608727,-0.10616221278905867,-0.5112166192755103,-0.4719365228712559,-10.50080642938614
37.9,8.0,124.0,21.035703659057614,21.23123550415039,-79.78142646355441,40.459527985613434,292.88929537963867,0.11253587156534196,-0.05109452083706857,-0.5047695636749268,0.8543610572814941,0.6009300501628714,8.02800512855617,-1.7927778960863658,-0.015454490669071674,-0.02799155004322529,0.02278437092900276,-0.6013772859424353,-0.2442326794937253,-10.212531681060794
38.0,7.800000190734862,121.0,21.061996459960934,21.088104248046875,-79.78140926740949,40.45953400985746,292.92251376342773,0.11473429948091507,-0.049256395548582084,-0.5014951825141907,0.8561031222343445,0.6191592967713415,7.426199472192472,-1.6702744771946478,0.12783513963222504,0.1490389108657837,0.0651295930147171,-0.8440474797785282,-0.4025345315784216,-9.700340732932089
38.2,7.400000095367432,122.0,21.276098251342773,19.664737701416016,-79.78139325607037,40.459539609873936,292.9372003479004,0.13563641905784607,-0.05887814983725548,-0.4975342750549317,0.8547490239143372,0.6736094861191378,6.762244890180678,-1.9129503664196923,-0.012496206909418106,0.18347743153572085,-0.0086984159424901,-0.8228893299400807,-0.16860915938392282,-9.339101504087447
38.4,7.199999809265138,123.0,21.056989669799805,21.54930686950684,-79.78138582036148,40.45954215616671,292.9232156677246,0.14697390794754028,-0.06360338628292084,-0.4953743517398834,0.8537901639938354,0.6987800294730322,6.378335998970621,-2.129778102108306,0.06116680428385735,0.2227523773908615,0.07651626318693161,-0.44804582297801976,-0.5773954060301185,-9.030401846766473
38.5,6.699999809265138,131.0,21.158405303955078,20.92906951904297,-79.78137856868791,40.45954455796995,292.91942958068853,0.15326935052871704,-0.06635645031929016,-0.4939200878143311,0.853316068649292,0.7149932967002611,6.012161753875652,-2.308704079543656,0.050192959606647485,0.05428433790802956,-0.07618317008018494,-0.2027087140828371,-0.3362618970125914,-8.98439361512661
38.6,6.4000000953674325,133.0,21.17092514038086,21.175573348999023,-79.78136525599318,40.45954888355181,292.85159854125976,0.15456894040107727,-0.06807615607976912,-0.4916677474975586,0.8542464971542358,0.7385761719751311,5.284899751586006,-2.4751614328690925,-0.06873291730880737,0.08112864196300508,-0.023691631853580475,-0.07747065553441644,-0.2536781254783273,-8.922952242493631
38.8,5.9000000953674325,137.0,20.697650909423828,25.620615005493164,-79.78135321355566,40.45955278452825,292.7025354309082,0.14947649836540222,-0.07405639439821242,-0.4918891489505768,0.8545277714729309,0.7527737441387745,4.6156210573179735,-2.488978931335679,-0.11602761596441268,-0.006395068485289812,0.029557628557085987,-0.31082895744591954,-0.2274035705812276,-9.222565326690674
38.91,5.699999809265138,139.0,20.512346267700195,27.21096992492676,-79.78134773900085,40.45955443444323,292.63787440490717,0.15063999593257904,-0.07752977311611177,-0.4919039607048034,0.8540066480636597,0.7301371242856294,4.289761074969408,-2.4475090919777283,-0.04401638731360436,0.14155197143554688,-0.16995950043201447,-0.06948001507669688,-0.11657906306907535,-9.589462321400642
39.11,5.099999904632568,142.0,20.340816497802734,28.841083526611328,-79.7813377915612,40.459557384832564,292.4813859863281,0.1547323614358902,-0.07906774431467056,-0.4909363090991974,0.8536907434463501,0.7002629888032388,3.6131025188641135,-2.3638494155214715,0.0007571226451545954,-0.020265916362404823,-0.07704577594995499,0.12114719116128984,-0.37151812233030795,-9.844213228225707
39.3,4.800000190734863,147.0,19.59208869934082,37.30972290039063,-79.7813332870144,40.4595586933112,292.37988452148437,0.1535916030406952,-0.07653132826089859,-0.4909673929214478,0.8541098833084106,0.6958155729964446,3.2760359618745123,-2.258734159831826,0.04422659054398537,-0.0014488756423816085,0.024104490876197808,0.006381788207218051,-0.24804327338933946,-10.273486565351488
39.4,4.199999809265137,156.0,19.48316192626953,37.77092742919922,-79.78132549717705,40.45956079658523,292.25287608337396,0.15585081279277802,-0.08555572479963303,-0.4885302186012268,0.8542417883872986,0.6451531315677671,2.6507797325257414,-1.7576984724987463,-0.22084759175777435,0.20105262100696564,0.015510686673223972,0.047799708880484106,-0.4971597301214933,-11.553214030265806
39.61,3.9000000953674316,161.0,19.458120346069336,37.19839859008789,-79.78132219668511,40.45956165005588,292.18253306579584,0.15764391422271729,-0.1014772579073906,-0.4867046773433685,0.8532112240791321,0.5864577059932295,2.313264438958575,-1.533538715405049,-0.30344757437705994,0.17436107993125916,-0.20951206982135773,0.3950893815234304,-0.2650826993398369,-11.656237292289735
39.8,3.5999999046325684,171.0,19.41680145263672,37.031410217285156,-79.78131687684225,40.459563286367,292.1114080352783,0.15436992049217224,-0.1042073220014572,-0.4834770560264587,0.8553133010864258,0.4492165100324903,1.7138114014700307,-1.0780752998130416,0.07983014732599257,-0.1458684802055359,-0.0779581218957901,0.6223272018134595,-0.07167427411302925,-11.689558235406876
39.91,3.4000000953674316,179.0,19.352947235107425,37.71526336669922,-79.78131477015101,40.459563760681476,292.0837934417725,0.15196669101715088,-0.09376133978366852,-0.48377686738967896,0.8567816615104675,0.4424571420034163,1.4351840011893824,-0.7960486438467236,0.2817766666412353,-0.21269191801548004,0.10645189881324768,0.5773381033167243,-0.2942808803357184,-11.716580557823182
40.01,3.2000000476837163,195.0,19.359207153320312,37.3574333190918,-79.78131358831351,40.45956417535884,292.00403765869135,0.14976853132247925,-0.07902240753173828,-0.4880872666835785,0.8562100529670715,0.3930951417386869,1.1736996996250366,-0.5500459530274046,0.2725379467010498,-0.2440775185823441,0.22336459159851074,0.5782696744054556,-0.31228845901787283,-11.777113273143769
40.21,3.2000000476837163,203.0,19.68849754333496,31.051677703857425,-79.78131219563599,40.45956443579037,291.94391612243646,0.14158011972904205,-0.05669722706079482,-0.5041459202766418,0.8500456213951111,0.32491271062785904,0.6739768951215419,-0.01780301932736445,0.05985771119594574,-0.13183796405792236,0.14892281591892242,0.6566950158029795,-0.5417090449109674,-11.758562396764756
40.3,3.2000000476837163,216.0,19.96770477294922,29.461322784423828,-79.7813114807228,40.45956440944147,291.9702451629638,0.1377999186515808,-0.0534399077296257,-0.512408435344696,0.845927357673645,0.3094083447392654,0.5086010108262558,0.20473305761188826,-0.02109384723007679,-0.3316405117511749,-0.054052937775850296,1.1594399332255123,-0.32773607186973097,-11.146406865119937
40.4,3.2000000476837163,219.0,20.244407653808594,27.139404296875,-79.78131177395593,40.4595640699289,291.97066287231445,0.06199374422430993,-0.009241941384971142,-0.5566110610961914,0.828405499458313,0.31814988573700376,0.2282657379269031,0.3873698497053181,-0.15324826538562775,-0.6291931867599487,0.7017473578453064,0.547924744784832,-0.2294610413163901,-10.556300014257433
40.6,3.5,230.0,20.561176300048828,24.38809013366699,-79.78131270105838,40.45956379953493,291.9866159362793,0.04416395351290703,-0.004075216595083475,-0.6358494162559509,0.7705378532409668,0.2903084482105033,0.0449610915012906,0.4012119003255703,-0.034468308091163635,0.28546759486198425,1.2171380519866943,0.2548878778517246,-0.3002529523149133,-9.864501897096632
40.8,3.5999999046325684,233.0,20.42845916748047,26.92470741271973,-79.78131256532562,40.45956353817589,292.0239332122802,0.05073382705450058,-0.009766135364770893,-0.6794356107711792,0.7319139838218689,0.2811763472386499,0.07053033278959323,0.3735519403569024,-0.10452636331319808,0.24492381513118744,1.3070554733276367,0.5023702205345035,-0.7356645867973567,-9.737361209392546
40.9,4.0,236.0,20.25692749023437,27.79145050048828,-79.78131385753031,40.45956370307118,292.0197122497558,0.057106848806142814,-0.01894638314843177,-0.7692127227783203,0.6361537575721741,0.1827759038699961,0.007384520381394741,0.3051621984546774,-0.16616928577423096,0.13998618721961975,1.5322929620742798,0.5748768275231123,-0.8832817120850087,-9.669175658226012
41.1,4.099999904632568,243.0,20.276960372924805,27.97434043884277,-79.78131391401817,40.459563519934335,292.0494821472168,0.056935161352157586,-0.020005006343126297,-0.8113863468170166,0.5813868045806885,0.18192210073745327,-0.012176700331549994,0.31936397694450364,-0.13471272587776184,0.1467539221048355,1.4229543209075928,0.3985370460525156,-0.745145627707243,-9.850086171627048
41.2,4.400000095367432,240.0,20.349580764770508,26.11362648010254,-79.78131566541158,40.45956432153166,292.0434263153076,0.05686230957508087,-0.020373132079839703,-0.8520929217338562,0.5198935270309448,0.13730428111554216,-0.14142759763846394,0.3179744476279776,-0.1504916250705719,0.08351507037878036,1.5175001621246338,0.3306847496330738,-0.9167779254913332,-9.879597069025039
41.3,4.400000095367432,238.0,20.403417587280273,26.781574249267567,-79.78131626411091,40.459564205349174,292.1040151519776,0.046072803437709815,-0.016810011118650436,-0.9194172620773317,0.39021357893943787,0.16430642249513347,-0.2034012465739399,0.3373976773135736,-0.22250576317310333,-0.0870111808180809,1.439236044883728,0.0980041674245149,-0.7664963702112436,-9.775464590191842
41.5,4.5,257.0,20.57870483398437,25.024232864379893,-79.78131782895048,40.45956406834865,292.19348315429687,0.03457541763782501,-0.009236839599907398,-0.9667640924453736,0.2531530559062958,0.26448075144616323,-0.2643650183879967,0.3280252766887018,-0.06743761897087097,0.08276942372322083,1.3868310451507568,-0.09463095439597964,-0.6573414985835553,-9.80494683623314
41.7,4.5,261.0,20.572444915771484,25.175315856933594,-79.7813189620357,40.45956368266539,292.2759855194092,0.03178716078400612,-0.006991696078330278,-0.9824038147926332,0.18391135334968567,0.3400274763259371,-0.2618496985211438,0.3264529803672401,-0.07623393833637238,0.04459666460752487,1.400774359703064,-0.15699443293735385,-0.6658050508797169,-9.713321551680565
41.8,4.599999904632568,248.0,20.423450469970703,26.92470741271973,-79.78131948859608,40.45956376188385,292.304052154541,0.0277754794806242,-0.006401777733117342,-0.9930805563926696,0.11392346769571304,0.3642840668827724,-0.26492226927737883,0.29363121068859765,-0.06826569139957428,0.05022893846035004,1.3352375030517578,-0.22525676535442474,-0.5141007949411869,-9.537733758687974
42.0,4.599999904632568,241.0,20.359596252441406,27.48928260803223,-79.78132078295955,40.459563649205386,292.4361780090332,-0.02064235880970955,0.0004856418236158788,0.999489963054657,0.024365413933992386,0.4173536436725041,-0.2124606015380481,0.2867748690970602,-0.12028229236602785,-0.02388674020767212,1.27153480052948,-0.3649302837252617,-0.5981335796043277,-9.658088752627373
42.1,4.5,252.0,20.24566078186035,27.218921661376953,-79.78132251861193,40.45956386762296,292.54176119995117,-0.008792913518846035,-0.0034567248076200485,0.9905036091804504,0.13716240227222445,0.4611831097413018,-0.16866714174059294,0.30262847471684795,-0.09674221277236936,0.006570650730282068,0.8956502676010132,-0.4446533780917525,-0.4720223307609558,-9.753867899179461
42.3,4.5,252.0,20.4096794128418,31.409507751464844,-79.78132300226672,40.459564092018,292.57060412597656,-0.005285326391458511,-0.0066832005977630615,0.983977437019348,0.17808976769447327,0.4399678648250363,-0.14363131299092335,0.2938852372130211,-0.08325763046741486,-0.00557140726596117,0.7977584600448608,-0.4079936017468572,-0.4862904505804181,-9.777736818194393
42.4,4.5,239.0,19.803686141967773,32.419384002685554,-79.78132344400535,40.45956432520745,292.59934786987304,-0.004421532154083252,-0.012123419903218744,0.9780345559120178,0.20804327726364136,0.4280955991843527,-0.11707387529531353,0.28364266251295506,0.023484371602535248,-0.16342715919017792,0.402060866355896,-0.1695001105964184,-0.14104516552761198,-9.718358927965165
42.6,4.400000095367432,233.0,20.00025749206543,31.2584228515625,-79.78132478442262,40.45956449312585,292.7200696868896,-0.04580168053507805,-0.06127916648983955,0.9679144024848938,0.23935092985630035,0.4638554331164548,0.05277254222338426,0.3999062293787987,0.2668413519859314,-0.6305114030838013,0.06439045071601868,-0.2865883930586279,-0.4535413286089897,-10.247779866456987
42.71,4.400000095367432,246.0,19.852516174316406,32.323959350585945,-79.78132586263908,40.45956471150907,292.79362467956537,-0.05439319461584091,-0.08857949823141098,0.9647020101547241,0.2419612854719162,0.4754346431508438,0.1152104592697688,0.4894160367310865,-0.13250799477100372,-0.4520441591739655,0.0894077867269516,-0.6280248749256134,-0.6407593066245317,-10.287323416471482
42.9,4.5,258.0,19.98147773742676,30.701799392700195,-79.78132736352505,40.45956455726324,292.8899438781738,-0.03688396513462066,-0.11339999735355374,0.9650999903678894,0.2331567257642746,0.4952976867118755,0.3821843053660528,0.6701493579033032,-0.2920460700988769,-0.10571353882551192,-0.10560891032218933,-0.7239730791002512,-0.4120255127549172,-10.341628847122193
43.0,4.5,250.0,19.995250701904297,30.2962589263916,-79.78132949864009,40.45956414468144,293.01722125244135,-0.015939058735966682,-0.11610250174999236,0.9692328572273254,0.21645742654800407,0.5189407772704221,0.6860618958531591,0.7961303560188241,-0.15056055784225464,0.09015532582998276,-0.07526928186416626,-0.5074737434461714,-0.1318257144279778,-10.411224746704102
43.21,4.599999904632568,247.0,20.225627899169922,28.05385780334473,-79.78133200830203,40.459562980898426,293.14624575805664,-0.011734629981219769,-0.11693356931209566,0.9722760319709778,0.2021590173244477,0.5143563825416643,1.0132504012716617,0.8425220019866658,-0.03852007538080216,-0.040740884840488434,-0.24683837592601776,-0.3420411387830973,-0.06103992473334075,-10.00741369485855
43.3,4.699999809265137,217.0,20.410930633544922,25.191219329833984,-79.7813331309532,40.459562113720864,293.2054593963623,-0.012189364060759544,-0.11974234879016875,0.9727576971054076,0.19813057780265808,0.4854164285376175,1.1807028122546472,0.8666687566488068,0.023152969777584083,-0.047267507761716836,-0.14759132266044614,-0.5117261310294271,-0.12148281220346688,-9.750130358934404
43.4,4.800000190734863,211.0,20.4384765625,25.46953201293945,-79.78133481515486,40.459561204529365,293.27033786010736,-0.011985339224338531,-0.12257663905620575,0.9728564620018004,0.19591256976127625,0.4721696795694433,1.3238574921973962,0.8479414454126478,-0.0815969705581665,-0.08373332023620605,0.028863584622740742,-0.648992113173008,-0.3127691732347012,-9.445714956521988
43.6,5.0,209.0,20.37837791442871,27.27458381652832,-79.78133797334777,40.45955881296336,293.4014299316406,-0.012868898920714857,-0.12804023921489716,0.9717844724655152,0.1976741850376129,0.4577964981538971,1.6511272954024383,0.8504183471154685,0.04336610808968544,-0.0198879074305296,0.07459788769483566,-0.4011692798137665,-0.2284822539612651,-9.485045667886734
43.8,5.099999904632568,208.0,20.53863906860352,24.491464614868164,-79.78134063700206,40.45955581279626,293.47626094055175,-0.014219726435840132,-0.1242700144648552,0.9708420634269714,0.20450060069561005,0.3550569886381647,1.9811557052007307,0.849774521342465,0.1096598133444786,0.06957695633172989,-0.006724202539771795,-0.8534131112694741,-0.16612391000613572,-9.335559260845184
43.9,5.300000190734863,211.0,20.57870483398437,25.52519416809082,-79.78134250460934,40.45955389022001,293.56763247680664,-0.013162353076040743,-0.11901821196079256,0.9705359935760498,0.20909668505191809,0.3138906021053845,2.1426278565338253,0.8649676380307125,-0.04221631214022637,0.1674717217683792,-0.008080790750682354,-0.6075946303457022,-0.03386668933555484,-9.467812169194225
44.01,5.5,208.0,20.78904914855957,23.083999633789066,-79.78134393731409,40.459552043014654,293.59647540283197,-0.01223965920507908,-0.11758581548929214,0.9697120189666748,0.21373458206653595,0.25904180868979065,2.3115277592739982,0.8204022059782196,0.03977517038583756,0.03492249175906181,-0.0486542247235775,-0.5585907239466906,-0.14703238544985653,-9.5231057792902
44.2,5.699999809265138,206.0,20.777782440185547,23.55315399169922,-79.78134576336501,40.45954983132196,293.6695249481201,-0.013473671860992908,-0.1196202114224434,0.9685720205307008,0.2176646739244461,0.20953025176500173,2.4633833527038203,0.8128639159478853,0.05126941204071045,-0.06798366457223892,0.07097925245761871,-0.6371350561827421,-0.006501793172210457,-9.288209677934649
44.4,5.9000000953674325,206.0,20.89797782897949,22.956771850585927,-79.78134880912191,40.459545508934944,293.69740657043457,-0.017364738509058952,-0.12534454464912415,0.9663313031196594,0.22403372824192047,0.10048762160228564,2.7522746881636224,0.7523833181898684,0.16538280248641968,-0.08262764662504196,0.10285469889640808,-0.92614925801754,-0.17569684356451035,-8.992871493101118
44.5,6.199999809265138,213.0,20.697650909423828,24.952667236328125,-79.78135227817792,40.45954022723511,293.74771670532226,-0.020261071622371674,-0.12881040573120114,0.9648571014404296,0.2281407415866852,0.0020893715781836915,3.0614897342997414,0.7412281021412491,0.09383644908666612,-0.10645774751901628,0.1466369479894638,-1.02305223941803,-0.06391417840495706,-9.084948182702067
44.8,6.300000190734862,218.0,20.836627960205078,23.083999633789066,-79.78135598604806,40.45953440096852,293.7715890808105,-0.02085278555750847,-0.1299712210893631,0.9649022817611694,0.2272362858057022,-0.0678334937909146,3.358331949019896,0.7428126515197351,-0.06739398837089539,-0.08237317949533463,-0.1986314356327057,-0.9620157864689828,0.09015576962381602,-9.101378858685496
44.9,6.599999904632568,215.0,20.904237747192386,24.12568283081055,-79.78135774004997,40.45953154965378,293.75284365844726,-0.020935416221618645,-0.13145267963409424,0.965117871761322,0.2254540175199509,-0.09298868290747933,3.4947081670420514,0.7168134397857646,-0.053489282727241516,0.0015909349313005805,-0.18284904956817627,-0.8877983207255602,-0.12899804661981762,-9.36914040505886
45.0,6.800000190734862,215.0,20.75774955749512,25.382062911987305,-79.781359945505,40.459528146592476,293.7777326507568,-0.02064721845090389,-0.13033753633499146,0.9657381772994996,0.22346311807632446,-0.09736849000125204,3.6458561450829534,0.7581051868758584,-0.020503370091319084,0.0011369709391146898,-0.16023054718971252,-1.119903765320778,0.019353297092020508,-9.164134685397153
45.1,7.199999809265138,209.0,20.765260696411133,24.332427978515625,-79.7813640549966,40.459521371112906,293.7572095794677,-0.02184697799384594,-0.1261070817708969,0.9668468236923218,0.2209683209657669,-0.11463426488040472,3.932601627607572,0.7723396027101448,0.08051179349422455,0.11675460636615753,0.03624784201383592,-1.2060339827835558,0.05013992446940393,-9.517605303525926
45.31,7.400000095367432,212.0,20.87544059753418,22.98857879638672,-79.78136601048385,40.45951802325717,293.72928790283197,-0.023732639849185944,-0.12469013035297395,0.967071533203125,0.22059448063373568,-0.1310077090966437,4.073209154516058,0.7700982044018078,-0.01821443252265453,0.02307542972266674,-0.03611874580383302,-1.1344478371739388,-0.02894572746008635,-9.510178170204163
45.4,7.699999809265138,211.0,20.81659507751465,23.91893577575684,-79.78136801112544,40.45951456993714,293.69884089660644,-0.02549550123512745,-0.12401577085256575,0.9671831727027892,0.2202879786491394,-0.13592713426694833,4.190987979292746,0.7566337109591279,0.032894179224967963,0.004706885199993849,-0.09655734151601793,-1.1385108480602504,-0.18454982042312626,-9.525617158412933
45.6,7.900000095367432,210.0,20.767765045166016,24.61074066162109,-79.78137256847218,40.45950691683664,293.6651838226318,-0.028253093361854564,-0.12534216046333313,0.9673951864242554,0.218260794878006,-0.1414135457837957,4.438642530592544,0.7972451299000113,-0.06394288688898088,0.11249160021543504,-0.16129165887832642,-0.99805334597826,-0.09147988988086582,-9.618462756872178
45.7,8.300000190734862,220.0,20.5849666595459,25.89097595214844,-79.78137508766869,40.45950269671907,293.63802508544916,-0.02830214239656925,-0.12600940465927124,0.9676474332809448,0.2167467325925827,-0.1418318784136722,4.5729184273890136,0.8428749043642405,0.0315449982881546,-0.06536898016929626,-0.07288442552089691,-1.4140440018475056,-0.1538595761731267,-9.500397532582284
45.81,8.399999618530272,220.0,20.733959197998047,24.904956817626953,-79.7813795646012,40.45949484808021,293.5692651672363,-0.028973864391446117,-0.12369922548532485,0.9678630828857422,0.217025488615036,-0.14532748994258052,4.782637030817833,0.914842233303664,0.06892814487218857,0.09960981458425522,0.15723632276058194,-1.5541622923314573,-0.14507862970232965,-9.905027779340744
46.0,8.699999809265138,220.0,20.43471908569336,27.77554702758789,-79.78138483128431,40.459486239342674,293.4795358581543,-0.032879460602998734,-0.12438128143548965,0.9671845436096193,0.2190944105386734,-0.14968305695397105,5.007326148527135,0.9961027598979728,0.0975194051861763,0.0013690744526684284,0.018278630450367928,-1.4536433927714825,-0.1881221402809024,-10.01585356593132
46.2,8.899999618530273,220.0,20.804075241088867,24.3801383972168,-79.78138761421074,40.45948159118437,293.4134004516601,-0.03547068312764168,-0.1259315013885498,0.9666946530342102,0.2199649214744568,-0.15113925700578412,5.125359956448233,1.0612375647336012,-0.048167616128921516,0.04541654884815216,0.0949302613735199,-1.5070020130276682,-0.11735338060185314,-10.152610584497452
46.3,9.199999809265137,227.0,20.735212326049805,24.89700508117676,-79.78139015220654,40.459477242929395,293.38635806274414,-0.03839059919118881,-0.12796439230442047,0.9664260745048524,0.2194814085960388,-0.1518992224906622,5.2268778171094405,1.126444037302819,0.03509186580777168,-0.06692693382501602,0.0521509051322937,-1.6640066237747668,-0.3247926200553775,-9.715117231607437
46.5,9.300000190734863,234.0,20.305757522583008,28.89674568176269,-79.78139573362056,40.459468075505946,293.28255633544916,-0.03831489756703377,-0.13428714871406555,0.9660820960998536,0.21721981465816492,-0.10471629558667514,5.431335161374745,1.2112780287367872,0.02997624315321445,-0.10973743349313736,0.13356347382068634,-1.6878559546172618,-0.01876366934739053,-9.88310773730278
46.6,9.600000381469727,234.0,20.43471908569336,27.20301818847656,-79.78139847912831,40.459463467472155,293.25518588256836,-0.03492337837815285,-0.1378278285264969,0.9656779170036316,0.21737071871757507,-0.0978659059914294,5.5394719643812635,1.3363019319007683,-0.0679396465420723,-0.12366195023059845,0.10801175981760024,-1.61473242983222,-0.01251592855900526,-10.155640611648561
46.72,9.699999809265137,234.0,20.330799102783203,28.682048797607425,-79.78140469684027,40.459453599724576,293.1546323699951,-0.03101256489753723,-0.1437995582818985,0.9648683667182922,0.21769045293331146,-0.07234182726173985,5.758184561230223,1.5291235544105792,0.1327487975358963,-0.0804784968495369,0.07280676811933517,-1.587102435529232,0.13829419674351812,-10.308968639373779
46.9,9.800000190734863,241.0,20.302001953125,29.43746757507324,-79.78141111091048,40.4594433839792,293.0624521179198,-0.031043441966176036,-0.14910292625427246,0.9642713069915771,0.21676157414913172,-0.07250700296770737,5.986436124880267,1.7180563267079083,-0.0589773952960968,0.02585207112133503,0.08496498316526413,-1.4873805114626886,0.1671447790414095,-10.344309210777283
47.0,9.899999618530273,239.0,20.357091903686523,28.04590606689453,-79.7814142186421,40.45943823783705,293.0511033935547,-0.03286245465278625,-0.14972427487373352,0.964368224143982,0.2156306952238083,-0.05860733898553104,6.095367578804472,1.8208224912721247,0.08305289596319199,0.009039582684636116,-0.10793612897396088,-1.7585015755891802,0.19265206960961226,-10.212087292671203
47.2,10.199999809265137,238.0,20.413434982299805,28.610483169555664,-79.78142101175662,40.45942740297848,292.98380450439447,-0.03815775364637375,-0.1535896360874176,0.9640851616859436,0.21329349279403687,-0.022793817840328308,6.328918979280197,1.9052122917116607,-0.006416059099137783,-0.03599819540977478,0.3019905388355255,-2.075498285740614,-0.4400882375612855,-9.634395834803582
47.4,10.300000190734863,238.0,20.37211799621582,28.006147384643555,-79.78142824795903,40.459416218404435,292.8996236724853,-0.037434637546539314,-0.15859375894069672,0.9635488986968994,0.2121799737215042,0.0369991967407738,6.569591557356959,2.0149033100473344,-0.02513602003455162,-0.056776337325572974,-0.10998839139938353,-1.88618985503912,0.006571119222790003,-9.838206968307496
47.5,10.5,257.0,20.24941635131836,30.328065872192386,-79.78143173365557,40.459410560331065,292.8826768798828,-0.03802188113331795,-0.16235293447971344,0.9628746509552002,0.21229331195354464,0.03882453749021096,6.689414691919303,2.095476001858407,-0.03066407889127732,-0.05552932620048523,0.02092322520911694,-1.9994381430745125,-0.1595808026008308,-9.672801516652108
47.6,10.600000381469727,260.0,20.01653480529785,31.17095375061035,-79.78143568114933,40.45940453498774,292.82477549743646,-0.037325721234083176,-0.16212353110313416,0.962761163711548,0.2131052315235138,0.040434847392349364,6.794093384502242,2.1964625680234935,-0.01704998500645161,0.11849990487098695,0.20625653862953186,-2.075541993677616,-0.14251265220344067,-9.904291030168533
47.8,10.800000190734863,260.0,20.1555118560791,28.825180053710927,-79.78144301989339,40.45939266750665,292.7991502685547,-0.03858062997460365,-0.15917706489562988,0.9624997973442078,0.21626035869121552,0.008134460709547965,7.072215168065437,2.30001173706139,-0.07338643819093704,-0.05368870124220848,0.055285926908254616,-1.8302891577780247,-0.08890658508986235,-10.21468111753464
48.0,10.899999618530273,260.0,20.13673210144043,30.57457160949707,-79.78144730064754,40.45938633514887,292.74109820556635,-0.03863980621099472,-0.16360759735107422,0.9613195657730104,0.2181840687990189,0.023974287610672947,7.214311146459885,2.3294816741687723,0.045318953692913055,-0.09519973397254944,-0.2528253197669983,-1.9727904810011387,0.1905438742786646,-9.864892491102221
48.1,11.199999809265137,257.0,20.1555118560791,30.04180145263672,-79.78145118058973,40.45938011536649,292.72889117431635,-0.037598107010126114,-0.1694866269826889,0.960243821144104,0.2186150550842285,-0.017236583740185142,7.322463022224232,2.450789058538983,0.0698743462562561,-0.04193665087223053,0.2254228293895721,-2.0662330801784994,-0.014226528072031215,-9.944211140871053
48.3,11.300000190734865,274.0,20.09791755676269,30.83697891235352,-79.78145954214176,40.459367009452905,292.6792867584228,-0.035381343215703964,-0.17077495157718658,0.9600064754486084,0.21902431547641754,-0.01730356800348283,7.511391878752465,2.6918663758321526,0.0477563813328743,0.0938352197408676,-0.16639839112758634,-2.292743104845285,0.2032079201191664,-9.912086538076402
48.4,11.5,274.0,20.10918617248535,30.42348670959473,-79.78146812361871,40.45935344516473,292.64608172607416,-0.03137568011879921,-0.14780451357364655,0.9637990593910216,0.21968363225460047,-0.027172566453029644,7.79674735737399,2.6055604466304847,-0.07717910408973694,0.2614931166172028,0.3297706544399261,-2.109364920258522,-0.3717116651684046,-9.98843714118004
48.6,11.600000381469727,274.0,20.26944923400879,28.594579696655273,-79.78147231028636,40.459346715340544,292.6445978088379,-0.030015867203474045,-0.14214129745960236,0.964760720729828,0.21938948333263397,-0.04030899325155306,7.937081761383582,2.487965727870772,0.030391160398721695,0.12497321516275404,0.33047622442245483,-2.1522932772338392,-0.4191293315961957,-9.913067700862888
48.7,11.800000190734865,233.0,20.240652084350586,28.37988090515137,-79.78147697476214,40.45933952721046,292.625097076416,-0.031044339761137962,-0.14419718086719513,0.9644551873207092,0.21924811601638794,-0.012195072701423004,8.080354878489148,2.4261730039448333,-0.0176408514380455,-0.1387803703546524,-0.17729023098945618,-2.154888271540404,-0.23988063342869284,-9.735885956883427
48.9,11.800000190734865,235.0,20.00651741027832,30.96420669555664,-79.78148557224993,40.45932567153852,292.6228979034424,-0.037837423384189606,-0.16198086738586426,0.9616995453834534,0.21786396205425265,-0.040925123535068525,8.174605076288074,2.6397310579528024,0.16591525077819824,-0.0963626429438591,-0.0038405498489737506,-2.33076184719801,-0.17036840384826066,-9.511998993158342
49.0,12.0,235.0,20.077884674072266,30.60637855529785,-79.78149044495724,40.45931824621685,292.61227587890625,-0.04130099341273308,-0.16545970737934113,0.9609625935554504,0.21787244081497192,-0.01485171082343531,8.231750123471588,2.8213011910496064,-0.095856212079525,0.0730707049369812,-0.1834683120250702,-2.147854948192835,-0.11147605178877712,-9.563858533501623
49.2,12.100000381469727,235.0,20.09541320800781,30.701799392700195,-79.7814996301706,40.459303435388826,292.61059741210937,-0.04547902196645737,-0.1609961986541748,0.9616423845291138,0.2173841893672943,-0.020136079818541614,8.42808748897693,2.9518401161978565,0.08823994547128677,-0.03551437333226204,0.31518375873565674,-2.4067059226334098,-0.4901581644639373,-9.565708592534063
49.3,12.300000190734865,255.0,20.09541320800781,29.84300804138184,-79.78150419489316,40.45929613858242,292.60759906005865,-0.04800286516547203,-0.15921463072299954,0.961661458015442,0.21806800365448,-0.013538233572056906,8.52949625603674,2.9433526707688085,0.009049451909959316,0.02725302241742611,-0.21267379820346832,-2.18673747047782,0.16573517980054026,-9.593917899727822
49.4,12.300000190734865,255.0,20.16928482055664,30.79722023010254,-79.78151388022192,40.459280891554776,292.6079805297852,-0.04613939300179482,-0.14622309803962708,0.96310693025589,0.22116748988628387,-0.016739989038909525,8.710407145116125,2.9395458181690044,0.06910008937120438,0.2182745635509491,0.1051892191171646,-2.4198218120634563,-0.004774726666510107,-9.793421974182133
49.6,12.399999618530273,255.0,20.318279266357425,27.751691818237305,-79.78152375525276,40.45926541243698,292.6176603240967,-0.035855110734701164,-0.13729654252529144,0.964135468006134,0.22429190576076508,-0.04323167283833933,8.933306801292128,2.6952563296396,-0.09017523378133774,-0.07638093084096909,0.22184646129608154,-2.3559133529663088,-0.2365039394795895,-9.509166601896288
49.8,12.5,256.0,20.210601806640625,29.23072052001953,-79.78152856994306,40.459257836699855,292.62017611694336,-0.03298088908195496,-0.14151471853256226,0.9635663628578186,0.2245570570230484,-0.0697226384898472,8.984775385831863,2.641832734483006,-0.1759873926639557,-0.014720546081662178,-0.0623348280787468,-2.244092516452074,-0.2290662080794573,-9.417241939902306
49.9,12.699999809265135,232.0,20.307010650634766,28.14132881164551,-79.78153850811798,40.459241947404976,292.6425187988281,-0.028859630227088925,-0.14968794584274292,0.9629918932914734,0.2222776859998703,-0.08147762619048365,9.04531439154602,2.7904988381659512,-0.03693171963095665,0.02101250924170017,-0.19686907529830933,-2.293859484493733,-0.10536897308193148,-9.361936050653457
50.01,12.699999809265135,229.0,20.09290885925293,30.654088973999023,-79.78154333746994,40.4592342315412,292.6396558685302,-0.03292926773428917,-0.14955197274684906,0.9631214737892152,0.2212398052215576,-0.0638797140389994,9.083686866935775,2.8381313416684866,0.060827180743217475,0.016193822026252747,0.06595982611179352,-2.6728871127963068,-0.3510575453191996,-9.180722651481627
50.2,12.800000190734865,229.0,20.08289337158203,30.701799392700195,-79.78154857572923,40.4592260421187,292.65984706115717,-0.036194976419210434,-0.1458621472120285,0.9635925889015198,0.22114136815071106,-0.0587364169967385,9.127823565825356,2.89973968837165,-0.003207548055797816,0.04692894220352173,0.1268947869539261,-2.6499663197994234,-0.31571956861764194,-9.491302773356438
50.4,12.899999618530273,229.0,20.135478973388672,30.717702865600586,-79.78155834201196,40.45921040580072,292.66059092712396,-0.04172086715698242,-0.13911090791225433,0.9636043310165404,0.22444218397140506,-0.08342939871653153,9.216871029901236,2.838332348795939,0.21651874482631686,0.04217870905995369,-0.047638993710279465,-2.6808934128284454,0.11374161031097176,-9.506694399118423
50.5,13.100000381469727,231.0,20.186813354492188,29.365901947021484,-79.78156352117486,40.45920198775774,292.68281153869634,-0.04311924800276756,-0.13527892529964447,0.9636896848678588,0.2261471152305603,-0.13931916900126956,9.28144288054164,2.8227707280322005,0.0009954485576599836,0.07116194069385529,-0.2769175171852112,-2.4959787261486053,0.004846062697470188,-9.611600464582443
50.7,13.100000381469727,228.0,20.25192070007324,28.85698699951172,-79.7815738025045,40.45918568971144,292.7053716583252,-0.03667493537068367,-0.1258017122745514,0.9649997353553772,0.2271662950515747,-0.1721838895964601,9.358101449744973,2.689661692102957,-0.17772017419338226,0.14451733231544495,-0.008388693444430828,-2.5525946840643883,0.03002216331660748,-9.534583278894424
50.8,13.199999809265135,228.0,20.425954818725586,26.24880599975586,-79.78157878935684,40.459177780104255,292.71172694396967,-0.03225396201014519,-0.12438163161277772,0.9652847647666932,0.2274080663919449,-0.15018275219804994,9.393749025046274,2.5919136660186166,-0.00030379812233150005,0.06267400085926056,0.20377421379089355,-2.5790486571192743,-0.2091786947473884,-9.596936817169187
