time,wind_speed,wind_angle,battery_voltage,battery_current,position_x,position_y,position_z,orientation_x,orientation_y,orientation_z,orientation_w,velocity_x,velocity_y,velocity_z,angular_x,angular_y,angular_z,linear_acceleration_x,linear_acceleration_y,linear_acceleration_z
0.0,1.600000023841858,154.0,24.571495056152344,0.07156596332788467,-79.78278656393029,40.45904514348923,270.4084118485451,-0.006284222938120365,0.002242221496999264,-0.9752772450447084,0.220884457230568,0.003219824163290129,0.01676729625930381,0.03810102409802149,0.008516564033925533,0.0013462126953527331,0.011209538206458092,-0.06449673467315734,0.09957717807032168,-9.809831015467646
0.19,1.600000023841858,153.0,24.57024383544922,0.07951773703098297,-79.78278660092737,40.45904509940657,270.42607401609416,-0.006266532000154257,0.002248613629490137,-0.9752843379974364,0.2208532840013504,0.002775186319812674,0.01944384447258124,0.038981614064627836,0.004375440999865532,0.0013969012070447204,0.008130372501909733,-0.06501956711523235,0.1286694605089724,-9.808591405749322
0.29,1.600000023841858,154.0,24.55897521972656,0.07951773703098297,-79.782786592956,40.45904508292993,270.42994319200517,-0.006261676549911499,0.002233533887192607,-0.975273370742798,0.22090207040309906,0.002290098778802848,0.019287397974482992,0.03863805814615113,0.004038968123495579,0.0011731823906302452,-0.0017854912439361215,-0.06199520902242513,0.12637972740456466,-9.80855105996132
0.5,1.600000023841858,153.0,24.566486358642567,0.06361418962478638,-79.78278658497692,40.45904506577481,270.4337894201279,-0.006273775361478329,0.0022319720592349768,-0.9752779006958008,0.2208816558122635,0.002284499397905061,0.020249663036013325,0.03853289477082117,-0.00684613361954689,-0.003195467870682478,-0.0012937657302245498,-0.07255968417506665,0.10406042103655637,-9.808663326501847
0.6,1.600000023841858,154.0,24.56398200988769,0.06361418962478638,-79.78278661780331,40.459045021079156,270.4529261469841,-0.006274931598454714,0.002217912813648581,-0.9752667546272278,0.2209312617778778,0.0013323102269022268,0.021471188552048725,0.039323214381846924,-0.008398456498980522,0.001161387306638062,-0.007972288876771927,-0.06834560042247176,0.12217174211516978,-9.808311324119568
0.79,1.600000023841858,155.0,24.571495056152344,0.07156596332788467,-79.78278665128606,40.45904498985318,270.4724198460579,-0.006265572737902403,0.0022264465223997827,-0.975257396697998,0.2209725230932236,0.00045213915962743947,0.01964684169169731,0.039468627573265774,-0.004184633493423462,0.0021419900003820658,-0.007185420021414756,-0.06616314545273781,0.09634474589489404,-9.809818151593207
0.9,1.5,155.0,24.57274627685547,0.08746951073408127,-79.78278664200059,40.45904497282474,270.47634135484697,-0.006285473704338075,0.0022340714931488037,-0.9752643704414368,0.22094126045703888,0.002140838297798148,0.020698092813409712,0.0392679112964591,-0.001505582476966083,-0.002233898267149925,0.00931776873767376,-0.0718606541119516,0.09229397761635484,-9.809851480722427
1.09,1.5,157.0,24.567739486694336,0.07951773703098297,-79.78278669570392,40.459044946887005,270.4971515417099,-0.006279102060943842,0.0022511379793286324,-0.9752520918846128,0.22099532186985016,0.002698567625049093,0.017775131493785547,0.03982054931695436,-0.005731630139052868,-0.0024949947837740183,-0.0011615854455158114,-0.06254106944426895,0.12446081740781666,-9.80855222940445
1.2,1.5,153.0,24.55647087097168,0.08746951073408127,-79.78278673356499,40.45904493202818,270.5151936888695,-0.006267930846661329,0.0022529945708811283,-0.9752611517906188,0.22095556557178492,0.0021487646320396308,0.016507063176712883,0.04057210055410875,0.005848528817296028,-4.1582818084862076e-05,0.006841653026640415,-0.06149547765031457,0.10938444793224336,-9.810660735368732
1.4,1.5,154.0,24.566486358642567,0.09542128443717957,-79.78278672573944,40.459044918133394,270.51923565864564,-0.006256374064832926,0.0022471279371529818,-0.975240170955658,0.22104869782924647,0.0002550466510167953,0.01671900580210077,0.04043099690725381,-0.010466702282428741,-0.00399863813072443,-0.010504892095923424,-0.0690488286036998,0.12433908568695187,-9.808690808415411
1.49,1.5,155.0,24.56273078918457,0.08746951073408127,-79.7827867323261,40.459044868785035,270.54446266889573,-0.006248475052416325,0.002267344621941448,-0.9752309322357178,0.22108930349349976,-0.0016706900504280852,0.02070666604583132,0.04442722411730978,0.0015592359704896808,0.0017388742417097092,-0.006061130203306675,-0.06124025125522167,0.1314087622705847,-9.809019421935082
1.69,1.5,158.0,24.56273078918457,0.08746951073408127,-79.78278674382128,40.459044823085634,270.569357919693,-0.006266342010349035,0.002283082576468587,-0.9752402305603028,0.2210477441549301,-0.0015226729411643148,0.023303648231424282,0.046288744168230964,0.007306864485144616,0.0021677624899894,0.003942436072975397,-0.07184289776254446,0.09880080487579107,-9.808863301277162
1.79,1.399999976158142,159.0,24.55897521972656,0.07951773703098297,-79.78278672876327,40.45904480490635,270.57396112680436,-0.006271889433264732,0.002285022521391511,-0.9752276539802552,0.2211029976606369,-0.0031838878341071807,0.0238042888643223,0.046183375669930464,-0.006793961394578218,-0.001995682017877698,-0.005283713340759277,-0.06829179690219463,0.12150063707493244,-9.808920603990558
2.0,1.399999976158142,157.0,24.55647087097168,0.07951773703098297,-79.78278671364801,40.4590447859026,270.5785460948944,-0.006275186315178871,0.002283042063936591,-0.9752381443977356,0.22105672955513,-0.0007524910039940024,0.024778763958146016,0.04592094059290888,0.0037245748098939657,-6.385068263625726e-05,0.009986565448343756,-0.06532984870020299,0.09330963897518814,-9.810624482631683
2.09,1.399999976158142,157.0,24.57024383544922,0.07156596332788467,-79.78278671438376,40.45904471795628,270.60492609739305,-0.006260231602936983,0.002290419302880764,-0.975223958492279,0.22111983597278595,-0.001442968173566816,0.02952970041633857,0.047953712527019056,-0.0008267613593488933,-0.002143731340765953,0.005635734647512436,-0.07277026616502554,0.09515813570469618,-9.810159044265749
2.29,1.399999976158142,158.0,24.57399940490723,0.09542128443717957,-79.78278677131959,40.45904469288167,270.63241230249406,-0.006257188506424427,0.002266576746478677,-0.9752148389816284,0.2211601436138153,0.001212220109151203,0.02251167054202945,0.0494822291561616,-0.0074500953778624535,-0.001663501956500113,-0.005441832821816206,-0.06189221580047161,0.12252896131016315,-9.8090124052763
2.39,1.399999976158142,157.0,24.557722091674805,0.07156596332788467,-79.78278676136831,40.45904467348393,270.63732706308366,-0.00627613952383399,0.002265116199851036,-0.9752184748649596,0.22114364802837366,0.003418724503182292,0.023055042165352767,0.04909938837227292,0.0064506158232688895,0.004366518929600716,0.0094896350055933,-0.06351172551512717,0.102904508728534,-9.81032627463341
2.59,1.2999999523162842,157.0,24.55897521972656,0.08746951073408127,-79.78278675400341,40.45904467459612,270.6631357550621,-0.006307127419859171,0.0022386114578694105,-0.9752107858657836,0.2211771458387375,-0.0033585938697047878,0.01873663814151558,0.04653868417515082,0.002634250093251467,-0.001971127698197961,0.007577482145279645,-0.06692914440762253,0.12739757233299315,-9.808405464291573
2.71,1.2999999523162842,156.0,24.571495056152344,0.08746951073408127,-79.78278678249434,40.45904465898796,270.6847757577896,-0.0062802843749523145,0.0022458997555077076,-0.9752184748649596,0.2211435884237289,-0.004109739685127344,0.017245457579242746,0.04558856240577842,-0.0005247375229373574,-0.0015215488383546472,-0.00406922260299325,-0.06206386355683208,0.13023838724009693,-9.809137535691262
2.89,1.2999999523162842,158.0,24.56022644042969,0.09542128443717957,-79.7827867689472,40.45904464598742,270.68931131362916,-0.006297330372035503,0.0022477861493825912,-0.9751980900764464,0.2212330400943756,-0.003327042600216813,0.018346318876399655,0.04547638053440183,-0.004086342640221119,-0.0043517472222447395,0.004595660138875246,-0.07257340229116381,0.09761081426404417,-9.810734410285953
3.0,1.2999999523162842,158.0,24.566486358642567,0.07156596332788467,-79.78278680405819,40.459044618242935,270.7160892963409,-0.0062879272736608965,0.002273680875077844,-0.9751887917518616,0.22127404808998108,-0.00010742087846923355,0.015974429648503503,0.04421210933891725,-0.004853218328207731,-0.002723861252889037,-0.005913693457841872,-0.07099727617576719,0.11141899575479328,-9.807491544485092
3.2,1.2000000476837158,155.0,24.56899070739746,0.07951773703098297,-79.78278681393567,40.45904457902339,270.741960811615,-0.006312654353678226,0.002302064094692469,-0.9751986265182496,0.221229687333107,-8.860808451322837e-05,0.018701490427470515,0.04062727868741267,-0.010295504704117777,-0.0034397456329315896,-0.009303583763539793,-0.0629848731122911,0.10797160531394184,-9.810297038555143
3.3,1.100000023841858,154.0,24.56273078918457,0.07951773703098297,-79.78278680494395,40.459044563106055,270.74599890708924,-0.006322135217487812,0.002308386145159602,-0.9751859307289124,0.22128525376319885,0.00238847831635758,0.01960230956676348,0.040351372446531766,0.007976342923939228,0.0016847201623022554,0.011485165916383266,-0.0659137068875134,0.09547367521561682,-9.810308732986453
3.5,1.100000023841858,153.0,24.567739486694336,0.07951773703098297,-79.78278679578675,40.459044546492,270.75001363754274,-0.0063185221515595896,0.0023091847542673354,-0.9751937985420228,0.22125078737735748,0.0005096561022892691,0.01976117937442064,0.040182968098812326,-0.00399142038077116,0.00039441901026293635,-0.008416584692895412,-0.06469211847055703,0.12934495096094906,-9.80922875225544
3.6,1.100000023841858,155.0,24.55647087097168,0.07156596332788467,-79.78278680209056,40.459044526007844,270.7757105112076,-0.00633037555962801,0.002310920273885131,-0.9751815199851992,0.22130455076694489,1.421981119502101e-06,0.018476908526664657,0.03742231429386756,0.001553484471514821,0.004549534525722265,-0.005759298801422119,-0.06288029931485653,0.1304925492592156,-9.808391430974007
3.79,1.0,154.0,24.567739486694336,0.08746951073408127,-79.782786831501,40.45904453280868,270.7991356134415,-0.006326828617602587,0.002319846767932177,-0.9751842617988586,0.22129255533218384,0.0006571306985368446,0.013704243174902916,0.03895520502349538,-0.003272339003160596,-0.004105212166905403,0.002216549590229988,-0.07268985781352967,0.09983722385019064,-9.808507790565493
3.89,1.0,150.0,24.561479568481445,0.09542128443717957,-79.78278681805084,40.45904450944101,270.806843060255,-0.006328199990093708,0.002308248309418559,-0.9751742482185364,0.2213367074728012,0.00023880244457073286,0.014640045060905594,0.03840627094393245,-0.0074893306009471425,-0.000483109091874212,-0.0032314579002559185,-0.06969030927401036,0.11780315939337015,-9.8072962474823
4.09,1.0,150.0,24.555217742919922,0.08746951073408127,-79.78278681939867,40.4590445050642,270.8286749303341,-0.006350636016577482,0.0023064545821398497,-0.9751641750335692,0.2213803231716156,0.0004873787999664797,0.014961991866550587,0.03632741508384901,0.00844748318195343,-0.00018799243844114244,0.009337114170193672,-0.06425884892698377,0.09768128234893084,-9.810550807714463
4.2,1.0,147.0,24.557722091674805,0.09542128443717957,-79.78278685717541,40.45904449064873,270.85438858270646,-0.006333743687719107,0.0023224393371492624,-0.9751787185668944,0.2213166207075119,0.006212656545087958,0.011750188997405929,0.03432833304177134,0.0005616192938759923,-0.002968499436974525,0.008802865631878376,-0.07107270982582123,0.09304825929924848,-9.808641691803933
4.39,0.8999999761581421,146.0,24.56899070739746,0.09542128443717957,-79.78278685701449,40.45904447899978,270.85780363082887,-0.006325917784124614,0.002320355968549848,-0.9751673340797424,0.221366748213768,0.006119878390112349,0.011757990056306731,0.03400724824808172,0.007899106480181217,0.003038587048649788,0.0012401139829307795,-0.0621765275252983,0.12409860980696975,-9.808369796276091
4.49,0.8999999761581421,146.0,24.561479568481445,0.08746951073408127,-79.78278684360156,40.45904446406152,270.8837109088898,-0.006340399384498596,0.002318898914381861,-0.9751546382904052,0.22142255306243894,0.0036227626733071642,0.013489564191948748,0.033582741071977174,0.005984222516417503,0.0029501747339963913,0.004797495435923338,-0.06497113572433591,0.10562239506281912,-9.810493505001068
4.7,0.8999999761581421,147.0,24.56022644042969,0.08746951073408127,-79.78278683886415,40.45904445181997,270.8870571732521,-0.006329570896923542,0.00233018770813942,-0.9751585125923156,0.2214055508375168,0.0016057310265410786,0.013875848695771293,0.03343308153963727,-0.006846068892627954,0.0005614377441816032,-0.007443272043019533,-0.06845115636941046,0.1266511935275048,-9.808104917407038
4.81,0.8999999761581421,146.0,24.57274627685547,0.08746951073408127,-79.78278682083574,40.459044453996036,270.9122542023659,-0.006342893466353416,0.002335722325369716,-0.9751530885696412,0.22142909467220304,-0.0006964169779910187,0.012160704633638744,0.033010926159957744,-0.0011157942935824394,0.004860544577240944,-0.00613484438508749,-0.06259998014196752,0.13198273044079542,-9.809374932646751
5.0,0.8999999761581421,146.0,24.557722091674805,0.07951773703098297,-79.78278681379092,40.45904444348825,270.91553552746774,-0.0063418932259082786,0.002330864313989877,-0.9751574397087096,0.22141000628471366,0.0003831862626508017,0.013535271215134918,0.03282421862337458,0.0008499114774167537,-0.0014363023219630122,0.003987103700637817,-0.07147444551810622,0.09542707107961178,-9.809995906949043
5.09,0.8000000119209291,146.0,24.56398200988769,0.07156596332788467,-79.78278678652553,40.45904443269062,270.9406172811985,-0.0063422475941479215,0.0023615797981619835,-0.9751487970352172,0.2214476764202118,-0.002242429706921528,0.014820821074625953,0.03263218794048039,-0.009781855158507824,-0.00505315512418747,-0.0036550574004650116,-0.07149620355572553,0.10921818600967527,-9.808591405749322
5.29,0.8999999761581421,144.0,24.56899070739746,0.08746951073408127,-79.78278678678272,40.45904443735943,270.9623893082142,-0.006331613287329675,0.002375611104071141,-0.9751556515693665,0.22141766548156736,0.0018348687049798817,0.01335000847448301,0.032494566524590686,0.01027926616370678,0.005096215754747391,0.007321032229810953,-0.06289454276673496,0.10487618984654548,-9.809992983341218
5.4,0.8999999761581421,145.0,24.571495056152344,0.08746951073408127,-79.78278677399382,40.45904441379851,270.9688289642334,-0.006308926735073328,0.002397142583504319,-0.9751427173614502,0.22147506475448608,0.002533476497043241,0.015138361604161137,0.031948381950658834,0.006592683028429747,-0.0017835403559729453,0.010444203391671179,-0.0678492174949497,0.09365030324086547,-9.808978491425515
5.59,0.8999999761581421,147.0,24.5539665222168,0.07951773703098297,-79.78278670632983,40.45904440821504,270.993906635046,-0.006301300600171089,0.0024087736383080482,-0.9751260280609132,0.22154881060123446,-0.003399287289878503,0.017844937885839917,0.032251293433590074,-0.001912801992148161,-0.004931597039103508,0.00455993227660656,-0.06155955947935581,0.13134089802391827,-9.808802490234378
5.7,0.8000000119209291,146.0,24.571495056152344,0.08746951073408127,-79.78278670006222,40.45904442950007,271.01493780612947,-0.006284679751843214,0.002404827391728759,-0.9751322865486144,0.221521720290184,-0.0017489836495235365,0.012710961067689965,0.03210981979558871,0.005277913995087147,0.00402625510469079,0.001358692068606615,-0.06146502187941224,0.12047771237790585,-9.808985508084298
5.89,0.8000000119209291,147.0,24.5539665222168,0.06361418962478638,-79.7827866906984,40.459044419726574,271.0181284725666,-0.006290990393608809,0.0024064637254923573,-0.9751099348068236,0.22161972522735604,-0.002583204028387629,0.013764145638340056,0.03193794665786025,-0.006551773753017187,0.001418669824488461,-0.00386005430482328,-0.07037849457934499,0.11163916169665754,-9.807478680610657
6.0,0.8000000119209291,148.0,24.555217742919922,0.07156596332788467,-79.78278664744286,40.459044420350295,271.0423711717129,-0.006273059174418449,0.0024350185412913557,-0.9751000404357908,0.22166354954242706,-0.0031841792238642658,0.014864170151314372,0.0319219108647814,-0.008261288516223429,-0.0001916479523060844,-0.005387960001826286,-0.06722373900935054,0.12518403575755654,-9.80894457757473
6.2,0.8000000119209291,145.0,24.56398200988769,0.05566241592168808,-79.78278663704464,40.45904440841472,271.04553179740907,-0.0062845065258443356,0.002439850941300392,-0.9751084446907043,0.22162620723247528,-0.0006264777568283994,0.016213894196154047,0.031611333143416916,0.00422962661832571,0.001021499861963093,0.010927515104413029,-0.06672235397156329,0.09417554765939712,-9.81026195526123
6.3,0.8000000119209291,146.0,24.56398200988769,0.04771064221858978,-79.78278658753835,40.45904439539164,271.0697547525168,-0.006289818324148655,0.002447144826874137,-0.975099802017212,0.22166408598423004,6.631244315123513e-05,0.020027886456011744,0.03192310233218114,-0.0004437855095602573,-0.0009472602396272123,0.00830197986215353,-0.07265161793679,0.09222444143146276,-9.80929891884327
6.5,0.8000000119209291,145.0,24.57024383544922,0.07156596332788467,-79.78278657643106,40.4590443791254,271.0729138284922,-0.0062718377448618395,0.002448047511279583,-0.9751074314117432,0.2216309010982513,-0.0005575036653425668,0.0202353063431882,0.031622590783082494,-0.0007388383965007961,0.0018026611069217324,-0.004111655987799168,-0.06237324065063149,0.12963720210827887,-9.808493757247923
6.6,0.8000000119209291,149.0,24.567739486694336,0.07951773703098297,-79.78278652838645,40.45904438887097,271.0969051003456,-0.00627874955534935,0.0024685007520020012,-0.97510427236557,0.22164449095726013,-0.0004419923264004064,0.01944037445452753,0.032011930749282394,0.005235320422798395,-0.00016535074973944575,-0.0012253910535946488,-0.06215132511220872,0.12484467797912654,-9.809570229649543
6.79,0.8000000119209291,150.0,24.55021095275879,0.07156596332788467,-79.78278647270109,40.459044396521,271.1197915405035,-0.006254661362618208,0.0024656851310282946,-0.9750965237617492,0.2216789871454239,-0.0003361356726472059,0.01974525278657857,0.032102182842006916,0.006571044679731132,0.0021003340370953087,0.004449076019227505,-0.07220666766632347,0.10328792162239553,-9.809230506420137
6.9,0.8000000119209291,150.0,24.561479568481445,0.08746951073408127,-79.78278646100459,40.459044380325615,271.1229819983244,-0.006276059430092572,0.002473073313012719,-0.9751001000404358,0.22166281938552854,-0.0015474104234849359,0.020708046445388217,0.03205329921082351,-0.008616168983280659,-0.0031629155855625872,-0.003660323796793819,-0.07007339783012867,0.11506099797785282,-9.808287935256956
7.09,0.699999988079071,147.0,24.552715301513672,0.07156596332788467,-79.78278643370196,40.45904439328536,271.1440155684948,-0.006285226438194513,0.002474667271599173,-0.9750863313674928,0.22172319889068606,0.003348222747187873,0.020789419436531897,0.035291874384410005,0.00859326496720314,0.002513672458007932,0.008867510594427586,-0.06354720166884363,0.10113181566819547,-9.810650210380556
7.2,0.699999988079071,146.0,24.56398200988769,0.07156596332788467,-79.78278637104347,40.459044407993886,271.1665353059769,-0.0062898173928260795,0.002461501630023122,-0.97509503364563,0.22168481349945068,0.0008892872199452648,0.019884381818654658,0.03445126690985157,0.004299298394471407,-0.0012172709684818985,0.009551508352160456,-0.07022969207726419,0.09185573793947698,-9.809710562825202
7.39,0.6000000238418579,147.0,24.56022644042969,0.08746951073408127,-79.782786360647,40.45904439193485,271.16995558440686,-0.006279950961470604,0.0024583584163337946,-0.9750803709030152,0.22174976766109467,5.991437119296282e-05,0.020108216445726017,0.03421619318344648,0.0003770542098209262,0.0044552357867360115,-0.006402328610420227,-0.06221324164420367,0.1292813624907285,-9.808300214409831
7.5,0.6000000238418579,146.0,24.56523513793945,0.07951773703098297,-79.78278631763284,40.45904444375235,271.19454952627416,-0.00629216805100441,0.002437446964904666,-0.975075364112854,0.22177132964134216,0.000845484545073221,0.01228687195719022,0.037607261420156836,0.0053396993316709995,0.003653444815427065,0.0013100942596793175,-0.06087307808920741,0.11512724510394035,-9.809350374341012
7.7,0.6000000238418579,149.0,24.56022644042969,0.08746951073408127,-79.78278625327304,40.459044463909066,271.21759606450803,-0.006294909864664078,0.002431479748338461,-0.9750884175300598,0.22171413898468012,0.00033010484823518035,0.01413572722709224,0.03867493136681136,0.006046426948159933,0.004121879581362009,0.010308749973773956,-0.0691063597239554,0.11963862779550255,-9.808900723457336
7.8,0.6000000238418579,147.0,24.55647087097168,0.09542128443717957,-79.78278624471034,40.45904445272174,271.2214462414384,-0.006296415813267231,0.002413605805486441,-0.9750755429267884,0.221770703792572,-0.0013768853875246768,0.014513462800455585,0.0385313880212983,-0.005909990984946489,-8.702977356733754e-05,-0.01207308191806078,-0.06367575818672777,0.13026691068895166,-9.80960648238659
8.0,0.6000000238418579,146.0,24.555217742919922,0.06361418962478638,-79.78278623607035,40.45904444036748,271.2252737537026,-0.006300253327935934,0.0024150311946868896,-0.9750821590423584,0.2217414677143097,0.0006124170920489266,0.015992771808012243,0.0382925106040167,-0.001622737618163228,-0.0011433090548962355,0.007845989428460598,-0.07077545656822623,0.09235719149932266,-9.809521113038064
8.09,0.6000000238418579,146.0,24.55647087097168,0.08746951073408127,-79.78278615962753,40.4590444814131,271.2463437013328,-0.006292219273746014,0.00240391050465405,-0.9750756025314332,0.22177086770534515,-0.002924541154609726,0.013972998542992677,0.03614727515857282,-0.0020476665813475847,-0.004017984960228205,0.0007805861532688143,-0.07179767320398242,0.09828465105034412,-9.80966553926468
8.29,0.6000000238418579,143.0,24.56398200988769,0.07951773703098297,-79.78278608074031,40.45904445719517,271.2676742367446,-0.006290996912866831,0.0024360434617847204,-0.9750624895095824,0.2218280136585236,0.00015093790699336675,0.023463725110059702,0.035037007907732384,-0.008736907504498959,-0.00019900119514204562,-0.006863554008305073,-0.06144299432169646,0.12164690882898868,-9.808670927882195
8.4,0.6000000238418579,145.0,24.56398200988769,0.10337305814027786,-79.78278606909333,40.459044437397004,271.27114087454976,-0.006281520240008831,0.0024503988679498434,-0.9750714302062988,0.2217888236045837,0.001974314283647682,0.024284059909501245,0.03463966493446747,0.005296745803207159,0.005995916668325664,0.004225754179060459,-0.06140209578908981,0.11111547044478358,-9.809622854590415
8.59,0.6000000238418579,142.0,24.57274627685547,0.07951773703098297,-79.78278595762144,40.45904447039539,271.29210164044053,-0.0062978463247418395,0.00243622763082385,-0.9750590920448304,0.22184297442436213,-0.0028650578738552692,0.0238336225376187,0.03382831940964238,0.008812110871076584,0.004469788633286953,0.00777498772367835,-0.06868551551364363,0.11749228851869704,-9.808586143255232
8.7,0.699999988079071,141.0,24.56022644042969,0.08746951073408127,-79.78278588771715,40.459044513179066,271.3106346644461,-0.006303051952272654,0.0024328818544745445,-0.9750651121139526,0.22181659936904907,-0.005293248585236896,0.02140237018740444,0.0361707472289095,-0.008968360722064972,-0.002105994615703821,-0.008250455372035503,-0.06685127137228848,0.12363850702531635,-9.808061648011208
8.89,0.699999988079071,137.0,24.56523513793945,0.07951773703098297,-79.78278587186962,40.45904449704594,271.3142144048586,-0.006310871336609125,0.0024435287341475487,-0.9750524163246156,0.22187185287475586,-0.002797235472984023,0.022656061410788745,0.035839303194693174,0.00799431651830673,0.0016071624122560026,0.008693192154169083,-0.06545907673425973,0.09584647175855936,-9.809818151593207
9.0,0.8000000119209291,135.0,24.5539665222168,0.07156596332788467,-79.78278581129508,40.459044545988505,271.3343695729971,-0.006307936739176512,0.0023971295449882746,-0.975041925907135,0.22191832959651947,-0.0011193143017770423,0.01615190490542121,0.034265251186909,0.0049003679305315035,-0.004773118998855352,0.006589120253920555,-0.06753524485509843,0.09311709199100733,-9.810304055213928
9.2,0.8000000119209291,134.0,24.555217742919922,0.07951773703098297,-79.78278572056834,40.45904459958378,271.35470113083716,-0.006297120824456215,0.0023806202225387088,-0.9750576615333556,0.22184978425502772,-0.004083667459825495,0.012785388067176426,0.033509764935385405,0.003346739336848259,-0.0022340980358421803,0.007542015518993139,-0.06386967561207713,0.1316321441810578,-9.809687758684161
9.3,0.8999999761581421,133.0,24.561479568481445,0.07951773703098297,-79.78278570864872,40.45904459113826,271.3580249503255,-0.006286794785410166,0.0023653944954276085,-0.9750429391860962,0.22191481292247767,-0.004714436002112716,0.01291362481845935,0.03323455507156728,0.00318432180210948,0.00401933491230011,-0.005481515079736711,-0.06177750987466425,0.1292175456136465,-9.808873826265335
9.49,0.8999999761581421,131.0,24.55897521972656,0.09542128443717957,-79.7827856965847,40.459044581690065,271.3613308995961,-0.00630258210003376,0.0023681134916841984,-0.9750464558601379,0.2218991219997406,-0.004250245746843058,0.014237565365379894,0.033171168313421866,-0.004504550714045763,-0.006278482265770435,0.003220300422981381,-0.07236141788307578,0.09989761462435127,-9.80973687529564
9.59,0.8999999761581421,131.0,24.557722091674805,0.07951773703098297,-79.78278560066936,40.45904462216993,271.38159507066007,-0.006292978301644325,0.002352942014113069,-0.9750385880470276,0.2219342291355133,-0.005540380432646731,0.01515442129351405,0.032803762162363984,-0.007828854024410248,-0.0006366682937368751,-0.005354306194931269,-0.06946251911111176,0.11496562440879644,-9.807635970711706
9.8,1.0,129.0,24.571495056152344,0.08746951073408127,-79.78278552435305,40.4590446749171,271.39809951484204,-0.006288963835686445,0.0023407533299177885,-0.9750444889068604,0.22190824151039126,-0.00374653869866598,0.015194251711321173,0.03260356414445092,0.00837708543986082,0.0013446093071252108,0.008456884883344173,-0.06433676307555289,0.10081554525531827,-9.810419830083848
9.9,1.0,128.0,24.55647087097168,0.09542128443717957,-79.7827854974587,40.459044653015866,271.40456356406213,-0.006282390560954809,0.0023540160618722443,-0.9750339388847352,0.2219547927379608,-0.003432874617686975,0.016793016017009367,0.03229169706765452,0.004939601290971041,-0.0040379445999860755,0.008816996589303017,-0.06996063793078065,0.0911262064240873,-9.809120578765867
10.09,1.100000023841858,129.0,24.557722091674805,0.07951773703098297,-79.78278537900208,40.45904467725417,271.4264024078846,-0.0062844748608768,0.002357232151553035,-0.9750224947929382,0.22200481593608856,-0.005836808292128764,0.021361374358412573,0.03556706625693866,-0.0013357516145333648,-0.005476471036672592,0.0026976314838975672,-0.06147238571662456,0.12955562431365253,-9.80978716135025
10.2,1.100000023841858,131.0,24.552715301513672,0.08746951073408127,-79.78278530427673,40.459044757459225,271.4428404003382,-0.00628161383792758,0.002344984095543623,-0.9750322699546814,0.22196221351623527,-0.006811162475918479,0.01491427286799372,0.03424475709133014,0.0012246462283656,0.004066137131303549,0.0014136938843876126,-0.061753888037055726,0.12098431879654528,-9.809670801758767
10.39,1.100000023841858,134.0,24.56398200988769,0.09542128443717957,-79.78278528823141,40.459044747867175,271.4462368667126,-0.006287275813519955,0.002335666213184595,-0.9750174283981324,0.22202731668949127,-0.007722782378574403,0.01582116004613796,0.034178721758061865,-0.008462092839181423,-0.00265495921485126,-0.003087991150096059,-0.07149474631994962,0.11146358077414334,-9.808721798658373
10.5,1.100000023841858,136.0,24.557722091674805,0.07951773703098297,-79.78278519304868,40.459044782278326,271.46631478071214,-0.00626467214897275,0.002313794568181038,-0.9750028252601624,0.22209231555461886,-0.005688536673010342,0.018864279846225795,0.03341936224212118,-0.008365819230675697,0.0002517139946576208,-0.006945369299501182,-0.06114772820379585,0.1064718949981034,-9.8103297829628
10.7,1.100000023841858,138.0,24.56899070739746,0.08746951073408127,-79.7827851006881,40.45904483172331,271.48587444722654,-0.0062678977847099296,0.0023117675445973873,-0.9750125408172609,0.22204934060573572,-0.005015081794038862,0.017761706818487138,0.03293402279315293,-0.0038451079744845633,-0.003060004906728864,-0.0061221146024763575,-0.0665452838363126,0.09358969319611787,-9.811013907194136
10.79,1.0,138.0,24.55897521972656,0.07951773703098297,-79.78278508641084,40.45904481854994,271.48913957476617,-0.0062732454389333725,0.002303176326677203,-0.9750002026557922,0.2221037894487381,-0.003581573763956132,0.0189346609783548,0.03278440833141112,-0.003465326735749841,-0.002436106093227864,0.005248299799859525,-0.07274698693770916,0.09497286119498312,-9.810308732986453
11.0,1.0,141.0,24.5539665222168,0.07156596332788467,-79.78278507227623,40.45904480452524,271.49239300489427,-0.006253199651837349,0.0023019444197416306,-0.9750097393989564,0.2220624387264252,-0.0032813016943741558,0.019061272620940532,0.03261016468939328,0.005057354923337698,0.0019521111389622086,-0.002048492431640625,-0.06216254902537913,0.12382083965465428,-9.809676064252852
11.1,1.0,144.0,24.55647087097168,0.07156596332788467,-79.78278498486353,40.45904487682475,271.5118587642908,-0.006255301181226969,0.0022952430881559853,-0.9749975204467772,0.22211582958698275,-0.0035872555445341787,0.01514188559224924,0.032116630311787284,0.0054002441465854645,-0.0006851108046248555,0.008157910779118538,-0.06415886610746384,0.1019853629730642,-9.811149562597276
11.3,1.100000023841858,149.0,24.55647087097168,0.07951773703098297,-79.78278489544246,40.45904495309205,271.5314592599869,-0.006260054185986519,0.002293515019118786,-0.974984645843506,0.22217234969139105,-0.005219375582469233,0.012226801524342605,0.03196213858629925,-0.00019747667829506105,-0.003740824526175857,0.007348665036261081,-0.06621273715049028,0.12926213976927106,-9.809117655158042
11.4,1.100000023841858,152.0,24.56523513793945,0.07156596332788467,-79.78278488261631,40.459044945382985,271.5346348911524,-0.006245818920433521,0.002306952606886625,-0.9749897718429564,0.22215022146701813,-0.00572660435389144,0.012208865956060121,0.031855627955444284,-0.0005444459384307264,0.0015043532475829124,-0.004741373006254436,-0.06171016639564186,0.12742959497496487,-9.809663785099984
11.6,1.0,158.0,24.55647087097168,0.06361418962478638,-79.78278482081865,40.45904498175335,271.5541020810604,-0.006226793862879275,0.0023160537239164114,-0.9749786257743835,0.22219960391521454,0.0009339967103541107,0.015288836333166998,0.031794145080548,0.007502783555537462,0.002467878395691514,0.0042012156918644905,-0.0716366966161877,0.10224434894509614,-9.808960949778557
11.71,1.0,160.0,24.55647087097168,0.07951773703098297,-79.78278474399603,40.459045070577815,271.5697626054287,-0.0062406803481280795,0.002306382870301605,-0.974982976913452,0.22218017280101776,-0.004136476355408056,0.01149041301379168,0.031662582418254495,-0.009339681826531887,-0.0017868420109152796,-0.004723197780549526,-0.0692832242930308,0.11951766352169214,-9.80795055091381
11.9,1.0,164.0,24.57024383544922,0.12722837924957275,-79.78278473441297,40.459045062271855,271.57290171384807,-0.006253467407077551,0.0023287935182452198,-0.974967896938324,0.2222459316253662,-0.0016586235188543461,0.012251839801984849,0.031408616921822424,0.006225923541933297,-0.0004933472955599427,0.009363348595798016,-0.06620171423535795,0.09821125022135677,-9.810604602098463
12.0,1.0,165.0,24.56022644042969,0.07951773703098297,-79.78278465085472,40.45904511206359,271.59174500703807,-0.006240233313292265,0.002351819770410657,-0.9749559164047241,0.2222984135150909,-0.0008594595527298497,0.016290746987459692,0.03150518525583928,0.002840416505932808,-0.0023604813031852245,0.008222847245633602,-0.0688601142866537,0.09105753818526864,-9.810836151838306
12.2,1.0,166.0,24.55897521972656,0.07951773703098297,-79.78278456656635,40.45904519617307,271.6105758428574,-0.006241875234991312,0.0023596887476742268,-0.9749649167060852,0.22225885093212128,-0.00407046666861357,0.012621517198270184,0.031516936862568484,-0.0009181956993415953,-0.004338739439845085,0.004782138857990503,-0.062116017979569726,0.12975296784192325,-9.810232719182967
12.3,1.0,167.0,24.56523513793945,0.07156596332788467,-79.78278455525741,40.45904518763094,271.61370025873185,-0.00622403621673584,0.002357562072575093,-0.9749487638473512,0.22233012318611145,-0.003840991258729753,0.012830629869018758,0.03116164552590346,0.002872563665732741,0.004115733318030834,-0.004223788622766733,-0.06242917292285712,0.12476581365801395,-9.8079423648119
12.49,1.0,167.0,24.566486358642567,0.08746951073408127,-79.78278454394703,40.45904517818703,271.6168037235737,-0.006228354293853045,0.002358960220590234,-0.9749492406845092,0.22232794761657715,-0.003801612776688389,0.013890948926477648,0.031164231003019807,-0.0034909553360193968,-0.002343819243833423,-0.0005925706936977804,-0.07306951569858937,0.10265946471132338,-9.809154492616656
12.6,1.0,166.0,24.5539665222168,0.07951773703098297,-79.78278445921735,40.459045212933134,271.6357824981213,-0.006208210717886686,0.002405207138508559,-0.974932849407196,0.22239980101585388,-0.0016802625441710295,0.020507185853753145,0.03153462405730681,-0.0076783583499491215,-0.0007954257307574152,-0.0031506011728197336,-0.07296275376342237,0.10932577477768064,-9.808141754865646
12.8,0.8999999761581421,165.0,24.5539665222168,0.07951773703098297,-79.7827843986333,40.45904527916072,271.6539964556694,-0.00619282154366374,0.002407226245850325,-0.9749224185943604,0.2224462330341339,-0.00015863312357575576,0.018294138255853045,0.03157301871519153,-0.008438603021204472,-0.0018278764327988024,-0.0064124627970159045,-0.06272779662162066,0.10947240284644068,-9.810901640653613
12.9,0.8999999761581421,162.0,24.557722091674805,0.08746951073408127,-79.78278438978249,40.459045263380794,271.657127904892,-0.0062031890265643605,0.00239995657466352,-0.9749283194541932,0.22242015600204468,0.0025839923540048925,0.01938025627206642,0.031374741175012565,0.005695815198123455,0.0011946074664592745,0.007598387543112038,-0.06500296650454403,0.09730801071971656,-9.812086286544801
13.09,0.8000000119209291,163.0,24.5539665222168,0.07951773703098297,-79.78278433087793,40.459045338622865,271.67325629591943,-0.00619168346747756,0.002415805123746395,-0.9749202728271484,0.22245517373085025,0.0037841307061629017,0.017356995001166952,0.02829773581116665,0.0034887343645095825,0.0006832067156210543,0.009904435835778713,-0.06476604006718845,0.1304883465729654,-9.80989533483982
13.2,0.8000000119209291,162.0,24.5539665222168,0.10337305814027786,-79.7827842855128,40.45904545927985,271.6884764313698,-0.006178023293614388,0.0024178342428058386,-0.9749256372451782,0.22243212163448334,0.0013064750425902,0.008357696098018447,0.0296342801837476,-0.002902991138398648,0.0017060136888176205,-0.0069888955913484105,-0.061415841314010323,0.12899421852082016,-9.809461471438407
13.39,0.8000000119209291,161.0,24.5539665222168,0.08746951073408127,-79.78278428243767,40.4590454513228,271.6914292752743,-0.006193320266902447,0.0024137815926224,-0.9749028086662292,0.22253169119358066,0.0023235642459455822,0.009697695529743438,0.029600737492038613,0.0008172402740456164,-0.0012384796282276511,0.006379562430083753,-0.07235183849930764,0.0963864347152412,-9.811295742988587
13.49,0.8000000119209291,161.0,24.555217742919922,0.08746951073408127,-79.78278421027973,40.459045533806965,271.70755328536035,-0.006185943726450205,0.002411850960925221,-0.974889636039734,0.2225898653268814,0.0002727331007429596,0.011636680940214993,0.027132053924678653,-0.007476757746189833,-0.002266913186758757,-0.0014508678577840328,-0.07180598721373826,0.1050796912238002,-9.808420082330702
13.7,0.8000000119209291,161.0,24.561479568481445,0.04771064221858978,-79.78278413864675,40.45904562562553,271.72308786511417,-0.0061766300350427645,0.002422409364953637,-0.9748972058296204,0.2225565165281296,-0.0021286029842610197,0.010608405872319279,0.02568367875938142,-0.005832296330481768,-0.00147887971252203,-0.004636651836335659,-0.06079491726122796,0.1131098643410951,-9.810135655403137
13.8,0.8000000119209291,163.0,24.561479568481445,0.07951773703098297,-79.78278413178816,40.4590456171596,271.72563644051553,-0.0061717736534774295,0.002427171450108289,-0.9748803377151488,0.22263090312480927,0.0005823317808367148,0.011657427367557323,0.02549868043317133,0.004993927199393511,0.0038700918667018414,0.009054929949343204,-0.06427927763666957,0.09802862523123622,-9.811786909103397
13.99,0.8999999761581421,163.0,24.551462173461914,0.08746951073408127,-79.78278412505534,40.45904560760942,271.7281734228134,-0.006159914191812278,0.002417716197669506,-0.9748848080635072,0.22261129319667816,-0.001042182477686301,0.011990659680514607,0.025363347254895842,-0.0064609572291374215,0.000983318081125617,-0.006192421074956656,-0.06504906814545393,0.12859616931527856,-9.809747985005378
14.11,0.8000000119209291,163.0,24.5539665222168,0.07951773703098297,-79.78278407836841,40.45904573894595,271.74262886047364,-0.0061681466177105895,0.0024103098548948765,-0.9748710989952089,0.22267164289951324,-0.00133379074228521,0.003936685406638168,0.023383111110573097,0.001543791964650154,0.0003483121108729393,-0.0049279783852398396,-0.06109705385752023,0.13035535896196962,-9.810734410285953
14.29,0.8000000119209291,160.0,24.55897521972656,0.07156596332788467,-79.78278402435903,40.459045807585774,271.7549564421177,-0.006170860491693021,0.0024158060550689697,-0.9748732447624208,0.2226618081331253,0.003299637418779103,0.01135959240662518,0.023012692201141133,-0.0005395971238613129,-0.005509132985025643,0.0030458215624094014,-0.07155986511614174,0.0952608091570437,-9.810618635416027
14.4,0.8000000119209291,160.0,24.55897521972656,0.08746951073408127,-79.78278401907596,40.45904578576185,271.7595208466053,-0.006160891149193049,0.002398224314674735,-0.974859356880188,0.222723051905632,0.003651162271625507,0.012838128009080263,0.022810036272021186,-0.0067309685982763785,-0.003993676044046879,0.0007504579261876643,-0.07186029779724777,0.1039280729647726,-9.809270267486573
14.59,0.8999999761581421,160.0,24.545202255249023,0.039758868515491486,-79.78278396149534,40.45904587397546,271.7736140072346,-0.006152071058750154,0.002383821178227663,-0.9748517274856568,0.22275719046592712,0.0031078362138454232,0.012143545944684869,0.0225075203377094,-0.010875976644456388,-0.003232700051739812,-0.002523914212360978,-0.061199288768693814,0.11292339297942815,-9.811688675880433
14.71,0.8000000119209291,159.0,24.561479568481445,0.07951773703098297,-79.78278391035873,40.4590459989792,271.78457366228105,-0.006165412720292807,0.002390002831816673,-0.9748536348342896,0.22274821996688848,0.002149938527086444,0.004657372922246657,0.02182328654380816,0.00870469119399786,0.0013033336726948619,0.0061978939920663825,-0.06462878124788404,0.09861389497295024,-9.811547173261642
14.89,0.8000000119209291,158.0,24.555217742919922,0.09542128443717957,-79.78278390877198,40.45904599480636,271.78675546050073,-0.006155339069664478,0.002379227662459016,-0.9748361706733704,0.2228250652551651,0.00043908465357150563,0.004966561749260682,0.02182895506350033,-0.0041948119178414345,-0.0018068891949951649,-0.008375282399356365,-0.0658054877165705,0.1279408060759306,-9.809847387671473
14.99,0.8000000119209291,156.0,24.567739486694336,0.07951773703098297,-79.7827838510663,40.45904606859058,271.7998680353165,-0.006150375120341778,0.002362915780395269,-0.9748235940933228,0.2228801399469376,0.0033410550911125037,0.009068194494358915,0.02163123362330516,0.004120822995901108,0.00010918745101662353,-0.008213824592530727,-0.062154801464639614,0.13086927440017462,-9.809773128032683
15.19,0.8000000119209291,155.0,24.5539665222168,0.12722837924957275,-79.7827837714131,40.45904615056265,271.81307487487794,-0.006160860881209374,0.0023528202436864376,-0.974834144115448,0.2228342443704605,0.0014689597856588367,0.011159736329029474,0.021540545200642545,0.0068629393354058274,0.005337814334779978,-0.0018576877191662788,-0.07219006705563516,0.09688977948389947,-9.810478302240373
15.3,0.8000000119209291,154.0,24.55021095275879,0.07951773703098297,-79.78278376652423,40.45904614075803,271.81522207260133,-0.006159347947686911,0.0023774513974785805,-0.9748110175132751,0.22293488681316376,0.0010908743654624603,0.012127898733151931,0.0215381588923111,-0.0040065282955765716,0.00016951856378000232,-0.0034070229157805447,-0.07230325635988266,0.1072006773389876,-9.808690223693848
15.49,0.8000000119209291,153.0,24.56022644042969,0.07951773703098297,-79.78278376198394,40.45904612995181,271.8173546075821,-0.006141456309705973,0.002372770570218563,-0.9748135805130004,0.22292417287826533,0.003106958487018039,0.012659495100120951,0.021271988697557025,0.00885537825524807,0.005264925304800272,0.004690794739872217,-0.062015327098779376,0.10925590055063368,-9.810727393627166
15.6,0.8999999761581421,151.0,24.552715301513672,0.07951773703098297,-79.78278370814112,40.45904624213645,271.8302191376686,-0.006131650879979135,0.002370530506595969,-0.9747993350028992,0.2229868471622467,0.003260990881569705,0.007634861097854715,0.020996683019847195,0.008401315659284592,0.002325948094949127,0.00957083236426115,-0.0649846665468067,0.09777580624446272,-9.811738961935044
15.79,0.8999999761581421,150.0,24.551462173461914,0.06361418962478638,-79.78278363437677,40.45904632218689,271.84272836446763,-0.0061233676970005035,0.002358951373025775,-0.9747825860977172,0.22306035459041595,0.0023313152916926232,0.009884370376986671,0.021018221149321014,0.002492220839485526,-0.003015253460034728,0.007780752144753933,-0.06435541021171957,0.12837912797927858,-9.809619346261023
15.89,0.8999999761581421,149.0,24.5539665222168,0.08746951073408127,-79.78278363091022,40.45904631334738,271.84481887817384,-0.006119224708527328,0.0023613746743649244,-0.9747868776321412,0.2230415642261505,0.0014816563257341528,0.010038250240741828,0.02085536339789905,-0.0022362966556102037,0.00033858418464660645,-0.006178384181112051,-0.06185524586588145,0.13137721471488475,-9.80992632508278
16.1,0.8999999761581421,149.0,24.56273078918457,0.07951773703098297,-79.78278355815075,40.459046420371536,271.8549778342247,-0.006120131351053715,0.0023506823927164078,-0.974767804145813,0.2231252193450928,-0.0001976093243507104,0.009065023429668705,0.02094092037117282,-0.0008018371881917119,-0.0008448362932540476,0.003522088751196861,-0.07227790776640178,0.09377391703426838,-9.809860836267472
16.2,1.0,151.0,24.55647087097168,0.07951773703098297,-79.78278349806355,40.45904650909507,271.86719702482225,-0.006105461157858372,0.0023374385200440892,-0.9747812151908876,0.2230672985315323,0.0012594038029473493,0.009300728162432343,0.020893669347390592,-0.007952023297548294,0.00014572445070371032,2.431442953820806e-05,-0.07265270515345038,0.10166912910528482,-9.808874995708466
16.4,1.0,151.0,24.566486358642567,0.10337305814027786,-79.78278349491531,40.45904650091365,271.86926810741426,-0.006101058330386877,0.00234535476192832,-0.9747671484947203,0.22312864661216736,0.002780672648173125,0.009587842788308584,0.020648634949675088,0.004051340278238058,0.003430584445595741,0.0013497975887730718,-0.061792315207421775,0.11680502140894533,-9.810541452169419
16.5,1.0,151.0,24.5539665222168,0.09542128443717957,-79.78278343580911,40.459046593038174,271.8816045999527,-0.0061016115359962,0.002334502758458257,-0.9747581481933594,0.22316797077655792,0.004097238925942074,0.009714864268529315,0.020872517046934755,0.006379046011716127,0.004301081411540507,0.006774538662284614,-0.06310380913317204,0.10574154121801256,-9.811381112337113
16.7,1.0,150.0,24.557722091674805,0.08746951073408127,-79.78278336327944,40.45904667939887,271.8936638712883,-0.006097509525716305,0.002325555309653282,-0.974765956401825,0.2231340855360031,0.002795157991817549,0.011243385777700815,0.02086071888221927,0.006829138845205307,0.0027939304709434514,0.010881966911256313,-0.0675806841161102,0.12371805656701328,-9.809395397901538
16.79,1.100000023841858,149.0,24.55021095275879,0.10337305814027786,-79.78278335892956,40.45904666978749,271.89574043750764,-0.006084661465138197,0.002310685580596328,-0.9747481346130372,0.22321221232414248,0.0011579260325364849,0.011401536438825645,0.02074429388941277,-0.008472787216305733,-4.2762640077853575e-05,-0.011898969300091268,-0.06684412680566311,0.12792038650251925,-9.808903062343598
17.0,1.0,152.0,24.55897521972656,0.09542128443717957,-79.78278335526345,40.45904665908003,271.89780180454255,-0.006086659152060747,0.0023130502086132765,-0.9747496843338012,0.2232056111097336,0.004026027804950412,0.012432618622111495,0.02061496125209417,0.0064365132711827755,-0.0012998449383303525,0.008859016932547092,-0.06618970003444702,0.09417724700644613,-9.810951926708222
17.1,1.100000023841858,152.0,24.561479568481445,0.07951773703098297,-79.78278327271431,40.45904675123139,271.9097909808159,-0.0060948655009269714,0.002284883754327893,-0.9747314453125,0.22328555583953852,0.001963580785931266,0.013370436862291531,0.020704252203935642,0.0016040098853409288,0.0003704993869177997,0.009987246245145798,-0.0691502138413489,0.0919672004878521,-9.810583552122118
17.29,1.100000023841858,154.0,24.552715301513672,0.07951773703098297,-79.7827832212193,40.45904685708162,271.9217610836029,-0.006086756009608507,0.002284463029354811,-0.9747348427772522,0.22327066957950592,0.0018088738916032414,0.010928671778535423,0.02444317175963075,-0.0016414757119491696,-0.00017868637223728,-0.004455744288861752,-0.06193218700122088,0.13076540409587326,-9.809729858636855
17.4,1.100000023841858,155.0,24.56398200988769,0.08746951073408127,-79.78278321434526,40.45904683579928,271.92662065029145,-0.006122054532170296,0.0022795563563704486,-0.9747222065925598,0.22332501411437988,0.0039448288427580535,0.012204847426665829,0.02414507414132348,0.004379873163998127,0.003822875674813986,-0.0026791042182594533,-0.061298330551944676,0.12515323737636208,-9.809338679909708
17.6,1.100000023841858,156.0,24.56273078918457,0.07951773703098297,-79.7827831600773,40.45904693713367,271.9385453939438,-0.0061279074288904676,0.002272576559334993,-0.974706768989563,0.2233922034502029,0.005686538540617732,0.01131062119285868,0.02291570995636298,0.006082189735025168,0.0011632263194769619,0.0030583364423364397,-0.07148548670578747,0.10773427231237293,-9.808888444304467
17.7,1.100000023841858,154.0,24.5539665222168,0.10337305814027786,-79.78278308103476,40.45904705257005,271.9484524011612,-0.006127813365310431,0.002268437063321471,-0.9747084975242616,0.22338466346263885,9.50141480213562e-05,0.011379290121478008,0.02261801782428617,-0.007677307352423669,-0.0012920177541673186,-0.0059055453166365615,-0.0675446049682796,0.12177835240960122,-9.809293071627616
17.89,1.100000023841858,154.0,24.555217742919922,0.09542128443717957,-79.78278307626748,40.45904704258347,271.9506985425949,-0.006139212287962437,0.00226065656170249,-0.9746954441070556,0.22344133257865906,0.002879344712984021,0.01222336191867768,0.022488262208384215,0.0064513119868934155,0.0005109455669298768,0.010386522859334946,-0.06448107509873807,0.09576607254333797,-9.811755334138873
18.0,1.100000023841858,155.0,24.552715301513672,0.11927660554647446,-79.78278302272403,40.45904715585131,271.96232812404634,-0.0061312001198530214,0.002244654344394803,-0.974686861038208,0.2234792411327362,0.002559311458038693,0.008947687955076444,0.02220488718860893,0.0036374216433614492,-0.002431440865620971,0.00767309172078967,-0.07046918580774217,0.09183983168564737,-9.810588229894641
18.21,1.100000023841858,156.0,24.56398200988769,0.08746951073408127,-79.7827829697997,40.459047247383225,271.97399007081987,-0.00613519549369812,0.002239285735413432,-0.9746910333633424,0.22346103191375727,0.004283976883058847,0.01166612492407754,0.02197320967213424,-0.002625355729833245,-0.002793211955577135,0.0038381936028599743,-0.062224241718649875,0.13054435193538666,-9.80988480985165
18.3,1.100000023841858,156.0,24.56523513793945,0.08746951073408127,-79.78278296826706,40.459047236302716,271.9761726140976,-0.006119378376752138,0.0022213861811906104,-0.9746772050857544,0.22352179884910586,0.0050389029755420105,0.011557477571178226,0.021761613155040577,0.005348148290067911,0.004800633992999792,-0.00258284155279398,-0.06278929745312781,0.12305946822278202,-9.810178924798967
18.5,1.100000023841858,155.0,24.551462173461914,0.07156596332788467,-79.78278296713216,40.459047224618345,271.9783368587494,-0.006135404575616121,0.0022191721946001053,-0.9746785163879396,0.2235158085823059,0.0047118177470903,0.012347935604530048,0.02165226953032615,-0.004174984525889157,-0.0035480186343193046,-0.0005151843652129173,-0.07166708386503161,0.10543985229916872,-9.80869373202324
18.59,1.2000000476837158,155.0,24.55021095275879,0.07951773703098297,-79.78278291345659,40.45904736864194,271.9895998120308,-0.0061452193185687065,0.0022003368940204373,-0.9746676087379456,0.22356320917606354,0.0018572201980197136,0.006135575618398746,0.021174296526672083,-0.007919936440885067,-0.002464519115164876,-0.0042063267901539785,-0.07020031895488503,0.11540469548664987,-9.809398906230928
18.8,1.2000000476837158,152.0,24.56523513793945,0.11132483184337616,-79.78278284578906,40.45904747387649,272.0006389498711,-0.006144816521555185,0.0022087714169174433,-0.9746687412261964,0.2235583066940308,0.002767654601800482,0.010864868405926372,0.024328657537564517,0.007376234512776135,0.003331325016915798,0.0071935891173779964,-0.06360081332735718,0.10246729231439533,-9.81142204284668
18.91,1.2000000476837158,152.0,24.561479568481445,0.08746951073408127,-79.78278283799024,40.459047454231296,272.0054607272148,-0.006138289347290993,0.0022017876617610455,-0.9746593236923218,0.2235994637012481,0.003751124227042777,0.011795701287376923,0.023986648809901163,0.003912001848220825,-0.0008754286100156605,0.010560080409049988,-0.06734185733366757,0.09316619032993913,-9.810071336030962
19.09,1.2000000476837158,151.0,24.552715301513672,0.07951773703098297,-79.78278277245197,40.45904756380831,272.0185369133949,-0.006146001163870096,0.0022081283386796713,-0.9746437668800354,0.22366726398468012,0.0016942419177525948,0.012387703465300876,0.025679499829382932,-0.0009169470868073404,-0.0036206159275025134,0.005236538127064705,-0.07290345477405936,0.09362600075080993,-9.809750908613202
19.2,1.2999999523162842,150.0,24.555217742919922,0.10337305814027786,-79.78278273649633,40.45904770127047,272.02767305374147,-0.006139920093119144,0.002196486108005047,-0.9746508002281188,0.2236366122961045,0.0010160923812862737,0.007444628977260073,0.024049564757277705,0.003318063449114561,0.003704086877405644,-0.0007212294731289147,-0.0621829092130065,0.12482599429786205,-9.80814117014408
19.4,1.2999999523162842,151.0,24.56523513793945,0.09542128443717957,-79.78278273299254,40.45904769460218,272.0300713658333,-0.006155315786600113,0.0021828452590852976,-0.9746336936950684,0.2237108051776886,0.0008643794802233331,0.008288514668719016,0.024048539290707417,-0.006424994673579931,-0.002128721447661519,0.001059166737832129,-0.07143944445066154,0.10532309071160853,-9.809059767723083
19.5,1.2999999523162842,150.0,24.56273078918457,0.11927660554647446,-79.7827826936589,40.45904779364833,272.04377071857454,-0.006113668903708458,0.0021560473833233122,-0.9746195673942566,0.22377373278141025,0.003351843192224773,0.011192415748689292,0.02655652175047143,-0.007803081534802914,-0.00396076962351799,-0.008528226986527443,-0.06711072329431772,0.12082772305235268,-9.80970588505268
19.7,1.399999976158142,151.0,24.566486358642567,0.09542128443717957,-79.78278265692886,40.45904795984101,272.05562858581544,-0.006111239548772574,0.002128762425854802,-0.9746270775794984,0.2237412929534912,-0.00031886084140606187,0.0006767619176789673,0.02372572080036038,-0.006247890181839465,0.0010889902478083966,-0.007420137990266085,-0.06517292861826718,0.09782099425792697,-9.811661778688432
19.8,1.399999976158142,150.0,24.555217742919922,0.08746951073408127,-79.78278265696822,40.45904795869984,272.05799280405046,-0.0061134113930165785,0.0021321550011634827,-0.974609911441803,0.22381599247455605,0.002019072721559455,0.0014225389692590054,0.02359374825602754,0.00032151560299098486,0.0007764652837067842,0.006837919820100069,-0.0697287501487881,0.092044630413875,-9.810590568780901
20.0,1.399999976158142,153.0,24.56523513793945,0.07951773703098297,-79.78278265762387,40.45904795703693,272.06035088300706,-0.006101752165704966,0.0021306804846972227,-0.9746208786964417,0.22376856207847595,0.0013654689405305782,0.0009893823838248432,0.02351349869024117,-0.0011012782342731953,0.0031910992693156004,-0.006135131698101759,-0.062128201201558125,0.12946176736615594,-9.809616422653198
20.1,1.399999976158142,155.0,24.547706604003906,0.07951773703098297,-79.78278262433506,40.45904807669553,272.0742336988449,-0.006091087125241757,0.0021241409704089165,-0.9746115803718568,0.22380970418453214,0.0039800206729975795,0.002722423836851188,0.02521388689395148,0.006761058233678341,0.001747075584717095,0.0010813232511281967,-0.06138034231960774,0.11897943645715715,-9.810656057596207
20.3,1.399999976158142,158.0,24.557722091674805,0.08746951073408127,-79.7827825894321,40.45904821707608,272.0844533920288,-0.00609291810542345,0.002107350155711174,-0.974613606929779,0.2238008826971054,0.0016731432396931473,0.0013708863334345785,0.02411921966072124,-0.009988057427108288,-0.0004991074674762785,-0.0017379125347360964,-0.07064092035870999,0.11319820297881962,-9.808987262248994
20.39,1.2999999523162842,161.0,24.557722091674805,0.10337305814027786,-79.7827825937152,40.459048212157676,272.08925412893296,-0.006083086598664522,0.0020806367974728346,-0.9746010899543762,0.22385595738887787,0.0025657599211295905,0.001496744240795868,0.023911837701716503,-0.006219302769750357,0.00012659239291679114,-0.006658230908215046,-0.06630199855193496,0.12850406653247776,-9.810268971920014
20.49,1.399999976158142,163.0,24.555217742919922,0.07951773703098297,-79.78278253687107,40.45904834083774,272.1018314838409,-0.006092719733715057,0.002088648034259677,-0.9745832085609436,0.22393332421779635,0.0017330809192599454,0.005358082998050286,0.02661262932603969,0.0046636154875159255,-0.0029875447507947683,0.010824553668498993,-0.07073371293023227,0.09147368635050952,-9.810661904811859
20.7,1.399999976158142,164.0,24.552715301513672,0.08746951073408127,-79.78278250529833,40.45904845564127,272.1171816468239,-0.00607527419924736,0.0020851134322583675,-0.9745879173278807,0.22391365468502045,0.004072879828392606,0.00926796606055852,0.02832053869115989,-0.0015151406405493615,-0.0052692461758852005,0.0026087001897394657,-0.07217536222189665,0.09910983935929836,-9.809477258920673
20.89,1.399999976158142,168.0,24.55021095275879,0.07951773703098297,-79.78278250481205,40.45904844664986,272.12000249624253,-0.006057268939912319,0.002092591021209955,-0.9745734333992004,0.22397686541080475,0.005273625859702463,0.00902169180371403,0.0280909102070537,0.007451219484210014,0.003613474313169718,0.0028629987500607967,-0.05992082704324275,0.11788764252327386,-9.809862590432168
21.0,1.399999976158142,170.0,24.55897521972656,0.06361418962478638,-79.78278250494277,40.45904843722742,272.12280629873277,-0.0060688043013215065,0.0021053624805063014,-0.9745769500732422,0.22396111488342285,0.0043515706814767005,0.009306101121143395,0.02809117913006314,-0.009362414479255676,-0.001206681947223842,-0.0009915301343426108,-0.06915176243986934,0.11519898313097655,-9.808603684902193
21.09,1.399999976158142,173.0,24.561479568481445,0.07951773703098297,-79.78278245240912,40.459048584649295,272.1379737734795,-0.006032665725797415,0.0020894540939480066,-0.974564492702484,0.22401635348796844,0.0005220015414783212,0.006853543864459138,0.02876908329895788,-0.008158479817211628,0.0016219449462369089,-0.00701104151085019,-0.06353660815861076,0.09882956586778163,-9.810840829610825
21.29,1.5,174.0,24.54895782470703,0.09542128443717957,-79.78278242139434,40.45904871970028,272.1537513613701,-0.006035166792571546,0.002089883666485548,-0.9745516180992126,0.22407250106334686,0.002764746822120395,0.006601689847540103,0.02937836581617556,-0.00277883792296052,0.006707860622555018,-0.009081040509045124,-0.06247048715595156,0.13109286644496024,-9.809638642072676
21.41,1.5,175.0,24.551462173461914,0.07951773703098297,-79.78278242112309,40.45904871256072,272.15668605566026,-0.006048347800970078,0.002086453372612596,-0.9745526313781738,0.22406747937202454,0.0040643704497756155,0.007330631418840855,0.029318071410135968,-0.002722570672631264,-0.0022058601025491953,0.003095373511314392,-0.07305326683446765,0.09626289401203393,-9.81099870443344
21.61,1.5,175.0,24.547706604003906,0.09542128443717957,-79.78278236624097,40.45904882981996,272.17295109033586,-0.00603702524676919,0.0020841453224420547,-0.9745392203330994,0.2241262048482895,0.0023950383429846038,0.011513687316467144,0.030035998749428326,-0.007073471788316966,6.274112820392476e-05,-0.0007370364619418979,-0.07313414570409807,0.10498915988020599,-9.809108884334565
21.79,1.5,174.0,24.56273078918457,0.07951773703098297,-79.7827823413666,40.459048975413616,272.18849955797197,-0.006036252249032259,0.002057405887171626,-0.9745456576347352,0.22409845888614646,0.004405446707926032,0.009232712721236831,0.034316882727767666,0.006279585883021355,0.00294917868450284,0.003470537252724171,-0.061391063737683,0.11416125766932965,-9.810953096151351
21.9,1.5,174.0,24.545202255249023,0.09542128443717957,-79.7827823395135,40.4590489569944,272.1953496813774,-0.0060323881916701785,0.0020404935348778963,-0.9745332598686218,0.2241529226303101,0.005944684233468134,0.00944953569672614,0.03405584391480165,0.0074266972951591015,0.002584653906524181,0.00313438312150538,-0.062392979571595786,0.10741417380049824,-9.810846676826477
22.0,1.5,173.0,24.561479568481445,0.05566241592168808,-79.78278229617013,40.45904908699277,272.2096410870552,-0.0060427687130868435,0.0020274301059544086,-0.974516212940216,0.2242267578840256,0.0029253741298517788,0.011193229209865794,0.035822761434595625,-0.006089332979172468,-0.0001265082973986864,-0.009168403223156927,-0.06840377565007658,0.1220143971964717,-9.808839327692986
22.22,1.5,174.0,24.56273078918457,0.07156596332788467,-79.78278224877903,40.459049231780725,272.2280900359154,-0.006023123394697905,0.0020050082821398973,-0.9745239019393921,0.2241940200328827,-0.0010637074821277634,0.007520077706939131,0.037722479474743865,-0.005977634806185961,-0.00019324355525895959,-0.011049431748688221,-0.0665044127125293,0.12618668706156316,-9.808773838877679
22.4,1.5,173.0,24.555217742919922,0.10337305814027786,-79.78278224464209,40.45904922538621,272.23184459209443,-0.006020723842084408,0.0019962051883339878,-0.9745091199874878,0.22425837814807886,0.0018047270017676927,0.007830871803779426,0.03750123218805945,0.005508186761289835,-0.0007328240317292511,0.008368087001144886,-0.06560977044515312,0.09592305201105772,-9.810692310333252
22.49,1.5,172.0,24.555217742919922,0.09542128443717957,-79.78278224128236,40.45904921879684,272.2355881214142,-0.005996775813400745,0.001977135660126805,-0.9745142459869384,0.2242370843887329,0.0002897098934251784,0.007279621516062094,0.03743807645788009,-0.006628042086958885,0.00026368640828877693,-0.0060992264188826075,-0.06558635417371989,0.1281086577102542,-9.809621100425721
22.7,1.5,174.0,24.555217742919922,0.09542128443717957,-79.78278216947088,40.459049472607326,272.26631145477296,-0.0059939012862741965,0.0019398456206545234,-0.9745076894760132,0.22426559031009674,0.0022097041226031987,0.00974733714312944,0.034288715752094086,0.0005924467113800348,-0.002344663254916668,0.007620115298777819,-0.06323729467112571,0.13040163419209422,-9.811006890535356
22.79,1.5,173.0,24.5539665222168,-0.05566241592168808,-79.78278216592281,40.459049464365776,272.26973180770875,-0.005986130330711603,0.0019328282214701176,-0.9744920134544371,0.224334180355072,0.001633840312982959,0.008963692762307934,0.03422332255893234,0.0011488220188766716,-0.0019032880663871765,-0.009408348239958286,-0.0630286632757634,0.1306734657660127,-9.809910537600516
22.99,1.5,173.0,24.561479568481445,0.07156596332788467,-79.78278216329883,40.459049455936366,272.2731441140175,-0.00596526125445962,0.0019354148535057907,-0.9744954705238342,0.2243196666240692,0.0032562270821173698,0.00936361394644028,0.03408990591326909,-0.0008436398347839713,-0.00043851538794115186,0.004513948690146208,-0.07228881190996618,0.0933971188031137,-9.809803533554078
23.1,1.5,173.0,24.5539665222168,0.06361418962478638,-79.78278213504788,40.45904959866152,272.2903973937035,-0.005972610786557198,0.0018994499696418645,-0.9744842648506165,0.2243686318397522,0.002951006547643535,0.005212682516238648,0.033276303146486226,-0.003236493328586221,-0.004134347662329675,0.0063026961870491505,-0.07248807405587286,0.09563009737059476,-9.80997544169426
23.29,1.5,173.0,24.55647087097168,0.08746951073408127,-79.78278211115452,40.45904974590466,272.3046938657761,-0.005960568320006132,0.0018811395857483149,-0.9744964241981506,0.22431637346744532,0.00232602344008489,0.0017034250990964474,0.03284152669915643,0.004339389503002168,0.0036485658492892976,-0.0005855641211383045,-0.06262769046239555,0.12390588009729984,-9.809766111373902
23.49,1.399999976158142,174.0,24.56022644042969,0.08746951073408127,-79.78278211435052,40.45904974110217,272.3112508535385,-0.005958847235888243,0.00186306843534112,-0.9744856953620912,0.2243628352880478,0.004309749372217202,0.001112298465851741,0.032609363919874686,0.010192867368459702,0.0059984736144542685,0.0053128101862967006,-0.06178555893246085,0.11662320954725147,-9.810879421234134
23.6,1.399999976158142,173.0,24.56273078918457,0.08746951073408127,-79.78278206570856,40.45904985395135,272.3295089483261,-0.005951537750661372,0.0018762253457680345,-0.9744801521301272,0.2243872731924057,0.004587842671800586,0.0057044645784701965,0.032488493163919364,0.007633674424141645,0.001180822029709816,0.004729542415589094,-0.0703205614630133,0.1134515975508839,-9.80884985268116
23.7,1.399999976158142,173.0,24.5539665222168,0.08746951073408127,-79.78278201104358,40.45905001210055,272.3450432300568,-0.005948583129793406,0.0018749432638287546,-0.9744877815246582,0.2243540734052658,-0.0025283945160182344,0.003221996890174577,0.03240074423962715,-0.0053674601949751394,-0.0006082872278057039,-0.007504738401621579,-0.06842233599163593,0.12316649967804552,-9.807963414788249
23.9,1.399999976158142,171.0,24.56523513793945,0.07951773703098297,-79.78278200758194,40.459050009846656,272.3482712984085,-0.005950849503278732,0.001868792693130672,-0.9744733572006226,0.2244166284799576,0.0003491920161072962,0.0032554485994106077,0.03218711532232739,0.00996970757842064,0.0024047312326729298,0.00935138203203678,-0.06596907727885992,0.09665949968621136,-9.810196466445925
23.99,1.399999976158142,171.0,24.552715301513672,0.07951773703098297,-79.78278200514771,40.459050007652344,272.3514773130417,-0.005945794750005007,0.0018579249735921621,-0.9744806289672852,0.2243856340646744,-0.0011159077739315362,0.002463890116639254,0.03200683490166597,-0.005003467202186585,0.0009331221808679402,-0.01073702983558178,-0.06536959149409086,0.12954954869113866,-9.808779101371766
24.2,1.2999999523162842,170.0,24.54895782470703,0.07951773703098297,-79.78278193130043,40.459050265112865,272.38605480194093,-0.005946257617324591,0.001817351090721786,-0.9744732975959778,0.2244173139333725,0.0024925672862009256,0.00551032614347442,0.03191555399458891,-0.000851305085234344,0.001483122119680047,0.004280633293092251,-0.06147624579258264,0.12965190237388016,-9.809095435738564
24.3,1.2999999523162842,170.0,24.55647087097168,0.09542128443717957,-79.78278193084296,40.4590502600506,272.3892320871353,-0.005927328485995531,0.0018119951710104944,-0.9744597077369692,0.2244772762060165,0.003130911680718221,0.004545936900081414,0.03163127289809856,0.004794161766767503,0.0016547141131013632,0.0004598605155479163,-0.06211195690557361,0.12316016823984685,-9.808765652775763
24.49,1.2000000476837158,171.0,24.55647087097168,0.07951773703098297,-79.78278193155694,40.45905025503557,272.392387676239,-0.0059421048499643785,0.0018141063628718255,-0.9744630455970764,0.22446204721927648,0.0031608016088287678,0.004463008155880953,0.031515572985378826,-0.005838395096361637,-0.0015710380394011734,0.0003954158746637404,-0.07245891106780619,0.10687927233986558,-9.808199057579039
24.6,1.2000000476837158,171.0,24.547706604003906,0.07156596332788467,-79.7827818988521,40.45905041693303,272.4116479635239,-0.005959783215075731,0.0017816852778196337,-0.9744571447372437,0.2244873344898224,0.0016501610683114425,0.00022216687705867887,0.031495576428469486,-0.008938240818679333,0.0014640296576544642,-0.005875688511878252,-0.06751204785425216,0.11907506584189832,-9.808812430500984
24.69,1.2000000476837158,171.0,24.55647087097168,0.08746951073408127,-79.78278186237716,40.459050558599685,272.4283234357834,-0.005967461038380861,0.0017642822349444032,-0.9744670987129213,0.22444404661655426,0.004313598090557658,0.0016356341163863198,0.031789248851519965,0.01030767522752285,0.0015300337690860033,0.009999950416386127,-0.06416527063585817,0.09881080909632146,-9.811876956224443
24.99,1.2000000476837158,170.0,24.55021095275879,0.08746951073408127,-79.78278186830183,40.45905055409779,272.4346642971039,-0.005951258353888989,0.0017324828077107668,-0.9744549989700316,0.2244977205991745,0.005509754366940753,0.0006235802391947325,0.03151137212675124,0.002867958741262555,0.0010238835820928216,0.010055392049252987,-0.06759217754937709,0.09230738966725767,-9.809936850070956
25.09,1.2000000476837158,168.0,24.54645347595215,0.09542128443717957,-79.78278183461387,40.45905069079612,272.45413439273835,-0.005958388093858957,0.0017331435810774565,-0.974442720413208,0.22455056011676788,0.005804016152472086,0.0009321618966477018,0.03155399107494609,0.0014336318708956242,-0.0039361706003546715,0.007019319105893374,-0.0624197762645781,0.1308384029287845,-9.80943398952484
25.21,1.2000000476837158,167.0,24.551462173461914,0.08746951073408127,-79.78278178284694,40.459050819075756,272.4708391904831,-0.005945074837654829,0.0017404077807441356,-0.9744479060173036,0.22452843189239505,0.0035111735570592913,0.0051645527665925926,0.031871664467438804,0.003094799118116498,0.0015973198460415006,-0.005915012676268816,-0.06109418963547796,0.1283533636853099,-9.809205948114396
25.29,1.2999999523162842,168.0,24.55897521972656,0.09542128443717957,-79.78278178371126,40.459050813275965,272.4740220785141,-0.005955925211310387,0.0017395409522578118,-0.974430501461029,0.22460371255874634,0.004488271012018028,0.005077995562748931,0.031770476389632256,-0.002787954872474075,-0.0024552557151764627,0.004662754945456982,-0.07225557871162892,0.09835480850189923,-9.809464395046234
25.51,1.2999999523162842,169.0,24.56398200988769,0.10337305814027786,-79.78278172537594,40.45905095220189,272.4940927505493,-0.005960078909993172,0.0017533964710310102,-0.9744173288345336,0.2246606796979904,0.0013707790646599154,0.006120024311421678,0.03189500270964701,-0.0072768270038068295,-0.0010614738566800954,-0.00045383846736513084,-0.07233072456903758,0.10453866845928134,-9.808238233923912
25.7,1.2999999523162842,169.0,24.54895782470703,0.07951773703098297,-79.78278166177509,40.45905109240208,272.51447265148164,-0.005954693537205458,0.0017819160129874945,-0.9744272232055664,0.22461746633052826,-0.0010996932109084573,0.006261879112859446,0.032207770679712096,-0.005485482979565861,-0.002491071354597807,-0.0034207494463771573,-0.06143988798838109,0.11224933692254127,-9.810312241315842
25.8,1.2999999523162842,169.0,24.5539665222168,0.08746951073408127,-79.7827816583472,40.45905108731513,272.51767389774324,-0.0059471819549798965,0.0017897104844450948,-0.9744113683700562,0.2246864736080169,0.0017196098714382035,0.005907146792212727,0.031897649686796516,0.009113849140703678,0.0024175005964934826,0.00871233455836773,-0.06445601429790257,0.09954497270286083,-9.810589399337767
25.99,1.399999976158142,167.0,24.56398200988769,0.08746951073408127,-79.78278165606756,40.459051082409054,272.5208619117737,-0.005927453748881817,0.0017881159437820315,-0.9744164347648621,0.22466489672660828,0.00026764412134252017,0.005076269654720645,0.03192733777266032,-0.00635973596945405,8.11949503258802e-05,-0.006635382305830717,-0.06601600575260819,0.1288279291894287,-9.810349663496018
26.1,1.5,168.0,24.55897521972656,0.07156596332788467,-79.78278162286942,40.45905123592353,272.538876581192,-0.005933017935603857,0.0018116319552063946,-0.9744055271148682,0.2247119247913361,0.001457993204962433,0.0014975665615833262,0.029085620830716644,-0.0015321391401812436,-0.002299114596098661,-0.0062900111079216,-0.061998996008187535,0.13081227318383756,-9.810097063779832
26.19,1.600000023841858,167.0,24.55647087097168,0.07951773703098297,-79.78278158323994,40.459051359388624,272.5561604976654,-0.005943828262388706,0.0018184984801337125,-0.9744086861610411,0.2246977686882019,0.004742213639568432,0.005779693726376505,0.030256453563370495,-0.001936344662681222,-0.0017099149990826845,0.004682986997067928,-0.07248181570786984,0.09388638457283376,-9.810851354599
26.5,1.7000000476837158,167.0,24.551462173461914,0.08746951073408127,-79.78278158779571,40.459051347310535,272.5621957063675,-0.005957983899861574,0.0018205344676971442,-0.9743965268135072,0.22475039958953852,0.005574244381741081,0.0046654723476730435,0.0300108969040967,-0.004466677084565164,-0.0040295287035405645,-0.0007772460812702775,-0.07321882983203977,0.10074153229594232,-9.809089003801349
26.59,1.7000000476837158,169.0,24.557722091674805,0.07156596332788467,-79.7827815171409,40.45905148658829,272.57930426597596,-0.005957216490060091,0.001822135061956942,-0.9743855595588684,0.22479791939258573,0.00213366827086693,0.0059316664905940475,0.030879626426815805,0.006103530991822481,0.005454723723232746,0.0030834507197141647,-0.061099648559466015,0.11778741759248078,-9.811133190393447
26.69,1.7000000476837158,171.0,24.551462173461914,0.07951773703098297,-79.78278147334565,40.45905163916368,272.5995150089264,-0.005970281548798084,0.0017965259030461316,-0.9743934869766236,0.2247634083032608,0.002272941684580071,0.0014763147478155333,0.031007510486354282,0.008700687438249588,0.00036688297404907644,0.006623620167374611,-0.06337913533207029,0.10572748962789774,-9.810044438838961
26.89,1.7999999523162842,173.0,24.55021095275879,0.09542128443717957,-79.78278147362745,40.45905163766556,272.6026114702225,-0.00595898600295186,0.0018007152248173952,-0.9743760824203492,0.2248388379812241,0.0008034803658121929,0.0007359779252860052,0.03092262726166045,-0.007605851627886295,-0.0012825037119910119,-0.00752507522702217,-0.06799458018969745,0.12442700405605138,-9.808717705607414
27.0,1.7999999523162842,173.0,24.56022644042969,0.08746951073408127,-79.78278147511232,40.4590516361771,272.60569350719453,-0.005969339516013861,0.0018181357299909,-0.9743853807449341,0.22479817271232605,0.003657218408243225,0.0007312823578560102,0.03073237034769783,0.005478731822222471,0.00018678139895200727,0.011223834007978441,-0.0653540461231023,0.0963050122372806,-9.811016246080401
27.09,1.7999999523162842,171.0,24.547706604003906,0.07156596332788467,-79.78278143191369,40.45905176621708,272.6238296508789,-0.005967307835817337,0.0018186356173828246,-0.9743725657463074,0.22485379874706268,0.004430321712751666,0.00112809875462861,0.028816916810488095,0.0029712894465774298,-0.0033765677362680435,0.009805668145418169,-0.0681876799184829,0.09048556172288956,-9.810916843414306
27.3,1.7999999523162842,172.0,24.54895782470703,0.08746951073408127,-79.78278138896452,40.45905190864298,272.64172105789186,-0.00597274675965309,0.0018228624248877168,-0.9743648171424866,0.224887415766716,0.0037824430674318313,-0.0008727996339422308,0.02652341642298933,-0.0009363922290503981,-0.0021388893947005268,0.0053790779784321785,-0.07211465624626727,0.0928428118955344,-9.809929833412172
27.5,1.8999999761581416,171.0,24.552715301513672,0.07951773703098297,-79.78278139322585,40.45905190825866,272.6443673849106,-0.005961427465081215,0.0018352689221501355,-0.974371075630188,0.22486047446727755,0.003856585810051468,-0.0018660317205455906,0.026331693252500715,0.005114602856338024,0.001660851645283401,-0.00626805517822504,-0.06281407959759236,0.12716447856277227,-9.808786118030547
27.6,1.8999999761581416,171.0,24.552715301513672,0.06361418962478638,-79.78278135114877,40.45905202795215,272.66193346977235,-0.00596519885584712,0.0018247722182422879,-0.9743661880493164,0.2248816639184952,0.005936253623726554,0.0003626237905307683,0.02437920202552949,0.004243638832122088,0.0033471591304987678,0.001791586517356336,-0.061559358481317765,0.12112167354673148,-9.808656309843064
27.7,1.7999999523162842,169.0,24.551462173461914,0.07156596332788467,-79.78278129903256,40.45905216736517,272.67711143493653,-0.005965812597423792,0.0018357923254370687,-0.9743701219558716,0.2248642593622208,0.002921421696983665,-0.001029454667509068,0.02381904585578793,-0.007461674977093934,-0.003542349673807621,-0.0026886251289397482,-0.07094321227166803,0.10671230692416432,-9.808573279380797
27.89,1.7000000476837158,169.0,24.547706604003906,0.07951773703098297,-79.78278130870768,40.45905216643925,272.68186180591584,-0.00595545070245862,0.001842147670686245,-0.9743594527244568,0.22491063177585602,0.003997528714029836,-0.0018876141504649425,0.0236627307161405,-0.011926134116947651,-0.002914925804361701,-0.0060502998530864716,-0.06946827496401968,0.11474245263263586,-9.808737586140632
28.1,1.7000000476837158,167.0,24.56273078918457,0.07951773703098297,-79.7827812617804,40.45905229739603,272.6966121673584,-0.0059709916822612286,0.0018388179596513512,-0.9743453860282898,0.22497160732746124,0.004799241580174724,-0.002659771942295584,0.02316220219992579,0.0075361467897892,-0.00010869801189983264,0.0093992929905653,-0.06374433506280185,0.10526895828545094,-9.81210733652115
28.2,1.7000000476837158,166.0,24.555217742919922,0.08746951073408127,-79.78278120017389,40.45905241165768,272.71352224349977,-0.005973679013550282,0.0018582455813884735,-0.9743599891662598,0.2249078154563904,0.002751299715681488,0.0012716695507173318,0.02263597734088113,0.007639614399522544,0.0018989722011610863,0.010093890130519869,-0.0657005713088438,0.0964438562002033,-9.810231549739838
28.39,1.600000023841858,165.0,24.551462173461914,0.08746951073408127,-79.78278120118088,40.4590524102017,272.71578459739686,-0.005977402441203593,0.0018589898245409129,-0.9743449687957764,0.2249727696180344,0.001372316353105015,0.0004579877017659704,0.022581526817682586,-0.004876414779573679,-0.0008229648810811341,-0.007790199015289545,-0.06545840064994991,0.13112011995166542,-9.809946205615995
28.5,1.600000023841858,165.0,24.561479568481445,0.08746951073408127,-79.78278120335864,40.45905240862467,272.71804265975953,-0.005990204866975546,0.0018640015041455624,-0.9743517637252808,0.22494304180145264,0.0038611688820138312,0.0007546481057466548,0.02251705588493909,0.00489564286544919,0.0006208361592143773,0.007275165989995003,-0.06961624149698764,0.0920833408087492,-9.810445557832717
28.59,1.600000023841858,163.0,24.545202255249023,0.07156596332788467,-79.78278118578771,40.459052517859504,272.7344950914383,-0.006017467007040978,0.001871192012913525,-0.9743409752845764,0.2249889075756073,0.007903305434476584,0.0007343070956545876,0.021873344073491657,0.0011127664474770427,-0.002533170860260725,0.005480210762470961,-0.07169088385999202,0.0930166934709996,-9.809629871249198
28.8,1.600000023841858,164.0,24.56273078918457,0.05566241592168808,-79.7827810962043,40.45905264794133,272.7504841566086,-0.006030065473169088,0.0018675283063203094,-0.9743374586105348,0.2250037342309952,2.012625570210822e-05,0.0011958114925978269,0.021386374274550576,-0.004693327471613884,-0.001984467264264822,0.003772556083276868,-0.07179682809859515,0.09862468491308392,-9.808924112319945
28.99,1.5,163.0,24.54895782470703,0.07156596332788467,-79.78278109597659,40.45905264710693,272.7526106119156,-0.006034580525010824,0.0018752223113551734,-0.9743427038192748,0.2249811440706253,0.0010380626727358752,0.00040007105375504317,0.02113531649008344,0.005425244104117155,0.003216243581846357,0.0010936761973425746,-0.06331187407951802,0.12179580269381406,-9.809281377196312
29.09,1.5,164.0,24.543949127197266,0.07156596332788467,-79.78278103341087,40.459052733774655,272.76783220767976,-0.006051667034626007,0.001890997868031264,-0.974331557750702,0.22502849996089933,0.0030917122249858354,0.004988143774157819,0.02121276810621136,0.008125543594360352,0.0025864359922707077,0.002846201183274389,-0.06244808501098305,0.11523946596309545,-9.811011568307876
29.29,1.5,163.0,24.54269790649414,0.07156596332788467,-79.78278096738141,40.45905283374217,272.7825510978699,-0.00606199586763978,0.001888318103738129,-0.9743242859840392,0.2250598967075348,0.001990992666373275,0.0063396298426821075,0.02116530114738073,0.008377174846827984,0.0019772378727793694,0.007681082934141159,-0.07029673862736673,0.11593586934730413,-9.807900849580763
29.49,1.5,161.0,24.56273078918457,0.08746951073408127,-79.78278096513337,40.459052828320814,272.78465883731843,-0.0060899886302649975,0.0019018293824046848,-0.9743267297744752,0.2250482589006424,0.00025387140037001223,0.0058357187659967185,0.02109988681100273,-0.006767648737877607,-0.0017981149721890688,-0.008157960139214994,-0.06729216970503331,0.12217097466811536,-9.809678403139117
29.59,1.399999976158142,160.0,24.551462173461914,0.08746951073408127,-79.78278091743661,40.45905293030442,272.79656319618226,-0.0060895103961229324,0.0019066891400143504,-0.9743136763572692,0.22510488331317904,0.0035400035642155453,0.006154918928336599,0.02100163969728716,0.005325281992554665,0.0040298388339579105,0.01001081056892872,-0.06553764412645251,0.0964900217950344,-9.81
29.71,1.5,161.0,24.541446685791016,0.07156596332788467,-79.78278084341575,40.45905302523946,272.8101810693741,-0.006105893757194282,0.0018952955724671485,-0.9743222594261168,0.22506749629974365,0.0009494648360524136,0.007641538044414474,0.02119534746234189,0.0022787891793996096,0.001565105514600873,0.013840106315910816,-0.06784855511505157,0.09293463145382702,-9.810057302713394
29.89,1.600000023841858,162.0,24.545202255249023,0.08746951073408127,-79.78278083928934,40.45905301939271,272.8122883319855,-0.006109085865318775,0.001892606727778912,-0.9743099808692932,0.22512048482894892,-0.00038813683704921165,0.006802197589902797,0.021035262689424832,-0.002157424809411168,0.0034861720632761717,-0.009859994985163212,-0.06408112097997219,0.1316033740527928,-9.809306520223618
30.0,1.600000023841858,162.0,24.5539665222168,0.07156596332788467,-79.78278083597179,40.45905301352986,272.81438558101655,-0.006125175394117832,0.001888992730528116,-0.9743164181709292,0.22509223222732544,0.0014287032096718677,0.0071643900608792796,0.020969721198395432,0.001699722371995449,0.001463471562601626,0.008922819048166275,-0.061317142141051585,0.1302510318439454,-9.809315291047096
30.09,1.600000023841858,163.0,24.54645347595215,0.06361418962478638,-79.78278076558472,40.459053090547826,272.82700328826905,-0.006136626936495304,0.0019264108268544078,-0.9743010997772216,0.22515803575515747,0.0008751711841166309,0.009590357534370686,0.02110908261783346,-0.002840016270056368,-0.0017370249843224885,0.00394701911136508,-0.07208704642485828,0.09738064410164952,-9.810718038082122
30.3,1.5,166.0,24.55021095275879,0.13518016040325165,-79.78278069055473,40.459053148222814,272.84070353507997,-0.006138915661722422,0.001950714155100286,-0.9742839932441713,0.22523170709609985,0.0013743164356822947,0.014842807872405904,0.02400991571467348,-0.005021598655730486,-0.0010523938108235598,-0.0008938874816522002,-0.0716106902109459,0.10588542840443553,-9.808180346488953
30.49,1.7000000476837158,164.0,24.551462173461914,0.15108370780944824,-79.78278068497511,40.45905313548637,272.84308032989503,-0.006138311233371496,0.001953171333298087,-0.9742910861968994,0.2252011299133301,0.0030504050427963827,0.01467032735482974,0.023717874715581167,0.007163736037909985,-0.0008940886473283172,0.00546752056106925,-0.059825384952127934,0.11247212497517467,-9.810246752500532
30.61,1.7000000476837158,165.0,24.541446685791016,0.13518016040325165,-79.78278061098798,40.459053225872566,272.8540508031845,-0.006126716732978821,0.001977704465389252,-0.9742771983146667,0.2252613008022309,0.0014461158608028092,0.013224147846750531,0.022825677941180227,0.00572070199996233,0.0030316116753965608,0.00655209645628929,-0.0643894565384835,0.10588081458583476,-9.8113998234272
30.79,1.7000000476837158,164.0,24.540193557739247,0.17493902146816254,-79.78278054040135,40.459053326266535,272.8621592998505,-0.006120677106082439,0.001965827774256468,-0.9742804765701294,0.22524724900722504,-0.002964054536514557,0.012033443781168468,0.0222405320884842,-0.0063211824744939795,-0.002074050251394511,-0.006369507405906916,-0.06886083148419858,0.12251214142888785,-9.807948796749118
31.0,1.7999999523162842,165.0,24.551462173461914,0.18289080262184146,-79.78278052412202,40.45905330780223,272.8665525197983,-0.00613870145753026,0.0019873755518347025,-0.9742671251296996,0.22530435025691986,-0.002345574374199603,0.011790407121033727,0.0220232820711472,-0.00863491091877222,-0.002431701170280576,-0.010231789201498032,-0.0672655831463635,0.12432626749388875,-9.809536900520325
31.09,2.0,169.0,24.543949127197266,0.15903547406196594,-79.78278048004569,40.45905339940689,272.87349717617036,-0.006165807601064444,0.001993986777961254,-0.9742531776428224,0.2253636717796325,0.0013536020735995095,0.01060315362115344,0.021723907917649284,0.005351155065000057,0.0017789477715268735,0.01035889983177185,-0.06646786761470139,0.09440975605510177,-9.811625525951387
31.2,2.0,168.0,24.543949127197266,0.17493902146816254,-79.78278042556269,40.459053495037175,272.8818042755127,-0.006159274838864803,0.001975354505702853,-0.9742668271064758,0.22530512511730194,0.0010932216883631017,0.0067457725207025355,0.02114663243263776,0.005472692660987377,-0.0009724285337142646,0.008100457489490509,-0.06985797818284482,0.0928155675251037,-9.808839327692986
31.29,2.0,170.0,24.541446685791016,0.18289080262184146,-79.78278042225497,40.459053489775506,272.88390080928804,-0.00616978295147419,0.0019801778253167868,-0.974254846572876,0.2253565341234207,-3.7925624151698716e-05,0.006115331974558807,0.02089312289549496,-0.0031024743802845482,-0.0013381254393607378,-0.007582259830087423,-0.062058509700000285,0.13034022015519442,-9.809066199660302
31.5,2.0,171.0,24.541446685791016,0.14313192665576935,-79.78278041948413,40.45905348430811,272.8859824419022,-0.006198492366820574,0.0019873103592544803,-0.974257469177246,0.2253442108631134,0.001268821369753799,0.006638595122748529,0.02079719040255609,-0.002308296738192439,-0.001144855748862028,0.0060714338906109324,-0.07244485947769136,0.09392514064908028,-9.80967781841755
31.7,2.0999999046325684,174.0,24.55647087097168,0.15903547406196594,-79.78278027005874,40.459053624034745,272.8975481271744,-0.006241820286959411,0.002031330019235611,-0.9742551445961,0.2253527343273163,0.0016750247475542776,0.013279172742479304,0.020339963441463927,0.00669829361140728,0.0004278332635294647,0.007880878634750843,-0.07242539007682354,0.10797976400703192,-9.808104917407038
31.79,2.200000047683716,173.0,24.551462173461914,0.15903547406196594,-79.78278026361475,40.45905361308815,272.8995740890503,-0.006247940473258495,0.0020508028101176023,-0.9742391705513,0.2254215031862259,-0.00028560585763292364,0.013171296357895369,0.020315150524581847,-0.006476885173469782,0.0010334288235753775,-0.007469098083674908,-0.06777719624340535,0.12485005924478175,-9.808813015222553
31.99,2.200000047683716,173.0,24.5539665222168,0.13518016040325165,-79.78278025743288,40.45905360184472,272.90158145427705,-0.006250984966754913,0.002058349782600999,-0.9742476940155028,0.2253844738006592,0.002090793818791185,0.013734670034651541,0.020065320165286026,0.005749359726905823,-0.0010038528125733137,0.008642164058983326,-0.06833840103819967,0.09200306036509574,-9.809352713227273
32.1,2.200000047683716,174.0,24.545202255249023,0.16698725521564484,-79.78278016523814,40.45905365021765,272.91010026931764,-0.00626911874860525,0.0020812156144529572,-0.9742385745048524,0.2254232466220856,-0.0004204868945655894,0.0191919320708116,0.024888443015065046,-0.005132008343935014,-0.004509374499320985,0.003616013564169407,-0.07245693306438625,0.09756711546331644,-9.808211921453477
32.29,2.299999952316284,175.0,24.547706604003906,0.18289080262184146,-79.78278010268014,40.459053744382416,272.91330270767213,-0.006267473101615907,0.0020829380955547094,-0.9742485880851746,0.2253798693418503,-0.0018378027546361387,0.01646167165341136,0.02638268444708536,0.006314232014119625,0.0008479125681333244,0.0012644074158743026,-0.060872059394605466,0.11997213835828005,-9.80938370347023
32.49,2.200000047683716,176.0,24.551462173461914,0.17493902146816254,-79.78278007994136,40.45905371893382,272.9185268163681,-0.006286080926656723,0.002084567211568356,-0.9742372632026672,0.225428506731987,-0.0008804065456596008,0.017132290007154466,0.02600149744246071,0.006623710040003061,0.0025712305214256053,0.00923954974859953,-0.0629698485089466,0.10387880103662613,-9.809378440976143
32.6,2.0999999046325684,177.0,24.53643798828125,0.15108370780944824,-79.78278000779748,40.45905380123065,272.92113893032075,-0.006327841896563768,0.002077594632282853,-0.9742309451103208,0.225454643368721,-0.0019329025779272703,0.015673576680466834,0.023546380180230427,0.008313441649079323,-0.0037054892163723694,0.010132460854947569,-0.06676670144777745,0.12621114486828447,-9.808905985951423
32.7,2.0999999046325684,178.0,24.54269790649414,0.18289080262184146,-79.78277998077488,40.45905391560221,272.92041008472444,-0.006330988835543394,0.002065142150968313,-0.9742372035980223,0.2254276126623153,-0.0025754407748057643,0.006751379787200916,0.021420817304849682,-0.000218647881411016,-0.0008327807299792768,-0.010653910227119923,-0.06419457523617894,0.131459989361465,-9.809764357209207
32.79,2.0999999046325684,179.0,24.53268241882324,0.15108370780944824,-79.78277997494084,40.45905391050464,272.9225395202637,-0.006341489963233471,0.002082652878016233,-0.9742190837860109,0.2255055159330368,-0.0011924529654687454,0.007599917105661731,0.02129145410169208,-0.001930368831381201,-0.003370811697095633,0.00891209300607443,-0.07214222038630398,0.0913874947372824,-9.808958026170734
32.99,2.0999999046325684,179.0,24.53017807006836,0.11132483184337616,-79.78277995657794,40.4590539940398,272.92328708171846,-0.0063284016214311106,0.002097965683788061,-0.9742045402526855,0.2255685776472092,0.0020846060018043537,0.003536628942678732,0.02025336915241027,-0.004840857814997436,-0.0014995840610936286,0.004019658081233501,-0.07185733764432371,0.09998772569932043,-9.808935222029687
33.2,2.0999999046325684,179.0,24.53894233703613,0.17493902146816254,-79.7827799570031,40.45905399030631,272.9253026723862,-0.006322953384369612,0.0021150694228708744,-0.9742145538330078,0.2255252152681351,0.002942469488359264,0.0033470135053005967,0.02007413174058789,0.005279035773128271,0.00028432346880435944,0.0013700544368475676,-0.062443215376697475,0.11855177658610047,-9.810689971446992
33.29,2.0999999046325684,179.0,24.54645347595215,0.17493902146816254,-79.7827799000641,40.45905406607642,272.92196290493007,-0.006357780657708646,0.002116447314620018,-0.9742184281349182,0.22550733387470245,-0.0005864907497681543,0.006105192744826787,0.017096726194755555,-0.007497522514313459,-0.0006602980429306626,-0.0013318168930709364,-0.07151530750561506,0.11110112649388612,-9.807227250337599
33.49,2.0999999046325684,179.0,24.55897521972656,0.10337305814027786,-79.78277989373957,40.45905405549927,272.9253275871277,-0.006346442736685276,0.0021519581787288193,-0.9742104411125184,0.2255420237779617,-0.000738979551529554,0.006569438801073739,0.016727627928728634,-0.007794498931616546,-0.001137141021899879,-0.007830196991562843,-0.06834232963621617,0.12407910386100413,-9.808332374095915
33.6,2.0,178.0,24.547706604003906,0.07156596332788467,-79.7827798467666,40.45905410503791,272.9219862699509,-0.006315197329968214,0.0021462282165884967,-0.9741964936256408,0.2256032079458237,0.0021701693228722944,0.010498778160638534,0.013650711443336794,-0.005438006948679686,0.0011393119348213074,-0.007526131346821784,-0.06296357188839466,0.13013177605345844,-9.808715366721154
33.79,2.0,176.0,24.55021095275879,0.09542128443717957,-79.78277980598044,40.45905422254715,272.9164891719818,-0.006336737424135208,0.0021444570738822213,-0.9742010831832886,0.2255826145410537,-0.0005778615106943839,0.0016555791305484392,0.011395401074086849,0.00028018842567689717,-0.00032716459827497596,0.007470457814633845,-0.07145024809520692,0.09182779921218752,-9.809179050922396
33.99,2.0,176.0,24.54895782470703,0.09542128443717957,-79.78277980230095,40.45905422068697,272.9187320947646,-0.006345843430608511,0.0021553386468440294,-0.9741878509521484,0.2256395369768143,-0.0011765971891075852,0.0021412020490711053,0.011202801797300006,-0.00438037421554327,-0.0036940728314220905,0.0006818500114604831,-0.07215078107547017,0.10577761122956872,-9.809141044020654
34.09,2.0,176.0,24.547706604003906,0.08746951073408127,-79.78277976262649,40.459054269723204,272.9141494512558,-0.006334411446005106,0.0021750989835709333,-0.9741829037666321,0.2256610840559005,5.065386946096798e-05,0.0058396539694521785,0.010417039119129048,-0.009068705141544342,-0.0010155211202800274,-0.006414066068828106,-0.06283895310480148,0.1106504980288446,-9.811455956697463
34.2,2.0,175.0,24.545202255249023,0.08746951073408127,-79.78277972622814,40.45905434774561,272.90755717754365,-0.0063368179835379115,0.0021830492187291392,-0.974191188812256,0.2256253659725189,0.0013054266082840207,0.003657654156276677,0.009705056706017665,0.007260347716510295,-0.0011510014301165938,0.013136962428689005,-0.06724951700773091,0.09255762308835984,-9.809834523797038
34.29,1.8999999761581416,173.0,24.555217742919922,0.08746951073408127,-79.78277972476788,40.45905434486235,272.908518242836,-0.006325156893581152,0.0022051807027310133,-0.9741788506507874,0.22567854821681976,-0.00018235167127887052,0.003361544194131496,0.009567232858527844,-0.001273995148949325,-0.0010403821943327782,-0.0060342848300933855,-0.061932081934064624,0.13048143041320145,-9.809822244644163
34.49,1.8999999761581416,171.0,24.56273078918457,0.10337305814027786,-79.78277968484956,40.45905441507558,272.90197520256044,-0.006303865462541579,0.0022325117606669664,-0.9741657376289368,0.22573551535606384,3.872072882349635e-05,0.002676174794927265,0.008898669461376792,0.002552788471803069,0.0004954030737280847,-0.001878285896964371,-0.06361010035034269,0.1237935678754002,-9.809127595424652
34.6,1.8999999761581416,171.0,24.557722091674805,0.08746951073408127,-79.78277968305481,40.459054412488214,272.9028596162796,-0.006327879149466753,0.002243451774120331,-0.9741687774658204,0.2257214933633805,-0.0003572468982283313,0.003635965921745664,0.008854473814951363,-0.004389140754938126,-0.0031272454652935266,-0.0016965451650321484,-0.07249746614601464,0.10248165453784168,-9.80899135529995
34.8,1.8999999761581416,169.0,24.561479568481445,0.11132483184337616,-79.78277964616103,40.45905448225996,272.8953044891357,-0.006334366276860237,0.002268956741318107,-0.9741557836532592,0.22577719390392306,-0.0009708065621851401,0.002814222013029449,0.008233601687842634,-0.007665337063372134,-0.00024732836754992604,-0.007831976749002935,-0.07146773035638035,0.11493961343541742,-9.807702628970146
34.99,2.0,167.0,24.55897521972656,0.07951773703098297,-79.78277964436344,40.459054479674734,272.8961164236069,-0.006325276102870703,0.00227977498434484,-0.9741613864898682,0.22575299441814425,0.00118763420407701,0.0034805389517925645,0.008057932725107332,0.011596721597015858,0.0027697598561644554,0.0075171017087996015,-0.06537540673278272,0.10377150462940336,-9.810368374586108
35.1,2.0,166.0,24.54645347595215,0.07951773703098297,-79.78277964036424,40.45905454231496,272.8858461856842,-0.006340886000543833,0.002306890906766057,-0.974150002002716,0.22580143809318545,0.0045480810070802425,0.002096383153493292,0.004223302234310148,0.004801482427865267,0.0022869836539030075,0.009150715544819832,-0.0671782083855942,0.09292245279997588,-9.810275988578796
35.2,2.0,166.0,24.55897521972656,0.07156596332788467,-79.7827796096432,40.45905462293022,272.87469737529756,-0.006333364639431238,0.0023101391270756717,-0.9741531610488892,0.2257883846759796,-0.0005767502956537826,-0.002498097063123597,0.0017096021692735142,-0.0039050357881933455,-0.00027567616780288523,-0.006077282130718231,-0.06161127079278232,0.12974733989685774,-9.809841540455821
35.49,2.0999999046325684,163.0,24.547706604003906,0.08746951073408127,-79.78277961213789,40.45905462541901,272.8749990940094,-0.006333721335977316,0.0023349057883024216,-0.9741352200508118,0.2258651405572891,0.0005558898783539802,-0.001205583715718994,0.0012138430372135706,0.004996337462216616,0.002752286149188876,-0.004436722490936518,-0.06283036957494915,0.12640794022008778,-9.807286891937256
35.59,2.0999999046325684,162.0,24.54645347595215,0.07156596332788467,-79.78277958263256,40.459054667215646,272.86279838085176,-0.006341762840747832,0.0023561781272292137,-0.9741151928901672,0.2259511798620224,0.0023356552093848656,0.0038962288285861436,-0.00013231976204000992,-0.0016154894838109612,-0.0024669952690601358,0.001511160866357386,-0.07260085679590703,0.10086964113637806,-9.807983295321463
35.72,2.0999999046325684,161.0,24.557722091674805,0.07951773703098297,-79.78277957789336,40.45905472643268,272.85158054828645,-0.0063301832415163534,0.0023641798179596663,-0.9741256237030028,0.2259062975645065,0.004320207685866765,0.0015004330133228468,0.002707753887481011,-0.005477993749082089,-0.0003748170856852085,-0.003956986591219902,-0.06994931808672845,0.11049994136206806,-9.807434241771695
35.89,2.200000047683716,162.0,24.55021095275879,0.08746951073408127,-79.78277958263395,40.45905472301885,272.85183362960817,-0.006319134961813688,0.002364895539358259,-0.974108338356018,0.2259810566902161,0.0063815819504314435,0.0022407055307379024,0.002280473508077753,0.0049368999898433685,0.004762787371873857,0.010138974525034428,-0.062362633435986935,0.10615148585289716,-9.809008312225345
35.99,2.200000047683716,162.0,24.54895782470703,0.07951773703098297,-79.78277958706394,40.459054718734095,272.85205643177034,-0.006319500971585511,0.0023836386390030393,-0.9741115570068359,0.22596701979637146,0.0044971084030611405,0.002805031214379338,0.0021037920803060567,-0.009251909330487251,-0.002708750311285257,-0.00803055241703987,-0.06701156730763615,0.12460032831877473,-9.807989142537117
36.09,2.200000047683716,162.0,24.55647087097168,0.07156596332788467,-79.78277956334345,40.459054771746686,272.8401408672333,-0.006320890504866839,0.0024077126290649176,-0.9740985631942748,0.2260228395462036,0.0037440237591722172,0.0031670610553024845,0.003104782052489718,-0.0029803565703332424,0.0023667516652494678,-0.007287853863090277,-0.06428453099448234,0.13150382520630954,-9.808397862911225
36.31,2.0999999046325684,161.0,24.541446685791016,0.07951773703098297,-79.78277954410355,40.459054810188185,272.8270485877991,-0.006321472581475972,0.002416888950392604,-0.9740859270095824,0.22607727348804474,0.005109038439727189,0.006449131844332989,0.003955524197063265,0.006918370723724365,0.006627688650041819,0.0051150680519640454,-0.061337744439952074,0.11702463917434215,-9.81002572774887
36.49,2.0999999046325684,160.0,24.552715301513672,0.07951773703098297,-79.7827795452251,40.45905480274435,272.8274418592453,-0.006302521098405123,0.002407263033092022,-0.9740905165672302,0.22605808079242706,0.003787315379914611,0.0073863866354737925,0.003893572267456831,-0.010338940657675266,-0.001931363600306213,-0.004940494894981384,-0.06854441032279282,0.12060875396244228,-9.808549305796623
36.6,2.0999999046325684,158.0,24.53894233703613,0.07156596332788467,-79.78277952737095,40.459054838366384,272.8113501548766,-0.006277721375226975,0.0024135883431881666,-0.9740792512893676,0.22610719501972198,0.0043383776746407,0.009116456008093006,0.0009122020103604614,0.0005344335804693401,0.0026386703830212355,-0.003465675981715321,-0.06058222936000676,0.12934551740996542,-9.807502069473268
36.79,2.0999999046325684,158.0,24.54269790649414,0.07156596332788467,-79.78277951068756,40.45905487454392,272.79390292167665,-0.006284177768975496,0.0023997463285923004,-0.97406667470932,0.2261613756418228,0.005939139166328118,0.010421049116714452,-0.0011801534850674788,0.01019118167459965,0.0009195826714858412,0.0063734157010912895,-0.07130224958527834,0.10640953992493453,-9.80761609017849
36.9,2.0999999046325684,158.0,24.543949127197266,0.07951773703098297,-79.78277951041981,40.45905486385156,272.79377620220185,-0.006280816160142422,0.002406005747616291,-0.9740711450576782,0.2261421978473664,0.004262596986702145,0.010886238701452585,-0.0014005182925681664,-0.003924362361431122,-0.0028350758366286755,-0.008210290223360062,-0.06419483105186373,0.13049706257879734,-9.808132984042167
36.99,2.0,160.0,24.555217742919922,0.04771064221858978,-79.78277955609204,40.459054932232654,272.77522044181825,-0.0062853670679032785,0.002413088921457529,-0.9740586876869202,0.2261955589056015,0.011028931106031474,0.003437407567335838,-0.002673436716470286,0.0004459128540474922,-0.00530086224898696,0.005308071617037058,-0.07168712885119022,0.09615696804597974,-9.80891884982586
37.2,2.0999999046325684,160.0,24.557722091674805,0.07951773703098297,-79.78277954972816,40.45905497610033,272.756383228302,-0.006289700977504253,0.0024095685221254826,-0.9740722775459292,0.22613708674907684,0.00744107453712855,0.00329999288457018,-0.003593294756721929,-0.005738533101975918,-0.0023697279393672947,-0.0059144203551113605,-0.06967243872117251,0.12472782502882185,-9.806673519015312
37.39,2.0999999046325684,158.0,24.555217742919922,0.05566241592168808,-79.7827795567793,40.45905496973513,272.7560103416443,-0.006296895910054445,0.0024077261332422486,-0.9740530252456664,0.22621965408325195,0.009729977524941426,0.004620233306958909,-0.003916835624995862,0.004387399181723596,0.0004831436963286251,0.009026262909173964,-0.07005018712487072,0.09376126329414547,-9.809011820554732
37.5,2.0999999046325684,158.0,24.543949127197266,0.06361418962478638,-79.78277956384521,40.45905496227955,272.7556180238724,-0.006276416126638651,0.0024086274206638336,-0.9740548729896544,0.2262120842933655,0.008803799229871378,0.004882608506064975,-0.004082377987076282,0.002082400256767869,0.001233284012414515,-0.007937186397612095,-0.06351199503522367,0.12854787496849895,-9.808428268432618
37.7,2.299999952316284,158.0,24.54269790649414,0.07951773703098297,-79.78277953246501,40.459054987745134,272.7354144334793,-0.006294582039117813,0.002445361111313105,-0.9740485548973083,0.2262384593486786,0.006826847793386848,0.009108460892361545,-0.004990568391131232,0.009129018522799015,0.0027958061546087265,0.007795465644448996,-0.06387989910319447,0.10456847098656,-9.808645200133324
37.79,2.299999952316284,157.0,24.54269790649414,0.07951773703098297,-79.7827795535819,40.459055012235865,272.71455078125,-0.006300472188740969,0.002452029148116708,-0.9740341305732728,0.2263001948595047,0.010057446969373371,0.009030921910106212,-0.004883653314081783,-0.002260218607261777,-0.003261448349803686,0.0034062450286000967,-0.07116457506548614,0.09445350053720176,-9.809599465727807
37.99,2.4000000953674316,158.0,24.54895782470703,0.09542128443717957,-79.78277955940537,40.45905500096681,272.7140566587448,-0.0062831006944179535,0.0024521073792129755,-0.9740411639213562,0.2262705862522125,0.010490556711587613,0.009389303676904326,-0.0051029892407004574,0.006524860858917236,0.004644648637622596,0.001766406814567745,-0.060959772197529676,0.11656313854269686,-9.810035083293917
38.1,2.4000000953674316,158.0,24.561479568481445,0.08746951073408127,-79.7827795820711,40.45905502418037,272.6924059867859,-0.006277454551309347,0.002469068393111229,-0.9740301370620728,0.2263180166482925,0.013735437469402105,0.00926490077866583,-0.004416489269913546,0.002145448699593544,-0.004165032412856817,0.009418237023055552,-0.06932676777709276,0.09179924835450948,-9.80967664897442
38.29,2.5,159.0,24.545202255249023,0.08746951073408127,-79.78277957664464,40.45905508400021,272.6702450990677,-0.006266149692237377,0.002464432269334793,-0.9740371704101562,0.2262884080410004,0.008762887655135169,0.004234468173877128,-0.004827872867536771,0.0031402506865561013,0.001237025600858033,0.00033926503965631133,-0.06259787879884242,0.12493780402466655,-9.808557491898537
38.49,2.5999999046325684,161.0,24.54645347595215,0.08746951073408127,-79.78277959117348,40.45905506806933,272.6692446947098,-0.006272408645600081,0.0024735024198889732,-0.9740249514579772,0.2263404577970505,0.01066532410056528,0.006383505996159008,-0.0053116533223202395,0.009371388703584671,0.0036412337794899936,0.007238604594022036,-0.06532555008307099,0.09878122583962977,-9.810611618757248
38.6,2.700000047683716,163.0,24.541446685791016,0.07156596332788467,-79.78277960513735,40.45905509537877,272.6467582464218,-0.006261393427848816,0.002474060747772455,-0.9740120768547058,0.226396381855011,0.011217132055000618,0.006372412241044165,-0.004301239437778064,-0.00397760234773159,-0.001388023723848164,-0.007938978262245655,-0.06455388206988573,0.13084456991404295,-9.808579126596447
38.7,2.799999952316284,165.0,24.552715301513672,0.08746951073408127,-79.78277960509868,40.459055128499735,272.62105469703675,-0.0062710451893508426,0.002502350369468332,-0.9740231037139891,0.2263482064008713,0.009481704855117715,0.006191739655592506,-0.007953868317928929,0.005743872374296188,0.0038375130388885736,0.005202735308557749,-0.06163425765931607,0.11189972824417056,-9.809034624695778
38.79,2.700000047683716,167.0,24.557722091674805,0.09542128443717957,-79.78277961126369,40.45905511978785,272.6202522993088,-0.006271110381931066,0.002510446822270751,-0.9740052223205566,0.22642508149147034,0.007909766029050714,0.007061759973120059,-0.008116785271420368,-0.007680971175432204,-0.0003703615511767566,-0.005640385672450066,-0.06732664543669671,0.1250030370242894,-9.807727771997452
39.0,2.700000047683716,169.0,24.547706604003906,0.07951773703098297,-79.78277961717784,40.4590551098116,272.6194261789322,-0.006301363930106163,0.0025283670984208584,-0.974013090133667,0.2263901084661484,0.009982709336693036,0.008703573637335463,-0.008459032959747214,0.0023886163253337145,-0.0008363265660591424,0.0022502231877297163,-0.0707588422531262,0.09194245032034816,-9.808695486187936
39.2,2.5999999046325684,171.0,24.545202255249023,0.08746951073408127,-79.78277964400787,40.45905523591703,272.56660227775575,-0.006326908711344004,0.00248729158192873,-0.9740070700645448,0.22641575336456304,0.006488188123656676,-0.00378240064739346,-0.012644774858101969,0.006436333991587162,0.003973369486629963,0.007913805544376373,-0.06914989407174289,0.11918262720108032,-9.807548847198486
39.3,2.5999999046325684,171.0,24.54645347595215,0.08746951073408127,-79.78277965191775,40.45905523690286,272.5653375864029,-0.006331274285912514,0.002489722799509764,-0.973991334438324,0.2264832854270935,0.004625522703832483,-0.003174940201538439,-0.012819896908590913,-0.006253424566239119,0.0011523478897288446,-0.0033003503922373056,-0.0637122256262228,0.12942831946536898,-9.809084910750393
39.49,2.5,174.0,24.54895782470703,0.08746951073408127,-79.78277965943832,40.45905523666196,272.5640472650528,-0.0063385688699781895,0.002480803290382028,-0.9739969968795776,0.2264588475227356,0.006589356752592934,-0.0015462060679941165,-0.013140883400600495,0.0047063021920621395,-0.002327673835679889,0.008006902411580086,-0.06827751233708114,0.09046224595047532,-9.808752204179763
39.6,2.5,175.0,24.55897521972656,0.07951773703098297,-79.78277968284188,40.45905529052928,272.53599421978,-0.0063092373311519605,0.0024735191836953163,-0.9739831686019896,0.226518988609314,0.005880602592740876,-0.0033124814832896487,-0.014476423632624157,-0.003081583883613348,-0.005241811275482178,0.004332845564931631,-0.07165033707395196,0.09423999493941664,-9.809483690857887
39.8,2.4000000953674316,175.0,24.51139640808105,0.6202383637428284,-79.78277967783565,40.459055301894345,272.5091398239136,-0.00630836421623826,0.002481568604707718,-0.973988115787506,0.2264978289604187,0.00530298645323508,0.0030100732862516745,-0.014380752925527743,0.0036005871370434757,0.004623850341886282,-0.0037829978391528134,-0.06261952720116824,0.12690153658390044,-9.807632462382317
39.99,2.4000000953674316,175.0,24.52266502380371,0.3896369338035584,-79.78277968584885,40.459055290751394,272.50621848106385,-0.006315274629741907,0.0024644704535603523,-0.9739838242530824,0.2265163064002991,0.00667029657516445,0.005478941341154182,-0.015159930485131356,0.002667970722541213,-0.006168540567159653,0.0028927267994731665,-0.06878822094295174,0.12281691840849818,-9.811148393154145
40.09,2.299999952316284,174.0,24.53017807006836,0.3816851377487183,-79.7827797306778,40.45905536196814,272.478017616272,-0.006337914615869522,0.0024611519183963537,-0.9739440083503724,0.22668668627738955,0.006656030260791557,-0.004035380280664472,-0.015880375667608918,-0.007113766856491566,0.0005440917448140682,-0.0011011307360604403,-0.07262374316342175,0.10440032699145377,-9.804783114194873
40.3,2.200000047683716,173.0,24.517656326293945,0.3816851377487183,-79.78277976385135,40.45905541366905,272.44764964580537,-0.006339799147099257,0.002456897171214223,-0.973956823348999,0.22663171589374545,0.0057056289490968574,-0.00746666912075083,-0.018920093564837925,-0.005560699384659529,0.00018124385678675026,0.004617529921233654,-0.07129410459659995,0.11503368965350093,-9.801364831924436
40.39,2.0999999046325684,173.0,24.518909454345703,0.3975887000560761,-79.78277977382231,40.459055417228,272.44575505256654,-0.006328631658107042,0.0024417683016508818,-0.9739458560943604,0.22667959332466125,0.0067253088019324425,-0.006418674033996298,-0.019173139270155737,0.009966736659407616,-0.0014584303135052323,-0.004236319568008184,-0.06694702409673482,0.09910687920637427,-9.803352885246275
40.51,2.0999999046325684,172.0,24.53518486022949,0.40554046630859375,-79.78277978361197,40.45905541955728,272.44383280277253,-0.006340702064335346,0.002438803669065237,-0.9739508628845216,0.22665782272815704,0.005001003663083085,-0.00559901274328742,-0.01957434137957622,-0.003828716464340687,-0.002546116942539811,-0.0013564424589276314,-0.07238920586183667,0.12204027112573385,-9.801092351675036
40.69,2.0,173.0,24.517656326293945,0.4850582182407379,-79.78277981511303,40.45905546369005,272.41201095581056,-0.006348497234284878,0.002437276067212224,-0.9739461541175842,0.2266777455806732,0.00506602652984877,-0.006304217220792082,-0.02189704812158853,-0.0017227977514266968,0.0023020964581519365,-0.010146500542759895,-0.06444858650676906,0.12451059183105828,-9.801112816929818
40.8,2.0,172.0,24.51139640808105,0.508913516998291,-79.78277981981778,40.459055489382365,272.3794026851654,-0.006369262933731079,0.002439210191369057,-0.973929762840271,0.2267474681138993,0.0037763678345718405,-0.002212192952931132,-0.023698226648784727,0.003022404620423913,-0.0007997792563401163,-0.011808707378804684,-0.06645944853778929,0.11336915181018413,-9.801853659152986
41.0,2.0,173.0,23.66501045227051,6.337563991546631,-79.78277982503973,40.45905548920175,272.37702708244325,-0.006376025266945362,0.0024336990900337696,-0.9739263653755188,0.2267620861530304,0.003086555106231255,-0.0009552986423639136,-0.02405898233032567,-0.00714030722156167,-0.00196112971752882,0.0006769504980184138,-0.07000964490696789,0.1147664993070066,-9.80166128575802
41.09,2.0,171.0,24.42876052856445,0.8667433857917786,-79.7827798806738,40.4590555532318,272.3458973646164,-0.006120739504694939,0.002292483812198043,-0.9739009141921996,0.2268798500299453,0.003489052075955801,-0.008154259893162605,-0.02258029160692768,-0.01571199111640453,0.031576007604599,-0.002618689788505435,-0.052381413476541634,0.14992212510667746,-9.81441347837448
41.3,1.8999999761581416,172.0,24.52391815185547,0.326022744178772,-79.78277989661511,40.459055588243736,272.3173423290253,-0.006173375528305769,0.002315948950126767,-0.9739062786102296,0.2268548607826233,0.00570610816749511,-0.00592879941236435,-0.021726460356069573,0.0005791513249278069,0.002104819053784013,-0.010911532677710056,-0.04998008077964187,0.09124345223419368,-9.824814505577088
41.5,1.8999999761581416,172.0,24.462566375732425,0.9144539833068848,-79.78277991612278,40.45905559554317,272.3131064653397,-0.006091834045946598,0.002379770157858729,-0.9738877415657043,0.2269361168146133,0.0067663679522260226,-0.00795267017440866,-0.02162405179958115,0.006346369162201881,0.004761677235364914,-0.02046546526253224,-0.09342471948824824,0.12509675692766906,-9.805584767460823
41.59,1.8999999761581416,173.0,24.498876571655273,0.3578298389911652,-79.78277993991071,40.45905561828413,272.2807817935944,-0.0061638341285288325,0.0023463903926312928,-0.9738903641700744,0.2269231975078583,0.0059803977964283175,-0.0008511560354733527,-0.02412515876442101,0.01181106735020876,0.007449894677847624,-0.030073659494519237,-0.0461767319496721,0.08670673465356231,-9.850777312517168
41.71,2.0,173.0,24.518909454345703,0.3180709481239319,-79.78277993990227,40.45905568615236,272.2517662525177,-0.006232107523828745,0.002362757921218872,-0.9739089608192444,0.2268413752317429,0.0006175124793190138,-0.01430530928498698,-0.02553184205736501,-0.026753028854727745,-0.00407383032143116,-0.004906562622636557,-0.06802262398414315,0.10940240984782576,-9.796584733128546
41.8,2.0,171.0,24.48385238647461,0.8826469182968141,-79.78277994928787,40.459055694912884,272.2492938518524,-0.006253955420106649,0.002341686747968197,-0.9738858342170716,0.2269405126571656,0.0019988123613603357,-0.01304170499502878,-0.02482915434571983,-0.007686808239668608,-0.01059472281485796,0.02562020905315876,-0.09807201339863242,0.08135293263942002,-9.811005721092224
42.0,2.0,168.0,24.195880889892567,4.794919490814209,-79.7827799054062,40.45905568501246,272.2269422888756,-0.006163835991173983,0.0022993749007582664,-0.973870038986206,0.2270108014345169,0.0017890127730719157,0.003992796160588831,-0.005296198825553208,-0.008952184580266477,-0.00984415039420128,0.017725797370076183,-0.05381612833589317,0.1048186769988388,-9.835546485185624
42.19,2.0999999046325684,165.0,24.018089294433594,7.061175346374513,-79.78277990571188,40.459055680327054,272.2264230728149,-0.006114736665040255,0.0022696596570312977,-0.9738646149635316,0.2270360440015793,-0.0002469548190018583,0.0068497592384772965,-0.004563399165036996,-0.02062445878982544,-0.02941253408789635,0.014868967235088347,-0.11864609948359432,0.08669673956930637,-9.789880900382995
42.29,2.200000047683716,166.0,23.937957763671875,8.063098907470701,-79.78277989020977,40.45905567208618,272.2042976498604,-0.006052275188267231,0.002235009800642729,-0.973859429359436,0.22706001996994016,0.007157706402288683,0.01319348042315027,0.00312839994629591,0.026001159101724625,-0.011133595369756222,0.00595350656658411,-0.07843278746120633,-0.005140296416357161,-9.814323431253433
42.49,2.200000047683716,167.0,23.692556381225586,11.16429042816162,-79.78277988486835,40.45905564739007,272.2052746295929,-0.005686915945261717,0.0020924264099448924,-0.973822832107544,0.2272280305624008,0.004470220236308788,0.014242053128502788,0.005421595111566042,-0.11937155574560165,-0.056514538824558265,0.021641816943883896,-0.0659193668095395,0.1339548592362553,-9.815775879621508
42.6,2.200000047683716,166.0,23.556081771850586,12.10260009765625,-79.78277983811253,40.45905562524178,272.1858254551888,-0.004786115139722824,0.002244922099635005,-0.9738380908966064,0.2271818369626999,-0.0073501917001375875,0.014174954213782825,0.02098187641223146,0.09555526077747344,0.054302915930747986,-0.03259480744600296,-0.06980037854053081,-0.2305275551788509,-9.771464509963991
42.8,2.299999952316284,165.0,23.314435958862305,15.752464294433596,-79.78277986939223,40.45905563599591,272.1627870678902,-0.0040152822621166715,0.002301270142197609,-0.9738337993621826,0.2272145599126816,-0.005961092999927543,0.016017053782434402,0.030597220535010437,-0.08819190412759781,0.1426435261964798,0.09592977911233902,-0.17576163802295924,-0.20514592492952946,-9.70190427839756
42.99,2.4000000953674316,165.0,23.026464462280273,19.17172622680664,-79.78277986651669,40.459055611264745,272.16833971738816,-0.002264001406729221,0.001879739575088024,-0.9737861156463624,0.2274467051029205,-0.0048417602409094465,0.00648914410041189,0.02809395133433715,-0.045868702232837684,-0.029213855043053624,0.3708042204380035,-0.2054907462000847,-0.2690411181561649,-9.752754589319233
43.09,2.4000000953674316,165.0,22.887487411499023,20.714370727539066,-79.7827798989102,40.45905563184957,272.1452388048172,-0.0007892397115938365,-0.00019887127564288678,-0.9738013744354248,0.2273990511894226,0.007278883939228211,-0.016064993854044394,0.04260576678022437,0.02608754858374596,0.05136941373348236,0.2496411204338073,-0.2594926880858839,-0.17252461943775416,-9.937099757194519
43.4,2.5,165.0,22.432992935180664,25.95458984375,-79.78277992040096,40.45905568401349,272.13180767297746,0.0073965080082416534,-0.013638642616569996,-0.9735071659088136,0.2281298339366913,0.0052553446163021615,-0.03162641544424933,0.08313927035858673,-0.07646425813436508,0.09727144241333008,-0.031103409826755524,0.014506069519557059,-0.031844018669798975,-10.089616191387178
43.5,2.5,167.0,22.310291290283203,27.79940223693848,-79.78277995353373,40.45905572982145,272.142882335186,0.005640478804707527,-0.024172309786081314,-0.9737723469734192,0.2261665612459183,0.0009764561175671283,-0.07174913994588496,0.1466735473487926,-0.07808810472488402,0.1800776869058609,0.050791434943675995,0.05210207188501954,-0.21458181437104945,-10.350614848136905
43.79,2.5,176.0,22.75226593017578,21.54135513305664,-79.78278028034173,40.45905618275668,272.15082721710206,0.003669470781460405,-0.02191066369414329,-0.9750675559043884,0.2207933813333512,-0.0006686637583369027,-0.18029988470408487,0.319517070078581,0.10853231698274612,-0.296259343624115,0.0637594610452652,0.12513776966370646,-0.14928193721920252,-10.009268431663513
44.0,2.5,176.0,22.761030197143555,22.05821990966797,-79.78278048813546,40.45905654883692,272.2048399925232,0.004374973010271789,0.006657274439930916,-0.9758031964302064,0.2185058295726776,-0.02104709602245523,-0.23681402012068584,0.2263454707441912,-0.0160206351429224,-0.1687564104795456,0.030405493453145024,-0.041440743086859584,-0.12791968300938608,-9.437441146373748
44.09,2.5,177.0,22.64333724975586,22.583038330078125,-79.78278083949596,40.45905742815075,272.15646063089366,-0.0005088191828690469,0.020763253793120384,-0.975248634815216,0.2201334089040756,-0.024082216949144003,-0.22451590055246765,0.060802791145242514,-0.0020971312187612057,-0.02128575555980205,-0.032074354588985436,-0.11833525601774456,-0.01952796438708901,-9.279569247364998
44.29,2.5,176.0,22.53691291809082,23.64857482910156,-79.7827809807402,40.45905760403828,272.14917902946473,0.0008749061380513012,0.019599644467234608,-0.974869668483734,0.22191087901592246,-0.022322339245848748,-0.21166965091378945,0.04495788033867383,-0.003810831578448415,0.139426127076149,-0.03813554719090462,-0.016337358076125384,-0.10096379958093167,-9.472254298925401
44.5,2.5,176.0,22.446765899658203,24.01435661315918,-79.7827811020868,40.45905790674436,272.154053914547,0.00232721446081996,0.006985326297581196,-0.9743709564208984,0.2248268872499466,-0.02665597190503895,-0.1560618028148851,-0.003694354156371404,0.038200125098228455,0.1775769591331482,-0.004388145171105862,0.03444835481699556,-0.11536580236628652,-9.637044038772585
44.59,2.5,180.0,22.551937103271484,23.17146873474121,-79.78278120478586,40.45905830365454,272.14063428640367,0.0029589240439236164,-0.0007773021352477372,-0.9741723537445068,0.22578540444374084,-0.04590142730735351,-0.10901755287461933,0.03269015403686647,0.09315913915634157,0.023155283182859417,0.015491675585508347,0.18643755745142696,-0.27338824890553953,-9.76194699704647
44.7,2.5,181.0,22.42422866821289,24.18929672241211,-79.78278113337986,40.45905851958715,272.14168750047685,0.005442245863378048,0.001167124486528337,-0.9741206169128418,0.2259605228900909,-0.0542457637340288,-0.11817346040165122,0.09456010550730544,0.009235497564077377,-0.10396391898393632,-0.013912870548665524,0.12690057727508247,-0.013829642599448563,-9.82709375023842
44.89,2.5,180.0,22.37790298461914,24.66640281677246,-79.78278114554614,40.45905863823742,272.1513162136078,0.006797472015023232,0.0038675400428473954,-0.9741862416267396,0.2256103754043579,-0.05290071044143847,-0.11498298521042973,0.09137233951524064,-0.011133669875562193,-0.07998459041118622,0.0630151778459549,0.09806964710354804,-0.14666186383925378,-9.812051203250883
45.0,2.5,180.0,22.386667251586914,25.40591812133789,-79.78278114759176,40.45905875003745,272.16013996601106,0.006238074041903019,0.0059421779587864884,-0.9743711948394777,0.2247815430164337,-0.05128379399179362,-0.11096921465479767,0.08118625802734472,0.04660594463348389,-0.017604850232601166,0.07903478294610977,0.04996161180082709,-0.26938864376395943,-9.710055881738663
45.2,2.5,181.0,22.366634368896484,24.41989707946777,-79.78278108817143,40.45905879341427,272.1643614649773,0.00614177156239748,0.005723773501813412,-0.974552571773529,0.22400204837322235,-0.04985097770189287,-0.04531178344526479,0.1540066381602136,-0.0016196221113204956,0.015845853835344315,-0.044362451881170266,0.11264248908497396,-0.1217909056507051,-10.007494386434557
45.29,2.5,180.0,23.05401039123535,17.52570915222168,-79.78278105878066,40.459058841335356,272.17756043672557,0.006708241067826748,0.006526815705001354,-0.9744722843170166,0.224312886595726,-0.04143443141849205,-0.02863644348642552,0.07963907411101982,0.04411664232611656,-0.06285461038351059,-0.07363125681877136,0.15808009643107654,0.017216925490647555,-9.227493360042573
45.5,2.5,179.0,22.220144271850586,28.38783264160156,-79.78278103279034,40.45905887826906,272.1806519508362,0.009190065786242485,0.006448353640735149,-0.9743801355361938,0.2246275395154953,-0.03778489320079337,-0.024282040170248376,-0.005926671210470714,-0.008379600942134855,0.06281533092260361,0.004975810181349516,0.0019943071017041805,-0.0492102080443874,-9.149454665780068
45.6,2.5,178.0,21.97974967956543,31.958179473876953,-79.78278099384111,40.45905897746577,272.16200094223024,0.009881269186735151,0.001098626060411334,-0.9743317365646362,0.2248973250389099,-0.031893373521240984,-0.0183525019009399,0.03914737645837739,0.021294163540005684,0.0013436764711514115,0.03993120789527893,0.06518278209026904,-0.2666758646070957,-10.158588777780533
45.8,2.5,177.0,21.736852645874023,33.946121215820305,-79.7827809048473,40.45905897900121,272.1461977243424,0.008335418999195099,0.00016250133921857926,-0.974203884601593,0.22551608085632324,-0.03678449712068571,0.0010766456468372274,0.15976880927705747,0.007431349717080594,0.040474355220794685,-0.018052184954285615,0.0595055331196636,-0.09799412665888667,-10.7425887966156
46.0,2.4000000953674316,175.0,21.3700008392334,38.05718994140625,-79.78278084573193,40.459058991550044,272.20747421979905,0.007726988289505244,0.0005637601716443896,-0.9741159081459044,0.22591644525527954,-0.0297019436171458,0.009819004052388669,0.4692456157328337,-0.007325361017137766,-0.04481623321771622,-0.044863589107990265,0.15986680453643204,-0.08624356208369137,-11.419193508625035
46.09,2.5,173.0,21.33369255065918,38.02538299560547,-79.78278083068095,40.45905902438713,272.291523206234,0.006603167857974768,0.000556781655177474,-0.974081575870514,0.2260999679565429,-0.028586250464797906,0.021354988004420282,0.8268123369840769,-0.07076955586671829,-0.07988446205854416,0.011620997451245785,0.21703684095293285,-0.13888572483323516,-11.558798121213913
