time,wind_speed,wind_angle,battery_voltage,battery_current,position_x,position_y,position_z,orientation_x,orientation_y,orientation_z,orientation_w,velocity_x,velocity_y,velocity_z,angular_x,angular_y,angular_z,linear_acceleration_x,linear_acceleration_y,linear_acceleration_z
0.0,0.4000000059604645,134.0,25.412872314453125,0.0,-79.78236496994305,40.45805951041178,268.8112959098816,-0.0008014007471501827,0.006322567816823721,0.32409679889678955,0.9460024237632751,-0.0034592228844826482,3.255672561148083e-05,0.002204176913382047,-0.003345590550452471,-0.0013631298206746578,5.8042205637320876e-05,0.02246189163532108,-0.12361339140683412,-9.811720250844957
0.1,0.4000000059604645,121.0,25.40536117553711,-0.007951773703098297,-79.78236492314224,40.45805945947996,268.79729024887087,-0.0007997776265256108,0.0063239289447665215,0.3240958154201508,0.9460028409957886,-0.0017461579782791176,-0.0007230253089571352,0.0024457212521086405,-0.0059318067505955705,-0.0035948450677096844,-0.005651600658893585,0.027743884816300125,-0.12150102079845965,-9.815636715888978
0.3,0.5,136.0,25.39784812927246,-0.007951773703098297,-79.78236492380279,40.45805945816595,268.7975763511658,-0.0007997776265256108,0.0063239289447665215,0.3240958154201508,0.9460028409957886,-0.0009437077595821457,-0.000851197468580561,0.003322229383213049,0.0038393584545701742,0.0001188008754979819,0.0027395093347877264,0.027188719098921867,-0.12410771867260338,-9.815319796800614
0.4,0.5,126.0,25.39910125732422,-0.007951773703098297,-79.782364923261,40.458059396241104,268.7821325492859,-0.0007972416933625938,0.006317001301795243,0.3240938484668732,0.9460035562515259,-0.007852437756202516,0.00037041429432763167,-0.00010626108935853409,-0.0014250616077333687,-0.002955227857455611,-0.004714728333055973,0.02321877487236634,-0.12216973213478925,-9.812122539281846
0.6,0.6000000238418579,144.0,25.400352478027344,-0.007951773703098297,-79.7823649289811,40.458059355603396,268.7670401763916,-0.0008033305639401077,0.006313354708254336,0.3240934312343597,0.9460037350654602,-0.008423267295642741,0.0077761887964678455,-0.002995308205339307,-0.0031047249212861057,-0.0037922405172139406,-0.0006616407772526145,0.0244517790642567,-0.1213177654054016,-9.81255874156952
0.7,0.699999988079071,140.0,25.40786552429199,-0.007951773703098297,-79.78236495496118,40.45805935777947,268.76665203094484,-0.0008034331258386374,0.006313577760010958,0.3240934312343597,0.9460037350654602,-0.008048418849935101,0.007757738682871496,-0.001062387396898529,-0.005159180611371994,0.0014862865209579468,-0.0033763935789465904,0.02740402911091224,-0.12274424848146735,-9.815755999088287
0.9,0.699999988079071,140.0,25.39910125732422,0.007951773703098297,-79.78236493110894,40.45805930186428,268.75122634887697,-0.0008005592389963567,0.00631416868418455,0.32409143447875977,0.9460043907165528,-0.007358112668512583,0.006430342757162014,-0.004234310147239328,0.0016745248576626182,0.002525830874219537,0.0045648934319615355,0.0279161424189806,-0.12369257549755275,-9.816555898189543
1.1,1.0,141.0,25.39784812927246,0.0,-79.78236492086405,40.45805924335005,268.73524896621706,-0.0007973311003297567,0.006313965190201998,0.3240896165370941,0.9460049867630004,-0.007177683659683146,0.005604382226061427,-0.006076986451612631,0.002047077752649784,-0.0018719867803156376,0.0025550241116434336,0.02289691305952147,-0.1226376829762012,-9.81191905617714
1.2,1.100000023841858,140.0,25.40285682678223,-0.007951773703098297,-79.78236493191845,40.45805924320834,268.7347032260895,-0.0007972537423484027,0.006313024088740349,0.3240895867347717,0.9460049867630004,-0.007570947598772425,0.005645274419403354,-0.005033194569278321,-0.002764398232102394,0.0009139644680544734,-0.0019428755622357128,0.02345154430484399,-0.1190939687937498,-9.812072253227234
1.4,1.2000000476837158,141.0,25.406612396240234,-0.007951773703098297,-79.78236491212719,40.45805918067694,268.71922938346864,-0.0007940381765365603,0.006315774284303188,0.32408812642097473,0.9460055828094482,-0.00539488333805402,0.003279397536228041,-0.005444297543514465,-0.002680763136595488,0.001331099891103804,-0.002384075662121177,0.02665208403021097,-0.12645228769630196,-9.8140076816082
1.5,1.2999999523162842,144.0,25.40285682678223,0.007951773703098297,-79.78236490998674,40.45805911333717,268.70166127204897,-0.0007924396777525544,0.006313697900623083,0.3240852952003479,0.9460064172744752,-0.005763936077211995,0.0036478314313772757,-0.009962224367932327,0.001631014747545123,0.004146839026361704,0.005100521259009838,0.024036775217391552,-0.12886476664803925,-9.814041595458985
1.7,1.2999999523162842,146.0,25.267635345458984,0.278312087059021,-79.7823649177468,40.45805911278107,268.7007323932648,-0.0007734644459560512,0.006308484356850386,0.32393431663513184,0.9460582733154296,-0.0028870415563916193,0.0036189800383399865,-0.008434934244932073,-0.004192885477095842,0.000489691738039255,0.0457853227853775,0.027125731338746847,-0.11988065684214234,-9.813843959569931
1.8,1.5,140.0,25.31145668029785,0.3021674156188965,-79.78236492569732,40.45805911232589,268.69989196777345,-0.0007211556076072156,0.006339278072118759,0.32378509640693665,0.946109175682068,-0.0019003546555608952,0.0016708060106345186,-0.007866316006090886,0.0079200379550457,0.00241126399487257,0.01976509764790535,0.017903578185942026,-0.1293933640792966,-9.812543538808823
2.0,1.5,141.0,25.33148956298828,0.3021674156188965,-79.78236499575024,40.45805902385247,268.68300406455995,-0.0007665296434424818,0.006311282515525818,0.3242509663105011,0.9459497928619384,-0.017247500127201283,0.005476337203578323,-0.008007063257209306,0.003185654524713755,-0.005681471433490515,-0.02906452864408493,0.04421988357324153,-0.1583663907274604,-9.80541929125786
2.11,1.7000000476837158,150.0,25.33023834228516,0.2862638533115387,-79.78236499272786,40.45805894912567,268.6645766925812,-0.0007669855258427558,0.0063113090582191935,0.324205219745636,0.9459654092788696,-0.011607642539540414,0.003123212197438021,-0.012668787105195657,0.002408818807452917,0.003621762152761221,0.02402084320783615,0.00013153797688573833,-0.09279500177130104,-9.821693261861801
2.21,1.7999999523162842,143.0,25.31145668029785,0.2862638533115387,-79.78236500673155,40.45805894531031,268.66336576461794,-0.0007256678072735668,0.006343729794025421,0.3240023553371429,0.9460347890853882,-0.011323754150212726,0.0047536785666985855,-0.011638919200315005,0.00024811265757307405,0.003246674546971917,0.019169025123119358,0.032553555448539565,-0.1263828154653311,-9.815586429834367
2.4,2.0,140.0,25.31270980834961,0.3578298389911652,-79.7823650245264,40.45805887307843,268.644582195282,-0.0007268205517902969,0.006360630039125681,0.3240823745727539,0.946007251739502,-0.011322033166201706,0.006944820500732546,-0.013278012102484471,-0.0036033715587109327,-0.003267117775976658,-0.01979751512408256,0.034659736230969435,-0.1362356662005186,-9.810651379823684
2.5,2.0,141.0,25.29768371582031,0.41349223256111145,-79.7823650376222,40.45805887217666,268.643325252533,-0.000720993266440928,0.006348922848701477,0.3241598606109619,0.9459807872772216,-0.008597363252931464,0.005672506979249993,-0.01231017181553196,-0.002459293231368065,-0.0022201950196176767,0.002866885391995311,0.019041696457425133,-0.11589677522890272,-9.811197509765623
2.7,1.8999999761581416,140.0,24.64286231994629,23.23508262634277,-79.78236513671129,40.458058766377405,268.62390152931215,-0.0007066007819958031,0.006362462881952524,0.3239608108997345,0.9460489153862,-0.02074196275487129,0.008982587487862766,-0.014228827074208694,0.0038272324018180366,0.003988339100033046,-0.004433967173099518,0.023963159685954454,-0.13575270446017385,-9.814566675424576
2.9,2.0,140.0,24.999696731567386,0.6440936923027039,-79.78236519308798,40.458058677156785,268.6042465400696,-0.0011126360623165963,0.0068813273683190354,0.32385289669036865,0.946081817150116,-0.019608308293105114,0.005734169424610883,-0.01716267480997269,-0.012009126134216784,0.0003091530234087258,0.05511291325092317,0.08990317904390395,-0.027941276310011743,-9.828556723594666
3.01,2.0999999046325684,137.0,25.23007392883301,0.2306014448404312,-79.78236521822829,40.45805867366994,268.60268775939943,-0.0010765723418444397,0.006818586029112339,0.3238612413406372,0.946079432964325,-0.01994328361821277,0.00950997534230518,-0.015004642584002597,0.003975525498390198,0.02306225337088108,-0.005087769590318203,0.008514564684592187,-0.1357206909544766,-9.80133384168148
3.11,2.0999999046325684,133.0,23.81024742126465,20.8177433013916,-79.78236525675324,40.45805857658029,268.582666797638,-0.0010464302031323314,0.006868727505207062,0.32415303587913513,0.9459792375564576,-0.009504233886684057,0.008414843792027251,-0.0140288802826652,-0.006967741530388594,0.0027134486008435488,0.01483409572392702,0.02668347398517653,-0.13553672293201088,-9.790728161931039
3.3,2.0999999046325684,133.0,25.06605529785156,0.5725277066230774,-79.78236527322909,40.458058573506754,268.5811700057984,-0.0011910506291314964,0.006991442758589983,0.3242524266242981,0.94594407081604,-0.017925830987153838,0.005864906192356841,-0.014700185684633578,0.005387571174651384,0.009384156204760076,0.001561588840559125,0.01945936695439741,-0.14866501942276955,-9.788563522696496
3.4,2.200000047683716,130.0,25.23257827758789,0.2544567584991455,-79.78236530689827,40.458058468512654,268.5631760787964,-0.0010354885598644614,0.006899094209074974,0.32411593198776245,0.9459916353225708,-0.015315094577685987,0.0022395439292626747,-0.017777874899429415,0.0076899221166968346,-0.0005618659197352828,0.0016902729403227568,-0.039817222547717385,-0.16786120913922786,-9.833021657466887
3.6,2.299999952316284,124.0,25.157455444335927,1.8209562301635744,-79.7823653347876,40.4580583711922,268.5438293647766,-0.0009364311117678881,0.0067332349717617035,0.3243501484394073,0.9459127187728882,-0.007523721654221495,-4.0445628225966965e-05,-0.01867707736959666,0.010954667814075949,-0.013990468345582485,-0.01860363595187664,0.02392450410872697,-0.07852191181853414,-9.841089645624159
3.7,2.0999999046325684,120.0,24.76931953430176,3.379503965377808,-79.78236535324088,40.45805836370428,268.5405575466156,-0.0009691609302535652,0.006788202561438085,0.3244054019451141,0.9458933472633362,-0.00215440062633286,0.003115577595417153,-0.015085072637923115,0.054253824055194855,-0.009783231653273106,0.004300144501030445,0.02335592177230865,-0.09349632047116756,-9.81656408429146
3.9,2.200000047683716,121.0,24.334857940673828,5.224315643310547,-79.78236538714756,40.45805828972574,268.52062122344967,-0.0011090872576460242,0.006996145937591789,0.32443493604660034,0.9458815455436708,-0.005872053005404681,0.00809727472091381,-0.015084944061283887,0.02174332551658153,-0.07063981890678406,-0.04236682876944542,-0.026232948303222658,-0.14397614632733166,-9.801809220314027
4.1,2.200000047683716,116.0,23.980527877807607,7.4667158126831055,-79.78236547659402,40.45805818364522,268.5037106704712,-0.0012098394799977539,0.007170795928686856,0.3243999779224396,0.9458920359611512,-0.008601977509678184,0.01013411249107415,-0.010060239109089174,0.04508640244603157,0.02710001170635224,-0.00012472925300244242,-0.00020787993678823114,-0.11120500593446196,-9.850573829412461
4.2,2.299999952316284,113.0,23.783954620361328,9.239961624145508,-79.78236549290544,40.45805818530169,268.5027124118805,-0.001449383213184774,0.007977754808962345,0.32449400424957275,0.945853054523468,-0.004664945070077161,0.008675822016852675,-0.010287804561255071,0.0429241843521595,-0.020459257066249847,-0.04900652170181274,0.024853382280562074,-0.16583432665094733,-9.813446348905565
4.3,2.200000047683716,109.0,23.582374572753906,10.57585906982422,-79.78236552927724,40.45805807273056,268.48658244133,-0.002042824635282159,0.00978211872279644,0.3246278762817383,0.945789098739624,-0.005720936739775775,0.0005443955195686169,-0.008098397438129323,0.007553276140242816,-0.005434502847492696,-0.026587631553411484,-0.005184129977133125,-0.22028681477531792,-9.832414716482162
4.5,2.200000047683716,105.0,23.2030029296875,13.335124969482422,-79.78236553737673,40.458058072711246,268.4860860538483,-0.002482600277289748,0.011100832372903824,0.32485270500183105,0.945696234703064,-0.004185611720171816,0.0013472222677709596,-0.002644178050392505,0.01797187514603138,-0.04942787438631058,0.02336447685956955,-0.08896146669052543,-0.23402347750961786,-9.858910789489746
4.72,2.299999952316284,105.0,22.79733848571777,16.937278747558597,-79.78236554963348,40.45805798417554,268.46983067512514,-0.0027410828042775393,0.013928906992077827,0.3252278864383697,0.9455291032791138,-0.0016916767251031926,-0.005297454129724294,-0.002503888337436275,0.005487643647938968,-0.00157218927051872,0.051719781011343,-0.1798246854543686,-0.3076657965034247,-9.781909391283987
4.8,2.299999952316284,103.0,22.62956428527832,17.68474578857422,-79.78236562447118,40.458057876371996,268.45248858451845,-0.0015634363517165186,0.013434259220957756,0.3261826038360596,0.9452100396156312,-0.014660231280216087,0.022123666643217875,0.00035528801519863764,-0.07681097835302353,-0.04597630351781845,-0.026154479011893272,-0.06231559989508241,-0.21157824587076904,-9.839908508062363
5.0,2.4000000953674316,105.0,22.26772117614746,20.905214309692386,-79.78236564926719,40.45805788490553,268.4528521728516,-0.0004208390600979328,0.0100117614492774,0.3304603695869446,0.943766713142395,-0.010350674679278494,0.029807141855908974,0.0065990285634371215,-0.0984184592962265,-0.01809158176183701,-0.07233281433582306,0.2924462250620127,-0.3150039425119758,-9.848360073566438
5.1,2.299999952316284,107.0,22.06614112854004,22.980627059936523,-79.78236564106088,40.458057832259264,268.4343144130707,-0.001774453790858388,0.003588987048715353,0.3356198072433472,0.9419890642166138,-0.01340417222477948,0.0662991568703798,0.041078957435311966,-0.17499569058418274,-0.2317309677600861,-0.07376647740602492,0.3403724165260792,-0.1683119198307395,-10.065225116014481
5.2,2.299999952316284,108.0,21.89711570739746,24.18929672241211,-79.78236583677466,40.45805792596728,268.4625329208374,-0.00431786896660924,-0.01832578890025616,0.34345635771751404,0.9389799237251282,-0.04055179619039115,0.1223437349087346,0.2642792820478119,-0.056758392602205276,-0.04565955325961113,-0.029931535944342613,0.2478190692141652,-0.2635966842994094,-10.615598967075348
5.4,2.4000000953674316,113.0,22.466798782348643,18.69462013244629,-79.78236557566063,40.4580580077515,268.4472402763367,-0.003462490858510137,-0.014757728204131125,0.34545716643333435,0.9383121728897096,-0.0236514820860856,0.1404896146958801,0.3242863978659173,0.21302694082260126,0.13836078345775604,-0.05717053636908531,0.154729349501431,0.08824219521135092,-10.711231348514557
5.6,2.4000000953674316,116.0,22.322813034057614,19.96690368652344,-79.78236619190417,40.45805809498714,268.4994291496277,0.007166860159486531,0.0025667804293334484,0.3460634648799896,0.9381802678108216,-0.07224926154488061,0.1922335633785236,0.3013427466660565,-0.029882917180657387,0.14406487345695496,0.04230976104736328,0.16456911709159613,-0.008339480547001586,-9.665819941163065
5.7,2.5,122.0,22.294015884399414,20.17365074157715,-79.78236640679785,40.45805818452767,268.52733938217165,0.017065651714801792,0.006320566404610872,0.34553372859954834,0.9382299780845642,-0.07897614037479345,0.19698121519559345,0.254976481860558,-0.00383865786716342,0.2317136377096176,0.04018754884600639,0.3201215352863073,-0.1869728334993124,-9.555924446582797
5.8,2.5,125.0,22.206371307373047,20.51557731628418,-79.78236675353907,40.45805842617772,268.5624984931946,0.018661707639694214,0.01254965178668499,0.3424378931522369,0.9392713308334352,-0.034586605016313984,0.2030930084501653,0.1933229763650424,-8.951118070399389e-05,-0.11167985200881958,0.08712798357009888,0.4249036032333969,-0.1460227631684393,-9.57063838005066
6.0,2.700000047683716,120.0,22.20136260986328,20.78593635559082,-79.7823667866039,40.45805879982238,268.6109000873566,0.009983920492231846,0.013024376705288887,0.3417867124080658,0.9396342635154724,0.042698676567883065,0.2021133830326879,0.2243109420741458,0.04646258056163788,-0.04999658092856407,0.0625690296292305,0.4516025015339256,-0.06674516268074512,-9.780746380090712
6.2,2.799999952316284,121.0,22.28900718688965,19.64088249206543,-79.78236689665253,40.45805896142089,268.6346182060242,0.0110139362514019,0.012270047329366207,0.3419642150402069,0.9395683407783508,0.042843833714429486,0.2139472448417732,0.23845391946532604,-0.04574019834399223,0.022039934992790226,0.00529062794521451,0.4502554492279888,0.058601882485672836,-9.91791504263878
6.3,3.0,124.0,22.19510269165039,20.706418991088867,-79.78236700591202,40.45805913660824,268.6587573719025,0.013864387758076193,0.010665830224752426,0.3413600325584412,0.9397698640823364,0.05688357782488925,0.2236569142288767,0.2321079891654436,-0.06772541254758835,0.0401906780898571,-0.036047376692295074,0.4612530751526356,-0.011718258708715441,-9.776763256788254
6.4,3.0,125.0,22.044857025146484,21.620872497558594,-79.78236697480706,40.458059112433254,268.67273180007936,0.01977330818772316,0.007594516966491938,0.34016966819763184,0.9401254653930664,0.06631678679836595,0.1969673019857311,0.2357994470169319,-0.1016012504696846,0.08822938054800034,0.044136390089988715,0.322060910537839,-0.1474728086963296,-9.709804451465606
6.6,3.0999999046325684,132.0,22.081167221069336,21.19942855834961,-79.78236699533899,40.45805952912999,268.70987002372743,0.025525188073515892,0.004489579237997532,0.3383655250072479,0.9406577944755554,0.11651692946643755,0.2224157377130478,0.24201559053990865,0.004806674085557461,-0.060022566467523575,0.08489694446325302,0.495796232521534,-0.04877657304983586,-9.781767303943637
6.7,3.299999952316284,130.0,22.014806747436523,21.73219871520996,-79.78236705817291,40.45805973734257,268.7353696060181,0.023879315704107285,0.0033547142520546913,0.33820948004722595,0.9407618641853333,0.09480608014635647,0.2298929438629747,0.2394865515772855,-0.08891042321920395,-0.14000847935676575,0.10872640460729599,0.40010888725519184,-0.11949176218360665,-9.701052923798562
6.9,3.5,131.0,22.137508392333984,20.55533599853516,-79.78236694226433,40.45806023556053,268.79315487861635,0.026401536539196968,-0.0017745590303093195,0.3363287150859833,0.9413728713989258,0.09039816589489663,0.20974081030213346,0.22149526893586494,0.06880541890859604,0.039018090814352036,0.008113845251500607,0.5493702495843172,0.2736557042039931,-9.754879467487337
7.11,3.5,132.0,21.99602699279785,22.54327964782715,-79.78236662346586,40.45806044132864,268.8240098190308,0.026774052530527115,0.0007815099088475107,0.3360765278339386,0.941453754901886,0.12064545840923208,0.2090124851609869,0.2176124243336084,0.06909641623497009,0.05417411029338837,0.002396368887275457,0.4173269639164209,-0.02639481339370832,-9.639057819843293
7.2,3.5999999046325684,138.0,21.988513946533203,21.461837768554688,-79.78236668139064,40.45806064470708,268.8457619380951,0.02760966867208481,0.004345360677689314,0.3368827402591705,0.9411317110061646,0.09803801529927844,0.21415256937358104,0.19491178955501856,0.016355732455849648,0.07379094511270523,0.051499482244253166,0.39610909938812255,0.025509857861325147,-9.545261464118958
7.3,3.5999999046325684,137.0,21.83952140808105,23.37026405334473,-79.7823668236201,40.45806114650205,268.8908435535431,0.02727573178708553,0.007828859612345695,0.3377397656440735,0.9408117532730104,0.08163406842044406,0.2517570936833797,0.19401551057502586,-0.05821112543344498,-0.06066560745239258,0.024768618866801262,0.5391264759376645,-0.13458371814340353,-9.583054357767104
7.5,3.700000047683716,137.0,22.74350166320801,15.927403450012207,-79.78236693394209,40.45806136102809,268.91227929115297,0.02627991139888764,0.005477190017700195,0.3383854627609253,0.9406246542930604,0.07369076474776234,0.25062740293240043,0.20328222658655465,-0.03617362305521965,-0.04029965773224831,0.00561663042753935,0.4522423696517944,-0.08854373794980347,-9.781322915554046
7.7,3.700000047683716,137.0,21.7744140625,23.632671356201172,-79.78236704714801,40.45806179742103,268.91608969688417,0.031309396028518684,0.009699109941720964,0.3381732702255249,0.9405128955841064,0.08268719558612146,0.2374237118186501,0.043197220150968815,0.008709227666258812,0.10740598291158676,-0.0543455183506012,0.4538658490777016,0.05104554397054017,-9.20553881943226
7.8,3.5999999046325684,138.0,21.470165252685547,26.41579246520996,-79.78236715264165,40.45806200063629,268.92165820121767,0.0339849591255188,0.009905830956995487,0.33761313557624817,0.940619170665741,0.06932066241812243,0.22505227535876346,0.05270897719679795,-0.04269848018884659,0.06417517364025116,-0.014686022885143757,0.5410382596403359,-0.08465367673896254,-9.794311920404432
7.9,3.5,134.0,21.23728370666504,28.79337310791016,-79.78236719930966,40.45806219069321,268.93246237754823,0.03585295379161835,0.0076946672052145,0.33721667528152466,0.9407126307487488,0.06894335047084113,0.23149973023491965,0.16036548115810773,-0.1849793940782547,-0.013913110829889773,-0.005635205190628767,0.4706596736982465,0.02674372086301446,-10.331458200216296
8.11,3.4000000953674316,131.0,21.108322143554688,29.763490676879893,-79.78236738140903,40.45806268329011,268.96843759536745,0.03883723169565202,0.0025198739022016525,0.33843526244163513,0.9401845335960388,0.07471506938051263,0.23701731765231554,0.4443026594829182,-0.05999498069286345,0.010761664249002935,-0.003139527514576912,0.4494251811504365,-0.02105988007038832,-11.370451118946074
8.2,3.299999952316284,131.0,21.03069496154785,30.41553497314453,-79.78236747015275,40.4580628395016,269.0243682098389,0.03963779658079146,0.0023742076009511948,0.3401324152946472,0.9395387768745422,0.05005170001520603,0.2197785064478278,0.6428551227443781,0.005368583835661411,-0.06137324869632721,-0.06707057356834413,0.5701540679857136,0.04974161944817752,-11.652817840576171
8.4,3.2000000476837163,131.0,20.787797927856445,32.78516387939453,-79.78236772039226,40.45806299798471,269.17211596488954,0.03976882621645928,0.005430299788713454,0.3418514430522919,0.9388964772224426,0.01648775676234679,0.19574875148061333,1.0623764297095208,0.04386456310749054,-0.018997969105839733,-0.04520327225327492,0.7085822573304177,0.0940998262166977,-12.036920267343525
8.5,3.0999999046325684,133.0,20.751487731933594,33.810943603515625,-79.78236799353677,40.458063017283685,269.4081174564362,0.03709109127521515,0.013490279205143452,0.343036949634552,0.9384924173355104,-0.005426826894145071,0.1650866654983185,1.5470512830142888,0.09999820590019226,0.006406392436474562,0.019864464178681374,0.6656020794063807,0.04685735698789358,-12.216989951133726
8.7,3.2000000476837163,133.0,20.400915145874023,36.22032928466797,-79.78236802891949,40.458063022086684,269.577532453537,0.036508869379758835,0.016431018710136414,0.3433004319667816,0.938372015953064,-0.005970445966825076,0.14642998977165714,1.8290230251657236,0.14345160126686096,0.03254012390971184,-0.10382754355669024,0.5882197351008654,0.13164380206726492,-12.548162212371825
8.8,3.0999999046325684,134.0,20.33205223083496,36.78490447998047,-79.78236835221641,40.458062934337896,269.94602553367616,0.037961822003126144,0.015575043857097626,0.3420594930648804,0.9387820363044742,-0.03126728805592549,0.13048782303861478,2.396362347353756,-0.1366124004125595,0.05707608163356781,-0.10442055761814116,0.4179450511559844,-0.030686096381396057,-12.745429726839069
9.0,3.2000000476837163,130.0,20.40592193603516,35.87045288085937,-79.78236829488297,40.45806287374207,270.20054332733156,0.04023281112313271,0.010661071166396141,0.3425315022468567,0.93858402967453,-0.011246919778179404,0.10537732069764384,2.6796706718919534,-0.01812204532325268,0.05493822693824768,0.04562174156308173,0.5497312786057592,0.053349858568981286,-12.619850245714188
9.2,3.2000000476837163,134.0,21.08077812194824,28.85698699951172,-79.78236887107074,40.45806277077159,270.6508344841004,0.036856502294540405,0.02027544006705284,0.3423984944820404,0.9386127591133118,0.012609351495184974,0.08622230373119558,2.990490311526512,0.17500144243240354,0.009538433514535429,0.0057825613766908646,0.5503892000019549,0.21314882626757026,-12.306915450096133
9.3,3.299999952316284,135.0,20.99188232421875,29.96228408813477,-79.78236871976536,40.45806264862989,270.95383493423464,0.032982368022203445,0.028482556343078613,0.3426322638988495,0.9384583234786988,-0.017861058515319037,0.044939275343845515,3.072182693538553,0.19800017774105072,-0.007454631850123405,-0.06387141346931458,0.4745552349463105,0.050612790626473725,-10.814035924673083
9.4,3.299999952316284,135.0,21.153396606445312,27.89482307434082,-79.78236983102434,40.458062592068416,271.0787052345276,0.029084190726280205,0.03273555636405945,0.34021857380867004,0.939326286315918,-0.08382728958887709,0.04957122792294962,3.00424454666095,0.03304911404848099,-0.07358171045780182,0.08741940557956696,0.5162338957563043,-0.16979429863393308,-10.496927386522293
9.6,3.5,139.0,21.19721794128418,27.19506645202637,-79.78237062054046,40.4580622631559,271.5592788887024,0.02390350215137005,0.03124842792749405,0.336246132850647,0.9409520626068116,-0.0952579460172237,-0.003133401142369884,2.9608080022210657,-0.030560340732336044,-0.08959856629371643,0.07209447771310806,0.41018199529498817,-0.10584937666542828,-9.949509887695315
9.7,3.5,139.0,21.39754676818848,24.97652244567871,-79.78237038617422,40.45806213702277,271.8552860450745,0.02402531914412976,0.03077426552772522,0.3355174660682678,0.9412246942520142,-0.04314535797171737,-0.04284059996973359,2.965974834251185,-0.03739224001765251,-0.0033095856197178364,-0.058095801621675484,0.4654682598263026,0.12700931721366945,-9.80009364724159
9.91,3.5999999046325684,140.0,21.2773494720459,26.43169593811035,-79.78237109705991,40.458061618931495,272.6294078063965,0.02437661588191986,0.03379332274198532,0.33401912450790405,0.9416449666023254,0.02558886829024988,-0.07803699728131458,2.8581962662919413,0.07355978339910507,-0.01972504518926144,0.0010503246448934078,0.4937378298863769,-0.0039158574817702175,-9.635662341713903
10.1,3.5999999046325684,139.0,21.26357650756836,26.36808204650879,-79.78237249145924,40.4580611160458,272.89445392608644,0.02341437339782715,0.032463900744915015,0.3331577777862549,0.9420210719108582,-0.049663760252348636,-0.07118458403587383,2.8561625634182533,-0.0361960344016552,-0.01840123906731605,-0.08401568979024887,0.4685703173652291,-0.04866818485781551,-9.881583952903748
10.2,3.700000047683716,143.0,21.25356101989746,26.60663604736328,-79.78237218745704,40.45806098166576,273.17980997085573,0.02157159708440304,0.032459236681461334,0.3353689908981323,0.9412803649902344,0.001121799823450051,-0.09772775559873798,2.8751721320639243,0.1068219393491745,-0.033184077590703964,-0.07043227553367615,0.4879044648259878,0.011845171839231623,-9.963512799739838
10.4,3.700000047683716,145.0,21.35247230529785,25.588808059692386,-79.78237347474328,40.45806009550254,273.78505508422853,0.010581432841718195,0.0452897809445858,0.33513957262039185,0.9410198926925659,-0.05973892161885736,-0.10965493202277757,2.9268016412712425,0.11269790679216385,-0.04343636706471443,-0.06620007753372192,0.3647342558205128,-0.03270495950477198,-9.879854346513751
10.5,3.700000047683716,140.0,21.3987979888916,24.96857070922852,-79.78237312715595,40.45805999062116,274.07654039382936,0.007369549479335546,0.050721969455480576,0.33621764183044434,0.9403886198997498,-0.040319545702052685,-0.13451615871509376,2.92737469693442,0.0716211348772049,0.040949515998363495,0.08297817409038544,0.4713944859802723,-0.2458784514293075,-9.87023333787918
10.7,3.700000047683716,138.0,21.314910888671875,25.46953201293945,-79.78237373503552,40.45805919652987,274.72044078826906,0.006916935089975596,0.05002093315124512,0.33064529299736023,0.942403256893158,-0.033257842431878334,-0.11963451889748238,2.9072288444420664,0.0004514797183219344,-0.01876453496515751,0.0299238208681345,0.5406200740858913,-0.3247934971377254,-9.685849578380584
10.81,3.700000047683716,129.0,21.336196899414066,25.15146064758301,-79.78237330225375,40.4580591679158,275.0083636474609,0.005809609778225422,0.04965122044086456,0.32844042778015137,0.943200945854187,0.04124933752087498,-0.11806839575467808,2.8947788572529323,0.025645390152931213,-0.02973207458853722,0.05435273051261902,0.4412996344640851,-0.2070941623672843,-9.594480986595157
11.0,3.700000047683716,130.0,21.38001823425293,24.49941635131836,-79.78237423719982,40.4580583404214,275.6911973190308,0.0020454283803701396,0.046878043562173836,0.3212060034275055,0.9458462595939636,0.04166586048063048,-0.09000917976020126,2.926945999857314,-0.05691785737872124,-0.13246268033981326,0.09042969346046448,0.4865038008615375,-0.3655576899647713,-9.765014446377755
11.11,3.700000047683716,125.0,21.32617950439453,25.67627716064453,-79.78237520057849,40.45805733790283,276.10835639953615,-0.00227236095815897,0.04540815949440002,0.3180580139160156,0.9469805359840392,0.0097178066256709,-0.1112412963306812,2.9821731487636858,0.03673678636550903,-0.09599758684635162,-0.01640285924077034,0.5713737606257201,-0.27013734318315985,-9.781702984571456
11.2,3.700000047683716,123.0,21.26482963562012,25.77169990539551,-79.78237477790323,40.45805735811646,276.40488903045656,-0.008089359849691391,0.04677903652191162,0.3200998604297638,0.9461936950683594,0.07512951446591692,-0.1044439038244881,2.9875353800646125,0.1058247685432434,-0.06692010909318924,-0.12173867225646973,0.5844961550831795,-0.17952623991295694,-9.810646702051164
11.4,3.799999952316284,123.0,21.312406539916992,25.135557174682607,-79.7823747250799,40.45805637429462,277.1328267288208,-0.01857160218060017,0.046752270311117165,0.3232552111148834,0.9449737668037416,0.07810044348619792,-0.11289803043227907,3.040803445090936,0.020996058359742158,-0.11853859573602675,0.007613622583448888,0.5607124226912856,-0.5290969296544791,-9.8095743227005
11.5,3.9000000953674316,121.0,21.3599853515625,24.61869239807129,-79.78237398371519,40.45805581309974,277.84163848876955,-0.021640501916408542,0.04120175540447235,0.32566237449646,0.9443400502204896,0.16256111299008488,-0.09222868980856,3.0837547275876744,-0.013419062830507757,0.0044808825477957726,-0.04063480347394943,0.6756378018110991,-0.35071329049766065,-9.805525710582732
11.7,4.0,119.0,21.358732223510746,24.93676376342773,-79.78237352231122,40.45805606803749,278.1464280319214,-0.019689016044139862,0.03973129391670227,0.32715925574302673,0.9439283609390259,0.2309898334659809,-0.019503421545229268,3.0742522790856834,-0.016690319404006004,0.015026116743683815,-0.04459765926003456,0.6338642699271441,-0.2632969779521227,-9.665250422358511
11.8,4.0,119.0,21.294878005981445,25.07194328308105,-79.78237266877366,40.45805537585978,278.876467628479,-0.017768830060958862,0.034386232495307915,0.3250323534011841,0.9449105262756348,0.3128258757933972,0.0472254326947032,3.0821980974468675,0.10534801334142684,0.004319503903388977,0.025511134415864944,0.5323004729300738,-0.5010455703735351,-9.60968199312687
12.0,4.0,126.0,21.2773494720459,25.588808059692386,-79.78237122442907,40.45805442601594,279.6036614608765,-0.029925964772701263,0.032711464911699295,0.3191048204898834,0.9466818571090698,0.3265948634350349,0.07297872638751718,3.0740238157680047,-0.06781608611345291,-0.21511432528495789,0.05851570516824722,0.7251328743249178,-0.34966199766844513,-9.514621469378472
12.2,4.099999904632568,124.0,21.33995246887207,24.75387191772461,-79.78237080317075,40.45805487844323,279.9066886138916,-0.03555314987897873,0.028266435489058495,0.3182957172393799,0.9469027519226074,0.3447108117966209,0.1298905603205001,3.072083334936564,-0.1211564913392067,-0.20171281695365906,0.0466788224875927,0.5134389997646213,-0.5283082864433527,-9.647490089535713
12.3,4.199999809265137,121.0,21.34621238708496,24.411945343017567,-79.78237044076987,40.45805541831819,280.2089862060547,-0.03967912495136261,0.02185784839093685,0.3187595903873444,0.9467523694038392,0.3768016460795832,0.2004519153439788,3.0761651568105552,-0.1942678540945053,-0.11081170290708542,3.9640919567318626e-05,0.5125189038366079,-0.5517872327193618,-9.750247887969016
12.4,4.300000190734863,121.0,21.3987979888916,24.181344985961914,-79.78236855539231,40.45805469401166,280.9277114105225,-0.03880760446190834,0.009809551760554314,0.3162203133106232,0.9478409886360168,0.4330320272693064,0.23771319128529425,3.0815714659278965,-0.0587630607187748,-0.0874844491481781,0.0014237887226045134,0.4953238505870104,-0.6128582573309541,-9.781828699707985
12.6,4.5,127.0,21.229772567749023,25.7876033782959,-79.78236678350844,40.45805387893432,281.30535404205324,-0.03913454338908196,0.00282801385037601,0.31251606345176697,0.9491018652915956,0.466047543298085,0.21515986728106906,3.0761364033053264,-0.11275075376033784,-0.014575437642633915,-0.01447243522852659,0.4497289805486798,-0.6390936541557313,-9.567129465937617
12.8,4.5,128.0,21.32617950439453,24.55507850646973,-79.78236649698566,40.458055256467404,281.9077452850342,-0.03466793894767761,-0.009126782417297363,0.31752386689186096,0.9475724101066588,0.458058573999212,0.4487745393454395,3.0425966759185625,-0.102225661277771,-0.004171914421021938,-0.014416754245758057,0.4993162563443184,-0.6159032314270735,-9.654257072210314
12.9,4.699999809265137,126.0,21.13211250305176,26.28061294555664,-79.78236394344411,40.458054440328866,282.2729796600342,-0.03288038074970245,-0.012911424040794373,0.3114483058452606,0.9496062994003296,0.5021219421985167,0.4166163754727121,3.0393384070818548,-0.02914101630449295,0.028204066678881645,0.01990649849176407,0.5389459431543947,-0.6396264816820622,-9.64685566663742
13.1,4.699999809265137,125.0,21.298635482788086,24.403993606567386,-79.78236087344028,40.45805474628863,282.9151858520508,-0.028079109266400337,-0.0230769794434309,0.3055265247821808,0.9514897465705872,0.5027745284628646,0.5210622781677593,3.0395732501556494,-0.13925284147262573,0.04120906814932823,-0.040919404476881034,0.5405295518785715,-0.5353359818458557,-9.819254972934724
13.2,4.699999809265137,132.0,21.401302337646484,23.79170799255371,-79.78236102181287,40.45805554452324,283.21527282714845,-0.023560702800750732,-0.02996810339391232,0.3063904941082001,0.951142430305481,0.4358048970828792,0.6500061492412263,3.0406536551013037,-0.21819305419921875,-0.03884834051132202,0.025138672441244125,0.3638542133197189,-0.5060353649407625,-9.82149796485901
13.3,4.800000190734863,138.0,21.342456817626953,24.141586303710927,-79.78235794196753,40.45805651690869,283.8386458587646,-0.009878616780042648,-0.041465658694505685,0.2965138256549835,0.954076886177063,0.4693502407367326,0.7752637117710477,3.024984869793084,-0.05979978293180465,0.12053539603948593,0.010610057041049005,0.4617186596989632,-0.475314970985055,-9.823696517944336
13.5,4.800000190734863,137.0,21.39754676818848,23.29869842529297,-79.78235542904713,40.458058028007,284.44105522155763,0.004851732403039932,-0.05011563003063202,0.2873159945011139,0.956511616706848,0.40151906011940586,0.9183042350105284,2.994309135700436,-0.17683564126491547,0.0972708985209465,-0.06047373265028,0.3891758365184069,-0.6073216019198299,-9.795395409464836
13.7,4.699999809265137,136.0,21.271089553833008,24.69820976257324,-79.78235603983127,40.45805883943592,284.7385920715332,0.012738947756588459,-0.056686926633119576,0.28888827562332153,0.9555981755256652,0.2789419276757337,1.0133443738202548,2.9746538492679195,-0.15676024556159973,0.1334322690963745,-0.022458616644144055,0.4588563014566899,-0.4831390571594239,-9.756269350647926
13.8,4.599999904632568,149.0,21.33369255065918,23.632671356201172,-79.78235684494977,40.45805961226043,285.03482810974117,0.020694378763437268,-0.06310667097568512,0.2915128767490387,0.9542587399482728,0.1756793573337992,1.0855630806566976,2.9682394340285434,-0.12279669940471648,0.134051576256752,0.03058443032205105,0.5255898427963257,-0.6075729591026903,-9.899758268594745
13.9,4.400000095367432,154.0,21.28736686706543,24.66640281677246,-79.78235306686884,40.458060913642136,285.3163279724121,0.02656293846666813,-0.06827068328857422,0.28172460198402405,0.956694722175598,0.2766795000953385,1.0995201561072518,2.9454828375511317,-0.11334020644426344,0.09990755468606947,-0.0235302709043026,0.4955039082840085,-0.4756261890381575,-9.89875839471817
14.1,4.300000190734863,155.0,21.145883560180664,25.668325424194336,-79.78235039690856,40.4580636865784,285.88257781982423,0.038742445409297936,-0.07498760521411896,0.2750994563102722,0.9577036499977112,0.20989573505809844,1.1869006850740411,2.9265819922905263,-0.04296191036701202,0.16368114948272705,-0.16125749051570892,0.4351470845192671,-0.20729927172884344,-9.935034520626068
14.2,4.099999904632568,156.0,21.05824089050293,26.773622512817386,-79.78235146205539,40.45806435904757,286.1777495574952,0.04556822404265404,-0.0780094563961029,0.27770814299583435,0.9564080238342284,0.024915344171623444,1.2129263703665878,2.9569291390402532,-0.033997125923633575,0.1292065680027008,-0.008701828308403492,0.3822231316566467,-0.35412536010146145,-10.070689923763275
14.4,3.799999952316284,170.0,21.08453369140625,26.224950790405273,-79.78234995877156,40.458067631653215,286.7431315612793,0.06643172353506087,-0.08201847225427628,0.2663453221321106,0.9580814242362976,-0.0982632903067523,1.3104806943786451,3.0144430883183886,-0.10826647281646727,0.2797192335128784,-0.05558893457055092,0.3112820070236921,-0.003351706238463521,-10.234176903963087
14.51,3.5999999046325684,175.0,21.039459228515625,26.98036956787109,-79.78235019279242,40.45807042180043,287.31369010925295,0.09024573862552644,-0.07404129207134247,0.2559233903884888,0.9596232771873474,-0.31683037654816715,1.4015620384352243,3.010680169677205,0.09432464838027954,0.2155912071466446,-0.009384774602949621,0.4229697097465396,-0.012204445553943516,-10.156323566436768
14.7,3.4000000953674316,177.0,21.321170806884766,23.529298782348643,-79.78235181611397,40.45807073299529,287.61708633422853,0.09928669780492784,-0.07006362080574036,0.2560808956623077,0.9589869379997252,-0.5644518179409237,1.350341945756762,3.0499013837929865,-0.01572579145431519,0.1733509600162506,-0.04791800677776337,0.3846962846070528,-0.023262105938047173,-10.142511273622514
14.9,3.299999952316284,179.0,21.3987979888916,22.72616958618164,-79.78235252470898,40.45807357916613,288.1841181945801,0.12121432274580002,-0.07389663904905319,0.2428632974624633,0.9596165418624878,-0.7888000866085662,1.3243004209311402,2.9858540193488854,-0.13961902260780334,0.2630688548088074,-0.025361960753798485,0.29673908634111285,-0.057706171274185175,-9.873392003774644
15.0,3.2000000476837163,205.0,21.328683853149414,23.52134704589844,-79.78234661322557,40.458078778320434,288.4131697845458,0.13248972594738007,-0.07898855954408646,0.19857944548130035,0.9678707122802734,-0.5511619250499984,1.5292312333373312,2.8107032422103573,-0.028943771496415138,0.3860231041908264,0.001863636192865669,0.31587484873831273,-0.13596962702460588,-9.416049107909203
15.1,3.0999999046325684,215.0,21.619159698486328,21.032442092895508,-79.7823485567967,40.45808232992985,288.94074813842775,0.16950570046901706,-0.07556334137916565,0.19020408391952515,0.9640437960624696,-0.9218858489684262,1.3265538861449528,2.673162884094844,0.10041725635528563,0.4660294950008392,0.0043512340635061255,0.1837005123496056,0.12485322039574386,-9.259775837659836
15.3,3.0999999046325684,224.0,21.331188201904297,23.529298782348643,-79.78235051517684,40.458082204721045,289.20074073791505,0.1890467405319214,-0.06782406568527223,0.1929116398096085,0.960440754890442,-1.123441111126958,1.1663647208011187,2.596487692715479,0.05126816779375076,0.4444193542003632,-0.09369944781064987,0.35344953160732984,0.3505971501767636,-8.948071296215057
15.4,3.0999999046325684,230.0,21.332439422607425,23.91893577575684,-79.78235276844839,40.45808439690366,289.43749801635744,0.20631124079227448,-0.059195883572101586,0.1858561784029007,0.9588477611541748,-1.2999923578756205,1.1311810531265716,2.487694507284844,0.19169414043426514,0.41071587800979614,-0.02837406285107136,0.4128041060641408,0.21895253498107195,-8.996785034537316
15.6,3.2000000476837163,277.0,21.056989669799805,26.272661209106445,-79.78235050919814,40.458095219208005,289.88789169311525,0.22717136144638064,-0.041203249245882034,0.12362372130155565,0.9650973081588744,-1.593843524724963,1.1604666481481876,2.2375611502662784,0.3697438538074493,0.27754634618759155,0.007179839536547661,0.4646997895091772,0.3375814308598637,-9.178801841139794
15.71,3.2000000476837163,299.0,20.837879180908203,28.67409706115723,-79.78234900421795,40.45810314819608,290.1472090911865,0.231354221701622,-0.031112773343920708,0.08198447525501251,0.9689096212387084,-1.814204007185426,1.3952283950197693,2.075323491986313,0.3698311448097229,0.17950579524040222,0.11239587515592576,0.5333475630730391,0.2527553069405258,-9.446851070523262
15.9,3.4000000953674316,310.0,20.86542510986328,28.03000259399414,-79.78235589224853,40.45810236401567,290.5851420593262,0.2419410496950149,0.01628825627267361,0.08054466545581818,0.9668049812316896,-2.1326346592877456,0.5200764636312938,2.2035460842273973,0.5400961041450499,0.07749056071043015,0.11694680154323578,0.6142292466759682,0.4203401803225279,-9.942672153711321
16.1,3.5,315.0,20.95181655883789,27.505186080932607,-79.78236240427685,40.45810151433662,290.994239730835,0.2436324805021286,0.06708221137523651,0.07319938391447067,0.9647720456123352,-2.2969978632598167,-0.18742611443745452,2.187075627230528,0.5327976346015929,0.0712546855211258,0.09590841829776764,0.8523771308362484,0.4109116912633181,-9.822951582670212
16.2,3.9000000953674316,8.0,20.89797782897949,27.37795829772949,-79.78236459593299,40.45809991186311,291.1816729736328,0.2432275116443634,0.09426609426736833,0.07498039305210114,0.9624616503715516,-2.208053874708936,-0.6298851060136982,2.1950890158926866,0.5803917050361633,-0.0036360067315399647,0.026945173740386963,0.8726635339111091,0.5037859776243567,-9.716642185449599
16.3,4.0,32.0,20.721439361572266,28.77746963500977,-79.78237044996982,40.45809697775668,291.5354441833496,0.2278530597686768,0.14221030473709104,0.07067432999610901,0.9606583118438721,-2.090319710098305,-1.3286313038040802,2.190777281844868,0.4685800671577454,-0.2677810788154602,0.05442285165190697,1.1377258593589068,0.38021030075848106,-9.740215820074082
16.5,4.400000095367432,38.0,20.87293815612793,27.393861770629893,-79.7823717740447,40.458094538417846,291.69667808532716,0.2119421511888504,0.1617320328950882,0.0716594010591507,0.9611390233039856,-1.8513316558641688,-1.7337259420670763,2.2408773410423737,0.3296556770801544,-0.3884499967098236,0.17847837507724762,1.0144093237817289,0.2980493742786348,-9.891209639310835
16.7,4.699999809265137,40.0,21.475173950195312,21.764005661010746,-79.78237541888583,40.458089567390225,291.998483581543,0.17367100715637207,0.18588267266750336,0.06577044725418091,0.9648628830909728,-1.3724845103184191,-2.4345504534818576,2.2399178153046324,0.1784733086824417,-0.3275478184223175,0.10163647681474686,1.2341511963307858,0.3551702940836549,-9.76903382241726
16.81,5.099999904632568,80.0,21.68927383422852,17.120168685913086,-79.78237556748681,40.458086538185576,292.13130943298336,0.1562078595161438,0.19661663472652435,0.06367411464452744,0.9658606648445128,-1.0414589114542565,-2.7296212864750533,2.1752873687615844,0.04295742511749268,-0.4535362720489502,0.03652607277035713,1.6077885688841345,0.05041943508200348,-9.181257086992265
16.9,5.300000190734863,95.0,21.94719696044922,18.392452239990234,-79.78237877217646,40.458084414973435,292.26233474731447,0.10212059319019318,0.15574654936790466,0.0624033585190773,0.9805203676223756,-1.023058373687636,-2.789229096673948,1.9167382419968528,-1.577495813369751,-1.82921302318573,-0.06701067090034485,2.6474029004573825,-0.7087997737526894,-8.179623783230783
17.1,5.800000190734862,92.0,21.50897979736328,21.756053924560547,-79.78238211683173,40.45807972727808,292.48232070922853,-0.12428564578294755,-0.07996104657649994,0.037751797586679466,0.9882985949516296,-0.4304542505458767,-2.992185825876292,0.7694357825936337,-1.631197452545166,-2.0270297527313232,0.4356897175312042,0.8411626828461886,0.660430363342166,-8.939032670259477
17.31,6.0,90.0,21.970985412597656,12.524044036865234,-79.78238226477217,40.45807496344961,292.66351501464845,-0.20497138798236847,-0.0584721751511097,-0.02225394360721112,0.9767664074897766,-0.04302380881412042,-2.503455523921497,0.03927466404948654,2.333138227462769,0.7953188419342041,0.5559521317481995,-1.1181501122564077,2.1641468989849093,-10.852660292387009
17.4,6.5,220.0,21.61415100097656,22.59894180297852,-79.78238884105532,40.45807133851974,292.84874145507814,0.06384214758872986,0.2154678851366043,-0.15787383913993835,0.9615475535392758,0.2431490361402007,-2.2427451194293,0.12279941767440605,2.5612952709198,2.8336644172668457,0.8575003147125244,-1.6316196271777157,1.3450841331481935,-8.774764502048493
17.6,6.599999904632568,207.0,20.18305778503418,35.42515182495117,-79.78239216174626,40.45806832642512,292.91641036987306,0.1656068116426468,0.27448439598083496,-0.2189370393753052,0.9215743541717528,0.4457874247013752,-2.035845471292865,0.7043174691702226,0.454420268535614,1.1983520984649658,1.1222655773162842,1.70802782535553,-1.8775587800145148,-7.0918206471204766
17.7,6.5,199.0,20.363351821899414,31.28227806091309,-79.78239347464644,40.45806726277075,292.97710792541505,0.14990516006946564,0.2467533349990845,-0.2847321927547455,0.9140945672988892,0.7401864842991348,-1.71973177877996,1.284631984874241,-1.6393318176269531,-0.6349092125892639,1.1605483293533323,2.510837962925434,-2.038698541671038,-8.626525306105615
17.9,6.5,194.0,21.45889663696289,20.52352905273437,-79.7824009166537,40.45806383456123,293.13892547607423,-0.02396858669817448,0.09129586070775986,-0.42745769023895264,0.8990944027900696,1.8529889135211584,-1.571066406483124,1.1654348494128492,-1.625949501991272,-0.4378990232944489,1.547478437423706,1.6114883945882321,-1.0351481551676989,-10.087900618314745
18.0,6.5,157.0,21.86330986022949,17.414384841918945,-79.78240984044173,40.45805930078001,293.3052119445801,-0.05996281653642655,0.021101238206028945,-0.5776434540748596,0.8138104081153871,2.472824754891372,-0.8928806666157606,0.5669111991714489,0.0567641630768776,0.2511633634567261,1.6205003261566162,0.3301424569264054,-0.3604342134296894,-10.964856666326522
18.2,6.5,233.0,22.21138000488281,15.124274253845215,-79.78241095030371,40.45805785018412,293.40051071166994,-0.04428539797663689,0.01965782605111599,-0.6454377770423889,0.7622746825218201,2.4995222945255784,-0.3521674356001117,0.4755626700326263,0.4391604661941528,0.2268281579017639,1.5217715501785278,0.2678704324923456,-0.7424225793778897,-9.150636972784996
18.31,6.4000000953674325,218.0,21.99352264404297,16.810050964355472,-79.78241025958856,40.45805573625809,293.45351783752443,-0.035671956837177284,0.02128438092768193,-0.7034672498703003,0.7095128297805786,2.360093470533997,0.1924082769968971,0.4060828844520152,0.14118683338165286,0.07924359291791916,1.4831525087356567,0.2626520666107536,-1.0324656718969345,-8.623521591424941
18.41,6.300000190734862,210.0,21.89210700988769,18.32088661193848,-79.78241653935633,40.45805001861931,293.4346198272705,-0.03952803462743759,0.016218915581703186,-0.7597937583923341,0.6487588286399841,2.2955881449154374,0.4532648534541496,0.3047233840410579,-0.07737348228693007,-0.01493294071406126,1.4572099447250366,0.031242116340436044,-1.243878624290228,-8.563393503427504
18.6,6.300000190734862,242.0,21.894611358642575,17.8835391998291,-79.78242624004606,40.45804109751553,293.41829292297365,-0.06093784421682358,-0.009607206098735329,-0.8543787598609924,0.5159760117530823,2.044664138874365,0.9800791266140484,0.13513624265058974,-0.3485722839832306,0.2379201203584671,1.2823566198349,-0.2697454700991512,-0.4037021474540234,-9.32912381529808
18.8,6.199999809265138,244.0,21.664234161376953,19.489797592163086,-79.78242577406752,40.458037475884645,293.4717578125,-0.0673598051071167,-0.03945250436663628,-0.9211224317550659,0.3813656270503998,1.3130662493134964,1.4913752166268994,0.06784932070842026,0.011207392439246178,0.054562870413064964,1.5574162006378174,-0.4657895277813077,-0.4867939323931933,-10.06974969148636
18.9,6.099999904632568,223.0,21.537776947021484,21.167621612548828,-79.7824332628812,40.45802840074839,293.3351153564453,-0.06793573498725891,-0.05462320148944855,-0.9646763801574708,0.2485973685979843,0.6926419212395492,1.618127302665258,0.13022217811169792,-0.0910460278391838,0.05475775897502898,1.1258621215820312,-0.5003802303224802,-0.3132236115261913,-10.339278266429902
19.1,6.099999904632568,213.0,21.34996795654297,16.881616592407227,-79.78243538109943,40.45802153611036,293.0843371582032,-0.06982439011335373,-0.058185562491416924,-0.9741517305374146,0.2068030685186386,0.3918814180629544,1.6238451056559118,0.1008371737470898,-0.030763080343604088,0.025586392730474472,0.839752197265625,-0.9137624432891608,-0.355931601561606,-10.654750753641133
19.2,6.199999809265138,222.0,22.20136260986328,16.348846435546875,-79.78243477211001,40.458020236110286,293.1137885284424,-0.08992749452590942,-0.056109771132469184,-0.9795504212379456,0.17101413011550906,-0.045568846619275634,1.5225173127547853,0.1475756889854639,-1.142539620399475,-0.2319381237030029,0.7167279720306396,-0.6912701866775751,-1.0986052092164755,-10.106652638912204
19.3,6.300000190734862,213.0,21.57032966613769,21.461837768554688,-79.7824339216397,40.458013770967725,292.8749026489258,-0.22048065066337585,-0.08947361260652542,-0.9618058800697328,0.13532283902168274,-0.7831933146983859,1.2272580273825284,0.0917967459720734,-0.8691586256027222,0.32359832525253296,0.09257154911756517,-0.8905481200665236,-0.5651523962616921,-9.383587705492976
19.5,6.4000000953674325,197.0,21.073265075683594,26.15338516235352,-79.78243243271655,40.45801306521568,292.86508934021,-0.2462948411703109,-0.10530383139848708,-0.954642653465271,0.13002820312976834,-1.1902497888875847,1.0349111329513163,0.3219667908444314,-0.3278888761997223,0.10320735722780228,0.07591164857149124,-0.6671742495149374,0.6510181003063917,-10.151790804862976
19.6,6.4000000953674325,190.0,20.841636657714844,28.03000259399414,-79.78243223590022,40.458008769194,292.54426376342775,-0.250933438539505,-0.10956433415412904,-0.9529283046722412,0.13021454215049744,-1.6047930496825622,0.9397012131870908,0.512599105987247,0.07964366674423218,-0.028636896982789036,0.011459515430033209,-0.7746018536388874,0.3989484342187643,-10.715526713132856
19.8,6.4000000953674325,157.0,20.274457931518555,34.03359222412109,-79.78242679530874,40.45800864011185,292.49741165161134,-0.24749210476875305,-0.10671734809875487,-0.9524144530296326,0.14235800504684448,-2.481102367066231,0.5417444557024663,1.1226857443246605,0.013830719515681269,0.0426335372030735,-0.11441319435834885,-0.8704208343476058,0.438550639115274,-11.410572373867035
20.0,6.4000000953674325,151.0,20.054096221923828,35.71141815185547,-79.7824209986967,40.45800756693521,292.1801585388184,-0.24766166508197784,-0.10978688299655914,-0.9503116607666016,0.1533573716878891,-3.29379156124464,0.23362813051179585,1.827294178803132,0.03045694716274738,0.21053576469421387,0.026336358860135082,-0.9176005556434392,0.6733093674480916,-12.526207087039948
20.1,6.5,140.0,19.94391632080078,35.40129852294922,-79.78241682303383,40.45800669889866,291.93866149902345,-0.24627339839935306,-0.12076126039028168,-0.94886976480484,0.15624472498893738,-3.684157827678011,0.13733244889410956,2.194232020281608,0.10931772738695143,0.34026601910591125,0.082536980509758,-1.0220136277377605,0.926611992046237,-12.700656427145006
20.3,6.4000000953674325,136.0,20.57119369506836,28.92855262756348,-79.7824063744111,40.45800997741735,291.9799880218506,-0.18295204639434806,-0.1497214138507843,-0.9573100209236144,0.16634182631969452,-4.361816438697916,-0.2417677646787244,2.9236584788544784,1.0596672296524048,0.3577430248260498,0.030429145321249962,-0.4817810413241387,1.7707801437377932,-12.572759109735491
20.4,6.4000000953674325,125.0,21.03695678710937,24.05411529541016,-79.78240048700269,40.45801041664442,291.81189910888673,-0.12014871835708618,-0.1529085785150528,-0.966847002506256,0.1654999852180481,-4.761876769431856,-0.3984089255726406,2.8145994100493312,1.3481552600860596,0.218800351023674,0.2789667844772339,-0.5854367528110743,1.4142591793835164,-12.249708631038668
20.5,6.300000190734862,132.0,21.483938217163086,20.01461410522461,-79.7823947285902,40.458012938695,291.86861030578615,-0.04977690428495407,-0.15629956126213074,-0.9728034734725952,0.16354309022426605,-5.13853305433834,-0.7983489480250221,2.4633212711668246,1.2793402671813965,0.316646009683609,0.2518157362937927,-0.7136901656538248,1.3869401107728483,-11.697641426324846
20.7,6.300000190734862,122.0,22.43048858642578,13.07271671295166,-79.78238320225823,40.45801737785357,291.8121585083008,0.058278504759073264,-0.1845303326845169,-0.9693268537521362,0.1515175700187683,-5.414591888118124,-1.6887116952651202,1.3005900332640674,0.713354229927063,0.7207093834877014,0.13193830847740173,-0.5458427705615759,0.959951134622097,-10.036974878311158
20.8,6.199999809265138,118.0,22.475563049316406,13.454401016235352,-79.78237801694753,40.45802075727189,291.85447875976564,0.09884366393089294,-0.2136124670505524,-0.9607317447662354,0.14694952964782715,-5.2750570464610655,-2.18427487990881,0.8869959512125926,0.6718202233314514,0.7085765600204468,0.05106367915868759,-0.2647007847949863,1.2994814059138298,-8.872532286643981
21.0,6.099999904632568,143.0,21.832008361816406,18.17775535583496,-79.7823676251653,40.458026279773506,291.6522807312012,0.16668201982975006,-0.23449337482452395,-0.9461284875869752,0.14856301248073578,-4.765216173722023,-3.0341993020870937,0.2392103377641696,0.6627626419067383,-0.05411333590745926,-0.033668022602796555,0.5593153766915202,0.5845282416790724,-8.115150044560432
21.1,6.0,143.0,21.54904556274414,20.579191207885746,-79.7823634884012,40.45803024452733,291.6039427947998,0.1898774057626724,-0.2182345986366272,-0.9441142678260804,0.15801455080509186,-4.455434900122255,-3.459700361098597,-0.004024090498701893,0.5418910980224609,-0.3846494555473328,-0.10081864148378372,0.46537452165037396,0.6008879836276174,-8.363164958953858
21.3,5.699999809265138,132.0,21.38252258300781,21.565210342407227,-79.78235487527141,40.45803724897321,291.3190745544434,0.21942399442195887,-0.16098599135875702,-0.946216344833374,0.17496135830879211,-3.7557614838906006,-4.078907950974114,-0.5872722181986002,0.33604225516319275,-0.5631316900253296,0.006993929855525494,0.3801246025040746,0.22481714610010387,-9.321863327622417
21.4,5.5,126.0,21.000646591186523,33.795040130615234,-79.78235017967695,40.458040600175735,291.1557635498047,0.2299171835184097,-0.13491882383823395,-0.947174906730652,0.1783110499382019,-3.4265649228307486,-4.230620427653111,-0.8949166821641835,0.2568152844905853,-0.4857980012893677,0.05988504737615585,0.21825192891061307,0.3445551491528749,-9.602415073513985
21.6,5.199999809265137,126.0,21.23352813720703,22.14569091796875,-79.78234404263898,40.45804888169011,290.91756050109865,0.17199808359146118,-0.013720311224460602,-0.9605778455734252,0.2179876267910004,-2.819663704356893,-4.189108561721313,-1.2445681923772796,-1.159423828125,-2.599411964416504,-0.8063472509384155,1.4098573954403402,-0.3441125149279833,-10.451226718425753
21.8,5.0,125.0,20.459760665893555,31.767335891723643,-79.78234106301903,40.458057458160475,290.7105082702637,0.0664491206407547,0.055562719702720635,-0.9443621039390564,0.317297101020813,-2.9447819528653563,-3.3848061472050412,-1.8283534876309129,-0.17239131033420566,0.7645677924156189,-0.9827795028686525,-1.2021196373552083,0.8536649800837041,-11.123904440402985
21.9,4.599999904632568,114.0,20.4384765625,30.59047508239746,-79.78233618356771,40.458060900377504,290.74675933837887,0.10069607943296432,-0.0017166029429063199,-0.9316664934158324,0.34907740354537964,-3.277226774677433,-2.9669807872533482,-1.4529218347101849,0.6430740356445312,1.4649529457092283,-1.0702341794967651,-0.5925242725387216,1.081874790340662,-11.394862074851993
22.0,4.400000095367432,108.0,20.483549118041992,31.04372596740723,-79.78233529013343,40.458064898995,290.6811961364746,0.16311006247997284,-0.06276115775108337,-0.9020140767097472,0.3947489559650421,-3.1793882923539782,-2.953005629156552,-0.9900891059217912,0.7563348412513733,1.2632297277450562,-1.1655060052871704,0.42943903259933,0.6742183171212673,-11.474634468555449
22.2,3.9000000953674316,79.0,20.41468620300293,30.39963150024414,-79.78233196958723,40.45807318203245,290.54474060058595,0.20397113263607025,-0.10898760706186296,-0.8349562287330627,0.499365359544754,-3.3137586468912925,-2.654815999404394,-0.3384948820690916,-0.038853004574775696,-0.4964170753955841,-1.3679893016815186,1.3648420210182668,-0.11716996075585485,-11.719727529287338
22.3,3.700000047683716,67.0,20.638803482055664,28.276508331298828,-79.78233225652251,40.45807696601976,290.51566497802736,0.1739378422498703,-0.09449529647827147,-0.8014705777168274,0.5643236637115479,-3.409312308405277,-2.4256268237440004,-0.07599191495074538,-0.10607581585645676,-0.9829252362251282,-1.3665648698806765,0.8483019138872624,-0.040811938997358084,-11.939840115308762
22.5,3.299999952316284,58.0,20.800317764282227,26.84518814086914,-79.78233238418609,40.458084994705075,290.4209937286377,0.12506261467933655,-0.05670449882745743,-0.7149474620819092,0.6855611801147461,-3.707965642862721,-1.8230884832569398,0.1324143573266945,0.26812273263931274,-0.4057353734970093,-1.55301034450531,0.2953290668316186,0.3538813484832645,-11.889592652320864
22.61,3.2000000476837163,54.0,20.866676330566406,26.7497673034668,-79.78233265364626,40.45808929820718,290.3280696105957,0.12185467034578325,-0.048070915043354034,-0.6612067222595215,0.7386787533760071,-3.8456898995169433,-1.4177460937923425,0.12438270497160715,0.29123902320861816,-0.14618146419525144,-1.4523895978927612,0.2056564051285386,0.27431214552372696,-11.630566846132279
22.8,3.0,20.0,20.8917179107666,26.12157821655273,-79.78233609503691,40.458095976541394,290.38211433410646,0.13003675639629364,-0.0451609343290329,-0.5385156273841858,0.8312954306602478,-3.872021593399456,-0.6265841642320007,0.20897143404691151,0.2724808156490326,-0.00025878378073684866,-1.522326946258545,0.5096872069314122,0.30896230693906546,-11.1109961271286
23.0,3.0,9.0,20.9993953704834,24.6027889251709,-79.7823393162614,40.458103014974384,290.29049865722664,0.13396748900413513,-0.04707961156964302,-0.4084470272064209,0.9016690850257874,-3.7583600872998857,0.16584061277530804,0.22381833008738167,0.1961262822151184,-0.013191602192819118,-1.4313549995422363,0.6011883843317628,0.4524086133018136,-11.01776812076569
23.1,3.0,7.0,20.96558952331543,25.382062911987305,-79.78234102481666,40.458106665130224,290.14331047058107,0.13378161191940308,-0.048046138137578964,-0.3470526337623596,0.9270105361938475,-3.6556236707444665,0.5367252255227648,0.16070576651401558,0.11060313880443573,-0.025592537596821785,-1.4114471673965454,0.5870877141505481,0.6707618817687035,-10.776795008182528
23.2,3.0,5.0,21.01191520690918,24.268814086914066,-79.7823434461916,40.45810928999777,290.1858786773682,0.13448171317577362,-0.04813719540834427,-0.2910643219947815,0.945980429649353,-3.4814358912799417,0.7993192359239765,0.2106928098289994,0.15448787808418274,0.03731723874807358,-1.0567795038223269,0.6703176395595074,0.5508907449245453,-10.719242033958436
23.4,3.0999999046325684,346.0,20.83913230895996,32.419384002685554,-79.78235097769101,40.45811832540778,290.0820635986328,0.13230407238006592,-0.049439139664173126,-0.19014959037303925,0.9715424180030824,-3.178927603674792,1.1669315239267806,0.1941499081974304,-0.2610986828804016,-0.08509388566017151,-0.2948471009731293,0.5662890949845314,0.6776613769680262,-10.435439236164092
23.6,3.2000000476837163,344.0,20.55241203308105,29.23072052001953,-79.78235408857385,40.45812098429359,290.0176219177246,0.13313883543014526,-0.07923757284879683,-0.17982468008995056,0.97142094373703,-3.2052357502977586,1.125973409862792,0.27940773893813964,-0.6613152623176575,0.6056888103485107,-0.3264049291610718,0.2190056532807648,0.3012884211167693,-10.9805950319767
23.7,3.5,344.0,20.48104476928711,29.914573669433594,-79.78235722829609,40.45812284565278,290.06441108703615,0.1522284299135208,-0.1212507039308548,-0.17619797587394714,0.9649244546890259,-3.221747666524576,0.970531970092351,0.583579264080331,-0.5374963283538818,0.7356250882148743,-0.15809449553489685,0.6310216460376978,0.8209568251669407,-10.932824449539185
23.9,3.700000047683716,343.0,20.349580764770508,31.767335891723643,-79.78236516568633,40.45812608964221,290.1156825256348,0.1879046261310577,-0.14472132921218872,-0.1871087700128556,0.9532774686813354,-3.4693000600232744,0.5137312469519179,1.1034614849874298,0.22376444935798645,0.3088692128658295,0.17657630145549774,0.8205842113494873,0.9684306936711072,-10.54847176194191
24.0,4.0,336.0,20.3846378326416,30.24854850769043,-79.7823692109654,40.458127329887034,290.1599806976318,0.2004839926958084,-0.12716414034366608,-0.1938110738992691,0.951878547668457,-3.5964848984318536,0.14905659886285916,1.2583119297217829,0.4959446787834168,0.14784502983093262,0.3399241864681244,0.8346257150173187,0.77096949018538,-10.432532000541688
24.1,4.199999809265137,347.0,20.596233367919922,27.37795829772949,-79.78237284403984,40.45812870118072,290.2379340362549,0.21054157614707947,-0.10029055178165436,-0.2021849155426025,0.9511758089065552,-3.702614350606407,-0.1821932666491861,1.2681665909269133,0.5805516839027405,0.06674051284790039,0.2340412139892578,1.0048627209663392,0.6168596897274256,-10.614288021326066
24.3,4.599999904632568,346.0,20.638803482055664,27.012176513671875,-79.78238210360314,40.45812989203424,290.32463638305666,0.22113105654716486,-0.03647749498486519,-0.21307578682899475,0.9509833455085754,-3.800159318307162,-1.0117649508623612,1.1175484503300028,0.5124024152755737,-0.17601118981838226,0.12661945819854736,1.3188114237785342,0.5685486418381334,-10.011472831964491
24.4,4.900000095367432,344.0,20.867929458618164,25.14350891113281,-79.78238661923727,40.45813044568752,290.46069328308107,0.21385908126831046,-0.006735324859619141,-0.2195685654878617,0.9518448114395142,-3.7514721507426847,-1.331245535864106,0.9662223574674806,0.48462897539138794,-0.34427836537361145,0.09844442456960678,1.3449999332427978,0.5718070393055678,-9.808604854345322
24.6,5.300000190734863,25.0,21.016923904418945,23.99845314025879,-79.78239668570406,40.458130155952674,290.62709228515627,0.19403614103794092,0.04861337691545488,-0.2255129367113113,0.9534834027290344,-3.4723325877490514,-2.0003546571194724,0.6658373667399701,0.4848783016204834,-0.2657880783081055,0.13059966266155246,1.2881005315482617,0.3944776165857911,-9.641116039752962
24.7,5.599999904632568,54.0,21.23728370666504,21.597017288208008,-79.78240136070755,40.45812961041533,290.6550769042969,0.1871375888586045,0.0731828585267067,-0.2251521348953247,0.9533783793449402,-3.2238767151065044,-2.2765415771519684,0.4906005613587353,0.3921652734279633,-0.20556879043579104,0.11356418579816815,1.3642039436101914,0.2877453194931149,-9.54641395032406
24.9,6.099999904632568,50.0,21.229772567749023,22.042316436767575,-79.7824109625703,40.458127617036816,290.7469672393799,0.1750972867012024,0.1144016608595848,-0.2239351570606232,0.9518961906433104,-2.687846224142852,-2.6610008706468267,0.19268663330650687,0.2633762061595917,-0.3285023272037506,0.23744237422943115,1.3606222316622736,0.12485548619180918,-9.329616735577584
25.0,6.4000000953674325,47.0,21.214746475219727,22.447856903076172,-79.78241503185622,40.45812638861807,290.74971954345705,0.16599737107753754,0.13355858623981476,-0.2214342355728149,0.9516164660453796,-2.3303437362199246,-2.7950594410912983,0.08817705819030103,0.3177756667137146,-0.3611864149570465,-0.021487213671207428,1.5945845326781274,0.34285667918622503,-9.434098293185237
25.21,6.800000190734862,92.0,21.258569717407227,22.51942443847656,-79.78242300510738,40.45812284347994,290.7932318878174,0.14100754261016846,0.17051126062870026,-0.2142042815685272,0.9513986110687256,-1.6134716529454438,-2.9585362847569225,-0.05480931369431613,0.27014440298080444,-0.35728901624679565,-0.10035447776317596,1.6447159284353257,0.2027018801495433,-9.597913302183153
25.3,7.0,105.0,21.23102378845215,22.153642654418945,-79.78242606881416,40.458121031220045,290.7742003631592,0.12374795228242876,0.18215520679950714,-0.2096897214651108,0.9526469111442566,-1.2231590882442658,-2.9715158960722072,-0.13126504937569256,0.07574360817670822,-0.4399169385433197,0.07030118256807327,1.6378013035655024,-0.11453206250444055,-9.667263618707658
25.5,7.400000095367432,101.0,21.14463233947754,23.48158836364746,-79.78243195236327,40.45811655251666,290.7944277954102,0.09048642963171004,0.18915201723575592,-0.19965174794197085,0.9571692943572998,-0.5132301293435626,-2.9178765539336213,-0.16608219983026168,-0.026467883959412568,-0.426517128944397,0.11825580894947052,1.4665604768693448,-0.19364523746073248,-9.943137592077257
25.6,7.5,99.0,21.296131134033203,21.4379825592041,-79.78243460190126,40.45811395671621,290.834306640625,0.07568804919719696,0.1913464367389679,-0.1947908103466034,0.9590173959732056,-0.20446126460531167,-2.8572475602200686,-0.12542473146268787,0.00907841231673956,-0.31447193026542664,0.0847831442952156,1.6294729681313038,-0.17691463585942985,-10.2195424926281
25.8,7.699999809265138,124.0,21.13711929321289,23.13966178894043,-79.78243694982848,40.45810942206005,290.76737205505367,0.036808714270591736,0.20259921252727509,-0.1803415268659592,0.9618085026741028,0.5015119990143607,-2.5794535485406818,-0.06190110768360362,0.02140031009912491,-0.554974377155304,-0.09358552098274232,1.6728072680532933,-0.27926102785393603,-10.389174896478654
25.9,7.699999809265138,126.0,21.099557876586914,23.61676788330078,-79.7824386577344,40.45810667206957,290.839641494751,0.010141677223145962,0.2040822058916092,-0.17452329397201538,0.9632182121276855,0.7426270716012991,-2.436757072016822,0.0015234927747922455,-0.07705751061439514,-0.6497166156768799,0.04984988644719124,1.619140645712614,-0.6355285336822272,-10.59715217113495
26.1,7.699999809265138,121.0,21.085786819458008,23.71219062805176,-79.78243977416817,40.458101773106364,290.9001940917969,-0.04341637343168259,0.19104672968387604,-0.16281113028526306,0.9670102000236512,1.2505222260755249,-2.021968175586735,0.09989927216022272,-0.3756501972675324,-0.6299447417259216,0.14224088191986084,1.2811834216117859,-0.6027869034558535,-10.902527686357498
26.3,7.699999809265138,118.0,20.841636657714844,25.962541580200195,-79.78243763540819,40.45809796774277,290.87401000976564,-0.08598039299249649,0.1699373722076416,-0.1555408090353012,0.9692965149879456,1.7942146482568757,-1.3804655970747577,0.2721351990792592,-0.3108294308185577,-0.1852601766586304,0.08324065804481506,1.0784434980154038,-0.8989531271159651,-11.128478132486343
26.4,7.599999904632567,134.0,20.91550636291504,25.262784957885746,-79.78243733697369,40.458095499092096,290.9542311859131,-0.09737654030323027,0.15706516802310946,-0.15983182191848755,0.969691812992096,1.94433249583608,-1.1328341509555655,0.3936875860425207,-0.2359859198331833,-0.3085707426071167,0.2557841241359711,1.2029052107781173,-0.8381112402677536,-11.278660358190534
26.5,7.599999904632567,140.0,20.941801071166992,25.50929069519043,-79.78243528743597,40.458094134072155,290.9599036407471,-0.1045447364449501,0.1446356624364853,-0.16395816206932068,0.9701899886131288,2.143894557624104,-0.7480956353457442,0.5293561257408329,-0.3056078851222992,0.0008398243808187544,0.1238190531730652,1.2796853649616242,-0.7495257769525051,-11.27176766037941
26.7,7.300000190734862,134.0,20.56743621826172,28.316267013549805,-79.78243110087543,40.45809140564261,291.0375422668457,-0.11557696014642715,0.11807982623577118,-0.1799578070640564,0.969698131084442,2.4051099969382017,-0.02037673409392643,0.8022861293639333,-0.31159743666648865,-0.17115671932697296,0.2116080224514008,1.1415497922152282,-0.6660040754824877,-11.30604988574982
26.8,7.199999809265138,130.0,20.77652931213379,26.86109161376953,-79.78242810918285,40.45809087282025,291.06516639709474,-0.12174875289201735,0.10224364697933196,-0.1871514618396759,0.9693801999092102,2.521056128950787,0.3966543187915818,0.9539420106375784,-0.2361396551132202,0.09001201391220093,-0.06573742628097534,1.4858836242556572,-0.6877920435369015,-11.503311553001403
27.0,6.9000000953674325,138.0,21.149641036987305,23.06014442443848,-79.78242219411277,40.45808966037145,291.1728800964356,-0.1305968463420868,0.07991791516542435,-0.2073607295751572,0.9662086963653564,2.575932228956855,1.1551482448763664,1.2096040889747866,-0.18484371900558472,-0.04124161601066589,0.3570675551891327,1.2110131792724133,-0.488927179388702,-11.536248918771744
27.1,6.800000190734862,142.0,20.904237747192386,25.191219329833984,-79.78241909349659,40.458088922043984,291.22193519592287,-0.1344374716281891,0.07019133865833282,-0.21794557571411133,0.9641056060791016,2.5452409464908645,1.4776794476392938,1.280204951133304,-0.19861212372779846,-0.1792696863412857,0.2866697311401367,0.6191748947650194,-1.3258207735419274,-10.968911125659943
27.3,6.599999904632568,134.0,21.20097541809082,23.00448226928711,-79.78241145632296,40.458090481799296,291.3371257019043,-0.14389918744564054,0.040737677365541465,-0.2263376563787461,0.9624992609024048,2.3918009825844777,2.24911252542782,1.4455434615618832,-0.3675360381603241,-0.010301928035914898,0.08007826656103134,0.4056457253918052,-1.2047512498497963,-10.636234960556033
27.4,6.4000000953674325,129.0,21.337448120117188,21.056297302246094,-79.78240804141059,40.45809063041981,291.37356941223146,-0.14621008932590485,0.02087065391242504,-0.2289995551109314,0.9621570706367492,2.3093779893965665,2.529648053928713,1.4069312742325266,-0.4421631991863251,0.035739656537771225,-0.014421747997403143,0.25981099588796497,-1.1889110695570708,-10.362541998624804
27.6,6.199999809265138,135.0,21.27359390258789,21.461837768554688,-79.78240103579476,40.45809272622238,291.4793776702881,-0.14371085166931152,-0.019682006910443302,-0.2246169000864029,0.9635907411575316,2.066597830426074,3.087514798979212,1.2324267134380948,-0.39261919260025024,0.14472872018814087,0.01060233823955059,0.2443459510244429,-0.85798314884305,-9.828343884944916
27.7,6.0,139.0,21.281105041503906,21.70834350585937,-79.78239719732673,40.45809475840285,291.5216674041748,-0.14153069257736206,-0.03929290920495987,-0.2190513610839844,0.9645940065383912,1.909915367003428,3.3899449310140177,1.1586912441983899,-0.30511507391929626,0.2643561065196991,-0.2009741812944412,0.4348003811761737,-0.8064517834782601,-9.921647905111314
27.81,5.699999809265138,131.0,21.357481002807614,21.533403396606445,-79.7823903272758,40.45809891718781,291.64677421569826,-0.1340676248073578,-0.07391242682933807,-0.20843519270420074,0.9659801721572876,1.5495639104757717,3.826426662080232,0.9939377567422104,-0.3187735378742218,0.09238462150096892,-0.05343708023428917,0.13408904369920496,-0.6188117826730013,-9.761401451826096
28.0,5.5,127.0,21.077022552490234,23.990501403808594,-79.78238690042012,40.45810177228617,291.6724242401123,-0.13296282291412356,-0.08945823460817337,-0.20155328512191767,0.9662786722183228,1.3239817162403291,4.065923948553487,0.9373105332775408,-0.2778489887714386,0.11634082347154615,-0.053353551775217056,0.15194850509986282,-0.7829597175121308,-9.890208595991137
28.2,5.099999904632568,131.0,21.009410858154297,24.85724449157715,-79.78238013736174,40.45810827166171,291.7970389556885,-0.13480709493160248,-0.11980942636728288,-0.1898257732391357,0.965110957622528,0.8641793099274206,4.4809744655162085,1.0140459662040873,-0.3694866597652435,0.00847833976149559,0.05049988999962807,-0.1184106302820146,-0.6529517014324665,-10.19213659286499
28.31,4.900000095367432,130.0,20.941801071166992,27.07579040527344,-79.78237738893209,40.45811200335057,291.8164653015137,-0.13423895835876465,-0.13472473621368408,-0.1843816488981247,0.964278280735016,0.595556703725127,4.679611690249144,1.0945516814001326,-0.27009841799736023,0.09971000999212264,0.009164799936115742,-0.011681549157947302,-0.6048266315460206,-10.463176088333132
28.4,4.599999904632568,121.0,20.50107765197754,29.85095977783203,-79.78237276803388,40.4581202970665,291.95574562072755,-0.12675315141677854,-0.1626501977443695,-0.17710107564926147,0.9623481035232544,-0.001721609565366003,5.040651961803613,1.3780030019955951,-0.17689074575901031,0.19434423744678492,-0.015958508476614952,-0.0669832905381918,-0.3555184592306614,-11.072426723241806
28.7,4.5,116.0,20.443483352661133,29.61240577697754,-79.78236955368251,40.45812957948887,292.09309761047365,-0.09494127333164216,-0.16632013022899628,-0.17955650389194489,0.964926540851593,-0.6588470737368005,5.32166972108496,1.7100265878314451,0.2800358533859253,0.4623079895973206,0.1761561781167984,-0.23853047478944064,-0.061434465609490875,-11.662335938215255
28.8,4.099999904632568,115.0,20.653827667236328,27.55289649963379,-79.78236862814752,40.45813467455729,292.1448706817627,-0.06973801553249359,-0.15660318732261658,-0.1835308372974396,0.967950701713562,-1.0704987469136975,5.457525971434461,1.7572132598579533,0.3664286434650421,0.4782210886478424,0.06125088781118392,-0.0818780491501093,0.05251141352578998,-11.67408416390419
28.9,4.0,113.0,20.83913230895996,25.70013236999512,-79.7823679482953,40.45813989393276,292.2413520050049,-0.04442557692527771,-0.14717541635036469,-0.1893462836742401,0.96980082988739,-1.47813553449186,5.542388726337391,1.6805732952618944,0.23338583111763,0.3764198124408722,0.11534546315670012,-0.1146333289705217,0.056263937260955584,-11.392987457513811
29.1,3.700000047683716,100.0,20.877944946289066,25.88302421569824,-79.78236798439795,40.45815094181737,292.3681201171875,-0.010393145494163036,-0.13355781137943268,-0.20046669244766235,0.9704985618591307,-2.277971787066309,5.565909354849064,1.3941508088629564,0.08114122599363327,0.2045769989490509,0.05022364109754562,0.0030674219224601984,0.16000900151208045,-10.690569627285004
29.3,3.5999999046325684,93.0,21.088289260864254,23.29869842529297,-79.78236916402476,40.4581620454744,292.52114097595216,0.01333647221326828,-0.13458892703056335,-0.20784272253513336,0.9687670469284058,-2.9348226011773657,5.414065412676791,1.278287395520176,0.014650143682956697,0.19375652074813848,0.10785774141550064,-0.06769509768113494,0.05066393092274666,-10.501574753522872
29.4,3.5,91.0,21.112079620361328,23.25893783569336,-79.78237087803024,40.45816801244411,292.57346145629884,0.0244851466268301,-0.1382795125246048,-0.2085358649492264,0.9678802490234376,-3.2490770079236784,5.293140946929019,1.2147957661318292,-0.03499317541718483,0.21305784583091736,0.06903519481420517,-0.1422163993678987,0.22966346461325884,-10.238385729789734
29.5,3.4000000953674316,90.0,21.11082649230957,23.4179744720459,-79.78237228287217,40.458173572191036,292.65073768615724,0.03554394468665123,-0.1400129497051239,-0.2095744162797928,0.9670634269714355,-3.483488293403831,5.176300433400363,1.1688652633882664,0.08989150822162628,0.2051322311162949,0.009513010270893574,-0.1640580338984728,0.3970294145867229,-10.10389976978302
29.71,3.4000000953674316,74.0,21.24104118347168,22.257015228271484,-79.7823765515743,40.45818499471442,292.7855185699463,0.05417601764202118,-0.13107606768608093,-0.2095079869031906,0.9674659967422484,-3.953278141517072,4.884144474328193,1.0231554441599355,0.19915804266929624,0.10557062923908234,0.057917121797800064,-0.02817255196161568,0.39278963506221776,-10.00406674861908
29.81,3.299999952316284,66.0,21.282358169555664,21.92304039001465,-79.78237883579251,40.45819041568303,292.85583869934084,0.05875615775585175,-0.12025308609008788,-0.20903794467449188,0.968705415725708,-4.143699914592143,4.726465088110364,0.9212096736622776,0.2654478847980499,-0.004409380257129668,0.034460902214050286,0.03867748601362109,0.3866565636545421,-9.817589685916902
30.0,3.4000000953674316,59.0,21.403806686401367,20.610998153686523,-79.78238403692447,40.458201611758746,292.9929103088379,0.06755466759204865,-0.10415428876876832,-0.2047804594039917,0.9709033966064452,-4.451111152890535,4.4193189001215964,0.7118185176409807,0.08846078813076019,0.1490040272474289,-0.04222222790122032,-0.07912910861894489,0.4630324559658766,-9.564093006849287
30.1,3.4000000953674316,54.0,21.417579650878906,20.65870857238769,-79.78238768721604,40.458207108338726,293.06794921875,0.07501672208309174,-0.1025434508919716,-0.20104774832725525,0.9713069200515748,-4.583855164257021,4.262331972212756,0.6004982337493636,0.038833759725093835,0.1722218245267868,0.011395816691219808,-0.16874823175370693,0.4866809714958072,-9.375526733994484
30.3,3.5999999046325684,42.0,21.67800521850586,17.98691177368164,-79.78239419094602,40.45821713382072,293.15669052124025,0.08801061660051346,-0.09664815664291382,-0.1937880665063858,0.9722959995269777,-4.7224997762884255,3.9396021545208932,0.3607173170241657,0.22361089289188385,0.14619076251983645,-0.10538987070322037,0.1367879814002663,0.7108739273250103,-9.238443440794946
30.5,3.5999999046325684,37.0,21.816984176635746,17.167879104614258,-79.78240194688966,40.458227182954886,293.2502211761475,0.09002697467803955,-0.07689112424850464,-0.1878174990415573,0.9750423431396484,-4.851954665228484,3.6408762061216713,0.06333920178093083,0.2246982306241989,-0.06348487734794618,-0.08230475336313248,0.06562379462644458,0.7448927356302738,-8.753819775581361
30.6,3.700000047683716,33.0,21.77316093444824,17.485950469970707,-79.78240643501884,40.4582319829723,293.3140238952637,0.0891742929816246,-0.062272608280181885,-0.18485043942928314,0.9767295122146606,-4.889155720437104,3.4756977574353223,-0.08834625716335931,0.3063703775405884,-0.1560857743024826,0.05623066052794457,0.093274948541075,0.5946015689894557,-8.583740644454956
30.72,3.799999952316284,26.0,22.043603897094727,15.641139030456545,-79.78241029089591,40.45823646113463,293.3130072784424,0.08712213486433029,-0.044016901403665536,-0.1821030080318451,0.9784225821495056,-4.879140841208746,3.3254708334676475,-0.3046719701451589,0.3330897390842438,-0.17475487291812894,-0.0014162982115522027,0.16779955755919218,0.7227193629741671,-8.594514724016191
30.81,3.799999952316284,18.0,21.98350715637207,15.402585983276367,-79.78241873141019,40.45824516128752,293.3036250305176,0.0804857388138771,-0.0029517197981476784,-0.17769528925418854,0.9807842373847958,-4.752560292491318,3.0545850958104905,-0.8070598071108559,0.3703834712505341,-0.07682788372039795,0.014616861939430237,0.07339687754865735,0.6662815258651972,-8.413687241077424
31.1,3.799999952316284,14.0,21.94719696044922,16.39655876159668,-79.78242710168672,40.458253282881046,293.2305392456055,0.07607603073120117,0.031440962105989456,-0.17393936216831207,0.9813098907470704,-4.498786416298887,2.8187627557341366,-1.3480988759261696,0.3637217581272125,-0.11314421147108078,0.014609369449317457,0.30790352236479523,0.4744057654961944,-8.213185631632806
31.2,3.9000000953674316,289.0,21.77190971374512,17.827877044677734,-79.78243087789002,40.45825716187211,293.1571063232422,0.07558222860097885,0.04655497148633003,-0.1716129034757614,0.9811569452285768,-4.320872395637288,2.7344010595490484,-1.5918215809391862,0.25715774297714233,-0.05181533098220825,0.034228190779685974,0.2312429437413812,0.2975713461264968,-8.350790496468544
31.3,3.9000000953674316,250.0,21.63167953491211,19.43413543701172,-79.78243454341292,40.45826093052072,293.06885139465334,0.07508949190378189,0.05799218639731407,-0.16913698613643646,0.98101544380188,-4.115557085084548,2.6625666738270763,-1.811664211034776,0.15494978427886966,-0.08110824227333069,-0.026619235053658485,0.3919285594671965,0.3992914099618793,-8.467099801898003
31.5,3.799999952316284,244.0,21.358732223510746,22.034364700317386,-79.7824423515233,40.458268263279024,292.899642868042,0.0675441101193428,0.07643482834100722,-0.16319352388381958,0.9813070297241212,-3.68604710002747,2.569636851300736,-2.0285158893285002,0.14074565470218658,-0.1954246312379837,-0.04904110729694368,0.4197428141534328,0.2760321588255465,-9.052799021601675
31.6,3.799999952316284,241.0,21.155900955200195,24.21315193176269,-79.78244941414334,40.45827495887141,292.73145095825197,0.03793513774871826,0.08563872426748276,-0.1563602238893509,0.9832489490509032,-3.2346692390001976,2.601283541329491,-1.9565336898400767,-0.07170495390892029,-0.44555023312568665,0.06278689950704575,0.6015181307494639,0.3239080459624529,-9.527829160094262
31.8,3.700000047683716,223.0,21.188453674316406,23.473636627197266,-79.78245219529137,40.45827826631119,292.62074844360353,0.015628915280103683,0.08699678629636765,-0.15436573326587674,0.9840521216392516,-3.015895543167085,2.7005238278195427,-1.8003456382337952,-0.12741351127624512,-0.44625091552734375,-0.13637232780456546,0.3871006962284446,0.6398474333435298,-10.128435856103897
32.0,3.5999999046325684,233.0,21.099557876586914,24.70616149902344,-79.78245793529554,40.45828475863573,292.4941901397705,-0.01944090984761715,0.08572408556938171,-0.15321919322013855,0.9842750430107116,-2.6688641665320785,2.9387580657807817,-1.3426961771815928,-0.10829998552799223,-0.2776700258255005,-0.03202706947922706,0.4319076539576054,0.3525973364710808,-10.521744139194489
32.1,3.299999952316284,229.0,20.830368041992188,27.29048728942871,-79.78246118787519,40.45828790238253,292.46077911376955,-0.03409968316555023,0.08042053878307343,-0.1545923948287964,0.9841092228889464,-2.57366868056067,3.0489085867709043,-1.081254985983772,-0.13421469926834104,-0.1695273220539093,-0.02373265847563744,0.4625973134860397,0.3890436894446612,-10.667592408657077
32.2,3.2000000476837163,228.0,20.87544059753418,26.72591209411621,-79.78246306418527,40.458291248315064,292.3812255096436,-0.04739470034837723,0.07358058542013167,-0.15656323730945587,0.9837822914123536,-2.449405796653616,3.196285305494897,-0.8260611574083522,-0.21123327314853668,-0.20724092423915866,0.10281138867139816,0.4405081772804261,0.27015225358307365,-10.9942786860466
32.4,2.9000000953674316,247.0,20.653827667236328,28.578676223754893,-79.78246722056284,40.45829784711733,292.2000807952881,-0.07766302675008774,0.06215516850352287,-0.16079387068748474,0.9819626808166504,-2.2944708755549885,3.4997432560149546,-0.2844436506168538,-0.13957826793193814,-0.3235079646110535,0.04306787252426148,0.3526679781451821,0.22218615487217905,-11.108919196128843
32.5,2.799999952316284,256.0,20.743976593017575,27.656269073486328,-79.78247014512088,40.45830503502537,292.01215927124025,-0.1018068939447403,0.05808943510055543,-0.1646016240119934,0.9793708920478821,-2.1446479015074744,3.8575476028266205,0.29312222546584943,-0.05232056602835655,-0.09676452726125716,0.08022135496139526,0.13262416999787094,0.17136336240917446,-11.421829433441165
32.7,2.5,260.0,20.82285499572754,26.61458778381348,-79.78247097074879,40.45830904083125,291.98858825683595,-0.10466092079877852,0.05156158655881882,-0.16625477373600006,0.9791562557220459,-2.093071285790112,4.060725979286056,0.5579041328832044,-0.2495629042387009,0.01968391239643097,0.1121438667178154,-0.0008774609322426841,0.04452371494844557,-11.341543654203415
32.8,2.4000000953674316,264.0,20.929279327392575,25.37411117553711,-79.78247161518878,40.458313235030076,291.976245803833,-0.1031082421541214,0.03808969631791115,-0.16711042821407318,0.9797918796539308,-2.0412152267543737,4.262143667116563,0.7587846318807491,-0.2591799795627594,0.1229735016822815,-0.06233735382556915,0.16430844090878965,0.14443501571193335,-11.20259626865387
33.01,2.200000047683716,280.0,21.019428253173828,24.17339324951172,-79.78247304835573,40.45832191737083,291.89356033325197,-0.0979887917637825,0.0037943252827972174,-0.1659645289182663,0.9812439680099488,-2.010747609044563,4.660984016742146,0.9830513792307642,-0.33866506814956665,0.0257465448230505,-0.009114306420087814,0.052161868801340466,0.1522038731072098,-10.661728820800784
33.1,2.200000047683716,293.0,21.06324958801269,24.63459587097168,-79.78247442225855,40.45833123996926,291.8079795074463,-0.0984300747513771,-0.028306728228926662,-0.16179588437080386,0.9814950227737428,-2.0561414337429578,5.0138658057046905,1.1553910959812494,-0.3142745196819305,0.03299131989479065,-0.062072772532701485,-0.030455633858218787,0.13378294195979834,-10.508932889699937
33.3,2.0999999046325684,304.0,21.07827377319336,24.26086235046387,-79.78247479251611,40.45833630917832,291.8174475860596,-0.0987406075000763,-0.04147149622440338,-0.1593102663755417,0.9814023971557616,-2.0860746183402994,5.191827567983334,1.2745299608341156,-0.2066927254199981,0.013765870593488216,-0.0917779877781868,0.0754895823262632,0.2344426680542529,-10.414167065620424
33.4,2.0999999046325684,309.0,21.155900955200195,23.38616752624512,-79.78247611529503,40.45834113930631,291.70312301635744,-0.09793610125780106,-0.05144190043210983,-0.1573316901922226,0.9813302159309388,-2.1816217918079945,5.330393185734644,1.313920215267574,-0.18724477291107172,0.046358689665794366,0.09047121554613112,-0.08930052297189832,0.05856810567900539,-10.286187887191774
33.6,2.299999952316284,336.0,21.254812240600586,22.757976531982425,-79.78247818414332,40.45835157378028,291.59420959472664,-0.0921703204512596,-0.06718111783266068,-0.1537468284368515,0.9815056324005128,-2.3999108595601544,5.6100740349655585,1.3805917046824625,-0.12132583558559418,0.07328933477401732,0.0878419429063797,-0.2514316252246499,0.14105663155205547,-10.038781667947768
33.7,2.4000000953674316,343.0,21.192211151123047,23.17942047119141,-79.7824787666207,40.45835680718043,291.59352676391603,-0.08562543988227844,-0.07173102349042892,-0.15269319713115692,0.9819408655166626,-2.483511596382744,5.726010555413313,1.383074657346485,-0.04109084233641625,0.1431093066930771,-0.026189696043729786,-0.12028784232214094,0.21973116483539346,-9.99723603129387
33.9,2.700000047683716,352.0,21.401302337646484,21.35846519470215,-79.78248116269795,40.458368371565335,291.5606192779541,-0.06995438039302826,-0.08042589575052261,-0.15086908638477325,0.982790231704712,-2.7688445394488923,5.944428489378475,1.2964447188154653,-0.06437811255455017,0.1979687362909317,-0.015771925449371338,-0.3060294166579843,0.2938138339854777,-9.892148702144622
34.0,2.799999952316284,355.0,21.308650970458984,22.47171401977539,-79.78248411472933,40.45838046203508,291.55811492919923,-0.049893975257873535,-0.08948522061109543,-0.14978232979774475,0.983396291732788,-3.0851303698293866,6.089398829177803,1.1017613620715108,-0.013117903843522072,0.21270525455474854,0.016568724066019058,-0.20104300679638984,0.21915596326813105,-9.758249217867851
34.2,3.2000000476837163,8.0,21.26482963562012,22.47171401977539,-79.78248562291249,40.458386627815315,291.55263893127443,-0.04065820202231407,-0.09193498641252518,-0.14943087100982666,0.9836490154266356,-3.247350530447988,6.137199514891683,1.0250556283042218,-0.0327981635928154,0.19434122741222384,0.05567941442131996,-0.2680465067736805,0.31143816422671083,-9.898357275724413
34.3,3.4000000953674316,13.0,21.31866836547852,21.294851303100586,-79.78248730416584,40.45839285168681,291.54760543823244,-0.03090090490877628,-0.09306536614894867,-0.14882856607437134,0.983988881111145,-3.4025854129972286,6.1531736547117655,0.9557855481495828,0.059816733002662666,0.16990318894386292,0.10296931117773056,-0.4174817689508201,0.2378292657248676,-10.070698109865187
34.5,3.700000047683716,13.0,21.417579650878906,21.398223876953125,-79.78249166366167,40.458405436773866,291.56325904846193,-0.010552750900387764,-0.08936402201652527,-0.14742876589298248,0.9849708676338196,-3.696733192488625,6.121077912913346,0.7495381337240855,0.15953658521175385,0.2700632214546204,-0.04713041707873344,-0.2604333771765232,0.4697097935155034,-9.897102463245393
34.6,3.9000000953674316,12.0,21.515239715576172,19.87943458557129,-79.78249425295735,40.45841185233617,291.5876235198975,-0.0009128609090112152,-0.08456434309482573,-0.14679381251335144,0.9855454564094543,-3.8287130321530563,6.080714284061543,0.6383430086891932,0.1610267162322998,0.2058846801519394,-0.044476408511400216,-0.1727225111424923,0.5938852485269308,-9.927937170267104
34.81,4.199999809265137,16.0,21.56532096862793,19.887386322021484,-79.78249911136938,40.4584242858226,291.58172218322755,0.02050211653113365,-0.07823814451694489,-0.14498645067214966,0.9861224889755248,-4.044608678437276,5.919915859824048,0.33924927817394923,0.03210174664855004,0.2619597911834717,0.039534498006105416,-0.4091708655282855,0.4949331469461322,-9.758721088171006
34.9,4.300000190734863,19.0,21.76064109802246,18.201610565185547,-79.78250468191811,40.45843675551726,291.6015567016602,0.04955169931054115,-0.07661406695842743,-0.1422104835510254,0.985622227191925,-4.1786645276181895,5.686340965346378,0.0017682272952270761,0.11640223860740664,0.311245322227478,0.012049279175698755,-0.2584366809390485,0.63094219699502,-9.82363453745842
35.1,4.599999904632568,15.0,21.99352264404297,15.79222297668457,-79.78250808486744,40.45844286468343,291.62330047607423,0.06316214054822923,-0.07166324555873871,-0.1417914628982544,0.985276699066162,-4.243623814058599,5.536691928245952,-0.20641257695724494,0.2018444687128067,0.2521500289440155,-0.04308947920799256,-0.04293208457529545,0.7281938186287881,-9.465860368609427
35.2,4.699999809265137,13.0,22.280242919921875,12.985246658325195,-79.7825110527071,40.45844867514857,291.60732833862306,0.07197679579257965,-0.06193295121192933,-0.14263784885406494,0.9852097034454346,-4.2923348395074,5.34698951819582,-0.4576934182632657,0.21581785380840304,0.12826938927173615,0.03634822741150856,-0.17434509521350267,0.6909507094323636,-9.239636272788047
35.31,4.900000095367432,17.0,22.38165855407715,13.47030544281006,-79.78251767672073,40.458460000091705,291.5899733734131,0.08577989041805267,-0.04764220863580704,-0.1418326497077942,0.9850155711174012,-4.369265840737093,4.927112431059078,-0.9506749291116834,0.13384363055229187,0.1926628351211548,-0.09989014267921448,-0.25054624713957313,0.4056942572817207,-8.825457522869108
35.5,4.900000095367432,18.0,21.835763931274414,17.931249618530273,-79.78252088672149,40.45846538684452,291.5357569885254,0.09739483147859572,-0.041946206241846085,-0.1403939127922058,0.9844004511833192,-4.364848988328851,4.716712377425658,-1.1935231889624576,0.1706242859363556,0.3134553134441376,-0.004624577704817057,-0.14705053009092808,0.6202744636684656,-8.50445356965065
35.7,5.0,14.0,21.90337562561035,17.438240051269528,-79.78252786719699,40.458475778823576,291.4731578063965,0.1124325692653656,-0.014948587864637375,-0.1340404897928238,0.9844636321067808,-4.235509515744304,4.288472941043577,-1.633126530242654,0.4512601494789124,0.04323330149054527,-0.031244024634361267,0.393590191975236,0.6272777469456197,-9.10557423591614
35.8,4.900000095367432,12.0,21.679258346557614,19.80786895751953,-79.7825311593985,40.45848067861985,291.3918818664551,0.10779447853565216,0.003500760532915592,-0.12912663817405698,0.9857456684112548,-4.113524428462034,4.096331776261906,-1.8323045399556133,0.3578189015388489,-0.22308093309402466,-0.08061616867780685,0.19874179853126409,0.3193869788199663,-9.113826996088028
36.0,4.900000095367432,321.0,21.634183883666992,20.006662368774414,-79.78253800160223,40.45849005913777,291.26856605529787,0.11313174664974213,0.008572006598114967,-0.12300119549036025,0.9858998656272888,-3.8192288633009976,3.771331655857773,-1.979629951837636,0.12030328065156935,0.11059721559286118,0.025972524657845497,0.07047255252487958,0.3898849941417575,-9.183718764781952
36.1,4.800000190734863,323.0,21.456392288208008,21.660633087158203,-79.78254165273917,40.45849440876762,291.2236575317383,0.11633989959955215,0.015624461695551872,-0.12124661356210707,0.9856573343276978,-3.7183567242887254,3.57530857256605,-2.0295199574074467,0.25613120198249817,-0.04704680293798447,0.08347303420305252,0.20838416777551166,0.5346881103515625,-9.138815656900409
36.31,4.5,322.0,21.302391052246094,22.7977352142334,-79.78254789329544,40.4585025858244,291.00748054504396,0.08918255567550659,0.04978043213486672,-0.11634252965450287,0.9879438281059264,-3.3819257731647503,3.2786374190413663,-2.125103634455137,0.4186107218265533,-0.5268524885177612,-0.09922266006469728,0.2719478604197502,0.4841422200948,-9.685968276858329
36.4,4.400000095367432,321.0,21.31866836547852,23.17942047119141,-79.78255107924649,40.45850666069739,290.9653109741211,0.06562136113643646,0.07288096845149994,-0.1125566065311432,0.9887938499450684,-3.159067907156933,3.2740584084796613,-2.011789601272723,0.25151655077934265,-0.5978478789329529,0.008388051763176918,0.1814372378960252,0.2656310037150979,-10.03299760222435
36.6,4.099999904632568,270.0,21.22100830078125,23.82351493835449,-79.78255684574582,40.45851419864732,290.8172206115723,0.02885372936725616,0.08525404334068297,-0.10886173695325853,0.9899739623069764,-2.6793524200397827,3.3247487458385363,-1.6672717997019797,-0.12961511313915253,-0.293156236410141,0.09579657763242724,-0.2818409473076463,0.1830330526828766,-10.432520306110384
36.7,3.9000000953674316,272.0,21.0920467376709,24.69025802612305,-79.78255921541222,40.45851772706402,290.72710220336916,0.017315834760665894,0.07780944555997849,-0.11033617705106737,0.990692675113678,-2.493595685306872,3.3256836279300592,-1.4621732291006757,-0.0863187313079834,-0.17980454862117767,-0.03176083043217659,0.07341696364805103,0.4484504503011704,-10.559036511182788
36.91,3.5999999046325684,275.0,20.87418937683105,27.77554702758789,-79.7825638646064,40.45852448255121,290.57573501586916,-0.010042230598628521,0.07064773142337799,-0.11343341320753098,0.9909798502922058,-2.2552901071353637,3.3621025351879017,-1.0127901682572806,-0.11704570055007935,-0.28334957361221313,-0.0134174395352602,-0.05688207018189133,0.27312337003648285,-10.781459916830066
37.0,3.5,277.0,20.755245208740234,28.483253479003906,-79.78256766794574,40.45853114102498,290.42775527954103,-0.04213973134756088,0.06103912368416786,-0.11762601882219315,0.9902840852737428,-2.0509859500185104,3.48767261566094,-0.4188147893269845,-0.16783417761325836,-0.27052849531173706,0.14006248116493225,-0.017670212611556053,0.13623111633583904,-11.279526915550232
37.1,3.2000000476837163,300.0,20.70265769958496,29.23072052001953,-79.78256904196097,40.458534642165255,290.3989943695068,-0.05373457446694374,0.05606764182448387,-0.12016265839338305,0.989712119102478,-1.9552894632867968,3.579832963979368,-0.04618881017595256,-0.07236707210540771,-0.14763957262039185,0.0981208309531212,-0.20753111382946374,0.15587690211832525,-11.962401012182234
37.3,3.0999999046325684,310.0,20.973100662231445,26.209047317504893,-79.78257022796349,40.45853822231789,290.3913230133057,-0.05833549052476882,0.051554448902606964,-0.12280569225549698,0.989372491836548,-1.8798208694008312,3.665454376185997,0.2802390384507467,-0.10507853329181673,-0.008771604858338833,0.11430098116397858,-0.10297831155359743,0.11804094920866193,-11.90943459391594
37.51,3.0,317.0,21.00440216064453,25.80350685119629,-79.78257253277776,40.45854543779435,290.3673991394043,-0.058728761970996864,0.03999650478363037,-0.12822255492210388,0.9891967177391052,-1.7807884179398916,3.8574992828238206,0.6842111824300827,-0.05524067208170892,0.012289473786950113,0.06578197330236435,-0.058967347168363625,0.02491628324612976,-11.574742308855058
37.61,3.0,321.0,21.14463233947754,23.64062309265137,-79.78257359959986,40.45854910602857,290.3592032623291,-0.059152774512767785,0.03576694056391716,-0.13117638230323792,0.9889461994171144,-1.7353450725628108,3.9521165194081993,0.8196287969855759,-0.03963974490761757,0.07412658631801605,0.06362476944923401,0.017967168940231204,0.1340506530739367,-11.365774515867233
37.8,2.9000000953674316,337.0,21.29237365722656,22.71026611328125,-79.78257485020715,40.45855710963606,290.46357528686525,-0.06549085676670073,0.02690951712429524,-0.13431105017662048,0.9884064793586732,-1.6854891456785597,4.16374312103408,1.0577579234722858,-0.13288603723049164,-0.06889170408248901,0.07578957825899124,-0.0447376727918163,-0.17760098934173585,-10.70848783493042
37.9,3.0,343.0,21.343708038330078,22.05821990966797,-79.78257558995773,40.458561074269646,290.47570793151857,-0.0715474858880043,0.017954539507627487,-0.1339767873287201,0.9882352352142334,-1.6688367996275046,4.25950924716828,1.1334369279131908,-0.18015676736831665,-0.09892193973064424,0.09205033630132677,-0.10963469048961998,-0.12665578907355668,-10.404776437282562
38.1,3.0999999046325684,350.0,21.34621238708496,22.090028762817386,-79.78257679136377,40.45856947125558,290.52315704345705,-0.08384738862514496,0.0009659279021434486,-0.13123838603496552,0.9877981543540956,-1.6416201164668385,4.4853826033927495,1.299502704610535,-0.17089562118053436,-0.0882466584444046,0.06680116057395935,-0.2373746812529862,-0.0565578420739621,-10.111094183921814
38.31,3.0999999046325684,353.0,21.448881149291992,20.921117782592773,-79.78257780084435,40.458578142311296,290.6186465454102,-0.09044533967971803,-0.013656054623425009,-0.12666347622871402,0.9877193570137024,-1.6431274707540466,4.714356239632567,1.449909425779879,-0.08991847932338715,-0.02722334489226341,-0.013382164761424065,-0.20618671104311945,-0.07824064247310163,-9.924473279714585
38.41,3.299999952316284,7.0,21.58660697937012,19.91124153137207,-79.78257866024757,40.4585826268805,290.5927104187012,-0.09376133978366852,-0.01868995651602745,-0.12471624463796616,0.9875754714012146,-1.6811150295361117,4.841742306076697,1.4466926713828494,-0.09173953533172607,-0.08302798867225647,-0.04437626898288727,-0.2464624238200485,-0.02579969703219831,-9.807286307215687
38.5,3.4000000953674316,11.0,21.580345153808594,20.587142944335934,-79.78257917236355,40.458587240583356,290.63303749084474,-0.09451218694448472,-0.02230988629162312,-0.12271878123283385,0.9876790642738342,-1.711680479210013,4.9563115296875715,1.4881135799005851,-0.13004574179649353,-0.02564504556357861,0.04179459810256958,-0.4641596529632807,0.009329856124240905,-9.712155616879464
38.7,3.5999999046325684,14.0,21.700542449951172,18.41630744934082,-79.7825805194845,40.45859717298537,290.7420195770264,-0.0892704650759697,-0.03035394288599491,-0.11921486258506775,0.9883811473846436,-1.7979373890553951,5.212278551223489,1.4866172097158312,-0.017774846404790882,0.05462346971035004,0.03151814267039299,-0.41732023961842063,-0.12999475020915272,-9.666459041833876
38.9,3.700000047683716,15.0,21.65171241760254,19.6965446472168,-79.78258199885073,40.45860769904496,290.8906439971924,-0.08085797727108003,-0.037204843014478683,-0.11930430680513382,0.9888600707054138,-1.938348110690068,5.465074113161704,1.3849995334879952,-0.12553085386753082,0.036968912929296494,0.0181405171751976,-0.2384570556879044,0.13553195379674435,-9.494671939015387
39.0,4.0,18.0,21.652965545654297,19.322811126708984,-79.78258277019536,40.458613075251336,290.92007057189943,-0.07785016298294067,-0.04182841256260872,-0.11869462579488756,0.9889901280403136,-2.0300635324902085,5.5695409553817985,1.3179710756995275,-0.13304372131824493,0.09026552736759186,-0.005806129891425371,-0.4942316637933255,0.030727565931156282,-9.35390197634697
39.1,4.099999904632568,21.0,21.679258346557614,19.61702537536621,-79.78258379820512,40.45861866272988,291.0474337768555,-0.07414620369672775,-0.04888485372066498,-0.11661992222070695,0.9891979098320008,-2.11362105212886,5.646986096220707,1.3137052610073292,-0.09888167679309844,0.16430409252643585,0.053685352206230164,-0.4880994329228998,0.02101747405249625,-9.49244648873806
39.3,4.300000190734863,20.0,21.89711570739746,17.438240051269528,-79.78258582591369,40.45862983620978,291.09244529724117,-0.058033131062984473,-0.05854136124253272,-0.11186494678258896,0.990298628807068,-2.280524703312518,5.8186612834653175,1.1857118269242122,-0.06426119804382324,0.1936367303133011,-0.08399596065282823,-0.4593718431517482,0.0347298845462501,-9.52322623193264
39.41,4.5,20.0,22.143768310546875,14.877769470214846,-79.78258733035278,40.458635624310986,291.2212771606445,-0.05055452510714531,-0.06252153217792511,-0.1093432605266571,0.9907469153404236,-2.3842635233614016,5.881266024761348,1.0970924913386146,-0.021321067586541176,0.15132111310958862,-0.09698601067066193,-0.40372093163430695,0.1278094995394349,-9.350471414923668
39.61,4.699999809265137,26.0,21.823244094848643,18.122093200683594,-79.78259039376162,40.4586473144973,291.34737007141115,-0.04402236640453338,-0.05571696162223816,-0.10990146547555923,0.9914027452468872,-2.57863947144128,5.946081314114051,0.8441569816361983,0.2295445799827576,0.03885545954108238,0.10417559742927553,-0.5365555648505688,0.049108114745467904,-8.727857553362847
39.8,4.800000190734863,25.0,21.632932662963867,19.99871063232422,-79.78259360713541,40.458658903272976,291.33307067871095,-0.03521037474274635,-0.04333186522126198,-0.1121116504073143,0.9921258091926576,-2.8080172070863543,5.957584706068219,0.5790785820157546,0.071404829621315,0.144290491938591,-0.06649371236562729,-0.5084539926052094,0.22257437344640493,-9.233491433858873
39.9,4.900000095367432,23.0,21.72933959960937,19.513652801513672,-79.78259552890833,40.458664855445036,291.42110435485836,-0.02767210081219673,-0.04608650878071785,-0.11157877743244173,0.9923006296157836,-2.9099237156716744,5.947208470514822,0.5285424186763524,-0.061327934265136726,0.14234226942062378,0.01595635898411274,-0.3761837618798018,0.10209408463910223,-9.567004335522652
40.1,5.0,22.0,21.686769485473643,19.83172416687012,-79.78259963449365,40.458676575587354,291.4836959075928,-0.009632529690861702,-0.0535539872944355,-0.10707807540893556,0.9927605986595154,-3.0307192863520447,5.910351798306893,0.38912036305168507,0.042409729212522514,0.1745615154504776,0.05477801337838173,-0.4375726192072034,0.13739571724087002,-9.807940610647202
40.21,5.099999904632568,16.0,21.670494079589844,20.141843795776367,-79.78260165885169,40.45868236286407,291.4755934906006,-0.0024252813309431076,-0.05195718631148338,-0.10403385013341904,0.9932128190994264,-3.0634535398989846,5.896058572438724,0.3012654240118341,0.13309718668460846,0.1176568940281868,-0.17950861155986786,-0.42025583423674107,0.6105539792776108,-9.83556402683258
40.4,5.099999904632568,19.0,21.48518943786621,21.40617561340332,-79.78260638572678,40.45869405373745,291.52195350646974,0.0024565623607486486,-0.03905922174453736,-0.09786268323659897,0.9944301843643188,-3.1379243932744045,5.837401988456707,0.1659511687150022,0.04292543604969978,-0.02615935355424881,-0.1497686207294464,-0.4171465407684445,0.4856221503764391,-9.845827059745787
40.5,5.099999904632568,17.0,21.60163116455078,20.412202835083008,-79.78260865197606,40.458699746542884,291.5175322723389,0.0021482529118657108,-0.033913485705852515,-0.09515240043401718,0.9948826432228088,-3.1418945098769844,5.795805332521192,0.1354496294129517,0.0204413253813982,-0.07971067726612091,0.04902209714055061,-0.5594126962870359,0.1890715088322759,-9.875702823400498
40.6,5.099999904632568,15.0,21.584102630615234,20.595094680786133,-79.78261134927617,40.45870558129573,291.55956260681154,0.003093426115810871,-0.03061783872544765,-0.09380224347114564,0.9951151609420776,-3.147156436121502,5.7639243788871575,0.1567224914995682,0.12375194579362868,0.04621566459536552,-0.056053776293992996,-0.3867471224069596,0.32421962946653365,-9.963013447523117
40.8,5.199999809265137,4.0,21.72433280944824,19.33871459960937,-79.78261614419652,40.45871675590928,291.56643287658693,0.008895158767700195,-0.02163390070199966,-0.09497006237506866,0.9952053427696228,-3.166432873564709,5.662622276047284,0.12715186979414428,0.07643906772136687,0.017694894224405292,0.055284202098846436,-0.1866613413579762,0.3320032602176071,-10.11658471941948
40.9,5.099999904632568,355.0,21.789438247680664,18.980884552001953,-79.78261901304896,40.45872239835294,291.5985755157471,0.010676450096070766,-0.018969399854540825,-0.09675323218107224,0.9950703382492064,-3.2021261302961803,5.59995051298487,0.09023461013772896,0.07609662413597107,0.035769227892160416,-0.091267891228199,-0.14196005377918486,0.3706426114216447,-10.04821907401085
41.1,5.0,352.0,21.74812126159668,19.116064071655273,-79.78262443346411,40.45873332926492,291.62688247680666,0.010151603259146214,-0.01601274125277996,-0.10138295590877533,0.9946668148040771,-3.26006661183652,5.453931992851664,0.04422151787976628,0.07912085205316544,0.024166492745280262,0.047621991485357285,-0.480024099200964,0.4469021806865931,-9.70577688932419
41.2,5.0,351.0,21.665485382080078,19.990758895874023,-79.78262693982819,40.45873869949385,291.6327552032471,0.011412578634917736,-0.011580127291381359,-0.10410057008266448,0.9944339394569396,-3.2774832468012733,5.382362433269926,0.02575104082929956,0.07853231579065323,0.00810889434069395,0.06623605638742447,-0.3661972291767597,0.3685809197276831,-9.732923757433893
41.3,4.900000095367432,349.0,21.607891082763672,21.18352508544922,-79.78263237231879,40.458749424149254,291.65621368408205,0.010836500674486159,-0.0032402083743363623,-0.10799086838960648,0.99408757686615,-3.3049179125318013,5.248785533378818,-0.039578816489175,0.06715352833271028,-0.012787507846951485,-0.07896408438682556,-0.2627897868119181,0.48913932368159296,-9.74322479724884
41.5,4.900000095367432,342.0,21.607891082763672,20.626901626586914,-79.78263486179523,40.458754643979894,291.66182891845705,0.010447129607200624,0.00037159258499741554,-0.10935652256011964,0.9939476251602172,-3.2911566466992563,5.182221631090344,-0.04596995692652171,0.07531063258647919,-0.011624655686318873,-0.09120944887399672,-0.3694044635072351,0.5239120573550463,-9.812184519767762
41.7,4.699999809265137,341.0,21.65546989440918,20.37244415283203,-79.78264025758726,40.45876489607274,291.6844844055176,0.008691355586051941,0.006981421262025833,-0.11009325087070464,0.993858814239502,-3.256705321428272,5.065986707547582,-0.07383300464047182,0.01866467110812664,-0.15283522009849548,-0.024178575724363327,-0.2431420641392469,0.3506706423684955,-9.926906890869141
41.9,4.699999809265137,341.0,21.584102630615234,21.040393829345703,-79.78264553012873,40.45877504373187,291.7059401702881,0.0011214975966140628,0.009386950172483921,-0.10705972462892532,0.9942076802253724,-3.16636956381314,4.997354568714936,-0.03741944457533752,-0.03448688983917236,-0.14417210221290588,0.011077366769313812,-0.35276569973677396,0.2595209739916027,-9.836492564678194
42.0,4.5,339.0,21.686769485473643,19.76015853881836,-79.78264786736908,40.45878004109122,291.71159355163576,-0.001710748765617609,0.008879121392965317,-0.10479474812746048,0.9944528341293336,-3.1024721053312656,4.990306486681387,-0.0036239896800941375,-0.07988208532333374,-0.13326169550418854,-0.07208610326051712,-0.3838692690432072,0.25499835368245843,-9.723063597679136
42.1,4.5,336.0,21.577842712402344,21.477741241455078,-79.78265066736671,40.4587849935166,291.7226885986328,-0.005189372226595879,0.006727156229317188,-0.10254374146461487,0.9946922063827516,-3.0578038941240893,4.985982360939809,0.015125235819551369,-0.06656145304441452,-0.11042637377977373,-0.06654954701662064,-0.2363425197824836,0.3561184931918979,-9.733600865006446
42.31,4.300000190734863,337.0,21.526508331298828,21.8355712890625,-79.78265515790478,40.45879488043497,291.73012535095216,-0.007864652201533321,0.009775474667549132,-0.09897754341363907,0.9950106143951416,-2.9235952329398143,4.991625713580296,0.08010069617347085,0.04294293746352197,-0.0864853486418724,0.0033201584592461586,-0.18715628989040853,0.2832163768820465,-9.813429976701736
42.41,4.199999809265137,337.0,21.542783737182614,21.278947830200195,-79.78265788443781,40.45879979555277,291.74429122924806,-0.010535644367337229,0.013225062750279905,-0.09754012525081636,0.9950879812240601,-2.8909203110877013,4.994430514291991,0.09095587623179108,0.02155550941824913,-0.08840087056159973,-0.07870912551879883,-0.18544959727674729,0.26238338705152275,-9.8572139275074
42.6,4.099999904632568,337.0,21.646705627441406,20.33268547058105,-79.78266256348334,40.45880956828112,291.76296798706056,-0.012822456657886505,0.013642016798257828,-0.09588434547185898,0.9952164888381958,-2.7828721520431667,5.0035181599874505,0.13516845885360473,-0.010467696003615856,-0.00029702376923523843,-0.07551302015781403,-0.18383216606453065,0.4081119713187218,-9.886227811574935
42.8,4.099999904632568,337.0,21.64795684814453,20.436058044433594,-79.78266662301557,40.45881936169009,291.77881996154787,-0.016418831422924995,0.013244152069091795,-0.09764963388442993,0.9949973225593568,-2.6920142590145204,5.015306908257573,0.17815648893899164,-0.016746031120419502,-0.08012504875659943,0.010519049130380155,-0.2013036647066474,0.1541906747594476,-9.837422271966933
42.9,4.0,338.0,21.686769485473643,20.300878524780273,-79.7826689905682,40.45882422404138,291.7905883026123,-0.01885123550891876,0.011045852676033974,-0.09840293228626253,0.9949067831039428,-2.6752151187168223,5.0116790711682215,0.203842450178148,-0.026500020176172256,-0.05262021720409393,-0.023703554645180702,-0.07069894940592349,0.2079051529057324,-9.859329450130463
43.0,4.0,339.0,21.659225463867188,19.60112190246582,-79.7826709058649,40.458829124662145,291.79931442260744,-0.021709319204092026,0.008531554602086544,-0.09865356236696243,0.9948484301567078,-2.6410436612821497,5.021909943657227,0.2339149385244816,-0.02727027609944344,-0.13360606133937836,0.09148205071687696,-0.16305428624153134,0.10800577498041096,-9.78751628637314
43.2,3.9000000953674316,339.0,21.71431541442871,20.141843795776367,-79.78267502995695,40.458838882756034,291.8239211273193,-0.025453506037592888,0.005023082718253136,-0.09706290811300278,0.9949401021003724,-2.581856937036746,5.051885471756454,0.2947839504714944,0.03718301653862,0.012671134434640408,-0.09746450185775757,-0.14199769522994754,0.3039384888857603,-9.672124993801116
43.3,3.9000000953674316,343.0,21.630428314208984,20.37244415283203,-79.78267683187485,40.45884381498172,291.82964126586916,-0.0257305596023798,0.004222202580422163,-0.09525161981582644,0.9951117038726808,-2.5497856887056742,5.074643223417395,0.2985109668556403,-0.041274864226579666,-0.055220313370227814,0.0677245482802391,-0.3735200993344188,0.1917717164754868,-9.645814277529716
43.5,3.9000000953674316,343.0,21.5452880859375,21.49364471435547,-79.78268077562218,40.458853657515775,291.8558024597168,-0.027606261894106858,0.0007355272537097335,-0.0903206542134285,0.99552983045578,-2.4697230916511543,5.1312745827220585,0.31437096099508194,-0.0004576929786708206,-0.006835309788584709,-0.011134633794426918,-0.33802658669650554,0.2549934931844473,-9.74068476676941
43.6,4.0,343.0,21.560312271118164,21.008586883544922,-79.78268467115767,40.45886360228492,291.883098526001,-0.031519033014774316,-0.0015300405211746693,-0.08392483741044998,0.9959723353385924,-2.4027937565051967,5.202348169445079,0.3887516326450314,-0.04762405157089234,-0.04117650911211968,0.04955662786960602,-0.30170112490653994,0.19690140567719933,-9.834996846914292
43.8,4.0,344.0,21.58785820007324,21.072200775146484,-79.78268638090186,40.458868620599716,291.8899974060059,-0.032250192016363144,-0.003447712864726782,-0.08159203082323074,0.996138036251068,-2.3583050222011965,5.247363597037568,0.4208937844326788,-0.0590871125459671,-0.040300153195858,-0.01598796807229519,-0.2999934821203351,0.17655181612819434,-9.855828137397767
43.9,4.0,345.0,21.64545249938965,20.579191207885746,-79.78268844672569,40.45887373798914,291.9138488006592,-0.03204278275370598,-0.006023941561579704,-0.08028333634138107,0.9962387084960938,-2.3476152442654463,5.292840240262839,0.4455833129834209,-0.09107329696416856,-0.01820753142237664,-0.1473921686410904,-0.3049551186896861,0.2729103852063417,-9.891885577440265
44.1,4.0,347.0,21.52525520324707,22.48761749267578,-79.7826922195953,40.45888384545504,291.94370643615724,-0.03251005709171295,-0.005456781946122646,-0.08214510232210159,0.9960750937461852,-2.3409854779534216,5.340788299937506,0.4906629319482277,0.020018039271235463,-0.04641583189368248,0.017464298754930496,-0.4220769495517016,0.2359885805100203,-10.0366965508461
44.2,4.099999904632568,349.0,21.54153251647949,21.28689956665039,-79.78269392870989,40.45888895803499,291.9553698730469,-0.03194659575819968,-0.0023987251333892345,-0.0839216411113739,0.9959572553634644,-2.36114248360419,5.358281252726567,0.5116805326515095,0.039896734058856964,-0.028428180143237117,-0.04514816775918007,-0.4161084772646427,0.24723527954891325,-10.085195696353912
44.3,4.099999904632568,352.0,21.497711181640625,21.95484733581543,-79.78269765282795,40.45889926200115,291.9959315490723,-0.031579792499542236,-0.0014839028008282185,-0.0861954391002655,0.9957765340805054,-2.409279546300285,5.389993259177487,0.5065711513048292,-0.028904099017381668,-0.055063396692276,-0.04892006516456604,-0.3247593640163541,0.18706353843212128,-9.911094850301742
44.6,4.099999904632568,353.0,21.57032966613769,21.461837768554688,-79.78270146235116,40.45890963268123,292.04091636657716,-0.031511962413787835,-0.002625314053148031,-0.08705790340900421,0.9957013130187988,-2.442784908468977,5.414178318442252,0.5181516538447472,-0.032154589891433716,-0.023372342810034752,0.056944340467453,-0.3765075149014592,0.07864475816488266,-9.834672911167145
44.7,4.099999904632568,355.0,21.540281295776367,21.30280303955078,-79.78270319008487,40.45891484406099,292.0565852355957,-0.029822422191500664,-0.0032988612074404955,-0.08635956794023514,0.9958121776580808,-2.446830700208128,5.433763534647462,0.5247168557093003,-0.030820203945040706,-0.031153392046689987,0.03786195814609528,-0.4532733799517155,0.0011699913069605828,-9.80680683553219
44.8,4.099999904632568,356.0,21.527759552001953,21.71629524230957,-79.78270491626701,40.45892007412889,292.07315818786617,-0.02787379734218121,-0.004175216890871525,-0.0846484899520874,0.996012270450592,-2.4382449497794667,5.454368983364577,0.5186843403441227,-0.01270549651235342,0.021122246980667114,0.05882786959409714,-0.4375866890698672,-0.04172394018620253,-9.923572808504103
45.0,4.099999904632568,359.0,21.55154800415039,21.37436866760254,-79.78270871040918,40.45893064240854,292.12490455627443,-0.02439206279814244,-0.009237958118319513,-0.07979395985603333,0.9964700937271118,-2.4217046074648882,5.510256489506375,0.5145752517905461,-0.008312895894050598,0.03275872766971588,-0.04944784194231033,-0.2863291604071856,0.06134433626197279,-9.854772130250927
45.1,4.099999904632568,359.0,21.596622467041016,20.841598510742188,-79.78271085217115,40.45893598749093,292.16139785766603,-0.023149088025093082,-0.010816351510584354,-0.07767883688211441,0.9966509938240052,-2.4313657328492875,5.538643640753159,0.4926872460034919,-0.03044649958610535,-0.030670715495944027,-0.09111504256725313,-0.3684738060459495,0.19245350182056428,-9.700647127032278
45.3,4.099999904632568,0.0,21.42008399963379,22.90110969543457,-79.78271444901355,40.45894655405293,292.1947478485108,-0.019579755142331123,-0.006914349272847176,-0.07474112510681152,0.9969868063926696,-2.4109745516239776,5.5660569145652365,0.4587181321417921,0.06299463659524918,0.06888221949338913,-0.08147253841161728,-0.3013639598339796,0.14844468902796507,-9.836372112035752
45.4,4.099999904632568,0.0,21.626672744750977,20.30883026123047,-79.78271661946877,40.458951887661364,292.23348991394045,-0.016303179785609245,-0.004003057256340981,-0.07350387424230576,0.9971536993980408,-2.4100940988956805,5.5749664709839655,0.4398792652185031,0.09699111431837082,0.107439786195755,-0.07060936838388443,-0.20157905029132964,0.13880967448465525,-10.00788381099701
45.6,4.099999904632568,358.0,21.59161376953125,21.18352508544922,-79.78272063389231,40.45896254835111,292.29297439575197,-0.015239744447171688,-0.002403320046141744,-0.07264427840709686,0.9972386360168456,-2.4136681744403963,5.590591320702461,0.37762070301615386,-0.014004433527588844,-0.016968915238976482,0.10680743306875227,-0.26473455246537925,-0.1435498203523457,-9.84248245239258
45.7,4.0,356.0,21.74186134338379,19.561363220214844,-79.78272249661472,40.45896785461439,292.3130358886719,-0.014808572828769684,-0.005092743318527937,-0.07272478193044662,0.9972290992736816,-2.4152129161814977,5.591813456887058,0.38720587094249626,-0.031163593754172325,0.012752618640661241,-0.09003966301679611,-0.2335358745418489,0.12193299299106004,-9.82334919333458
45.9,4.0,355.0,21.70304679870605,19.887386322021484,-79.7827265985347,40.458978530900495,292.369520111084,-0.012989358976483343,-0.007241497747600078,-0.07446737587451935,0.9971125721931458,-2.444355541184833,5.5789119561624085,0.3484231781304372,0.043751638382673264,0.016929753124713898,-0.011449562385678291,-0.28032728590071204,0.07501646948978305,-9.585157016515733
46.1,4.0,354.0,21.710559844970703,20.10208511352539,-79.78273084794606,40.45898924744853,292.42513267517086,-0.01112007349729538,-0.005659569986164571,-0.07516361027956009,0.9970932006835938,-2.501066739381073,5.572541238844682,0.29052507739961225,-0.012371229939162731,-0.00630226219072938,-0.027485940605402,-0.2716360759176314,0.11550837392918765,-9.49157817721367
46.2,3.9000000953674316,354.0,21.73810386657715,19.784013748168945,-79.78273278393068,40.45899454361197,292.4363879394532,-0.009737716056406498,-0.005667783319950104,-0.07581768929958344,0.9970580935478208,-2.5046002893217887,5.561856692008091,0.2567927234009194,0.0008778716437518598,0.027505166828632355,-0.07183867692947388,-0.3562313079088926,0.24790979241952305,-9.570567044019699
46.3,3.9000000953674316,355.0,21.731843948364254,19.89533805847168,-79.78273471676715,40.458999826927325,292.4464778137207,-0.00678355386480689,-0.004611873533576727,-0.07694496959447861,0.997001588344574,-2.5007640006742915,5.542412987772257,0.2312609094708308,0.04729679599404335,0.01007863599807024,-0.06933404505252838,-0.2904261399619281,0.2752576220221817,-9.689681843519214
46.5,3.9000000953674316,354.0,21.82449531555176,19.05245018005371,-79.78273897793916,40.459010412383584,292.4986876678467,-0.007606300525367259,-0.008193500339984894,-0.07834510505199432,0.9968636631965636,-2.524267430788337,5.500549011546212,0.1479167973843705,-0.04237398877739906,0.03979329392313957,-0.03733622655272484,-0.1003314414806664,0.13441781253553928,-9.610992938876151
46.6,3.9000000953674316,353.0,21.849536895751953,18.996788024902344,-79.7827413242192,40.45901576873383,292.5383376312256,-0.011296805925667286,-0.013018321245908735,-0.07782697677612305,0.9968178868293762,-2.546635772333575,5.481936592740898,0.15464240499602389,-0.044879183173179626,-0.02577065676450729,0.10186254978179933,-0.2801273476704955,0.05995367194991559,-9.419426459670069
46.8,3.9000000953674316,358.0,21.72808837890625,19.97485542297364,-79.78274527262133,40.45902622419759,292.53696243286134,-0.017371101304888725,-0.013729121536016464,-0.07503985613584517,0.9969347715377808,-2.5496037570705794,5.467827742264657,0.1855569097150943,0.058882493525743484,-0.036609165370464325,-0.07612729072570801,-0.4037069714069367,0.3225153853744269,-9.313808203339578
47.0,3.9000000953674316,356.0,21.753129959106445,20.14979553222656,-79.78274953941505,40.45903672088518,292.5594329071045,-0.01578071154654026,-0.006037372164428234,-0.0722031518816948,0.9972468614578248,-2.53952512325034,5.4672125922015855,0.12720087860731205,0.01825449801981449,-0.056514281779527664,0.039111655205488205,-0.27267636867240075,0.17516281004995107,-9.463707423806193
47.1,4.0,356.0,21.622915267944336,20.63485336303711,-79.78275187370959,40.45904195535029,292.5878161621094,-0.015431909821927547,-0.0055245752446353436,-0.0706658586859703,0.997365415096283,-2.5396608199499067,5.466944198502689,0.09805800306546424,-0.05688633024692536,-0.02850030735135078,-0.011338433250784874,-0.37394698262214665,0.1531116807460785,-9.503738631606103
47.2,4.0,356.0,21.811975479125977,18.96498107910156,-79.78275390256498,40.4590471500344,292.5766276550293,-0.015637382864952087,-0.006045084446668625,-0.06919883191585541,0.9974620938301086,-2.5253574616155348,5.469914670362203,0.08469805303743531,-0.10008199512958528,-0.050197552889585495,-0.060292243957519524,-0.4153452694416047,0.2644393228925765,-9.642507677078248
47.4,4.0,352.0,21.743112564086914,19.752206802368164,-79.78275822804945,40.459057617590474,292.5903758239746,-0.018978780135512352,-0.0034247476141899824,-0.0665491446852684,0.9975968003273008,-2.4826786259228832,5.476173281118085,0.0859203603808556,0.00027108166250400245,-0.05818784236907959,-0.02514961734414101,-0.4145405098423362,0.2252669431641698,-9.657126885652543
