time,wind_speed,wind_angle,battery_voltage,battery_current,position_x,position_y,position_z,orientation_x,orientation_y,orientation_z,orientation_w,velocity_x,velocity_y,velocity_z,angular_x,angular_y,angular_z,linear_acceleration_x,linear_acceleration_y,linear_acceleration_z
0.0,1.2999999523162842,181.0,24.12952041625977,0.03180709481239319,-79.78239278956502,40.45807026008504,267.6153519983292,-0.003003563033416868,0.004777779337018728,0.3111461997032165,0.9503453373908995,-0.0024913222146488484,0.01335914684666138,0.009388032196459756,0.0006293298210948706,-0.0025008900556713343,0.0065197949297726146,-0.023866491049993784,-0.11312993673607707,-9.808283842206002
0.12,1.399999976158142,180.0,24.130773544311523,0.039758868515491486,-79.78239284463537,40.45807036655311,267.61185809326173,-0.003000726457685232,0.004781187046319246,0.3111463785171509,0.9503452777862548,-0.0016244986590480865,0.008574652284089341,0.013377548004300356,0.000782947929110378,0.002192422514781356,-0.002847356488928199,-0.0222563117556274,-0.1027813791576773,-9.807817234396936
0.3,1.2999999523162842,181.0,24.13703346252441,0.03180709481239319,-79.78239293611762,40.45807049862128,267.6092229719162,-0.0030065784230828285,0.004779786337167025,0.3111459016799927,0.9503453969955444,-0.0018709490805236212,0.012241984294430951,0.01490417731732609,3.9223259591381066e-06,0.0028971484862267967,-0.0029953601770102978,-0.020970616384875032,-0.10298377504572273,-9.809924570918085
0.5,1.2999999523162842,180.0,24.12701797485352,0.02385532110929489,-79.78239294635478,40.45807050680486,267.61071571063997,-0.003005918115377426,0.004780634306371212,0.31114596128463745,0.9503453969955444,-0.0018067066317548352,0.012703883551748769,0.014953161895185875,-0.003837045514956117,-0.0029422014486044645,0.0014991483185440302,-0.025456093170214446,-0.11261844241060318,-9.808248758912088
0.6,1.2000000476837158,180.0,24.13452911376953,0.02385532110929489,-79.78239303204947,40.458070636975016,267.60925563526155,-0.003008730709552765,0.0047803306952118865,0.3111453056335449,0.9503455758094788,-0.0022761098674365,0.014424531281283237,0.01577142741156891,-0.0005268555250950159,-8.058425737544894e-05,-0.002210640115663409,-0.024883356112986803,-0.11011822781525553,-9.808050538301467
0.81,1.2000000476837158,176.0,24.13703346252441,0.039758868515491486,-79.78239304407009,40.45807064650964,267.61081870746614,-0.003008730709552765,0.0047803306952118865,0.3111453056335449,0.9503455758094788,-0.002002489915471581,0.014754271825866897,0.015570816604584434,0.002737953560426831,0.0010980964871123429,0.0006052780663594604,-0.02095582247246057,-0.10730658503249288,-9.810509877204897
0.91,1.100000023841858,175.0,24.139537811279297,0.03180709481239319,-79.78239310977395,40.45807076397073,267.6101414794922,-0.003006255254149437,0.004782669246196747,0.3111437261104584,0.9503461122512816,-0.0013256977068408047,0.011506549238883676,0.016388333226716675,0.0004997071227990091,-0.0012568188831210134,0.005022584926337004,-0.023311939747072758,-0.1096533924434334,-9.809488953351977
1.1,1.100000023841858,178.0,24.124513626098643,0.039758868515491486,-79.78239311935197,40.45807077162398,267.6117750043869,-0.003006255254149437,0.004782669246196747,0.3111437261104584,0.9503461122512816,-0.002071934604457266,0.011739019929111772,0.01629655539721214,0.0016976851038634775,0.0005012259352952242,-0.0036298208869993687,-0.02286318421829492,-0.10673984365537764,-9.807199768424033
1.21,1.100000023841858,177.0,24.12952041625977,0.03180709481239319,-79.78239317870327,40.45807090647369,267.61184080791475,-0.0030085609760135412,0.004785763565450907,0.31114184856414795,0.9503467082977296,0.0007165185100094804,0.012344896688115543,0.0169683610852176,0.0010958157945424318,0.0011408425634726882,-0.0065736607648432255,-0.02386286166496575,-0.1059009783435613,-9.806629080176354
1.4,1.100000023841858,178.0,24.12952041625977,0.03180709481239319,-79.78239320833818,40.45807101447906,267.61096128177644,-0.0030056326650083065,0.004791184328496456,0.311140775680542,0.950347065925598,0.00432212607752934,0.006670356703744989,0.017824915947203437,-6.315519567579031e-05,-0.0020269895903766155,0.004598842468112707,-0.023903422155417502,-0.11106630815193058,-9.809580754637716
1.5,1.100000023841858,177.0,24.12075614929199,0.03180709481239319,-79.78239321014978,40.458071028907405,267.6144787902832,-0.003004989819601178,0.004791845567524433,0.3111408054828644,0.950347065925598,0.004127065345181726,0.0072699169862112814,0.017453531387398982,0.002597428858280182,0.00028399846632964914,0.005113882012665272,-0.025401154467836026,-0.1118650378100574,-9.807851732969283
1.7,1.100000023841858,180.0,24.12200927734375,0.06361418962478638,-79.78239328254628,40.45807113522732,267.6143624420166,-0.003006003797054291,0.004788186401128769,0.3111417889595032,0.9503467082977296,9.05425542126786e-05,0.007862032681124542,0.01759563589570368,-0.000498908048029989,0.0008112959330901504,-0.0047480566427111634,-0.02353568939259276,-0.10287602182477712,-9.806546634435653
1.8,1.100000023841858,179.0,24.13828468322754,0.04771064221858978,-79.78239336777156,40.45807127144311,267.6152959699631,-0.0030143775511533018,0.004785129334777594,0.3111410737037659,0.9503469467163086,-0.0011569484899462716,0.015389242798408543,0.014989500822260794,0.0011162832379341123,-0.0012304462725296614,-0.004530316218733788,-0.02207626091083512,-0.10327474711462856,-9.807257655858995
2.0,1.0,179.0,24.13452911376953,0.02385532110929489,-79.78239337939445,40.458071282429145,267.61678882789613,-0.0030143775511533018,0.004785129334777594,0.3111410737037659,0.9503469467163086,-0.0006407396912167018,0.01586512994812934,0.014983397850765159,0.002190139377489686,-0.0001999824162339792,0.006489725317806006,-0.025980714038014413,-0.1132406592462212,-9.80867034316063
2.1,1.0,178.0,24.130773544311523,0.03180709481239319,-79.78239343071235,40.458071390144134,267.61787017536165,-0.0030088750645518303,0.004787512589246036,0.3111390471458435,0.9503476023674012,-0.00030684999599899025,0.010094478696231576,0.012374004894436321,-0.0005904077552258967,0.0016380664892494678,0.00775230024009943,-0.026457572747021915,-0.1140521979611367,-9.807527797222136
2.3,1.0,177.0,24.13828468322754,0.039758868515491486,-79.78239343825388,40.45807139727403,267.61909636211396,-0.0030088750645518303,0.004787512589246036,0.3111390471458435,0.9503476023674012,-0.0009369415514460244,0.010193311206791572,0.012202291045007228,0.0004530879377853125,-0.0020669049117714167,-0.0025916374288499355,-0.022974368110299112,-0.10221342265605927,-9.808863301277162
2.4,1.0,175.0,24.13202476501465,0.039758868515491486,-79.78239348386008,40.45807150694715,267.62135788154603,-0.0030072566587477922,0.004789221566170454,0.3111378848552704,0.9503479599952698,-0.00030571415712186143,0.008112953483824004,0.011079770162198887,-0.00200665881857276,0.002816207706928253,-0.0026104971766471863,-0.02179631175706163,-0.10215153353288772,-9.808358101844787
2.6,1.0,175.0,24.0856990814209,0.7315632104873657,-79.78239348978397,40.458071513004576,267.622462474823,-0.0030072566587477922,0.004789221566170454,0.3111378848552704,0.9503479599952698,-5.9480394893254855e-05,0.008673723628544244,0.011064055592437762,0.00010376755381003022,-0.0004897436592727902,0.0031497396994382143,-0.025514298090711242,-0.11355366800911725,-9.807978032827377
2.7,1.0,175.0,24.0856990814209,0.326022744178772,-79.78239355415127,40.45807161604699,267.62565430355073,-0.003010001499205828,0.004775370936840773,0.3111974000930786,0.9503285884857178,-0.0016213025389709614,0.008797076917307384,0.010222290338254943,0.0030323108658194533,-0.003803477389737964,0.010747935622930528,-0.02608572866069153,-0.11436972004361452,-9.810281835794447
2.9,1.0,174.0,24.10072326660156,0.3339745104312897,-79.78239359038044,40.45807171689778,267.6318781013489,-0.003012437606230378,0.0047828834503889075,0.3111627101898193,0.9503398537635804,-0.0015986061683679448,0.006851164794006335,0.017247695934144602,0.0019225315190851688,0.003640837036073208,-0.0005225505447015166,-0.020503624852281063,-0.10251209660433233,-9.807909035682679
3.0,1.0,173.0,24.10823631286621,0.3180709481239319,-79.7823936029759,40.458071725423814,267.6353233690262,-0.002998486626893282,0.004800916649401188,0.3111927807331085,0.9503299593925476,-0.0018557801304873106,0.0071293570658731405,0.017005501351401664,0.002291052136570215,0.0005186876514926553,0.0009211472934111953,-0.01796086034271866,-0.1055150072928518,-9.8123470723629
3.2,1.0,171.0,24.10197639465332,0.3101191818714142,-79.78239365529022,40.45807183694233,267.64071305942537,-0.002976962365210057,0.004806424491107464,0.31118565797805786,0.9503323435783386,-0.00218221454031154,0.010591795621074056,0.018398850542366764,0.003194646444171667,-0.0015176135348156097,-0.0038157487288117404,-0.030425758240744474,-0.11533629219979047,-9.806327948570251
3.3,0.8999999761581421,171.0,24.10698509216309,0.3498780429363251,-79.78239369085324,40.45807196955533,267.64901157569886,-0.003014750545844436,0.004824812524020672,0.3111973702907562,0.950328290462494,0.003665012899643181,0.014735722387815555,0.019169092715135363,0.0014466836582869293,0.0008136496180668472,0.0008941332926042377,-0.023772814543917768,-0.10571831680834294,-9.807458215355872
3.5,0.8999999761581421,168.0,24.09571647644043,0.3975887000560761,-79.7823936976597,40.45807198192463,267.6509059305191,-0.0030200656037777662,0.00482963677495718,0.3111792802810669,0.9503341913223268,0.002884607657605337,0.01480941479612028,0.019054923830041856,-0.0028740400448441505,0.0006025558104738593,0.0013704636367037892,-0.0201188917667605,-0.10790979841724037,-9.809111223220826
3.6,0.8999999761581421,169.0,24.094463348388672,0.44529932737350464,-79.78239374627212,40.45807209749361,267.6598002548218,-0.003011838067322969,0.004872114863246679,0.3111893832683563,0.9503306746482848,0.0014778871048126046,0.015585314709426003,0.01905596717488443,-0.0001851399429142475,0.0016046511009335518,0.0034508483950048685,-0.01534609171212651,-0.11998648230917752,-9.810204652547837
3.8,1.0,168.0,23.47845458984375,3.912272691726685,-79.78239375527532,40.458072110203744,267.66172167015077,-0.003011348890140653,0.004868812859058379,0.3111850023269653,0.9503321647644044,0.0019770799039265127,0.016598128243670143,0.01931879838387828,0.0024417378008365627,-0.001994863152503968,-0.009005304425954819,-0.017572584666777403,-0.12328702541068196,-9.805750828385351
3.91,0.8999999761581421,163.0,24.01934051513672,0.6202383637428284,-79.78239377839745,40.45807221800622,267.6713977689743,-0.003238997654989361,0.005132503807544707,0.311102956533432,0.950356900691986,0.004243432315307408,0.016695409796308996,0.02062253947724684,0.009770385921001434,-0.002503697294741869,-0.039708495140075684,-0.024218287866096942,-0.06745216871146112,-9.802699751257897
4.1,1.0,165.0,24.09947204589844,1.4154157638549805,-79.7823937842047,40.458072230388936,267.6733032102585,-0.0032226508483290672,0.0051256213337183,0.3111861050128937,0.9503297805786132,0.0019780749789274814,0.013397414300671371,0.01903336612638141,-0.0100228413939476,0.003221626626327634,-0.004583957139402628,-0.027408357420936228,-0.10616292446851733,-9.814323431253433
4.2,1.0,165.0,23.73011779785156,2.345773220062256,-79.78239379998345,40.45807229524938,267.68625899505616,-0.003301982767879963,0.005247228313237429,0.31117793917655945,0.9503315091133118,-0.0008361669771266807,0.007624939766137711,0.02430155622619956,-0.0024962080642580986,-0.03507450222969055,-0.017810188233852386,-0.043994158208370215,-0.13425763537175955,-9.801084750294685
4.4,1.0,171.0,24.086952209472656,0.2862638533115387,-79.782393802034,40.45807240044638,267.69699319553376,-0.003248234745115041,0.005169943440705539,0.31115058064460754,0.9503410458564758,0.0030633361059670488,0.010957711735839124,0.027157529654492942,-0.003033927408978343,-0.02609802410006523,-0.02130535803735256,-0.059517186437733474,-0.08962850608862936,-9.79431016623974
4.5,1.0,170.0,24.08194351196289,0.2703603208065033,-79.78239380929162,40.458072421705104,267.7023146982193,-0.003173641161993146,0.005073816981166601,0.31124943494796753,0.9503094553947448,0.006377773768565533,0.012129562939200698,0.027090395418147003,0.008027259260416031,0.01403549127280712,0.00023761577904224398,-0.05183077478315681,-0.14039117272943258,-9.791862521767618
4.7,1.0,171.0,23.83278465270996,3.8645620346069336,-79.78239378104247,40.45807249414392,267.71009942245485,-0.003093133447691798,0.005040107294917107,0.3113287687301636,0.9502839446067808,0.005043327166277211,0.008618541879716541,0.026123669190336297,-0.004902311135083437,-0.0009272487368434668,-0.018370458856225014,-0.019231579075567426,-0.11474142936989665,-9.805963082313538
4.8,1.0,171.0,23.71384048461914,4.842630386352539,-79.78239379313621,40.4580725859998,267.72160729122163,-0.003108307719230652,0.005087185651063919,0.3112633228302002,0.9503050446510316,0.004352043322079326,0.010631736784389943,0.023938477666758416,-0.008654418401420116,-0.03305323049426079,-0.01581090874969959,-0.018163739311276003,-0.1095389331970364,-9.812128386497498
5.0,1.100000023841858,172.0,23.539804458618164,6.96575403213501,-79.78239379616629,40.45807259651322,267.72402485561366,-0.003244893159717321,0.005201117601245643,0.3113170266151428,0.9502863883972168,0.005244243722675855,0.009682347743331677,0.023349730643373336,0.00036464701406657696,0.004930347669869661,0.0020342678762972355,-0.027866749435197558,-0.10398983418010176,-9.809424633979797
5.11,1.100000023841858,174.0,23.44965744018555,7.6575584411621085,-79.78239376387094,40.4580726610618,267.7353000278473,-0.003423078218474984,0.005474371369928122,0.3113359212875366,0.9502780437469482,0.010978619921086872,0.005811114765041706,0.025811620248897056,0.026731250807642937,0.02428375370800495,-0.0014545563608407974,-0.020471686720848085,-0.15176618160679936,-9.801322147250175
5.3,1.2000000476837158,174.0,23.185474395751953,10.265740394592283,-79.7823937575198,40.45807266939728,267.73779698562623,-0.003628869773820042,0.00606438284739852,0.311336487531662,0.9502735137939452,0.005439962758435459,0.003052326518252841,0.027001030156920174,-0.016409002244472504,0.049046650528907776,-0.02364401519298553,0.010412191729992628,-0.11397266669198873,-9.881217917203905
5.4,1.2000000476837158,176.0,23.07404327392578,11.784528732299805,-79.78239374374236,40.458072764955524,267.7499470348358,-0.004092353861778975,0.00792349874973297,0.3112373650074005,0.9502903819084167,0.013593975392254858,0.006572024183935613,0.0263228613909488,0.0012662620283663273,-0.05213037133216858,-0.052450016140937805,-0.009401847682893276,-0.19000651516020292,-9.875092374086382
5.6,1.2000000476837158,177.0,22.821128845214844,14.60740852355957,-79.7823937354138,40.458072777844144,267.75278397750856,-0.003991810604929924,0.009155124425888063,0.3114010393619537,0.9502261877059937,0.006279163158015406,0.005451918467395279,0.031594048246063766,0.0035563241690397276,0.007373386062681675,0.0817561224102974,-0.16176026087254286,-0.3643219905719161,-9.80443637430668
5.71,1.2000000476837158,178.0,22.68214988708496,16.110294342041016,-79.78239373249892,40.45807282995069,267.76720663261415,-0.001940679387189448,0.012284107506275177,0.31159162521362305,0.950134813785553,0.009626724427561257,0.008195791251405765,0.036392546194810416,-0.04183385521173477,0.07577976584434509,-0.02406534552574157,0.07629354706965387,-0.08339194810017944,-9.85652278661728
5.9,1.2000000476837158,178.0,22.41045570373535,19.100160598754886,-79.78239366780276,40.45807286277947,267.77780064296724,-0.0012581010814756155,0.012786169536411762,0.3121379315853119,0.9499499797821044,0.013630081112243522,0.009861484813335179,0.028516157772555437,-0.07295581698417664,-0.05311896279454231,0.03695622459053993,0.11153620501980184,-0.2636672528833151,-9.774223226308823
6.0,1.2000000476837158,176.0,22.266469955444336,20.73822593688965,-79.78239365641738,40.45807292582778,267.78517945957185,0.0013959768693894148,0.003017583163455129,0.32017049193382263,0.9473540782928468,0.026853586237316384,0.04283656761731197,0.060592245089862926,-0.17541538178920746,-0.04780503734946251,-0.043804388493299484,0.2560999508388341,-0.20548983257263895,-10.085523140430453
6.2,1.2000000476837158,170.0,21.96096992492676,24.22110366821289,-79.78239354001686,40.458073007848455,267.7971214885712,0.0026827668771147732,-0.006929571740329266,0.3253202438354492,0.9455747604370116,0.015083151540146703,0.04583325534716788,0.10952944737686696,-0.25510233640670776,-0.06639664620161058,-0.06563003361225128,0.1870268836989999,-0.11278432060964405,-10.362491712570193
6.3,1.100000023841858,169.0,22.426733016967773,17.175830841064453,-79.78239334349556,40.45807321258947,267.8388111228943,0.002748815575614572,-0.015224856324493885,0.3324534893035889,0.9429928064346312,0.03285945695865667,0.07946899117897266,0.3258683809418921,0.1425236016511917,-0.0227967482060194,-0.049197137355804436,0.15380291299894452,0.13680785279721022,-10.80265256524086
6.5,1.100000023841858,161.0,22.36788558959961,18.60715103149414,-79.78239339147693,40.45807328540348,267.87315126609803,0.0012725626584142447,-0.005847668740898371,0.33455514907836914,0.9423571825027466,0.02713787414150871,0.0995567306459933,0.3498690951114758,0.19576911628246307,0.045632321387529366,0.0004868923861067742,0.15920433327555658,0.24244474712759256,-10.244217742681505
6.6,1.100000023841858,156.0,22.322813034057614,19.37052154541016,-79.7823935756445,40.458073404181796,267.9487415189743,0.005853549577295779,0.006689495872706175,0.33342769742012024,0.9427338242530824,0.028809808674997057,0.11919765027986395,0.2487680961621975,0.03861574828624725,0.020742202177643776,0.06888450682163239,0.2904770107381046,-0.022720804517157377,-9.34181987464428
6.8,1.0,144.0,22.21513557434082,20.348588943481445,-79.78239363903644,40.45807350780232,267.9709263677597,0.00676220515742898,0.006386517081409693,0.3319879174232483,0.943237841129303,0.038974366342602776,0.13330529687915996,0.193897920496814,0.003639111993834376,0.010019596666097641,0.04963894933462143,0.3299366714805365,0.0567093397770077,-9.27479733467102
6.9,1.0,142.0,22.18508720397949,20.706418991088867,-79.7823933580446,40.45807350278057,268.0067689652443,0.009329014457762241,-0.0003843087470158935,0.3289446532726288,0.9443031549453736,0.07160910278467089,0.08373532311387526,0.10110576078842083,-0.07265935838222504,0.028205307200551036,-0.009292659349739552,0.2196769319102168,0.10811826079152526,-9.500015709400175
7.1,1.0,138.0,22.163801193237305,20.467866897583008,-79.78239335404896,40.458073604625454,268.01604940843583,0.009596869349479677,-0.002147509716451168,0.3284548223018646,0.9444684982299804,0.07146081919232243,0.08739317588812713,0.08582291009627359,-0.0102247791364789,0.015495321713387966,0.010421153157949448,0.19829465098679067,0.011040484188124538,-9.618169226646422
7.2,1.0,131.0,22.09243392944336,21.12786293029785,-79.78239295231239,40.45807388036191,268.0791414613724,0.01127451565116644,-0.005152966361492872,0.32868051528930664,0.9443598389625548,0.09648780257617666,0.09098880845373283,0.16047941468464216,0.05080660432577133,0.09382417052984238,0.034207679331302636,0.2858155556023121,0.057842616965062925,-10.007211381196976
7.4,1.0,130.0,22.141263961791992,21.040393829345703,-79.78239250977902,40.4580739908697,268.1065095896721,0.012837141752243042,-0.0041536400094628325,0.3285317122936249,0.9443966150283812,0.1086614412953831,0.06740080593477679,0.18930542571093012,0.008004608564078808,0.06892011314630507,-0.016108021140098572,0.14789247432723646,0.03311857463791966,-10.089383472204213
7.5,1.0,128.0,22.12248420715332,20.80183982849121,-79.78239243391391,40.45807418255623,268.15039839696885,0.01922012306749821,-0.003935554064810276,0.3295899033546448,0.943920373916626,0.07759614330203865,0.07500865812512525,0.2343611648397953,-0.05044122040271759,-0.021643105894327164,-0.01925993338227272,0.35807826060801745,-0.005719042858108879,-9.949261965751653
7.7,1.0,127.0,22.02607536315918,21.8355712890625,-79.7823921370674,40.45807436416789,268.18099507045747,0.01858112774789333,-0.0052889552898705006,0.329209566116333,0.9440593123435974,0.08736727104105292,0.08755028601486052,0.2309275430860521,-0.05747773498296738,-0.01117234118282795,-0.024043405428528786,0.33121110867708925,0.030041673830710363,-9.91938620209694
7.81,1.100000023841858,129.0,22.103702545166016,19.89533805847168,-79.78239178240996,40.458074527362214,268.23600032281877,0.020071152597665787,-0.008254121989011766,0.3301969468593597,0.9436626434326172,0.05816312913117525,0.08179344355860674,0.2417908244320452,-0.05686356499791145,0.0006033738027326763,-0.0009740170789882539,0.3736527580395341,-0.10249487472698092,-9.946420218944553
8.0,1.100000023841858,134.0,21.991018295288086,21.779909133911133,-79.78239180075643,40.45807460012147,268.2602541680336,0.01987517066299916,-0.00901355128735304,0.33153536915779114,0.9431903958320618,0.02727015106726127,0.08281920680325923,0.23167972472345336,-0.010206052102148531,-0.06495226174592973,-0.05316268652677536,0.2455524326115847,0.06395804165862501,-9.697037640810011
8.1,1.2000000476837158,138.0,22.033588409423828,21.223283767700195,-79.78239161031084,40.45807476061812,268.32472732019426,0.01817253790795803,-0.004857450723648071,0.3338661789894104,0.9424328207969666,0.018412422991832444,0.09029652983472897,0.2614722705395299,0.17124946415424347,0.03636651113629341,0.022277375683188442,0.25549935042858124,-0.05252772177569569,-9.991757190227508
8.3,1.2999999523162842,143.0,21.870820999145508,23.65652656555176,-79.78239167385453,40.45807481618832,268.349678539753,0.018516590818762783,-0.0005829866277053952,0.3346865773200989,0.9421474933624268,0.004260391728762222,0.08186741376856001,0.1928617238281341,0.16218145191669464,0.05678262561559678,0.0032326418440788984,0.2164403884112835,-0.0910945400968194,-9.130489806532859
8.4,1.2999999523162842,145.0,21.684267044067386,25.27868843078613,-79.78239161939834,40.45807513415504,268.400825404644,0.007824849337339401,0.012784325517714024,0.3366602957248688,0.9415069818496704,0.030542731169915613,0.1311686152844351,0.0932990949584171,0.16897055506706238,0.005103406496345997,-0.04024692624807358,0.2501488192006946,-0.03195382755249738,-9.69157634139061
8.6,1.2999999523162842,142.0,21.622915267944336,26.59073257446289,-79.78239168879708,40.4580752384551,268.4140839214325,0.009109162725508213,0.015115149319171906,0.33762118220329285,0.9411166906356812,0.03247127229727617,0.12825614058829996,0.17575053239451685,-0.03783976286649704,0.14552824199199674,-0.08237781375646591,0.2082441086880863,0.04735017676837743,-10.343636780977251
8.7,1.2999999523162842,141.0,21.554052352905273,27.664220809936523,-79.78239160340596,40.4580755659221,268.4946045513153,0.023207886144518845,0.00662627536803484,0.3388924300670624,0.9405155181884766,0.0839412308358828,0.15706962784687573,0.4442846286903053,-0.0629461482167244,0.05128268897533417,0.03866929560899735,0.4542171571031213,-0.06909175082109867,-11.122959530353546
8.9,1.2999999523162842,146.0,21.364994049072266,28.23674964904785,-79.78239129412701,40.45807577451382,268.55084716629983,0.026764307171106345,0.0003958410816267133,0.3387979567050934,0.9404783844947816,0.07424532764260677,0.1656037100505639,0.5714646594151305,-0.16202495992183685,-0.0026423148810863486,-0.034756436944007874,0.4600180701166392,0.07163397400639952,-11.371627578735351
9.0,1.2999999523162842,149.0,21.24354362487793,30.852882385253906,-79.78239134769359,40.45807602493595,268.7052063281536,0.02419089898467064,-0.0008074978832155466,0.33913761377334595,0.9404253959655762,0.08724921130015154,0.15040552178438207,0.9589329943599292,0.1078563928604126,-0.04571445286273956,0.0012635226594284177,0.3980981028825045,0.15501907903701068,-11.72210266828537
9.2,1.600000023841858,157.0,21.20097541809082,31.71962547302246,-79.78239104907485,40.45807599713569,268.8132454017997,0.022793496027588844,0.0011904636630788445,0.33892878890037537,0.9405351877212524,0.0817238762044328,0.1447596839254987,1.1678589193075182,0.02591637335717678,-0.02675590664148331,0.06080779805779458,0.4121814506873489,0.022115393858402967,-11.954613690376284
9.3,1.600000023841858,161.0,21.088289260864254,31.60034942626953,-79.78239074896915,40.458076024501636,269.094433539629,0.023670200258493423,-0.000284832960460335,0.33661094307899475,0.941346287727356,0.07613323599349607,0.13063015672296466,1.5900551633790163,-0.05077540874481201,-0.02456783503293991,0.013434063643217087,0.38988305725157263,0.22892015559598805,-12.002497708797454
9.5,1.7999999523162842,161.0,20.830368041992188,34.908287048339844,-79.7823907378789,40.4580760943086,269.2652168507576,0.024097321555018425,-0.0016867925878614187,0.3360257148742676,0.9415429830551147,0.08291602123693206,0.13070954156035036,1.814777457842759,-0.08160940557718277,0.017356522381305698,0.10268741101026536,0.3694477329030633,0.13793566192500295,-11.999148423671725
9.6,1.8999999761581416,162.0,21.041963577270508,32.912391662597656,-79.78239044068808,40.45807606801539,269.67553784799577,0.027808062732219696,-0.00230834330432117,0.3363924920558929,0.9413083791732788,0.08039227986104516,0.1187246495012888,2.2817448985263016,0.06044073775410652,0.03288474678993225,0.0023731531109660864,0.4586630509793759,0.12832359770312907,-12.211409368515014
9.8,2.0,170.0,21.18219375610352,30.35192108154297,-79.78239041985398,40.45807607979409,269.91577722978593,0.026265790686011314,0.004389766603708267,0.33586230874061584,0.9415346384048462,0.08014253839753996,0.12154128259085276,2.5137896074088264,0.1596977412700653,0.014968639239668846,-0.006383323110640049,0.5798438544943929,0.17029255449771882,-12.148790366649628
9.9,2.0,173.0,21.172178268432614,30.272403717041016,-79.78239007893039,40.458075878206,270.46810337257386,0.019386483356356617,0.024791371077299118,0.33461838960647583,0.9418281316757202,0.029271117339987638,0.08792842089071431,2.9011467447250485,0.2086981683969497,-0.012848606333136559,-0.06512384116649628,0.5046034914627672,0.023402338614687324,-11.627169613838197
10.1,2.200000047683716,169.0,21.328683853149414,27.11554908752441,-79.78238994591628,40.45807587146565,270.7663069601059,0.017547328025102615,0.030001644045114517,0.33484169840812683,0.9416332244873048,-0.0039407070842392145,0.08101009626840662,3.060867366160232,-0.018059054389595985,-0.08623827993869781,-0.024406604468822483,0.4280596744269133,-0.10984945689328016,-11.420385171175006
10.21,2.4000000953674316,166.0,21.600378036499023,24.18929672241211,-79.7823892742163,40.45807562684025,271.4352385635376,0.019783688709139824,0.02101635932922364,0.3375089168548584,0.9408798217773438,0.03897394166018295,0.03463657602480608,3.2670538693464635,-0.11386032402515413,-0.00948988925665617,-0.033027827739715576,0.31963270805776123,-0.0983928519487381,-11.027311946153645
10.4,2.700000047683716,156.0,21.526508331298828,24.61074066162109,-79.78238881848594,40.458075377528246,271.79426070404054,0.019773375242948532,0.017152290791273117,0.3387402892112732,0.9405158162117004,0.09742282351868174,0.009108535306074486,3.304617529229501,-0.043338127434253686,-0.02165483310818672,-0.07968460023403168,0.3992902770638466,0.11066522570326924,-10.161270310878754
10.5,2.799999952316284,164.0,21.516490936279297,25.62856674194336,-79.7823881766682,40.45807537681903,272.4546396369934,0.016772663220763206,0.0215833019465208,0.34087783098220825,0.9397101402282716,0.14842643455503085,-0.03140910728959845,3.3085669005552565,-0.016393562778830528,0.01502413209527731,0.05122193694114685,0.3333891599625349,-0.018907172810286286,-9.804860297441484
10.7,3.0,159.0,21.70179557800293,23.09990310668945,-79.78238801566776,40.45807507628534,272.771582567215,0.017774239182472232,0.022955020889639854,0.3404647707939148,0.9398090243339542,0.1350485849368806,-0.037209433331103936,3.29441195421998,-0.02009107731282711,0.05015769228339195,-0.020532568916678432,0.37185393523424864,0.031940783236641436,-9.787996927499773
10.8,3.0,155.0,21.53276824951172,24.97652244567871,-79.7823877254549,40.458074803375226,273.39386769485475,0.02336462773382664,0.023831618949770927,0.3390556573867798,0.9401742219924928,0.13620720955660576,-0.03690948543006134,3.21258021838408,-0.03798525780439377,0.11633974313735962,0.0575144849717617,0.3858041857928038,-0.09823491317220033,-9.50975775539875
11.0,3.2000000476837163,154.0,21.550296783447266,24.181344985961914,-79.78238732546951,40.458074799572756,273.7124092216492,0.02785167284309864,0.02472563832998276,0.3380317091941833,0.940397560596466,0.1828643049200233,-0.03566068525180518,3.1875739527809466,0.0018818408716470003,0.050709228962659836,0.004189962055534124,0.3361102714017033,0.1390358795039356,-9.485488886833194
11.1,3.2000000476837163,155.0,21.51774406433105,24.66640281677246,-79.78238713491147,40.4580743640965,274.3394772644043,0.02779225632548332,0.02119201794266701,0.3371177315711975,0.9408135414123536,0.16572778777121588,-0.03700466540097225,3.0953860889103733,-0.10947969555854796,-0.1494269073009491,-0.07925797253847122,0.4399218842759728,-0.011075138077139857,-9.252157500386238
11.3,3.4000000953674316,154.0,21.526508331298828,25.159412384033203,-79.78238669201271,40.458074329872666,274.6443383331299,0.02360459417104721,0.015082319267094137,0.33776557445526123,0.9408133625984192,0.20518501370156345,-0.07138667129345183,3.0406724950519024,-0.08554600924253464,-0.17683343589305878,-0.05684053152799606,0.3647614088281989,0.027037981990724803,-9.27143810927868
11.4,3.5,151.0,21.481433868408203,24.61869239807129,-79.78238668608178,40.458073669431954,275.276608669281,0.011768710799515249,0.01726990379393101,0.3400583267211914,0.9401721954345704,0.19930605420054825,-0.1443773998659351,2.968691118259726,0.09507379680871964,-0.03984150663018226,-0.057744689285755164,0.4313170851767064,0.03501948160585016,-9.422850004434586
11.6,3.5999999046325684,168.0,21.491451263427734,24.332427978515625,-79.78238624971543,40.45807362648294,275.5706932182312,0.0073639582842588425,0.02077086642384529,0.3431530296802521,0.9390209913253784,0.20008772726804167,-0.17256527146200618,2.9389384342623486,0.11374230682849885,-0.0010021788766607642,-0.07098956406116486,0.3857356637343765,0.017307685241103172,-9.527236837148667
11.71,3.5999999046325684,164.0,21.375009536743164,26.40784072875977,-79.78238635808252,40.45807278538037,276.1988374824524,0.007088614162057637,0.026343420147895813,0.34804585576057434,0.9370805621147156,0.13813679229752046,-0.17702560672198786,2.9435051897488784,0.02625335566699505,0.07173001766204834,-0.036834537982940674,0.4315884325280786,-0.11226272156462072,-9.730153931379318
11.9,3.5,165.0,21.23477935791016,27.401813507080078,-79.78238635186348,40.45807190393804,276.54433222961427,0.010162703692913055,0.024270232766866684,0.3485865890979767,0.936907172203064,0.0842455662784665,-0.18147755504582147,2.965937182315713,-0.11541779339313507,0.0409022755920887,-0.0547214038670063,0.5116048743948339,0.0291997752757743,-9.778293473124505
12.0,3.5,164.0,21.405059814453125,25.286640167236328,-79.78238548587545,40.4580718355054,277.1373116607666,0.008794864639639854,0.019748792052268985,0.35016074776649475,0.9364401698112488,0.1931890829421956,-0.14584716999971292,2.994541105392536,0.08451121300458908,-0.13538575172424314,-0.0787157341837883,0.5403835176676512,0.046220028754323725,-9.921839693784712
12.2,3.5,162.0,21.41257095336914,25.859169006347656,-79.78238555345766,40.45807095473832,277.47420474243165,0.0023674825206398964,0.01965690776705742,0.3493101000785828,0.9367980360984802,0.14580656518608634,-0.1699130323570264,2.999281530799799,0.04184555634856224,-0.1705053150653839,0.010764999315142632,0.3706703126057983,-0.09293014554306864,-9.723540730476381
12.3,3.5,166.0,21.4426212310791,25.83531379699707,-79.78238512218459,40.45806989650264,278.0818278427124,-0.004632338415831328,0.021044878289103508,0.3493446409702301,0.9367464780807496,0.10750835085553093,-0.2359965475972161,2.988118658662384,0.03921535238623619,0.022029003128409386,-0.06580176949501038,0.3413070208579302,0.07268605255521833,-9.750423889160157
12.5,3.5,164.0,21.28736686706543,27.20301818847656,-79.78238471519316,40.45806987232066,278.37915202331544,-0.005059782881289721,0.02453605644404888,0.3494036793708801,0.9366374015808104,0.1376455287000475,-0.2142671645188509,2.9710840639849643,0.062491584569215775,0.02474849671125412,0.029560776427388188,0.4222428642958403,-0.10676003482192756,-9.709855322241783
12.6,3.5,162.0,21.40005111694336,24.714113235473643,-79.78238357995423,40.458068854699036,278.9882228012085,-0.00854632630944252,0.02016868256032467,0.34921225905418396,0.9367876052856444,0.14153964174989014,-0.22090350629982336,2.966019050695915,-0.03850386664271355,-0.0877738818526268,-0.045031510293483734,0.420491988658905,-0.09690140082500877,-9.844229600429538
12.8,3.4000000953674316,158.0,21.361236572265625,25.42182159423828,-79.7823831447811,40.45806888754768,279.2838627929688,-0.008906260132789612,0.015617265366017818,0.3516096770763397,0.9359740614891052,0.1864668843657904,-0.2016224182119001,2.9675605466798367,-0.06503070890903473,-0.014463928528130053,-0.07446479052305223,0.35491988707333805,-0.049689204641617836,-9.834748924970627
12.9,3.4000000953674316,160.0,21.32743263244629,26.527118682861328,-79.78238179602995,40.45806853845533,279.9005944366455,-0.005189395043998957,0.006299602333456278,0.35386401414871216,0.9352612495422364,0.27432588204926955,-0.16959002570033466,2.9644311263038907,-0.059930622577667236,-0.025068148970603943,-0.02540346048772335,0.35042301278561355,-0.11995707264170052,-9.74516841173172
13.1,3.299999952316284,153.0,21.477678298950195,24.88109970092773,-79.7823813883358,40.458068660584146,280.1964728469849,-0.004120784346014261,0.002084534615278244,0.3559900522232056,0.9344784021377563,0.3101299862462515,-0.11783134100727552,2.9703363386123907,-0.044985074549913406,0.015488227829337118,-0.014253484085202215,0.5337001867219806,-0.08341265089809895,-9.918500933647156
13.21,3.299999952316284,150.0,21.427595138549805,25.52519416809082,-79.78238012997734,40.45806840922452,280.8145644302368,-0.0093604763969779,-0.002409604843705893,0.35868480801582336,0.9334087371826172,0.33508505270350364,-0.08075670491464462,2.9828840699393213,-0.02871659398078918,-0.11554543673992156,0.02331965044140816,0.3473712047562003,-0.1281542294472456,-9.812269889116287
13.4,3.2000000476837163,155.0,21.39253807067871,24.332427978515625,-79.78237901093566,40.45806799288793,281.12829180908204,-0.012204921804368496,-0.003825689200311899,0.3581750690937042,0.9335668087005616,0.3364444114531444,-0.11621232393101773,2.997882004686609,0.029755089432001117,-0.05582816153764725,0.045007895678281784,0.2906056677550077,-0.1864360042847693,-9.894387016296387
13.5,3.0999999046325684,155.0,21.39379119873047,24.54712677001953,-79.78237844435272,40.45806839203611,281.7318751449585,-0.010842843912541866,-0.008786308579146862,0.3592400848865509,0.9331408739089966,0.3312286866924048,-0.015702846777983358,3.0292812610828608,0.05254912003874779,0.017439858987927437,0.012363932095468044,0.4132509795203805,-0.1844409708492458,-9.94812760591507
13.7,3.0,153.0,21.32367515563965,26.15338516235352,-79.78237720926327,40.45806808511446,282.0479523773193,-0.01046827342361212,-0.008814319968223572,0.3568522334098816,0.9340606331825256,0.339691431354544,-0.008875049345933486,3.0361165821328795,-0.056520335376262665,-0.0031830132938921447,-0.09551433473825456,0.3956135113164783,0.0804668601974845,-9.847432705163957
13.8,3.0,152.0,21.254812240600586,26.002300262451172,-79.78237581036358,40.458068159890644,282.66153022003175,-0.007732575759291649,-0.014940272085368632,0.3528541922569275,0.9355271458625792,0.3498442528137134,0.05389056478055286,3.056745246454963,-0.055971797555685036,0.04922277852892877,0.06495846807956696,0.4591402568668127,-0.17422343658283354,-9.998578552007677
14.0,2.9000000953674316,155.0,21.435108184814453,23.736045837402344,-79.78237568480121,40.45806844288313,282.96829196166993,-0.005602857563644648,-0.01944969967007637,0.35205233097076416,0.9357614517211914,0.3318698802277484,0.12051270062688925,3.072007886361176,-0.17927950620651245,0.004894972313195467,-0.00995904766023159,0.2987196479178965,0.04746032369323075,-9.956271607875824
14.1,2.799999952316284,159.0,21.378765106201172,25.07989501953125,-79.7823739899022,40.45806859109409,283.5848185653686,-0.0013371313689276574,-0.026041030883789062,0.3463647663593292,0.9377374649047852,0.3700612999867408,0.15817160290241955,3.0693871034308504,-0.012453930452466013,0.05910911411046984,0.04589292034506798,0.35680009581148625,-0.21630941078066826,-9.879889429807664
14.3,2.799999952316284,153.0,21.38126945495605,24.730016708374023,-79.78237400540334,40.458068892111285,283.8930661315918,0.0004883445217274129,-0.029366983100771907,0.3470376133918762,0.9373912215232848,0.32791625622134585,0.2259046541851964,3.0815817205347003,-0.0542537048459053,0.038006957620382316,-0.0006509057129733262,0.371861719340086,-0.11834854016080497,-9.93086428642273
14.4,2.799999952316284,150.0,21.427595138549805,24.75387191772461,-79.7823721233358,40.45806924694006,284.5072075958252,0.006900194101035595,-0.03638413920998573,0.3453215956687927,0.9377534985542296,0.3117092404973537,0.2543932178106305,3.1029635972278564,-0.15945208072662356,0.0484512634575367,-0.07835959643125534,0.305543805398047,0.005354660823941231,-9.959610368013383
14.6,2.700000047683716,156.0,21.592866897583008,22.64665222167969,-79.78237230258627,40.458069516983024,284.81844207000734,0.01067108940333128,-0.03924375772476196,0.34846845269203186,0.9364378452301024,0.26748807688732745,0.31069884174665063,3.1027928399374303,-0.09284202754497528,0.05749466270208359,-0.055170640349388116,0.35671604208648205,-0.1280830213241279,-9.854455211162568
14.71,2.5999999046325684,157.0,21.3599853515625,24.34037971496582,-79.78237036030481,40.458070109025456,285.427873336792,0.018986394628882408,-0.04348767548799515,0.3492477238178253,0.9358282685279846,0.2407025181020048,0.3417389447691106,3.0407754392759414,-0.007356119342148305,0.05573587119579315,-0.06173671036958695,0.3155991159752011,-0.08888736236840487,-9.647153289914133
14.9,2.5999999046325684,152.0,21.390033721923828,23.88712882995605,-79.78236833669956,40.45807083481185,285.72187205505367,0.02259155176579952,-0.043719716370105736,0.34165963530540466,0.9385344386100768,0.3110062737802877,0.33992910595768644,3.0223673155721493,-0.04130331054329872,0.11562971025705338,-0.06601057201623918,0.26716363202780485,0.02801633080467581,-9.742093945741654
15.0,2.5,149.0,21.362489700317386,25.14350891113281,-79.78236897880892,40.45807119609528,286.32778903198243,0.03204966336488724,-0.04317301139235497,0.343613862991333,0.9375705122947692,0.11481347393157712,0.4000517176816325,3.0167540882196384,-0.03931771218776703,0.06724395602941513,-0.07311011105775833,0.2680716498009861,0.06706495969556273,-9.757438209056852
15.2,2.5,148.0,21.336196899414066,25.47748374938965,-79.7823668010712,40.458072513059385,286.6192338104248,0.036720555275678635,-0.04441412165760994,0.3326600193977356,0.9412844777107242,0.1984626376064011,0.4135450738413831,3.006098074939373,-0.0890488550066948,0.11200305074453354,0.010796615853905678,0.23046509960666295,-0.03185711095109582,-9.887832287549973
15.3,2.5,149.0,21.30990219116211,24.674354553222656,-79.78236566204747,40.458074248687744,287.2154309387207,0.04637436196208,-0.04584512114524841,0.32503288984298706,0.943451762199402,0.15561761029960047,0.4753154480187177,3.0318669539232896,-0.015699664130806926,0.09546050429344176,-0.067552350461483,0.2703033492900431,0.07876775069162249,-9.981731554269787
15.5,2.5,137.0,21.799455642700195,18.638957977294922,-79.78236611650591,40.458074321165206,287.5203435058594,0.050310265272855766,-0.04657183587551117,0.3264407217502594,0.9427282214164734,0.03734831755967823,0.4533316693440614,3.0366516210176653,-0.05945795774459839,0.092352457344532,-0.002951308852061629,0.1631782837584615,-0.06533175361342729,-9.81187110900879
15.6,2.4000000953674316,134.0,21.695533752441406,19.87943458557129,-79.78236579131331,40.45807630839497,288.10960360717775,0.06328307092189789,-0.04779404029250145,0.3186150789260864,0.9445609450340272,-0.03567684994889336,0.4928956647173027,2.8861016167898628,-0.04382479563355447,0.14792177081108093,0.016916537657380104,0.21070587784051892,0.10165124941617253,-9.021849124431613
15.8,2.4000000953674316,146.0,21.872074127197266,18.14594841003418,-79.7823663891713,40.458076226349,288.3933503265381,0.07098381221294403,-0.04687489196658135,0.3183497786521912,0.9441490769386292,-0.1393936320532594,0.4492907553361544,2.7987323523024403,-0.011478732340037823,0.1848471164703369,0.037383630871772766,0.18883846074342728,-0.013670570924878122,-8.925496366024017
15.9,2.299999952316284,158.0,21.902122497558594,17.25535011291504,-79.78236687687941,40.45807796012432,288.9239499206543,0.09790918231010436,-0.046592872589826584,0.30650007724761963,0.9456746578216552,-0.2547740109055565,0.4506399800991725,2.5558875297661707,-0.06710238009691237,0.31202253699302673,0.04087182879447937,0.13252286698669194,0.13919479586184025,-8.518555299639702
16.1,2.4000000953674316,184.0,21.690526962280273,19.577266693115234,-79.78236756555066,40.4580776581816,289.16924830627437,0.11273376643657684,-0.04405282065272331,0.3066396713256836,0.9440988302230836,-0.3646104694619775,0.3937969167701171,2.4241529616210435,-0.012477130629122255,0.2393446564674377,0.02018528431653976,0.2196504915319384,0.16723387598991396,-8.463578023910522
16.21,2.4000000953674316,216.0,21.763145446777344,19.354618072509766,-79.78236866433973,40.45807973461902,289.6292588348389,0.13128811120986938,-0.03164840117096901,0.2978568375110626,0.9450096487998962,-0.4938970743783738,0.3466465275918796,2.2139099262929176,0.1450691521167755,0.1973228305578232,0.012996600940823557,0.27674963045865303,0.2319303570315242,-8.705126502513886
16.4,2.4000000953674316,299.0,21.59537124633789,22.026412963867188,-79.782369770098,40.458082356992186,289.87161990356446,0.13722659647464752,-0.02209663763642311,0.2868679165840149,0.9478330016136168,-0.5496204072869556,0.41196625252670427,2.129637512817668,0.19868186116218567,0.20817174017429352,0.009630481712520124,0.4377993084490299,0.22350108403712515,-8.909392549395562
16.5,2.5,317.0,21.46014976501465,22.91701316833496,-79.78237118219431,40.45808208821172,290.29386111450196,0.1437140554189682,0.003989574499428272,0.28574922680854803,0.9474585652351379,-0.7424165286135099,0.10733622553973604,2.071141251269504,0.3347965180873871,0.06898806244134903,0.0349913127720356,0.4088783585652709,0.2296520259976387,-9.307851060032846
16.7,2.5999999046325684,324.0,21.607891082763672,21.056297302246094,-79.78237340653338,40.458085635428716,290.570150100708,0.14220072329044342,0.016833513975143433,0.26715436577796936,0.9529555439949036,-0.8093296476282014,0.23984110640618864,2.048231728446116,0.3211768865585327,0.057245422154664986,0.03413299471139908,0.3373137014731765,0.2780713935568929,-9.399581009745598
16.8,2.700000047683716,327.0,21.561565399169922,22.583038330078125,-79.78237687568058,40.458087706227005,291.0189263458252,0.13992096483707428,0.03768974542617798,0.2397137135267257,0.9599682092666626,-0.9579705315119096,0.13842117621869193,1.98598109072301,0.23780693113803866,0.018524283543229103,-0.000610208313446492,0.4249826502799988,0.4834132915735245,-9.32760353922844
17.0,2.799999952316284,344.0,21.632932662963867,20.809791564941406,-79.78237751462737,40.458086836228034,291.20810290527345,0.13873453438282013,0.05336600914597511,0.2410779297351837,0.9590548872947692,-0.9128991710703832,-0.14199191265319114,1.980460293474676,0.31422367691993713,0.05198327451944351,-0.05474039167165756,0.6591863682121039,0.526369569003582,-9.388625666499136
17.1,2.9000000953674316,358.0,21.6917781829834,19.58521842956543,-79.78237996579395,40.45808553220543,291.55275317382814,0.13214702904224396,0.08459073305130005,0.23496030271053314,0.9592577219009399,-0.9014819568352741,-0.4877217393625482,1.872883299714672,0.2845823466777801,-0.002546233823522925,0.016703478991985318,0.6931953824311495,0.4830985286459327,-9.229176188707351
17.3,3.4000000953674316,355.0,21.89961814880371,17.27125358581543,-79.78238006910641,40.45808433617639,291.7177559967041,0.12867717444896698,0.0999034345149994,0.2348645031452179,0.9582798480987548,-0.7951540432298259,-0.7202795548001909,1.8151661448987282,0.2919747233390808,-0.03280823305249213,0.1066884547472,0.6318543626368046,0.4131854907050729,-9.039201321601867
17.4,3.5,353.0,21.94344139099121,16.921375274658207,-79.78238671900397,40.45808688876159,292.12374468994136,0.12466743588447572,0.12395884841680528,0.1898951381444931,0.9659359455108644,-0.8015510794838847,-0.8059114600504661,1.5873054271459324,0.3061264753341675,-0.13168884813785553,0.16372372210025787,0.6570823207497597,0.3174872184544802,-8.427794233560562
17.6,3.799999952316284,87.0,22.203866958618164,15.140177726745605,-79.78238666253661,40.45808565587479,292.2542721862793,0.1058550477027893,0.12824752926826474,0.1954385042190552,0.9665148854255676,-0.6917437247201267,-0.8910092976446045,1.4255638705667857,-0.33047157526016235,-0.9741549491882324,-0.06666429340839386,1.586868839263916,-0.33919095005840066,-7.859247820973398
17.71,4.0,108.0,21.7844295501709,18.464019775390625,-79.78239251513229,40.45808558336378,292.5081441040038,-0.0330197773873806,-0.029132079333066937,0.15769650042057035,0.986505389213562,-0.6532820820452337,-0.9917131602217334,0.777566023407519,-1.5731215476989746,-1.864434003829956,0.4334624409675598,0.8996028258651495,0.465153241083026,-7.288219265341759
17.9,4.300000190734863,105.0,22.15503692626953,13.42259407043457,-79.78239930172761,40.45808747266714,292.69521495056154,-0.08525145798921585,-0.09945160150527954,0.0925694704055786,0.9870524406433104,-0.8471778951491279,-0.9292544166360436,0.7117599422324483,-0.2976375222206116,-0.8490140438079834,0.4939996302127838,0.010695270057767627,1.5676196591556073,-8.64090828716755
18.0,4.5,102.0,22.220144271850586,16.014873504638672,-79.78240066486543,40.45808569151408,292.8344418640137,-0.026820871978998184,0.022335313260555267,-0.002435934962704777,0.999387800693512,-0.5579984684210872,-0.9738522251205898,0.4100080795788341,1.9657928943634035,1.4509494304656982,1.1351972818374634,-0.4453002628684044,1.005527183935046,-7.678002262115479
18.2,4.900000095367432,235.0,21.566574096679688,21.191476821899414,-79.7824024583937,40.45808377677485,292.8514687652588,0.03685823827981949,0.11247105151414873,-0.06731817871332169,0.9906867146492004,-0.5308284640447073,-0.9268671829704836,0.12708617846323306,1.2386623620986938,0.8867952227592468,1.1589434146881104,1.0128975992649794,-0.6685799932479859,-7.153297687768936
18.3,5.0,210.0,21.666736602783203,20.380395889282227,-79.78240574185209,40.45808101608071,292.90178271484376,0.05455071479082108,0.0892387181520462,-0.2005313485860825,0.9740883111953736,-0.16240366909931872,-0.9993198531712244,0.10222545962526512,-1.1340863704681396,0.08223778009414673,1.2097299098968506,1.3934123937785623,-0.7610741740465164,-8.9958582508564
18.5,5.099999904632568,201.0,21.606639862060547,20.865455627441406,-79.7824064077392,40.45808022116493,292.91474505615236,0.03795316070318222,0.04407882317900658,-0.2683208584785461,0.961571991443634,0.1242197114895881,-0.9836430648239612,0.1291683199825725,-0.8341135978698729,-0.07421655207872391,1.3258354663848877,1.075468215420842,-0.1311237561888993,-9.448322229981423
18.6,5.199999809265137,197.0,21.574085235595703,21.30280303955078,-79.78240747036517,40.45807858536092,292.943591796875,0.016800597310066227,0.017305273562669754,-0.4050944745540619,0.9139566421508788,0.4914915964407898,-0.8438538037257134,0.13166237277102327,-0.06279179453849792,-0.007421125192195176,1.4619221687316897,0.5584100815281272,-0.281320289298892,-9.93650801897049
18.8,5.199999809265137,271.0,21.710559844970703,19.402328491210934,-79.78241248510814,40.458076889977114,292.9941174621582,0.01475070882588625,0.01449257042258978,-0.4820094406604767,0.8759219646453857,0.5643069460636083,-0.8981108976097015,0.18501875753215752,0.0007244979497045279,0.003560261335223913,1.6220117807388306,0.6527075801789761,-0.6933262869715691,-9.963178339004518
18.9,5.099999904632568,285.0,21.560312271118164,21.68448829650879,-79.78241562975782,40.45807329589893,292.96929904174806,0.010059038177132608,0.004909042734652758,-0.6124373078346252,0.7904399037361145,0.807570291549745,-0.7012842955703779,0.17081396615401032,-0.09811749309301376,0.10235624760389328,1.4219743013381958,0.4615494924411178,-0.5325913719087839,-9.843709198236466
19.1,5.0,272.0,21.51774406433105,22.757976531982425,-79.78241600030225,40.4580723962569,292.98330851745607,0.006051493808627129,-0.00016869019600562749,-0.671578586101532,0.7409086823463441,0.8587377854999313,-0.540305064778396,0.16203084705149745,-0.21727219223976127,-0.07931291311979294,1.640161156654358,0.2520850881189108,-0.547373023442924,-9.829187053442002
19.21,4.900000095367432,264.0,21.522750854492188,21.461837768554688,-79.78241767784601,40.45806847351062,292.89245959472663,-0.001703284215182066,-0.013486946932971478,-0.7778695225715637,0.6282788515090942,0.9354393886207776,-0.25838820411569835,0.11847391219399075,-0.2387066632509232,-0.02471815049648285,1.5471583604812622,0.11183128841221332,-0.3985533451661468,-9.99358853816986
19.4,4.699999809265137,278.0,21.511484146118164,21.93894386291504,-79.78241749808308,40.458065383678495,292.7351586456299,-0.005644092336297035,-0.01909390464425087,-0.8207024931907654,0.5710088610649109,0.9677847604999936,-0.10520042342155328,0.03408027733439078,-0.1847705096006393,0.03842143341898918,1.4182932376861572,0.08407101997174322,-0.33919814944267274,-9.835479826927186
19.5,4.599999904632568,282.0,21.550296783447266,21.899185180664066,-79.78241904491061,40.45806372691405,292.7743355865478,-0.01974785327911377,-0.023601489141583443,-0.8967553377151489,0.4414553642272949,0.8317818584792241,0.11509094958940005,0.045418650018496896,-0.1136743351817131,0.015845835208892822,1.3749291896820068,-0.2412481875345111,-0.5356231166794896,-9.915421789884569
19.7,4.199999809265137,264.0,21.23477935791016,25.75579643249512,-79.78241726299117,40.458060904421174,292.57520838928224,-0.02519872412085533,-0.03007506020367145,-0.920965611934662,0.387663334608078,0.7220224821511892,0.2621063744598793,-0.03365544234724791,-0.0945315957069397,0.08970216661691666,1.2438586950302124,-0.32654419004917146,-0.2909495023079217,-10.038999184370038
19.8,4.099999904632568,255.0,21.20347785949707,25.67627716064453,-79.78241581095429,40.45805757598625,292.3853985900879,-0.0205676406621933,-0.03930140659213066,-0.9530858397483826,0.2994324266910553,0.4708562646392042,0.3569018237312748,0.04554765678092646,-0.007229476235806942,0.04395243152976036,0.7882525324821472,-0.16439819566905498,-0.35083323150873186,-10.859012707471848
20.0,3.799999952316284,257.0,21.751876831054688,21.24713897705078,-79.78241590237471,40.458057141510636,292.40041705322267,-0.04211093857884407,-0.046692825853824615,-0.9619233012199402,0.2659889161586761,0.18961154111471454,0.32831250023249475,0.1605294264352666,-1.5141347646713257,0.04833788424730301,0.4882844984531402,-0.022962527498602867,-1.5467249263823033,-10.883504354953766
20.1,3.5999999046325684,252.0,20.775278091430664,33.0634765625,-79.78241221580805,40.45805354240152,292.1426980133057,-0.234038770198822,-0.14693409204483032,-0.9307629466056824,0.23940883576869965,-0.4842029895376778,0.146932606796427,-0.042739271649076836,-1.6003422737121582,0.6138182282447815,0.21189412474632266,-0.1192295876517892,0.4637952252477408,-9.734603077769279
20.3,3.299999952316284,231.0,20.365856170654297,36.53044891357422,-79.78241146191573,40.45805379308322,292.12573405456544,-0.2698466181755066,-0.1834886074066162,-0.9167373180389404,0.2304509133100509,-0.91652741408708,-0.016248662029964108,0.3719878807646503,-0.3864242434501648,0.3378174602985382,0.09868302196264267,0.13857985150069,0.8436693841964007,-11.188361806869507
20.4,3.299999952316284,220.0,20.748985290527344,30.566619873046875,-79.78240654480517,40.45805297007943,291.87051554870607,-0.20940545201301566,-0.16109156608581546,-0.933111608028412,0.2439297139644623,-1.7288671012936592,-0.2415842180988139,1.3122821016350188,1.6945438385009766,-0.7491461038589478,-0.1155998557806015,0.7641802150011063,1.4636166961491108,-12.294018831253052
20.5,3.0999999046325684,163.0,21.173429489135746,24.39604187011719,-79.7824044034161,40.45805438539672,291.8758771057129,-0.12829376757144928,-0.09747149795293808,-0.9543284177780152,0.2515895962715149,-2.1499004575755785,-0.3944113342649436,1.3864569198277763,1.9931236505508425,-0.9642234444618224,0.026955083012580868,0.35466023415327075,0.8561592561006547,-11.733738627433775
20.7,3.0,168.0,21.55906105041504,21.74810218811035,-79.78239981150519,40.458053023219534,291.68656130981446,-0.05021581798791885,-0.040600646287202835,-0.9645589590072632,0.2558435499668121,-2.5685914686925906,-0.4917282499788235,1.0123917721418725,1.4804649353027344,-0.4836855530738831,0.10984740406274797,-0.3340633804723621,0.1899509666115045,-11.184122575521467
20.9,3.0,146.0,21.977245330810547,15.720657348632812,-79.78239251931487,40.45805319738164,291.6139542694092,0.044373344630002975,-0.03499756008386612,-0.9655746221542358,0.2539130449295044,-2.7504182672051334,-0.5586071585339417,0.2853971455301246,0.4512195885181427,0.5763485431671143,0.024183109402656555,-0.3121258698776365,0.1685893336683512,-10.387570420503618
21.0,2.9000000953674316,135.0,21.751876831054688,19.593170166015625,-79.78238757070159,40.458048883762544,291.7013852233887,0.06574583053588867,-0.060055408626794815,-0.9724575877189636,0.21540027856826785,-2.6914549132018246,-0.0530840906877591,0.19503689965424692,0.3364552855491638,0.7203421592712402,-0.03352504968643188,-0.06406977372709663,0.3185396441817284,-9.652956066727636
21.2,2.9000000953674316,152.0,21.456392288208008,22.83749389648437,-79.78237635088671,40.458047488857495,291.47608729553224,0.11396259069442748,-0.1245194375514984,-0.9628467559814452,0.21079282462596893,-2.460245479226287,-0.3486998333632788,-0.1860338799808438,0.3235633671283722,0.6421880722045898,0.02135549858212471,0.14342713845893745,0.4456608168035746,-9.20864602982998
21.3,2.9000000953674316,144.0,21.15464973449707,26.376033782958984,-79.78237405684389,40.458048762502216,291.47852297973634,0.13723431527614596,-0.14633622765541074,-0.9565776586532592,0.21145151555538172,-2.227690609993774,-0.6286157906739451,-0.2267179515715065,0.3616353869438171,0.28048020601272583,0.09142808616161346,0.38039770402014256,0.3085624670237303,-9.393391731977463
21.4,2.9000000953674316,128.0,21.082029342651367,26.702056884765625,-79.78236760579584,40.45805107015664,291.32430812072755,0.16753603518009186,-0.1443139910697937,-0.95039701461792,0.218748152256012,-1.7705890517996263,-1.104651180262136,-0.1478528778956527,0.15830029547214508,-0.26090219616889954,-0.09194761514663696,0.7256836820393802,0.3263654114305973,-10.356611752510071
21.6,2.9000000953674316,122.0,21.25731658935547,24.39604187011719,-79.78236256897006,40.458054488471326,291.1872841949463,0.1273740381002426,-0.05291252583265305,-0.9572989344596864,0.25407662987709045,-1.4202338405114932,-1.2853372047016058,-0.14536428138177085,-0.6106061935424805,-2.4478204250335693,-0.8202580213546753,1.8038167659938336,-0.3052678350917995,-9.674485514760017
21.7,2.9000000953674316,114.0,21.45388984680176,21.597017288208008,-79.78236181499058,40.45805606708869,291.1711747283936,0.0640496239066124,0.03932129591703415,-0.949840247631073,0.30357038974761963,-1.2897648881356216,-1.3198396294343917,-0.1966789958500068,-0.6018686890602112,-1.2758607864379885,-0.8371219038963318,-0.5240646696835757,-0.10937351181171837,-10.216622393131257
21.9,2.9000000953674316,106.0,21.3599853515625,22.93291664123535,-79.78235733377977,40.4580581885488,291.0938012237549,0.03948935866355896,0.05716875195503235,-0.934498131275177,0.3491210639476776,-1.4027181670242796,-1.099666408085064,-0.2732988908254805,-0.07205063104629518,0.3374224603176117,-1.1007447242736816,-0.9621322922408582,0.3084839316084981,-10.901920745372774
22.1,2.9000000953674316,97.0,21.331188201904297,22.78183174133301,-79.78235635729962,40.458061040793694,291.10177394104005,0.08432129770517349,-0.012261242605745792,-0.8839017152786255,0.459845095872879,-1.2598189719946102,-0.7557050541783906,-0.07760903980062869,0.30904093384742737,0.7853551506996155,-1.4718313217163086,0.2732682713493705,0.5895060494542123,-10.324702327251435
22.21,2.799999952316284,94.0,21.312406539916992,22.43195343017578,-79.78235255720378,40.45806372719533,291.0610329742432,0.10708031803369522,-0.03904322534799577,-0.8502273559570312,0.5139288902282715,-1.3475987673529106,-0.5400072713047994,-0.04207935608046393,0.2578974068164825,0.3872082233428955,-1.4795854091644287,0.7637558533251286,0.3347298534214497,-10.22097155213356
22.3,2.700000047683716,65.0,21.341203689575195,23.55315399169922,-79.78234870103266,40.458068819818735,290.9807984466553,0.10977578908205032,-0.051620639860630035,-0.7653541564941406,0.6320741176605225,-1.3474558709934206,-0.33501840433859353,-0.0339311770061656,0.1546899974346161,-0.1431550234556198,-1.5882292985916138,0.6811317725479603,0.33418978996574883,-10.218526246547698
22.5,2.5999999046325684,43.0,21.376262664794922,21.915088653564453,-79.78234883180792,40.45807112252147,291.0033070678711,0.10061120986938477,-0.04413331300020218,-0.6590444445610046,0.7440363764762878,-1.1673161129812522,-0.27436053939407146,0.12802000168749406,0.14678552746772766,-0.2002744972705841,-1.4956421852111816,0.3049904577992857,0.2373367291688919,-10.50813649892807
22.7,2.5,42.0,21.301137924194336,23.31460189819336,-79.78234651588694,40.45807571986481,290.9085270996094,0.09692610800266266,-0.04166246950626373,-0.6031542420387268,0.7906166911125183,-1.2788624146480638,-0.1365660145710904,0.06825838029899467,0.14769957959651947,-0.14970828592777252,-1.5286469459533691,0.31942589934915305,0.3278895612806082,-10.294130744934085
22.8,2.5,42.0,21.32993507385254,23.12375831604004,-79.7823469706363,40.45807677232161,290.92145320129396,0.0968044251203537,-0.03886676952242851,-0.5401502847671509,0.8350784778594971,-1.1910765543714692,-0.11552408887326075,0.10883187473741934,0.16536381840705872,-0.06235333532094955,-1.6365269422531128,0.39998912896960975,0.5002294452488423,-10.239953953027726
22.9,2.4000000953674316,26.0,21.37250518798828,22.55918312072754,-79.78234709965757,40.45808132892611,290.87947245788575,0.09810353815555573,-0.034417953342199326,-0.4071625173091888,0.9074193239212036,-1.1403982670451256,0.02052837814820824,0.12445784902216467,0.19730007648468012,-0.048193175345659256,-1.5774129629135132,0.3756286783888936,0.4120378284528852,-10.31907028913498
23.1,2.4000000953674316,12.0,21.401302337646484,21.469789505004886,-79.78234707876446,40.458086082572606,290.8544041748047,0.0975528433918953,-0.03024344146251678,-0.2643884718418121,0.9589930772781372,-1.0624845555203732,0.20180908045338108,0.10352910156974092,0.16093818843364716,0.02032751403748989,-1.4612433910369873,0.26876246178522706,0.3879051634669304,-10.124898290634157
23.2,2.4000000953674316,14.0,21.388782501220703,21.398223876953125,-79.78234794898425,40.45808673334236,290.86945506286617,0.09836286306381226,-0.029926901683211327,-0.19501753151416776,0.9753959774971008,-0.9784133453466892,0.18299618310017632,0.12049452158908915,0.15615788102149966,0.0345715694129467,-1.3059033155441284,0.3137867349386215,0.33735408380627635,-10.019661272764207
23.4,2.4000000953674316,16.0,21.527759552001953,20.714370727539066,-79.78234824158353,40.4580893740478,290.8691117401123,0.09774316847324373,-0.030892707407474518,-0.13861626386642456,0.9850266575813292,-0.9451697229675022,0.26205328099463177,0.08668394253221617,0.0848633348941803,0.057243864983320236,-1.0616995096206665,0.22428621891886,0.5062774396687746,-9.905171620845797
23.6,2.5,348.0,21.033199310302734,25.668325424194336,-79.7823501233138,40.45809012083796,290.8892285461426,0.10315530002117156,-0.03060493990778923,-0.05976587906479836,0.9923962354660034,-0.853142363036028,0.09069455256506492,0.09952810302724063,0.1332116723060608,0.2105099856853485,-0.5021108984947205,0.2098366344161332,0.4485063277557492,-9.780132422447203
23.71,2.5,333.0,21.215999603271484,25.71603775024414,-79.78235110557726,40.45809196186328,290.9059922332764,0.10191182047128676,-0.03767326474189758,-0.04075592011213303,0.9932440519332886,-0.95564296989428,0.033161716561259394,0.11122124155730044,-0.6857241988182068,0.22195632755756373,-0.3736570775508881,-0.2726705031841993,-0.3253982819616795,-10.105111312866214
23.8,2.700000047683716,335.0,20.71267509460449,31.98203468322754,-79.78235355256163,40.45809355422834,290.9512765045166,0.1821275949478149,-0.1680389642715454,-0.032686859369277954,0.968258261680603,-1.233131323293066,-0.3290624839734825,0.4147548781529492,-0.9095104932785034,0.7924619317054749,-0.15362444519996646,0.5191596597433089,0.7798946070671082,-10.317962826490405
24.0,2.799999952316284,337.0,20.635047912597656,31.520832061767567,-79.78235723555848,40.45809250360457,290.97666903686525,0.1910448670387268,-0.18002238869667053,-0.0357675664126873,0.9642689824104308,-1.5277121507795686,-0.7724619568276607,1.2945072584721116,0.7267918586730957,-0.7027387022972107,0.12882989645004272,1.1920563599467278,1.411953476071358,-11.396291134357453
24.1,3.0,5.0,21.09830665588379,24.21315193176269,-79.78235938139011,40.458094420061975,291.05831690979005,0.13915571570396426,-0.12504340708255768,-0.047797847539186485,0.9811806082725524,-1.7627671813966397,-0.837147477845586,1.4183153569330198,1.3143566846847534,-1.334589958190918,0.12434948235750196,1.1485918132960795,1.2767275509238245,-11.208027162551879
24.3,3.0999999046325684,0.0,21.650461196899414,18.599199295043945,-79.78236201067563,40.458093409780666,291.0928666229248,0.07223796099424362,-0.05432435870170593,-0.055945683270692825,0.9943342208862304,-1.9590636653504667,-1.1782442543555478,1.251733730716387,1.322779417037964,-1.3216722011566162,0.18303926289081573,0.5786944746226073,0.8335399601608515,-10.71009932756424
24.5,3.5,356.0,21.80696678161621,16.643062591552734,-79.78236720970914,40.45809565305291,291.26409312438966,-0.004935277625918388,0.0339369997382164,-0.07604745030403137,0.9965142607688904,-2.119764363296724,-1.3041846436460622,0.4727734927917787,0.4449748396873474,-0.2422604411840439,0.17659427225589752,0.17328022588044406,0.32128798171877865,-10.038365346193316
24.6,3.700000047683716,353.0,21.952205657958984,13.669099807739258,-79.78237248698098,40.458099652434726,291.4359471435547,-0.0006088677328079939,0.06584224849939346,-0.09306037425994873,0.993480920791626,-1.9644117884208765,-0.9159566241641706,0.10414393944511376,0.3138521909713745,0.10319073498249054,0.12773936986923218,0.3798859264701605,0.3195604218542576,-9.028780998587607
24.7,4.0,255.0,21.96347427368164,14.957286834716795,-79.78237481610897,40.45809914884051,291.4609124298096,0.008607370778918266,0.07734482735395433,-0.09392332285642624,0.992533266544342,-1.7587085156841116,-0.8821227720618758,-0.07810294799201138,0.2319917678833008,0.1676686406135559,-0.061702225357294076,0.8582011038064957,0.4712562358751893,-8.646916885972024
24.9,4.099999904632568,240.0,21.85204124450684,18.13004493713379,-79.78237772582659,40.45810294915201,291.5528561706543,0.014565186575055122,0.08777940273284912,-0.10256508737802504,0.9907386898994446,-1.7112411050541187,-0.5721532971788131,-0.2386636648625421,0.20449569821357727,0.09525216370821,0.045457527041435235,0.7866387856006622,0.216974166110158,-8.408137063980103
25.1,4.199999809265137,235.0,21.82574844360352,17.136072158813473,-79.78238155026663,40.458102578435934,291.5235020751953,0.007637411355972291,0.09368962794542313,-0.09751936793327333,0.9907844662666321,-1.2872451508598497,-0.4737722052161456,-0.5483571583073706,-0.0520654171705246,-0.2691569924354553,0.037122629582881934,0.6465953394770623,-0.029233611468225718,-8.499079978466034
25.2,4.300000190734863,232.0,21.620410919189453,19.935096740722656,-79.78238439093163,40.45810582645112,291.5919015045166,-0.0076339892111718655,0.08587931841611862,-0.0987078845500946,0.9913744330406188,-1.2207469337041341,-0.20908950912660745,-0.6206835721403746,-0.2349691987037659,-0.2665959596633911,-0.14361988008022308,0.7817000079900027,0.14805438738316298,-8.677534076571465
25.3,4.199999809265137,221.0,21.53902816772461,20.952924728393555,-79.78238847914065,40.45810854055753,291.6188542480469,-0.04471564292907715,0.0629485622048378,-0.09127794951200484,0.992827534675598,-1.0139974090816073,0.1683642150433381,-0.6464728758288963,-0.2933783233165741,-0.2742858231067657,-0.09185758233070374,0.565670788474381,0.4553530883789063,-9.18860996067524
25.5,4.099999904632568,230.0,21.312406539916992,22.81363868713379,-79.78239058845217,40.458109382116334,291.51051875305177,-0.07971256971359253,0.046386774629354484,-0.08424465358257294,0.9921678304672241,-0.7956074106003477,0.5597833913571474,-0.5550699305996539,-0.17803718149662018,-0.39225515723228455,0.05138210952281952,0.4240550626069308,0.268757162746042,-9.947614220380784
25.6,4.0,228.0,21.22726821899414,24.141586303710927,-79.78239274032858,40.45811203538752,291.6153084869385,-0.09773912280797956,0.03970478102564812,-0.08313146233558655,0.9909388422966005,-0.7981730792063833,0.8775668253664505,-0.3646625853397327,-0.2041788399219513,-0.3468874990940094,-0.13117577135562894,0.5310406172275544,0.39266187340021136,-10.251943084001544
25.8,3.799999952316284,230.0,21.112079620361328,25.93868637084961,-79.78239345967685,40.458112988834685,291.5733277435303,-0.11600873619318007,0.034578055143356316,-0.08163166791200638,0.9892839193344116,-0.721071731390778,1.137060868324709,-0.21329957084502554,-0.07531382888555528,-0.3713261187076569,-0.015250050462782385,0.3463269285857677,0.2989769619517029,-10.594599276781082
26.0,3.4000000953674316,244.0,20.95181655883789,27.529041290283203,-79.78239503629106,40.45811676316444,291.6286389465332,-0.14934399724006653,0.03219999000430107,-0.07745972275733948,0.9852205514907836,-0.621033457633499,1.7554884687099326,0.3019303310998517,-0.048211179673671715,-0.2581380903720856,0.00597703829407692,0.1278249215707183,0.21542437987402085,-11.071237399578097
26.11,3.2000000476837163,250.0,20.936792373657227,27.94253349304199,-79.78239493949347,40.45812030544265,291.5784794921875,-0.16621486842632294,0.02283811941742897,-0.0748271495103836,0.9829812049865724,-0.4756857174639035,2.3575065400993926,0.7692563685841352,-0.2258195281028748,-0.11180967837572098,-0.11905045062303544,0.2641621465981007,0.27446011662483216,-11.303459569215775
26.2,2.799999952316284,261.0,20.85791206359864,27.95048522949219,-79.78239497562987,40.45812274551576,291.5820138092041,-0.17235325276851654,0.012386877089738846,-0.07337556034326552,0.982220470905304,-0.4409979660192078,2.6866187897779907,1.0104971387444808,-0.22958700358867645,-0.1795322299003601,-0.03907511010766029,0.11892286464571955,0.2196897592395544,-11.323121416568757
26.4,2.799999952316284,267.0,20.906742095947266,28.05385780334473,-79.78239415424036,40.45812561910473,291.5369965667725,-0.1803489774465561,0.001398276654072106,-0.07490091770887375,0.9807457327842712,-0.3600005952859333,3.02585540800586,1.2240199876698057,-0.20851384103298187,-0.1725727915763855,0.01621941104531288,0.12958345340564847,0.11300783956423402,-11.293236297369006
26.6,2.700000047683716,286.0,20.80657958984375,28.43554306030273,-79.78239378975051,40.458132245539815,291.5762574310303,-0.19612449407577515,-0.028232617303729057,-0.07140794396400453,0.977567970752716,-0.3921501586256504,3.6774183957071576,1.7753630295526537,-0.35083022713661194,-0.1206325963139534,0.04458772763609886,-0.07002307066228243,0.15950440507382155,-11.362952649593351
26.7,2.700000047683716,298.0,20.906742095947266,27.028079986572266,-79.78239259072616,40.45813635461997,291.57388468933107,-0.2017449289560318,-0.0449647568166256,-0.07203663885593414,0.975749969482422,-0.3617044893395808,4.0207101896786765,2.055065935133455,-0.3848693072795868,-0.03896041959524155,-0.03275054320693016,-0.18641325496137146,0.3031499735824764,-11.458283314704895
26.8,2.9000000953674316,313.0,20.940547943115234,27.19506645202637,-79.78239103046133,40.45814544753289,291.62453623962404,-0.2077546864748001,-0.07817080616950989,-0.07018172740936279,0.9725234508514404,-0.4292515500730061,4.693489041498799,2.5533975201426853,-0.3371580243110657,-0.005848867818713188,0.03537516668438912,-0.2486544353328645,0.30511217124760154,-11.105769885778427
27.0,3.0999999046325684,320.0,20.970598220825195,25.859169006347656,-79.78239099009738,40.45815043121106,291.6688668365478,-0.20191442966461184,-0.095204196870327,-0.06855884939432144,0.97235107421875,-0.5503150320873743,4.976750633015462,2.804186745198034,-0.35896867513656616,0.2912156879901886,0.14109647274017334,-0.7917212585359812,0.3397375916317105,-11.10342632174492
27.1,3.5,343.0,21.18219375610352,22.75002479553223,-79.78238908860256,40.45816137799416,291.716899597168,-0.12771929800510404,-0.13144734501838684,-0.0718371719121933,0.9804329872131348,-0.7061198236023554,5.621445189683304,2.817341587404747,-0.3914379179477692,0.9809561967849731,0.2212022989988327,-0.8361649945378304,0.4277782040834427,-11.007512104511258
27.3,3.700000047683716,1.0,21.378765106201172,22.074125289916992,-79.78238954827937,40.45816712734493,291.7777726287842,-0.08268573880195618,-0.15127919614315033,-0.0704532265663147,0.9825040102005004,-1.0140256687448288,5.959099134525733,2.4364297712384007,-0.3141638934612274,0.7224224209785461,0.3058367669582367,-0.6924998561292887,0.2920227039232849,-10.513319470882415
27.5,4.300000190734863,7.0,21.368749618530273,20.8177433013916,-79.78238794752409,40.45817892396597,291.79562159729005,-0.03950458019971848,-0.1775570511817932,-0.08070895820856094,0.9799994826316832,-1.4992577192086878,6.316191130701284,1.6458569917136123,-0.26281073689460754,0.16736716032028198,0.20810213685035706,-0.6110868433490396,0.6661680167913437,-9.974105615615846
27.6,4.599999904632568,9.0,21.521499633789066,20.412202835083008,-79.78238908107787,40.45818489170859,291.8498818511963,-0.028857985511422164,-0.18817704916000366,-0.08150221407413483,0.9783220887184144,-1.7937611037633294,6.306700179576604,1.5794065652561593,-0.2352656573057175,0.1376229226589203,0.09895718097686768,-0.7296842738986016,0.8230405535548926,-9.994561514854432
27.7,5.300000190734863,29.0,21.430099487304688,20.777984619140625,-79.78238828385896,40.45819707910581,291.83546992492677,-0.006639966275542975,-0.20838803052902224,-0.09170034527778624,0.9737152457237244,-2.3219086237260056,6.219618683254024,1.448907984300281,-0.19872388243675232,0.28588616847991943,0.0910552442073822,-0.7079127511382103,0.8981891153007746,-9.877209066152574
27.9,5.699999809265138,35.0,21.15089225769043,24.06206703186035,-79.7823891325855,40.458209542900256,291.8089596862793,0.021708853542804718,-0.2231873720884323,-0.0956280454993248,0.9698306322097778,-2.8900657008459563,6.029378794454079,1.3014978336445824,-0.029277527704834938,0.3495689928531647,-0.02870889939367771,-0.6633189609646798,1.12919930331409,-10.072554016113283
28.1,6.300000190734862,34.0,21.377513885498047,21.294851303100586,-79.78239169306819,40.45821535724728,291.83859034729005,0.034781701862812035,-0.2235007733106613,-0.09203698486089706,0.9697251319885254,-3.2055948745512337,5.872176105035247,1.295730825866863,0.11557532101869585,0.28163933753967285,0.010185942985117435,-0.9897747849673032,1.0511563698202373,-10.230383230447767
28.21,6.5,33.0,21.395042419433594,21.891233444213867,-79.78239054786617,40.4582225841891,291.7694546813965,0.04333469271659851,-0.2187179923057556,-0.09894167631864548,0.969791293144226,-3.342427370108091,5.885738522018948,1.1559518444293464,0.1918337494134903,0.28350916504859924,-0.1023559793829918,-0.5637277587130666,1.0413044692575932,-10.228694554567335
28.4,7.0,41.0,21.763145446777344,16.150053024291992,-79.78239289589563,40.458236310077,291.7505871887207,0.05612678825855255,-0.20144692063331604,-0.10695670545101166,0.9720232486724854,-3.8995456777722746,5.6448841400509275,1.0600355440637237,0.1896437704563141,0.12440676242113112,0.0903305783867836,-0.7337703812867403,1.2397469817101956,-10.11753430724144
28.5,7.199999809265138,40.0,22.001035690307614,12.786452293395994,-79.78239648570964,40.458241901334354,291.7665078277588,0.0634305402636528,-0.1901213675737381,-0.10851430147886276,0.9736812114715576,-4.284262431620748,5.334641615521114,1.0628156152072945,0.2379017919301987,0.05336328223347664,0.13757528364658356,-0.6266810385882855,1.1563460252434017,-9.922781095504762
28.6,7.400000095367432,36.0,22.266469955444336,11.068869590759276,-79.78240043514508,40.4582563952223,291.7624737854004,0.08009576797485353,-0.1618248075246811,-0.12258294969797134,0.9758949875831604,-4.715931117379627,5.111136268357535,0.575280328895345,0.2563967704772949,0.31736087799072266,0.09849044680595398,-0.4855291065573693,1.0559347144514324,-8.648795011639596
28.8,7.5,34.0,22.054872512817386,14.758492469787598,-79.782406864667,40.4582703734516,291.7295643920898,0.11644168943166733,-0.14228129386901855,-0.13206596672534945,0.9740411043167114,-5.243510255337919,4.646189781633948,-0.08151900064836431,0.2170372307300568,0.2733201086521149,0.2113628387451172,-0.3033381077460945,0.948099851757288,-8.428567235469819
28.9,7.599999904632567,37.0,21.72182846069336,17.61318016052246,-79.78241144788954,40.458275549378826,291.6777302856445,0.13557353615760806,-0.1261441558599472,-0.1322694718837738,0.9737619757652284,-5.468919701515036,4.215537526747426,-0.38319154888606,0.4219980239868164,0.057314433157444,0.13833728432655334,-0.3265216782689095,0.8215780918300152,-8.666400393247606
29.1,7.699999809265138,46.0,21.868318557739254,17.08041000366211,-79.78241623289249,40.45828048430122,291.6139599914551,0.1514739692211151,-0.1031639575958252,-0.13092750310897827,0.9743053317070008,-5.551826798260171,3.8308309390592017,-0.7136021387442898,0.5257179141044617,0.1880871951580048,0.049981392920017235,0.05756643195636571,1.201779110133648,-9.114654961824415
29.3,7.599999904632567,43.0,21.695533752441406,17.907394409179688,-79.78242546924086,40.45829246168019,291.51616831970216,0.16931839287281036,-0.06279372423887253,-0.13225015997886658,0.9746271967887878,-5.628508245702192,3.162582225820798,-1.329169774395857,0.379398375749588,-0.06433585286140442,-0.004085548687726259,-0.09153356549330056,0.7058758735656738,-9.559250927567485
29.4,7.599999904632567,41.0,21.912139892578125,15.291261672973633,-79.78243039557667,40.45829872138203,291.4650818939208,0.16854748129844666,-0.041764724999666214,-0.13424006104469302,0.9756162762641908,-5.5752402863355135,2.9172090306034004,-1.4807489552061934,0.3963804543018341,-0.2189868837594986,0.18597276508808136,0.0050727884843945505,0.7974166658520699,-10.096405978202819
29.5,7.400000095367432,64.0,21.914644241333008,15.87969207763672,-79.78244079475253,40.45830648803831,291.3009888763428,0.150876984000206,-0.0018857336835935712,-0.13256612420082092,0.9796217679977416,-5.2995008360336815,2.230420904131059,-1.6889022161218674,0.3197251856327057,-0.23084476590156555,-0.03421958163380623,-0.0498740314738825,0.9260679817199708,-9.953869571685793
29.7,7.300000190734862,66.0,21.769405364990234,16.674869537353516,-79.78245135399565,40.458315108182546,291.1361539001465,0.1321958303451538,0.026704829186201096,-0.1334676593542099,0.9818337559700012,-5.004178494076067,1.8101542531412291,-1.7841132555396475,0.19206935167312625,-0.3455637991428375,0.2534232437610626,-0.08607832342386246,0.8020024178177119,-9.932326090335847
29.8,7.0,60.0,21.72683525085449,18.797992706298828,-79.78245661975404,40.45831993552792,291.04861994934083,0.11994729936122896,0.04223591834306717,-0.13576290011405945,0.9825463891029358,-4.841936824715769,1.7308906038813023,-1.8754376184781203,0.28617754578590393,-0.2878792881965637,-0.0752531886100769,0.11262660110369326,0.7433625923842192,-9.693570826649669
30.0,6.9000000953674325,58.0,21.56532096862793,20.062326431274414,-79.78246152316447,40.458322839918814,290.9529740447998,0.105815090239048,0.060631085187196725,-0.1334322988986969,0.9835257530212402,-4.612558631033033,1.5421070801429524,-1.9070199739325453,0.3101294934749603,-0.412617176771164,0.0939132794737816,-0.15993207408115268,0.6003924686461687,-9.825952373743055
30.2,6.599999904632568,250.0,21.5991268157959,19.163774490356445,-79.78247131863506,40.45833004364646,290.75677272033687,0.09258831292390823,0.09872674942016604,-0.13317587971687314,0.9818068146705629,-4.061506728414697,1.434941662751631,-2.0101771104572475,0.26705846190452576,-0.014633006416261196,0.07102695107460022,-0.03804109881632031,0.7365619882196188,-10.416853276491166
30.3,6.4000000953674325,232.0,21.7844295501709,18.05847930908203,-79.78247560669202,40.458332424769495,290.6615807647705,0.09338079392910004,0.11111421883106233,-0.1325589120388031,0.9804906249046326,-3.722710993310128,1.2687052845273306,-2.048146414278432,0.2814745604991913,-0.050734885036945336,0.0061503862962126715,0.12153525441884995,0.539643260166049,-10.234567497968674
30.4,6.0,228.0,21.015670776367188,27.02012825012207,-79.78248441143002,40.45833847993241,290.4367959136963,0.07176240533590318,0.11796005070209505,-0.12951843440532684,0.981916844844818,-3.2017010540808655,1.1611684217344818,-2.0977016587110118,0.012931192293763159,-0.06698893010616302,-0.012464550323784351,0.2561932322010398,0.5118308327347041,-10.031848039627077
30.6,5.800000190734862,226.0,21.25356101989746,23.736045837402344,-79.78249255612188,40.45834406586503,290.2118527526856,0.04416406527161598,0.11906196922063828,-0.12401604652404785,0.9841208457946776,-2.7265970417227097,1.2769074235357911,-1.8334644239403013,-0.216651514172554,-0.20903204381465912,0.10424521565437317,0.14802067453041673,0.2800178951025009,-10.592922295331958
30.8,5.400000095367432,232.0,20.8529052734375,28.26060485839844,-79.78249548800629,40.458345927275744,290.11698504638673,0.03554990142583847,0.11626870930194855,-0.12279552221298218,0.9849563837051392,-2.44202453229243,1.295225927588748,-1.6510453591799692,0.011770534329116344,-0.12133599072694776,0.02928388118743896,0.054355844613164665,0.6353137215971947,-10.677660144567492
30.9,5.199999809265137,238.0,20.870433807373047,27.544944763183594,-79.78249804679966,40.45834770647926,290.02959605407716,0.02640032209455967,0.12160521745681765,-0.12287833541631699,0.9845893383026124,-2.1592100203342137,1.3375664234016895,-1.4228527367510355,0.020792201161384586,-0.2201179414987564,0.09940990805625917,0.185841031819582,0.6199996445327998,-11.206381756067277
31.0,4.800000190734863,234.0,20.941801071166992,27.89482307434082,-79.78250402083295,40.4583526571526,289.8705880279541,-0.003918799571692944,0.10928547382354736,-0.12817618250846866,0.9857038855552672,-1.7791683475207716,1.4907159902755018,-0.9985136104765028,-0.4183957576751709,-0.3916318118572235,-0.04314354807138443,0.2650576294027269,0.50498217176646,-11.406181114912036
31.2,4.599999904632568,232.0,20.57119369506836,31.838903427124023,-79.78250831900898,40.458357198971356,289.75988360595704,-0.051708023995161057,0.08327309042215347,-0.13417498767375946,0.986097812652588,-1.4904977801312245,1.7797606620505175,-0.3679372622086781,-0.21499566733837128,-0.30480045080184937,0.2236906588077545,0.18517075818032028,0.31854362759739163,-12.007036317586902
31.3,4.099999904632568,249.0,20.40592193603516,33.564437866210945,-79.78251090705776,40.4583600459409,289.7048279876708,-0.06596351414918901,0.07548107206821443,-0.14018288254737854,0.985038161277771,-1.4333070436332829,1.9512195026407069,0.009937208252852894,-0.05591239407658577,-0.09984226524829863,0.0824669748544693,-0.03879285888746381,0.5066428906470537,-12.38495239019394
31.5,3.9000000953674316,259.0,20.627534866333008,30.43939018249512,-79.78251177445546,40.458362156395104,289.71615954589845,-0.06992484629154205,0.07370002567768097,-0.1426711082458496,0.9845424890518188,-1.30416722942038,2.0944981562420786,0.4046842128356859,0.020239511504769325,0.0727987214922905,0.04932073503732681,0.15262097144499426,0.4946589125320315,-12.785641028881075
31.7,3.5,260.0,20.747732162475586,28.90469741821289,-79.78251392487583,40.45836733270022,289.74016162109376,-0.061810951679944985,0.06834956258535385,-0.14626123011112213,0.9849444627761841,-1.096287324252196,2.42777458904958,0.9001337586460545,-0.0728076845407486,0.14763669669628146,-0.011013719253242016,0.16794367315247655,0.12381810790859164,-12.20404772400856
31.8,3.299999952316284,262.0,20.870433807373047,26.54302215576172,-79.78251403397094,40.45837252123508,289.89932795715333,-0.0660252720117569,0.04528436437249184,-0.14264005422592166,0.9865311980247498,-0.8601971131648545,2.7758397187458987,1.2563346015024963,-0.2465973943471909,-0.04892184585332871,-0.0189262330532074,0.3471842765808106,0.11879298336803913,-11.497644431591036
31.9,3.0,271.0,20.983118057250977,25.64447021484375,-79.7825150131284,40.45837568186646,289.9134404296875,-0.07303664833307266,0.030974926427006718,-0.14132091403007507,0.9867799282073976,-0.8075052135101016,2.930782170188144,1.3720795865117972,-0.2714132964611053,-0.0838220864534378,-0.03803364932537079,0.2784378312528133,0.2276486602798105,-11.142709085941314
32.1,2.9000000953674316,281.0,21.088289260864254,24.435800552368164,-79.78251473241343,40.458378620026544,290.01642962646486,-0.0804903581738472,0.018970856443047523,-0.13787810504436493,0.9869909882545472,-0.7183206048135324,3.08682118499296,1.5287497065929485,-0.21941514313220972,-0.12988337874412534,-0.02107863873243332,0.13964712367393078,0.1516678935661912,-10.840537844896321
32.2,2.5999999046325684,287.0,21.029443740844727,25.79555511474609,-79.78251492455256,40.45838533305316,290.16283770751954,-0.0933888778090477,0.0023618899285793304,-0.13469329476356506,0.9864739179611206,-0.6446772344436794,3.418180850765822,1.733862049492351,-0.1246255785226822,-0.08505360037088394,0.054876863956451416,0.07425675629172475,0.09832584651187062,-10.441286451816561
32.4,2.5,292.0,21.0281925201416,24.777727127075195,-79.78251544568603,40.458389202871906,290.19691821289064,-0.09648771584033966,-0.004536291118711233,-0.13538281619548798,0.9860736131668092,-0.6767985914858674,3.5943108607181475,1.786008349443627,-0.02536780945956707,0.0037735386285930868,0.03280526027083397,0.07790514020249248,0.036208601987455034,-10.343263728618624
32.6,2.4000000953674316,307.0,21.24855232238769,22.288822174072266,-79.78251458818258,40.45839659640096,290.4159447784424,-0.09500144422054292,-0.022998681291937828,-0.1366780400276184,0.98578143119812,-0.7275657631646645,3.9468036640852353,1.9197606293464882,-0.18037012219429016,0.04007694870233537,0.0418798103928566,-0.0532115764869377,0.05745455370750279,-10.078136937618256
32.7,2.4000000953674316,318.0,21.294878005981445,21.74810218811035,-79.78251487673424,40.45840094695832,290.4774090881348,-0.09345228224992752,-0.0340193435549736,-0.1371842473745346,0.9855403900146484,-0.8226358786777699,4.142652916878733,1.8940398050046487,-0.265475332736969,0.06962407380342484,0.08598306775093079,-0.01807164109661244,0.03169221946969628,-9.912334460020066
32.8,2.4000000953674316,329.0,21.390033721923828,20.809791564941406,-79.78251460862315,40.45840985281809,290.73272677612306,-0.09148653596639633,-0.05404559150338173,-0.1350676566362381,0.9851223826408386,-0.983072122724465,4.494694852838098,1.9235010784088007,-0.1441057324409485,0.011212660931050776,-0.002471452578902245,-0.0780660848133266,0.16410035312175753,-9.715565128326416
33.0,2.5,334.0,21.3700008392334,20.78593635559082,-79.78251434712323,40.458418964213024,290.92417880249025,-0.0984872356057167,-0.061209134757518775,-0.13509611785411835,0.9840237498283386,-1.1701338654046167,4.818711141842204,1.92948483368497,-0.06477590650320053,-0.11240972578525543,-0.08983787894248962,-0.0017899240739643575,0.19231441117823125,-9.55320139825344
33.1,2.5999999046325684,350.0,21.431352615356445,20.030517578125,-79.78251432050999,40.45842423859653,291.10029765319825,-0.10278774797916412,-0.06415247172117232,-0.13515813648700714,0.9833877086639404,-1.3050916383010622,4.9695479008408885,2.012459831562178,-0.15605267882347107,-0.07684679329395294,-0.02271172031760216,-0.2563962767645717,0.23973847299814224,-9.443584815859797
33.3,2.700000047683716,354.0,21.455141067504886,20.8256950378418,-79.78251443452972,40.458429221458786,291.1856267089844,-0.10548660904169084,-0.07037428766489029,-0.13505858182907104,0.9826897978782654,-1.4285027606672511,5.1103991945496565,2.044812778395494,-0.153925821185112,0.02465475723147393,-0.028130067512392998,-0.1425467305071652,0.2253269136697054,-9.41664376974106
33.5,3.0,358.0,21.487693786621094,20.37244415283203,-79.78251475121246,40.45844001038897,291.44644900512696,-0.10666878521442412,-0.08757919073104857,-0.13553650677204132,0.9811124205589294,-1.676693271450659,5.402394129716416,2.1221352157595392,-0.22503288090229034,0.0718647837638855,0.06323215365409851,-0.4978393958508969,0.2840011280402541,-9.288304987549783
33.6,3.0999999046325684,1.0,21.4238395690918,21.37436866760254,-79.78251560538786,40.45845143011251,291.6872613067627,-0.09824804961681366,-0.10305995494127274,-0.13557587563991547,0.9804821014404296,-1.9588915493409376,5.691038477115481,2.1431450171221025,-0.0822204127907753,0.0517343133687973,0.0506567656993866,-0.3334381669387221,0.22084217235445971,-9.396402463316916
33.7,3.5,10.0,21.617908477783203,17.764263153076172,-79.78251637623809,40.45845720591525,291.74720545959474,-0.09609858691692352,-0.10683373361825944,-0.1350049376487732,0.980370044708252,-2.1471128357634264,5.825137847029676,2.098548273228108,-0.01865415275096893,0.031815312802791595,-0.09712950885295868,-0.3659604534879327,0.3230686050653458,-9.389105722904207
33.9,3.700000047683716,12.0,21.520248413085934,20.046422958374023,-79.78251722238568,40.4584638576901,291.908378326416,-0.09640273451805116,-0.10927177965641023,-0.13407912850379944,0.9801985025405884,-2.3149423693665208,5.97013252685446,2.107925515826208,-0.013981738127768041,-0.008392374962568283,-0.018681764602661133,-0.4268411146849394,0.18820290494710207,-9.13929746747017
34.1,4.099999904632568,13.0,21.58284950256348,18.702571868896484,-79.78251937471744,40.45847589903472,291.99206896972663,-0.09759753942489624,-0.11827202141284945,-0.1293400675058365,0.9796722531318665,-2.652128764403646,6.177619009067389,2.082083225031304,-0.13952738046646118,0.015202038921415806,-0.05769890174269676,-0.4872902148216963,0.5707159488648177,-9.195144224166867
34.2,4.300000190734863,13.0,21.606639862060547,17.605226516723633,-79.78252097397312,40.45848293443171,292.09782572937013,-0.0963851660490036,-0.12052130699157715,-0.1263749599456787,0.9799050092697144,-2.8120701459273025,6.311819708699753,2.13065125712112,-0.039248529821634286,0.026392757892608643,-0.07727618515491486,-0.690511437356472,0.4516211395338178,-9.187914726734162
34.31,4.699999809265137,14.0,21.537776947021484,18.980884552001953,-79.78252460660497,40.458496708414074,292.2188260192871,-0.08969711512327194,-0.120924212038517,-0.11974813789129254,0.9813216328620912,-3.1362017533294684,6.5365770773959815,2.131387670847655,0.058719530701637275,0.15511029958724976,-0.08157461136579514,-0.8371499580144882,0.4287065592035652,-9.198722135424612
34.5,5.0,13.0,21.471418380737305,19.648834228515625,-79.78252899087205,40.45851014535726,292.24028178405763,-0.07602382451295853,-0.11965951323509215,-0.10823206603527068,0.9839653372764589,-3.4461362127195136,6.755940000216564,1.8802011100623188,0.14289239048957825,0.07926054298877716,-0.20545147359371185,-0.7951833949238062,0.5733385712653399,-9.068937921524046
34.6,5.800000190734862,14.0,21.670494079589844,17.28715705871582,-79.78253166530419,40.45851787626904,292.31505366516114,-0.07420500367879868,-0.11341353505849835,-0.10345223546028136,0.9853571653366088,-3.5700484538080137,6.87044211042113,1.8478518054446185,0.09826430678367616,0.015766708180308342,0.02190378308296204,-0.8916305127739906,0.4973223192617298,-9.554153324961662
34.8,6.099999904632568,14.0,21.710559844970703,16.921375274658207,-79.78253435678138,40.458524784868395,292.3177125091553,-0.07091250270605087,-0.10784686356782912,-0.09953079372644424,0.9866276979446412,-3.6951036603008767,6.921547636094514,1.8232058781991216,0.0044780769385397426,-0.10555583983659744,0.19633109867572784,-1.2646773165464402,0.3172512833029032,-9.698149196505547
35.0,6.9000000953674325,13.0,21.998531341552734,14.225723266601562,-79.78254038883081,40.45853987237954,292.3960015411377,-0.07704376429319383,-0.10817425698041916,-0.09430669248104097,0.98664528131485,-3.9178137719105983,7.048664943819494,1.852781669002275,-0.029368460178375244,-0.2844196557998657,0.2441934198141098,-1.5850100094079973,0.12452990591526032,-9.488201410174373
35.1,7.199999809265138,11.0,21.96722984313965,14.567649841308596,-79.78254730641359,40.45855502701683,292.4263741607666,-0.08186424523591995,-0.1045428216457367,-0.09288276731967926,0.9867836236953736,-4.1211227811881965,7.1311403740611246,1.9234995477924213,-0.003044333774596453,-0.1729426085948944,0.3761422634124756,-1.2915635450184346,0.4841261037066579,-8.87540853202343
35.2,7.599999904632567,11.0,21.821990966796875,16.189811706542972,-79.78255079969425,40.45856219051689,292.4106156463623,-0.07755891233682632,-0.10272933542728424,-0.09350183606147766,0.9872633218765259,-4.27003604403545,7.13984538449555,1.8002018333656329,0.08682271093130113,0.16789621114730835,-0.08161947876214981,-1.2212585243582723,0.8946879487484694,-8.626403099298477
35.4,7.900000095367432,11.0,21.83075523376465,16.595352172851562,-79.78255481800981,40.458570288217736,292.41958209228517,-0.06608599424362183,-0.09810949862003326,-0.09521876275539398,0.9884030818939208,-4.451189979613505,7.191827664404357,1.6675405510410315,0.10154077410697936,0.3414433300495148,-0.021352780982851986,-1.043068574219942,0.9230161736905576,-8.656723836064339
35.6,8.300000190734862,12.0,21.875829696655273,14.83800983428955,-79.78256248006575,40.45858468045457,292.33749171447755,-0.03569678217172624,-0.08201554417610167,-0.10107272118330002,0.9908499121665956,-4.79231622441809,7.13302341247671,1.0244188902060318,0.13088463246822354,0.24652045965194705,0.05707621574401856,-1.119852382913232,0.6545503301918507,-9.135894387960434
35.7,8.5,13.0,21.680509567260746,17.660890579223633,-79.78256681702041,40.45859274761543,292.3124386901856,-0.0237330961972475,-0.0775255486369133,-0.10514596104621887,0.9911462664604188,-4.957710705316251,7.105750630640213,0.7582410942428475,0.05185181647539139,0.15503714978694916,0.004120189230889082,-1.073170113489032,0.9181998221576214,-9.359385495185853
35.8,8.800000190734863,12.0,21.769405364990234,16.762338638305664,-79.7825755715677,40.458607971199584,292.2147557373047,-0.007073299493640661,-0.0629664808511734,-0.11282622069120407,0.9915924072265624,-5.244462872895533,6.9078639157864865,0.3439285288617825,0.1108681708574295,0.13728393614292145,0.08972176909446716,-1.2369856341183183,0.7806641737371683,-9.433083801269534
36.0,8.800000190734863,12.0,21.686769485473643,17.80402183532715,-79.78257985900626,40.458615020990564,292.1614815826416,0.007725048810243607,-0.05845725536346436,-0.11515438556671145,0.991595983505249,-5.349421954509198,6.757788558664954,0.14553544865564927,0.09566504508256912,0.4051766097545624,0.04267619177699089,-0.8232729072868824,0.7593643750995398,-9.836598984003068
36.1,8.699999809265138,13.0,21.602882385253906,20.01461410522461,-79.78258903480027,40.45862952872285,292.04141970825196,0.04100636765360832,-0.045511703938245766,-0.11510240286588667,0.9914629459381104,-5.480451426007152,6.437714744259254,-0.3669619987543433,0.20632359385490412,0.19485639035701752,-0.02622622065246105,-0.9780299945175648,0.6933355694264174,-9.77446354687214
36.3,8.699999809265138,13.0,21.624168395996094,18.949077606201172,-79.78259354636556,40.45863623144349,291.9899365539551,0.05871380865573881,-0.034894857555627816,-0.11291372030973434,0.9912545680999756,-5.475529264852342,6.2107878950101245,-0.6352161142915981,0.26427435874938965,0.2782679498195648,-0.06841427832841873,-0.9592005714029074,0.6841270087659359,-10.238958756923676
36.5,8.399999618530272,12.0,21.87708282470703,15.943306922912598,-79.78260334486626,40.45865008718646,291.85468455505367,0.09051987528800964,-0.017223991453647614,-0.10938844084739684,0.9897190928459167,-5.374529632323643,5.7584409828863325,-1.1813483327676133,0.20513994991779327,0.2610877156257629,0.04431513696908952,-0.8562144391983748,0.7298849795758725,-10.32782240152359
36.6,8.199999809265138,11.0,21.895862579345703,14.80620288848877,-79.78260794990952,40.45865619944439,291.81036921691896,0.10420629382133484,-0.010073293000459671,-0.10752177983522417,0.9886752367019652,-5.288171492262396,5.472385971475808,-1.3916574955372705,0.025050884112715718,0.17676874995231628,-0.08725214004516603,-0.7008991621434689,0.7816124459356071,-10.150949975252153
36.8,7.900000095367432,9.0,22.203866958618164,12.460430145263672,-79.78261770087296,40.45866853643261,291.6787621612549,0.13405151665210724,0.00383299053646624,-0.1080469861626625,0.985059142112732,-5.054837275313436,4.859596445991659,-1.7752499083839264,0.25498440861701965,0.34001943469047546,-0.06816530227661133,-0.2506796002015472,0.9215243297070266,-10.077657465934754
36.9,7.800000190734862,17.0,21.872074127197266,15.434392929077148,-79.78262744182975,40.45867984364944,291.5180241699219,0.15354035794734955,0.015718838199973106,-0.11022426933050156,0.9818497896194458,-4.865367557779253,4.15106329976898,-2.184585129410666,0.1501079499721527,0.2293354421854019,0.1145426407456398,-0.41739135637879377,0.7557752810418606,-9.336232275366783
37.1,7.300000190734862,15.0,21.516490936279297,19.712448120117188,-79.78263188930742,40.45868469370226,291.44302912902833,0.16249634325504306,0.027585025876760483,-0.10838940739631653,0.9803498387336732,-4.6784572580981925,3.78580484182194,-2.3649951635702897,0.4888198673725128,0.2422132939100265,-0.14930561184883118,-0.15406987493857746,0.7000972165167332,-9.109118233323096
37.2,7.0,15.0,21.54153251647949,20.809791564941406,-79.7826368609318,40.45869004874705,291.3237130279541,0.17524315416812894,0.04452646896243096,-0.10644069314002992,0.9777411222457886,-4.51619619927113,3.4561578746931083,-2.555607758890926,0.35934630036354065,0.2902429699897766,0.051050689071416855,-0.13600717711262406,0.6157900878041983,-9.385223756432532
37.4,6.5,206.0,21.308650970458984,23.8076114654541,-79.78264606978153,40.458699053612726,291.0983292694092,0.20011651515960693,0.05894310399889946,-0.10609691590070723,0.972225546836853,-4.056926601401862,2.672327661399477,-2.8481895981252463,0.01531642396003008,0.017188772559165955,0.07562138140201569,0.009338222667574884,0.27693454865366224,-10.020092797279359
37.5,6.199999809265138,190.0,21.26608085632324,22.137739181518555,-79.78265015506305,40.45870271133485,290.98871966552736,0.1966210901737213,0.06791314482688904,-0.10329393297433853,0.9726553559303284,-3.8410797433270383,2.2824735386358337,-2.8245237302824746,0.1627509593963623,-0.3743814527988434,-0.1389084756374359,0.4575966650247574,0.33159190859645604,-10.000926793813706
37.6,5.599999904632568,190.0,21.09830665588379,25.46953201293945,-79.78265837777312,40.45870983721816,290.7445866699219,0.14431847631931305,0.11041173338890076,-0.08474890142679213,0.9796933531761168,-3.2025365618921,1.9415102552928107,-2.7306109977402397,0.5515114665031433,-0.723587691783905,-0.005015048664063215,0.16047862429171805,0.5086577680706978,-9.914700243473053
37.8,5.300000190734863,190.0,20.67636489868164,31.22661590576172,-79.78266578025175,40.45871630599355,290.4992425079346,0.11152199655771257,0.1162039041519165,-0.06853557378053665,0.98456209897995,-2.541158813023713,1.9384988075123888,-2.393001205616967,-0.4814057350158691,0.10748296231031418,0.022852485999464992,-0.20584934497252108,-0.19552922861650587,-11.032898375988006
37.9,4.5,254.0,20.665096282958984,30.39963150024414,-79.78266874478712,40.4587186686689,290.39014407348634,0.11038178950548172,0.09524454921483994,-0.06854742020368576,0.9869375228881836,-2.3404595121734744,1.8240461999369488,-2.043260695281925,-0.5056090950965881,-0.011114814318716526,-0.10362078994512558,0.35142858769744634,0.2533944258838892,-11.929913882017136
38.1,4.099999904632568,264.0,20.493566513061523,33.182750701904304,-79.78267142176028,40.458720824538034,290.3003937835693,0.09799868613481524,0.07918725907802583,-0.07060671597719193,0.9895152449607848,-2.1867799140019,1.699998804292968,-1.6556383529222167,-0.140547513961792,-0.26978933811187744,0.06198958307504654,0.3585105160251261,0.27437266420573,-12.156224516630173
38.3,3.4000000953674316,256.0,20.67010498046875,30.638185501098643,-79.7826769810568,40.45872573580825,290.20666667175294,0.05865616723895072,0.08249131590127945,-0.08055797219276427,0.9915972948074341,-1.9774390318119743,1.6072947785028144,-0.8194934924619647,0.15009014308452606,-0.34651342034339905,0.2125018537044525,0.30239146180450915,0.2133179021626711,-12.849982620477677
38.4,3.0,259.0,20.747732162475586,28.936504364013672,-79.78267979450284,40.458728364102534,290.1703507537842,0.03684597834944725,0.0903485044836998,-0.08836672455072403,0.9912975430488586,-1.876378543504707,1.6102316953733609,-0.5040052111065121,0.09742455184459686,-0.3176557719707489,0.18175463378429413,0.2343068116530776,0.04185718818102032,-12.656525151729586
38.5,2.5999999046325684,294.0,20.681373596191406,30.240596771240234,-79.78268315006258,40.45873171017245,290.21302005004884,0.012292545288801192,0.09389638155698776,-0.10518225282430647,0.989933967590332,-1.5774191896910763,1.5357707094534063,0.06084560161619645,0.023812424391508102,-0.024119464680552486,0.2353411763906479,0.19475810877978805,-0.1152447832748294,-11.971038519144061
38.7,2.5,306.0,21.09455108642578,23.69628715515137,-79.78268641259409,40.458735606305744,290.25882502746583,-0.007961167953908443,0.0932442620396614,-0.11677364259958267,0.9887396693229676,-1.3424690504849979,1.5693468096665475,0.3952185917401288,0.04642806574702263,-0.0646333396434784,-0.026998739689588547,0.1256798522360623,-0.17048063384369014,-11.086707962751387
38.8,2.200000047683716,316.0,21.01817512512207,25.71603775024414,-79.7826883325914,40.45873782201813,290.233537399292,-0.016863470897078514,0.09169458597898483,-0.11446357518434525,0.9890429377555848,-1.253676799847689,1.6341562325403431,0.4616492927193478,-0.08256983011960982,-0.19028709828853607,-0.08502339571714401,0.13863868910819294,-0.16594524102285504,-10.78325501203537
39.0,2.0999999046325684,324.0,21.046972274780273,24.714113235473643,-79.7826891044086,40.4587395482662,290.29852839660646,-0.031525619328022,0.08504164218902588,-0.10495051741600037,0.9903330206871032,-1.1154222892318642,1.7230696876954164,0.5881000102978862,-0.22233739495277405,-0.2517933249473572,-0.16223543882369995,0.25411474803462625,-0.3384477689489722,-10.65200139284134
39.2,2.0,349.0,21.341203689575195,21.30280303955078,-79.78269107133603,40.45874381046715,290.35984774780275,-0.0587427131831646,0.062063515186309814,-0.08213771879673004,0.9929505586624146,-0.8377413207900676,1.9769799641295616,0.8452775939646726,-0.12117242813110353,-0.13429421186447146,-0.1551901251077652,0.11713019055314362,-0.15519630448892713,-10.488044296503068
39.3,2.0,2.0,21.31991958618164,21.430030822753906,-79.78269268645623,40.45874853004653,290.41298266601564,-0.07732420414686203,0.06537874042987822,-0.0653272271156311,0.9927129149436952,-0.6167986699753025,2.3077717066721477,0.9381256056634806,0.1347975879907608,-0.2199898213148117,-0.19427908957004547,0.23574997756630184,-0.09745961805805564,-9.906979579925537
39.4,2.0999999046325684,20.0,21.308650970458984,23.09990310668945,-79.78269283079949,40.458750829512034,290.4781720275879,-0.08792776614427568,0.07167243212461473,-0.05836578831076623,0.9918292164802552,-0.5199024680701478,2.4656545722069483,1.0030998340098576,0.044728495180606835,-0.17128914594650269,-0.1409163773059845,0.10538402052596213,-0.4453021266683936,-9.863816603422164
39.6,2.200000047683716,29.0,21.183446884155273,23.33050537109375,-79.78269285310648,40.458753282124036,290.5425526733398,-0.09494495391845703,0.07344678044319153,-0.052491221576929085,0.99138081073761,-0.4095086710180352,2.6277043053927054,1.1049185866805622,-0.031186286360025406,-0.11419083178043365,0.028904614970088005,-0.11767484955489635,-0.6499582924693823,-10.055378404855727
39.8,2.4000000953674316,31.0,21.268585205078125,21.98665428161621,-79.78269276079783,40.458759108357256,290.68391581726075,-0.0965702459216118,0.06649434566497803,-0.04687127098441124,0.991995930671692,-0.20556571799481005,3.022242698524685,1.280022911047999,-0.07112903892993927,0.0340280756354332,-0.006141786463558674,0.050973413083702325,-0.4396627429872752,-10.094974579811096
39.9,2.5999999046325684,35.0,21.431352615356445,20.53148078918457,-79.78269226581662,40.45876208547388,290.7928406829833,-0.09448420256376266,0.062267079949378974,-0.046327363699674606,0.9924964904785156,-0.10502099724207158,3.2002357762225966,1.336396966306645,-0.0147872231900692,0.08672835677862167,-0.04386463016271591,0.16315169719979167,-0.3995229231566191,-10.11286238193512
40.0,3.0,33.0,21.26482963562012,22.082077026367188,-79.78269130798796,40.45876851859065,290.9252965087892,-0.10086596757173537,0.04966561123728752,-0.047686081379652016,0.9925147294998168,0.015525199148722324,3.588694040397097,1.3630535989794033,-0.12929798662662506,-0.12369529902935028,0.13248556852340698,-0.08750191943719983,-0.6978312011808158,-9.697177389264107
40.2,3.0999999046325684,30.0,21.354976654052734,21.39027214050293,-79.78269012153518,40.45877589264144,291.0972020263672,-0.11479131132364273,0.035230036824941635,-0.05895311385393143,0.9910128116607666,0.05702632501243536,3.926838778763992,1.4963325901185185,-0.10959243029356004,-0.0801616832613945,0.15418386459350586,-0.4172509501129389,-0.23111653424799444,-9.625386444926262
40.3,3.4000000953674316,35.0,21.24855232238769,22.54327964782715,-79.7826894840771,40.45877995648704,291.2348553771973,-0.11797934770584105,0.025602752342820168,-0.06536368280649185,0.9905316829681396,0.00966453291364034,4.100309246557403,1.5829363882113034,-0.2106098979711533,-0.045235909521579735,0.13489092886447904,-0.3569005948305129,-0.3081165437400341,-9.741996297240258
40.5,3.5999999046325684,35.0,21.467660903930664,19.27510070800781,-79.78268901230234,40.458783525715326,291.28534861755367,-0.1235680729150772,0.009404054842889307,-0.07087258249521255,0.9897573590278624,-0.048314618456489725,4.258258481009183,1.6280803190465356,-0.3953357040882111,-0.1130606010556221,0.04123661294579506,-0.3283081488311291,-0.2373022671416402,-9.791675995588305
40.7,4.0,30.0,21.451385498046875,19.680641174316406,-79.78268802314945,40.45879211689982,291.48444148254396,-0.1375400871038437,-0.02244521863758564,-0.0813242495059967,0.9868968725204468,-0.15310248153754685,4.5909925384404815,1.7714134897544733,-0.209215447306633,-0.08824216574430466,0.04935496300458908,-0.5321445715427399,0.052784752584993835,-9.443767248988152
40.8,4.099999904632568,27.0,21.526508331298828,17.780166625976562,-79.78268689435303,40.45880210399206,291.66333743286134,-0.1483106166124344,-0.042642567306756966,-0.08819316327571869,0.9840770363807678,-0.39511833296494586,5.003325417755819,1.9065408777608808,-0.18964147567749026,-0.015861287713050842,0.1329239010810852,-0.5262814587727189,-0.18229634005576373,-9.326524143218997
40.9,4.400000095367432,34.0,21.542783737182614,19.02064323425293,-79.78268644133233,40.45880701065895,291.69901629638673,-0.15293073654174805,-0.05677245184779167,-0.08907162398099899,0.9825758934020996,-0.5270146842865688,5.205367715767983,1.9329970664047949,-0.3028078377246857,0.031228953972458836,-0.02465670555830002,-0.5386877154931426,-0.03799856945872307,-9.104436367750168
41.1,4.599999904632568,37.0,21.501466751098643,19.259197235107425,-79.78268606834246,40.45881782635026,291.83221217346187,-0.1559107005596161,-0.07947549968957901,-0.08951879292726518,0.9804906249046326,-0.7781671726465995,5.591587778624579,2.036490325788669,-0.1169017180800438,0.022116051986813545,0.045626766979694366,-0.7377836908400061,-0.1088164731580764,-9.100655558109283
41.3,5.099999904632568,31.0,21.542783737182614,19.457990646362305,-79.78268601025884,40.45882333515996,291.84179850769044,-0.15329186618328094,-0.08308136463165282,-0.08844184875488281,0.9807023406028748,-0.9541670271320372,5.808725467409648,2.047375293094083,-0.0859985202550888,0.08307471126317978,-0.04861104115843773,-0.7321824967861176,0.006699968101456762,-9.186348257660867
41.4,5.199999809265137,28.0,21.55530548095703,19.163774490356445,-79.78268621311298,40.4588297453288,291.9242055053711,-0.1458410620689392,-0.08476659655570984,-0.08695073425769806,0.9818271994590759,-1.1244039429686168,6.026291787403084,2.089464973140369,-0.06667862832546234,0.17582954466342926,-0.03472258895635605,-0.9422565829753876,0.10043928606435656,-9.365098809599877
41.6,5.5,27.0,21.662981033325195,17.414384841918945,-79.78268664908862,40.45884124595412,291.9093777770996,-0.1279909312725067,-0.08886811137199402,-0.08470062911510468,0.9841477274894714,-1.4523490574287825,6.405126435260724,1.847089953345848,-0.0381433479487896,0.13582508265972135,-0.04261864349246025,-0.6974256236851216,0.15423668503761293,-9.225155058503152
41.7,5.699999809265138,27.0,21.70304679870605,17.223543167114258,-79.782687490885,40.45884827626684,291.97098513793946,-0.12449364364147185,-0.08971220254898071,-0.08212333917617798,0.984737992286682,-1.6235056904222187,6.61002369945325,1.7738746460860626,0.0188062135130167,0.03985622152686119,-0.03814554959535599,-0.6881125440448523,-0.06372906834818423,-9.116043675541876
41.81,5.9000000953674325,24.0,21.56782531738281,21.08015251159668,-79.78268955814887,40.45886222091588,291.97936602783204,-0.12340206652879715,-0.09422546625137328,-0.07314948737621307,0.9851613044738772,-1.9183560426549733,6.966783588388177,1.6748246884732447,-0.11534275114536285,-0.010022242553532124,-0.07735495269298552,-0.8578334601223471,0.10276873455382884,-8.899240613579753
42.0,6.099999904632568,23.0,21.470165252685547,19.267148971557614,-79.7826920319081,40.45887573566905,291.8877579803467,-0.11796925216913225,-0.10386870801448822,-0.060698088258504874,0.9857029318809508,-2.099957109648906,7.289124894749695,1.657542066358797,-0.04926982894539833,0.2093406319618225,-0.19824780523777008,-0.8797470702230931,0.5447317995876074,-9.308779013156892
42.1,6.4000000953674325,21.0,21.44637680053711,20.56328773498535,-79.78269395608797,40.458883570945844,291.8946530456543,-0.11080954223871232,-0.1028490588068962,-0.05663633719086648,0.9868818521499634,-2.1856891273924965,7.469902150846636,1.6905611580102369,0.01571459136903286,0.19599810242652893,0.007545637898147106,-0.8328571515530349,0.4959309377521277,-9.649564681649206
42.3,6.5,19.0,21.622915267944336,18.797992706298828,-79.7826956575128,40.4588906845307,291.8431107635498,-0.10220114141702652,-0.10098911821842194,-0.05268407613039017,0.9882208704948424,-2.300861035059689,7.6150275414951025,1.6304878044392992,0.02071968466043473,0.2061448842287064,-0.13807079195976255,-0.8926452239602805,0.5027263890579343,-9.895510851144794
42.5,6.9000000953674325,16.0,21.5452880859375,20.038471221923828,-79.78270003914889,40.45890616243157,291.7764584655762,-0.09796006232500076,-0.10696806758642197,-0.04454012215137482,0.9884219765663148,-2.5521210387748465,7.922860722479387,1.5141214011683877,-0.12546347081661224,-0.13383053243160248,0.13670164346694946,-1.0808407102525237,0.2479042192921043,-9.570962315797805
42.6,7.099999904632568,14.0,21.496458053588867,19.712448120117188,-79.78270232080268,40.458913625457136,291.72052546691896,-0.0966712161898613,-0.1097569540143013,-0.04235716909170152,0.988339066505432,-2.642728106394605,8.01730026928946,1.548101297496199,-0.008102413266897202,0.04047122597694397,0.1583160161972046,-1.2194008639454843,0.2783984721824527,-9.602348999977114
42.7,7.300000190734862,11.0,21.56907844543457,18.32088661193848,-79.78270807535279,40.458929783688674,291.6333634490967,-0.08828402310609818,-0.11195047199726103,-0.04235364496707916,0.988877773284912,-2.9475002050062384,8.232460821350719,1.6216496373286726,-0.02460369281470776,0.10297171771526337,-0.01396658644080162,-0.8149971237033606,0.7931553612649441,-9.935909264087675
42.9,7.400000095367432,11.0,21.521499633789066,19.12401580810547,-79.78271465283274,40.45894629843768,291.53943034362794,-0.07276660948991777,-0.11162562668323517,-0.04517142102122307,0.9900527596473694,-3.3431402022561256,8.375697614499714,1.5627804843899955,-0.0516660250723362,0.16720883548259735,0.11240066587924956,-1.0689522975683212,0.7087306304275991,-10.008750368356708
43.1,7.699999809265138,7.0,21.90337562561035,15.967162132263185,-79.78271792078361,40.45895417837362,291.4865128631592,-0.06079016998410225,-0.11061958223581314,-0.047844741493463516,0.9908475279808044,-3.5158827218835547,8.403641281995817,1.4712283614178971,0.11536137759685515,0.25122398138046265,0.14241322875022888,-0.960471682995558,0.8214045757055283,-10.112296371459964
43.2,7.800000190734862,6.0,21.815731048583984,16.285232543945312,-79.78272190003945,40.45896287131229,291.4360406036377,-0.04969296231865883,-0.11044678837060927,-0.0522313192486763,0.9912638664245604,-3.750935420663482,8.443461877134045,1.3069992653497755,-0.02089280821383,0.09763089567422867,0.2151751220226288,-0.9667991012334824,0.7393497944623232,-9.949246762990953
43.3,8.100000381469728,7.0,21.81072425842285,14.973190307617188,-79.78273009511317,40.458979484998494,291.3314263458252,-0.01894078217446804,-0.11529280245304108,-0.0630941316485405,0.9911447763442992,-4.247309294035068,8.346274793101731,1.0680848120825508,-0.038719773292541504,0.27248865365982056,0.13526450097560885,-1.0252189982682467,0.8414929774403572,-10.156530557870868
43.51,8.199999809265138,11.0,21.791942596435547,17.279205322265625,-79.78273824375147,40.45899519650109,291.2340714569092,0.029011024162173268,-0.11624916642904284,-0.06872715801000595,0.9904146790504456,-4.736374550591483,8.030818306293012,0.41278657617214537,0.20043396949768064,0.6071050763130188,0.2291362285614013,-1.0827176664769649,0.9430341164767744,-9.207642062902453
43.6,8.300000190734862,8.0,21.71807098388672,16.969085693359375,-79.78274329268574,40.459003643539575,291.1613518829346,0.06454429030418396,-0.10925941169261932,-0.06723302602767944,0.9896343946456908,-4.937193903636997,7.828801067876032,-0.03700029270492941,0.3077106177806854,0.8495955467224121,-0.05615932494401932,-0.8945771440118552,1.3382329505681991,-9.880164248943327
43.81,8.399999618530272,7.0,21.66798973083496,16.348846435546875,-79.7827477770419,40.459011138101374,291.1051480407715,0.10284849256277084,-0.09402965009212494,-0.0652407705783844,0.988091230392456,-5.048883580255757,7.513875217501829,-0.5709641504361387,0.457576334476471,0.7319685816764832,-0.051583610475063324,-0.7052608926594258,1.3470970371365547,-10.519138619899753
44.0,8.399999618530272,29.0,21.902122497558594,14.241626739501953,-79.78275779121428,40.45902609919277,290.98706408691413,0.15307465195655826,-0.06257295608520508,-0.06367979198694229,0.9841736555099488,-5.169414300576322,6.682050068117702,-1.637434927532036,0.16650989651679993,0.2591787278652191,0.18301625549793246,-0.5180741972476244,0.8038769620656968,-10.900664763450623
44.1,8.399999618530272,54.0,21.862056732177734,14.861865043640135,-79.78276263632746,40.45903273787906,290.9443585510254,0.16419187188148499,-0.054423883557319634,-0.06446468830108643,0.9828141331672668,-5.150163894552526,6.207694448473668,-1.9240312168173528,0.14078661799430847,0.19753094017505649,0.061456020921468735,-0.6210461499541998,1.0242926531285048,-10.528233379125597
44.2,8.300000190734862,52.0,21.945945739746094,14.003073692321776,-79.7827731383752,40.45904580714,290.82438822937013,0.17783401906490326,-0.052563518285751336,-0.06471449136734009,0.9805225133895874,-5.173484140850189,5.370908971263534,-2.082861261927806,0.11028507351875304,0.24480922520160675,-0.1303560435771942,-0.3468360017985106,1.057793982848525,-10.19476550102234
44.4,8.300000190734862,50.0,21.7205753326416,17.40643310546875,-79.78278387658015,40.45905765473258,290.69338961791993,0.18987151980400085,-0.02971898950636387,-0.05620500072836876,0.9797482490539552,-5.084281734003449,4.576618578787428,-2.153932039380974,0.4135372638702393,0.08133414387702942,-0.13583990931510925,-0.2683981619775295,1.1584653485566379,-9.999441601037981
44.5,8.0,84.0,21.69803810119629,17.183782577514652,-79.78278895704102,40.459062598019976,290.624593460083,0.193698912858963,-0.009339977987110615,-0.05035721510648728,0.9797232747077942,-4.925140023103873,4.180073735515431,-2.2553283104343773,0.5445365905761719,-0.0018107406795024872,-0.0511266440153122,-0.1602857209928334,0.7636837133020163,-10.324062641859054
44.7,7.900000095367432,120.0,21.332439422607425,22.288822174072266,-79.78279461946235,40.45906846162945,290.5404526824952,0.1984642148017884,0.01226084027439356,-0.04526712745428085,0.9789855480194092,-4.738457104419954,3.8389017915952297,-2.3864515980727194,0.5959474444389343,0.15287388861179352,0.1195812001824379,-0.37892764091491693,0.8449494127929211,-10.418196966648102
44.9,7.5,117.0,21.376262664794922,20.913166046142575,-79.78280493599334,40.459077781376536,290.3913514251708,0.1921897828578949,0.05348009616136551,-0.034169770777225494,0.9793035387992859,-4.247304710663894,3.1598463443777205,-2.540343502075965,0.4360092878341675,-0.3334854245185852,-0.022245774045586586,0.02298358204308897,0.5831608702987433,-10.497491058111187
45.0,7.300000190734862,115.0,21.427595138549805,21.350513458251953,-79.78281412462736,40.45908456235377,290.23716708374025,0.17908969521522522,0.07149947434663773,-0.017965175211429596,0.9810667634010316,-3.644568048925373,2.594986672602741,-2.3935964325862567,-0.043367471545934684,0.10506674647331238,0.00011949081817874685,-0.4682687106728554,0.3416163020208478,-10.471596078872679
45.1,6.9000000953674325,208.0,20.980613708496094,26.78952598571777,-79.78281884520821,40.4590885449884,290.1522824401856,0.1803591251373291,0.0676981508731842,-0.015245613642036915,0.9811499714851379,-3.420224422418217,2.365685235422488,-2.3128089606485487,-0.1134958416223526,-0.04113820195198059,-0.06456243991851808,-0.12591988957487046,0.8058840188384057,-10.64133373260498
45.31,6.599999904632568,201.0,20.968093872070312,27.02012825012207,-79.78282720034352,40.459094480464785,290.00614520263673,0.14307095110416412,0.06429935246706009,-0.011560697108507156,0.9875538945198059,-3.030839562516281,1.9324455872419668,-1.8742657545326984,-0.05028559267520905,-0.648003876209259,-0.03070396184921265,0.07880868120118976,0.6941363456100226,-11.161057648658753
45.5,6.199999809265138,197.0,20.777782440185547,29.016023635864247,-79.7828307975248,40.45909657442946,289.94200106811525,0.1062101274728775,0.05733853206038475,-0.01055114809423685,0.992633044719696,-2.853717849964666,1.8109381269431144,-1.531404828972156,-0.15401336550712585,-0.6133691072463989,-0.035537168383598335,0.009896787079051138,0.8588573075830936,-11.430679779052735
45.6,5.9000000953674325,195.0,20.946807861328125,27.44952392578125,-79.78283415994305,40.45909844633507,289.8917691345215,0.07105986773967743,0.04904698580503464,-0.011907421983778477,0.996194303035736,-2.7019860600059658,1.7448360216500478,-1.1422320261984422,-0.11585626751184465,-0.5477975606918335,-0.010853893123567104,0.002356579941260861,0.7943617880344391,-11.57152750968933
45.8,5.400000095367432,272.0,21.016923904418945,25.81941032409668,-79.78284091536169,40.459103033929466,289.8508488769532,0.02005450427532196,0.037371210753917694,-0.01932060159742832,0.9989133477211,-2.4936402262003905,1.7254505568569876,-0.43078383614809945,0.04817652702331543,-0.295335590839386,0.0041435230523347855,-0.13604543983004988,0.9079296994954348,-11.700642217397693
45.9,5.199999809265137,278.0,20.882953643798828,26.9167537689209,-79.78284437051582,40.45910565081849,289.8223874206543,0.005168728064745665,0.042621131986379616,-0.025358984246850014,0.9987561106681824,-2.4096179448556603,1.7722676702747653,-0.19706737344193986,0.09570307284593582,-0.2338254153728485,0.010021151974797249,-0.0195517735183239,0.7962103121727705,-11.59822823524475
46.0,4.800000190734863,273.0,20.90924644470215,26.471454620361328,-79.78284951582887,40.45910902876819,289.8645665283203,-0.009223242290318012,0.055216729640960686,-0.03611889854073525,0.9977783560752868,-2.150089944281265,1.7250689213086845,0.2054257053956784,0.1515190154314041,0.2602386772632599,0.12714026868343353,-0.3089920546486974,0.5642226524278522,-11.716132661104202
46.2,4.599999904632568,270.0,20.707666397094727,30.009994506835927,-79.78285405422102,40.45911250881558,289.92663737487794,0.0601046122610569,0.06198466196656228,-0.04748629406094551,0.995133340358734,-1.881907104380171,1.5857904149364976,0.38486915740131417,0.006702873390167953,0.8775352239608765,0.08529319614171982,-0.11238322902470828,0.3780912698060274,-11.527726017236713
46.41,4.099999904632568,261.0,20.648820877075195,30.62228202819824,-79.78285600792616,40.45911404625849,289.9711701507568,0.0978461354970932,0.06024138629436492,-0.0498134195804596,0.9921269416809082,-1.7291755073718242,1.4866432852521672,0.3945313001167911,0.016320308670401573,0.6518287658691406,-0.09766044467687607,0.32509941615164284,0.4412773784995079,-11.486259902715686
46.51,3.9000000953674316,244.0,20.667600631713867,29.771442413330078,-79.78285769799511,40.45911537449043,290.0563599700928,0.12030601501464845,0.05486733466386795,-0.049166467040777206,0.9899994134902954,-1.5743041896831176,1.3560075602377002,0.4741478004593032,-0.06294041126966476,0.2905895709991455,-0.11023024469614028,0.4964330673962832,0.3424953212589026,-11.471247761249545
46.6,3.5999999046325684,241.0,20.708919525146484,29.723730087280273,-79.78286067867606,40.45911750651844,290.23720332336427,0.12906569242477414,0.038657285273075104,-0.04185356944799423,0.9899979829788208,-1.303892793043765,0.9996171286550992,0.8017968783207339,-0.12613147497177124,-0.001301569165661931,-0.16375809907913208,0.28953509738668803,0.3580769449844957,-11.409006489515304
46.8,3.5,238.0,20.847896575927734,27.179162979125977,-79.78286194635147,40.459118159091744,290.3585545654297,0.12915754318237305,0.031819883733987815,-0.036492425948381424,0.9904414415359496,-1.1764039542862934,0.7916508555340728,0.9984326152462664,-0.1262010633945465,0.03842991217970848,-0.1351824402809143,0.18960883140563967,0.2403253507241607,-11.263091561794285
46.9,3.2000000476837163,211.0,20.881702423095703,27.83916091918945,-79.78286424797362,40.45911904787761,290.6024148101807,0.1377381682395935,0.030334159731864933,-0.02489074133336544,0.9896911382675172,-0.9676692621896252,0.386569927479656,1.2604629835617769,0.042628832161426544,0.05955632776021956,-0.1014958992600441,0.33714917544275524,0.2148633578047157,-10.786635872125624
47.1,3.0999999046325684,201.0,21.02318382263184,25.294591903686523,-79.78286523672175,40.45911901476112,290.7422730560303,0.14274917542934418,0.031695134937763214,-0.020287174731493,0.9890432357788086,-0.8829117375670115,0.1765086691106393,1.3574923879685212,0.10155346989631653,0.09417149424552916,0.020982082933187485,0.343913599960506,-0.02645872391760349,-10.549269322156906
47.3,2.9000000953674316,192.0,21.16716957092285,21.30280303955078,-79.78286707983641,40.459118703658596,291.00328036499025,0.15842358767986298,0.027225853875279427,-0.01390764396637678,0.9868978261947632,-0.7621573838355498,-0.2501087918838688,1.442330029096314,-0.0906948372721672,0.12336555868387222,-0.04966737329959869,0.3441488042101264,0.17014909671619535,-9.905122504234317
47.4,2.9000000953674316,188.0,21.1846981048584,23.12375831604004,-79.78286793897016,40.459118639899046,291.11854907226564,0.1520470231771469,0.0025940581690520052,-0.010155121795833107,0.9883176684379578,-0.8267539318789487,-0.3666522779803224,1.3615037516508637,-1.1279151439666748,-0.676058292388916,-0.11684388667345047,1.130573472082615,-0.8173232191801072,-8.974335819482802
