time,wind_speed,wind_angle,battery_voltage,battery_current,position_x,position_y,position_z,orientation_x,orientation_y,orientation_z,orientation_w,velocity_x,velocity_y,velocity_z,angular_x,angular_y,angular_z,linear_acceleration_x,linear_acceleration_y,linear_acceleration_z
0.0,2.0,149.0,23.495983123779297,0.3101191818714142,-79.7826006916051,40.45836389714015,267.1844462604522,0.0030962161254137754,-0.004600371699780226,0.2561914324760437,0.9666101336479188,-0.002780297159987975,0.006021005504609192,0.01613935215084478,0.004933449905365706,0.018476473167538643,-0.013230501674115658,0.06658097469247877,0.10310483981855216,-9.80842066705227
0.19,2.0999999046325684,151.0,23.22303581237793,3.1091434955596924,-79.78260071183216,40.458363902339286,267.19388787460326,0.003147585084661841,-0.004650744143873453,0.25617995858192444,0.9666128754615784,-0.007346760009570626,0.006193639382108521,0.014660766697011572,0.019546369090676308,0.011780943721532822,-0.006017169915139675,0.043291258933022624,0.11712515646591785,-9.809069123268127
0.3,2.200000047683716,151.0,23.080303192138672,4.111067295074463,-79.78260072307845,40.458363903637206,267.19542352867126,0.003074992215260864,-0.0046071638353168964,0.2561919391155243,0.9666101336479188,-0.009046239000249794,0.005894367954955805,0.015953804157119476,-0.011043315753340721,0.000662364938762039,0.0012055124389007688,0.02495289686601609,0.11680489350110293,-9.815506907701495
0.49,2.299999952316284,151.0,22.89875602722168,6.130817890167236,-79.78260071591772,40.45836391200113,267.20586435508733,0.0030060007702559233,-0.004412531852722168,0.2561325430870056,0.9666268825531006,-0.009195412763540724,0.006070626231502658,0.016186647570828234,-0.030488619580864906,0.015027720481157303,-0.012667952105402943,0.02226665630238131,0.10503124156035484,-9.789920076727867
0.6,2.4000000953674316,155.0,22.791078567504893,7.061175346374513,-79.78260072425199,40.45836391372201,267.2075566501617,0.002863465342670679,-0.004074099939316511,0.2561109960079193,0.9666345715522766,-0.0011255407065177759,0.005311985831558113,0.01909938108216167,-0.013960471376776695,-9.635970491217448e-05,0.017530538141727448,0.007918174954829738,0.17366592284291985,-9.80869373202324
0.8,2.5,157.0,22.535659790039066,9.581887245178224,-79.78260070628066,40.458363908709664,267.2164625377655,0.0025171146262437105,-0.002799126785248518,0.25634902715682983,0.9665769934654236,0.0065138809787094725,0.004097794900084991,0.01785762778487918,-0.0006591458804905415,0.06812596321105957,-0.002174949506297708,0.03624102434143425,0.036736671798862516,-9.79765126526356
0.9,2.5999999046325684,155.0,22.419219970703125,10.758749961853027,-79.78260070706632,40.458363910922216,267.218172952652,0.0023099051322788,-0.0018363154958933594,0.25626423954963684,0.9666023254394532,-0.00325304958815522,0.001850418447293416,0.017550534916254145,-0.045724723488092416,0.031020402908325195,-0.04493415355682373,0.15887327123433356,0.1778296885639429,-9.864342852830887
1.09,2.5999999046325684,154.0,22.157541275024414,13.597533226013185,-79.78260066631991,40.45836388506178,267.22489134979253,0.0016021404881030321,0.000709175132215023,0.2561938166618347,0.9666239023208618,0.015442875076828491,0.005379696898153626,0.015607727966199662,0.07557152211666107,0.07158760726451874,-0.035312816500663764,0.06920211701653899,-0.02883253815583885,-9.859980829954148
1.2,2.5,153.0,21.994773864746094,15.076562881469727,-79.78260069469144,40.45836384587982,267.22702519607543,0.001110762357711792,0.002309696516022086,0.2561495900154114,0.9666337370872498,-0.0021576590682254675,-0.0064273500601420355,0.004952451414941704,0.05750733613967896,-0.07333200424909593,-0.06192399188876153,0.05011421042494476,0.05900147115346045,-9.822596071958543
1.4,2.5999999046325684,152.0,21.731843948364254,18.010766983032227,-79.78260069410257,40.45836384228025,267.22870652389526,0.0008973443182185293,0.003854821203276515,0.25703179836273193,0.9663949012756348,-0.009603859633134305,-0.0005774828343340062,0.015685291980448792,-0.094585083425045,-0.03712912276387215,0.07553628087043762,-0.01894277687184513,-0.11756868604570628,-9.804079109430312
1.5,2.5,155.0,21.590362548828125,19.442087173461914,-79.78260069583125,40.45836384619974,267.23706261825555,0.001831168541684747,0.0019941667560487986,0.25867295265197754,0.965961217880249,-0.017537709010719778,0.0160331921427343,0.012123183189438377,-0.10708247125148773,-0.029453758150339127,0.006888311356306076,0.15007927816361188,-0.08072569085285068,-9.835378085374833
1.7,2.5,155.0,21.314910888671875,22.6227970123291,-79.78260071874689,40.45836390892008,267.2460881919861,-0.005603538360446692,-0.007375916466116904,0.26558181643486023,0.964043915271759,-0.029197224879537624,0.08970842455333929,0.06340622110324409,-0.06911806762218475,-0.2635396420955658,-0.11680921912193296,0.3242426528781653,-0.11250919997692108,-10.008415907621382
1.8,2.5,155.0,21.16090965270996,24.22905540466309,-79.7826008256008,40.45836398269356,267.2563292236328,-0.014698647893965244,-0.015936963260173798,0.2697097063064575,0.9626976847648621,-0.03947765228844613,0.14776058174947168,0.15542244094039956,-0.10305364429950714,-0.2251990139484405,-0.05466562137007713,0.3876125103235245,0.029300370225682857,-10.608571783304217
2.0,2.4000000953674316,156.0,21.447628021240234,20.292926788330078,-79.78260066237765,40.45836408880949,267.28552334022515,-0.01775638572871685,-0.016870014369487762,0.2767956852912903,0.9606166481971741,-0.0403309185611226,0.21330836462646866,0.3423576575959231,0.1380411684513092,0.33360379934310913,-0.08050348609685898,0.09085751772858204,0.11842616194859147,-10.991117681264877
2.11,2.4000000953674316,156.0,21.411319732666016,20.181602478027344,-79.7826008713562,40.45836426728186,267.3195897789001,-0.0043085222132504,-0.0033784559927880764,0.27709081768989563,0.960828185081482,-0.04332551156006305,0.2725794472408129,0.3579183885905252,0.17229950428009033,0.3723579049110413,-0.05556884780526161,0.17154108121991155,0.17607473814859986,-10.126054869890213
2.3,2.4000000953674316,163.0,21.377513885498047,21.14376640319824,-79.78260167788402,40.45836498400542,267.3803471775055,0.017760816961526867,0.01363180298358202,0.2758530676364899,0.9609391093254088,-0.014304977952272525,0.3126109939011905,0.2560564900510198,0.0644792914390564,0.3012788891792297,0.025749262422323227,0.19314159119501711,0.041031817146576936,-9.8020536339283
2.4,2.4000000953674316,156.0,21.39629364013672,20.595094680786133,-79.78260188229909,40.45836521742249,267.404687330246,0.029522109776735306,0.015376118943095209,0.2748744785785675,0.960903823375702,-0.004640719215862296,0.31130569014250026,0.21214608391579026,-0.06527440994977951,0.2158079892396927,-0.011195264756679537,0.3269242590665817,0.17440548598766328,-9.412098144292832
2.6,2.5,160.0,21.239788055419922,22.360387802124023,-79.78260211691698,40.458365888093454,267.4389600009918,0.03912818431854248,0.00725566642358899,0.27137544751167303,0.961650550365448,0.05273416632378175,0.2623676846552091,0.12278689672940298,-0.09818770736455916,-0.06182898581027985,0.04547438025474548,0.402123728133738,0.022114610422868282,-9.477592222094538
2.7,2.5,160.0,21.314910888671875,21.52545166015625,-79.78260246049695,40.45836628152608,267.49092023086547,0.034050777554512024,0.002807490294799209,0.2708882093429565,0.9620043039321899,0.04574084877661815,0.2530797576342767,0.1681630499557833,-0.05991241708397865,-0.11795391887426375,0.0006735778879374268,0.40477905839681627,0.23648177487775685,-9.711342269182207
2.9,2.5,157.0,21.23102378845215,22.05821990966797,-79.78260264076944,40.458366674358075,267.5297967643737,0.019824948161840442,0.00016865550423972306,0.2697734534740448,0.9627197980880736,0.04343970210928527,0.2218684361837784,0.19760002519624686,-0.029828350991010662,-0.0556095652282238,0.001705016358755529,0.3405685906112194,0.0982003689184785,-9.904098072052005
3.0,2.5,161.0,21.24104118347168,22.272918701171875,-79.78260288795614,40.4583671365352,267.59609048080443,0.01778375543653965,-0.00019520036585163325,0.2693468332290649,0.9628790616989136,0.0383665524731408,0.2518847570606236,0.2366266261645941,-0.01398573722690344,-0.010394424200057985,0.0404040552675724,0.5184691035747528,-0.008123183817369864,-9.937581567764283
3.19,2.5,161.0,21.20723533630371,22.360387802124023,-79.78260313520752,40.45836759974453,267.65884964179986,0.01869417168200016,-0.0003015058464370668,0.27101483941078186,0.962393581867218,0.03828293616595233,0.2754402139656387,0.27618375402365913,0.07073961943387985,0.06527519226074219,-0.025461453944444656,0.4288705005124212,0.061306562335230415,-9.933532955646516
3.3,2.5,161.0,21.27359390258789,20.952924728393555,-79.78260326973026,40.45836781845951,267.68805544090264,0.021372433751821518,0.00212960597127676,0.2730148434638977,0.9617701172828674,0.02716671679920853,0.28485999152912705,0.2847207639864523,-0.017724428325891498,0.04862451925873757,-0.027744654566049576,0.5185673002526164,0.15616548048332335,-9.891463408470154
3.5,2.5,164.0,21.267333984375,21.135814666748047,-79.78260355241406,40.45836818904512,267.7505091876984,0.023464832454919808,0.0057116891257464894,0.2756994962692261,0.9609404802322388,0.03030470068279862,0.2757758164932904,0.2963849786133682,0.03582173213362694,0.01034767646342516,-0.031286075711250305,0.5787209332734347,0.09252634048461916,-9.876479333639145
3.6,2.5999999046325684,163.0,21.13711929321289,22.686410903930664,-79.78260367359356,40.458368400550754,267.7813600749969,0.024462683126330376,0.007273541763424873,0.275560200214386,0.9609450697898864,0.04848939663512322,0.2663562679222366,0.29339011666518905,0.04130258411169052,0.006894676946103573,0.015722133219242096,0.41502528056502347,0.06491396091878414,-9.836760367155076
3.79,2.5999999046325684,164.0,21.204730987548828,22.0025577545166,-79.78260374055701,40.45836885116857,267.8525447101593,0.02638001926243305,0.004128722473978996,0.2738274335861206,0.9614081382751464,0.07491225570565749,0.25189974994706016,0.27878424864300017,-0.08598223328590393,-0.07363730669021606,0.046231847256422036,0.3840917921438813,0.1719224841333926,-9.74775054216385
3.9,2.5999999046325684,164.0,21.2134952545166,21.565210342407227,-79.78260380787177,40.45836906698499,267.8812450618744,0.026466943323612213,-0.0004622060514520854,0.27273455262184143,0.961725115776062,0.08741799359494283,0.2418711915346172,0.2714205980458451,-0.03767922520637512,0.013146535493433477,0.029677726328372955,0.4571773465722799,0.10920557795092464,-9.727757157683373
4.1,2.5,164.0,21.2235107421875,22.304725646972656,-79.78260394646746,40.4583694368084,267.94845573616027,0.028703203424811363,-0.0019744837190955877,0.2728038430213928,0.9616394639015198,0.07528151222821644,0.21761076967649984,0.1597562130374696,0.04338177666068077,0.0813259482383728,-0.08781082183122635,0.460101575665176,0.3475754553079605,-9.658220899701119
4.2,2.5,168.0,21.06324958801269,23.632671356201172,-79.78260387978513,40.45836964665703,267.9771100730896,0.031019514426589005,0.0014380663633346558,0.2731924653053284,0.9614580869674684,0.09034707079475307,0.19887680535519608,0.10560594202990133,0.032685790210962296,0.06690028309822083,-0.00795707292854786,0.29016168136149645,0.2153828098252416,-9.002588396072387
4.4,2.4000000953674316,170.0,20.692642211914066,27.74374008178711,-79.78260391291828,40.45837000372492,268.0004383773804,0.032414987683296204,0.0028841530438512572,0.2728483080863953,0.9615065455436708,0.09045721640303693,0.1701258372519792,0.14896779743077884,-0.08597709983587265,-0.04182635620236397,-0.06998194754123688,0.5017443491891027,0.2573417532630265,-10.179911234378816
4.5,2.4000000953674316,172.0,20.519859313964844,29.83505630493164,-79.78260380130979,40.45837019359529,268.04862014961236,0.02978473901748657,0.0019078456098213796,0.27244293689727783,0.9617090225219728,0.09311689490579356,0.15344185909092134,0.3060226923900081,0.006281065754592419,-0.04819357767701149,-0.0458320826292038,0.3913869611173869,0.22189657151699066,-10.701455973386762
4.69,2.299999952316284,169.0,20.274457931518555,32.18878173828125,-79.78260360820003,40.45837044507141,268.13116781425475,0.023632083088159558,0.0005215985584072769,0.2725837230682373,0.961841642856598,0.095960049253419,0.1425820422263698,0.5864018963017316,-0.07246894389390945,-0.03782054409384728,0.05788087472319602,0.496043642833829,0.2340976823307574,-11.119117909669876
4.81,2.4000000953674316,170.0,20.22187042236328,33.5723876953125,-79.78260358197882,40.45837057128129,268.20041172218316,0.02239592745900154,-0.002362304599955678,0.27284544706344604,0.9617943167686462,0.10371671981186746,0.13571616031175207,0.7854174540745078,0.016553981229662895,0.006169608328491449,0.05348861962556839,0.4732759007066489,0.05605148233473301,-11.706513991355894
4.99,2.299999952316284,170.0,20.274457931518555,31.24251937866211,-79.78260345563993,40.458370846398566,268.4024976940155,0.022637562826275826,-0.003447789000347257,0.27178409695625305,0.9620858430862428,0.11168672553175796,0.15161036354290666,1.228159917830535,0.05352267250418663,0.06875384598970412,-0.04786524921655655,0.5046257474273443,0.3511299411579967,-11.92206808805466
5.1,2.299999952316284,169.0,20.09541320800781,34.081302642822266,-79.7826034457555,40.45837096167393,268.5369569511413,0.0236482247710228,-0.002952075563371181,0.2711091339588165,0.9622535705566406,0.09925119544528073,0.15943084781116396,1.4480888872145794,0.05510060861706734,0.05330102145671845,0.009350636042654514,0.4858853481709957,0.10477523401379586,-12.026494681835176
5.3,2.299999952316284,170.0,19.88632202148437,36.657676696777344,-79.78260337929945,40.458371181755254,268.8644491882324,0.03108105435967445,0.0020518770907074213,0.2703059315681457,0.9622705578804016,0.08783005666540725,0.17263872938308167,1.874624224910581,0.04358991980552673,0.09302517026662828,-0.04918048530817032,0.4740048657730222,0.19552460566163066,-12.020110691785812
5.4,2.299999952316284,173.0,19.96394920349121,34.88443374633789,-79.78260336219108,40.458371263015984,269.0647665710449,0.03036932274699211,0.005974315572530031,0.27076900005340576,0.9621466994285583,0.0869164544555694,0.18774927560474336,2.115857981142753,0.0768980011343956,-0.03011375851929188,-0.05581190064549446,0.6344309382140637,0.23229034451767802,-12.214935239553453
5.59,2.5,173.0,19.81871032714844,36.47478866577149,-79.78260322687571,40.458371413581204,269.5127455444336,0.01796521432697773,0.003792153438553214,0.2740912437438965,0.961528480052948,0.07705683827149383,0.18324073080217407,2.5502342656365387,-0.08264503628015518,-0.21099808812141416,-0.15056484937667847,0.6609656759351492,0.013632088936865329,-12.098099684715276
5.71,2.5999999046325684,173.0,19.972713470458984,35.282020568847656,-79.78260306268841,40.45837148653303,269.7400304527282,0.012014498934149742,-0.001293636509217322,0.2759086191654205,0.9611079096794128,0.09266410961141887,0.15499593481243615,2.73700254356928,-0.13175730407238007,-0.15276777744293213,0.039046410471200936,0.3106507270038128,0.06104712411761285,-12.00248484492302
5.9,2.799999952316284,171.0,20.36836051940918,29.30228614807129,-79.78260292005348,40.45837166011595,270.32626692962646,0.018610069528222084,0.0017590034985914824,0.2759740650653839,0.9609832763671876,0.13357148938831712,0.12431370956641175,3.0732254794227503,-0.06485799700021744,0.12931498885154724,0.05031125247478485,0.2385019147954881,0.12662986032664778,-11.178331493139265
6.0,2.9000000953674316,171.0,20.507339477539066,26.46350288391113,-79.78260289040301,40.45837165695868,270.6383148880005,0.02624683268368244,0.002223828574642539,0.27598652243614197,0.9608005285263062,0.12456131576458113,0.15928837000576546,3.1260345364739974,-0.0025383413303643465,0.11365632712841035,0.01865620352327824,0.5680354024842382,0.11640755692496894,-10.655397455692292
6.2,3.0,171.0,20.5849666595459,26.94061088562012,-79.7826027127348,40.458371779675005,271.2353188247681,0.03245527297258377,0.0018156885635107762,0.27622565627098083,0.9605429768562316,0.14757552028231985,0.1919728683771142,3.0967015553191883,-0.04699571803212167,0.015603742562234403,0.034258466213941574,0.504946065209806,0.10550630955956876,-9.855614129304888
6.31,3.0999999046325684,171.0,20.539892196655273,26.876995086669922,-79.78260260570379,40.45837182958026,271.545175239563,0.031922951340675354,-0.0020082532428205013,0.27665290236473083,0.9604374766349792,0.1534501308678696,0.1865834485100948,3.085938684657945,-0.05085486173629762,-0.05772578716278076,0.02401572465896606,0.5154600898548961,0.023013617545366287,-9.782564279437066
6.51,3.0999999046325684,168.0,20.59122657775879,26.59868431091309,-79.78260249482472,40.45837186336367,271.85441081237786,0.02913293987512588,-0.007577209267765283,0.2775090634822845,0.9602513909339904,0.16101288226961166,0.15526577907822006,3.0806414755714115,-0.08184938132762909,-0.07916614413261414,-0.03428935259580612,0.3187923535332084,0.2067384141124785,-9.709240779876712
6.6,3.2000000476837163,175.0,20.57119369506836,27.083742141723643,-79.78260220153126,40.45837186473525,272.413830444336,0.02981017157435417,-0.007273914292454719,0.2795588970184326,0.9596380591392516,0.19688384431315706,0.06388408341249707,3.0108919384863526,0.15359964966773987,0.1253020465373993,0.0008958327816799283,0.29209210306406025,0.2302286345511675,-9.680369567871097
6.8,3.299999952316284,181.0,20.53863906860352,27.06783866882324,-79.7826020598914,40.45837187677779,272.9296080322265,0.028142793104052544,0.0019471970153972509,0.27921178936958313,0.9598150849342346,0.11488615537106638,0.08487716077637307,2.8770398910117674,-0.09974443167448044,-0.10762161761522293,0.03960046172142029,0.32209782108664514,0.1157612660061568,-9.480167920589446
6.9,3.299999952316284,183.0,20.63003921508789,25.620615005493164,-79.78260193050696,40.458371846089115,273.21608512115483,0.022480228915810585,-0.004371217451989651,0.2782556414604187,0.9602340459823608,0.10588542945115816,0.06998419403946866,2.8571031225742947,-0.11584009230136873,-0.17884820699691772,-0.07001061737537384,0.4438168242573737,0.3566966000944376,-9.591937447786332
7.1,3.4000000953674316,178.0,20.790302276611328,23.473636627197266,-79.78260205744314,40.45837161737053,273.8364760131836,0.01870892383158207,-0.007816433906555176,0.2737496793270111,0.9615872502326964,0.12497796388859593,-0.01000020351979853,2.8637046128869645,-0.053456809371709824,0.12676376104354858,0.1083325445652008,0.3386105773597956,0.2708517998456955,-9.872792079448699
7.21,3.299999952316284,185.0,20.86417388916016,22.43195343017578,-79.78260233974189,40.45837163331845,274.2101294250488,0.025673048570752144,-0.008237740956246853,0.2706272006034851,0.962306559085846,0.0842296158093155,0.0227966648904574,2.875040824977384,-0.05231137201189995,0.1684410721063614,0.07782220095396042,0.2615992023423314,0.18407526405528188,-9.436768716573717
7.4,3.4000000953674316,188.0,20.876693725585934,22.614845275878906,-79.78260222333942,40.458371547310136,274.76789824676507,0.03832961618900299,-0.00890597701072693,0.2663782835006714,0.9630650281906128,0.11593692058677575,0.0976194032566066,2.6799818468260983,-0.0271415151655674,-0.004090175498276949,-0.023729002103209496,0.5087469746544957,0.41526125226169824,-8.752067365050316
7.5,3.4000000953674316,189.0,20.844141006469727,22.64665222167969,-79.78260204819678,40.45837134099785,275.1150290222168,0.035982243716716766,-0.010706573724746704,0.2651540040969849,0.9634750485420228,0.12854769005759373,0.10122478386067968,2.6228840326486296,0.002456289017572999,-0.08413350582122803,0.03456690162420273,0.5682973942905665,0.3521765927597881,-8.736754091978074
7.7,3.5,196.0,20.90048217773437,21.946895599365234,-79.78260193194753,40.4583713127056,275.6803747863769,0.02537799067795277,-0.015299750491976738,0.2641319036483765,0.964031219482422,0.13141886652590462,0.04862735989336287,2.4865626377157595,-0.012852131389081478,-0.05282043293118477,0.012388677336275578,0.5244345426186919,0.3861748261749745,-8.856840698719026
7.8,3.5999999046325684,198.0,20.847896575927734,22.77388000488281,-79.78260186594824,40.45837126306067,275.92491213989257,0.024276960641145703,-0.01637336052954197,0.26472994685173035,0.9638779163360596,0.10986547609874617,0.02760980115429128,2.400994218072744,-0.10540886968374252,0.0008871728787198662,-0.040798064321279526,0.4098802424222231,0.34466471135616306,-8.883224505186082
8.0,3.700000047683716,199.0,20.743976593017575,24.141586303710927,-79.78260181367445,40.45837121380517,276.1610371322632,0.02488253265619278,-0.015984097495675087,0.2662948668003082,0.9634378552436828,0.11420306598289436,0.024747247413796518,2.325011232280998,0.07005348056554794,0.01300512719899416,0.01976494118571281,0.4897089155763388,0.19260768558830024,-9.040581264495847
8.1,3.700000047683716,201.0,20.70265769958496,24.11773109436035,-79.78260176873282,40.45837112128745,276.66813151550286,0.024221913889050484,-0.009946870617568493,0.2683829367160797,0.9629563689231871,0.09294027004002103,0.047671758304921694,2.2646479286242864,0.05621518567204475,0.0287095420062542,0.019600635394454,0.5661721141263842,0.2797632305882871,-9.374964816570284
8.3,3.799999952316284,201.0,20.718935012817386,23.93483924865723,-79.78260169046408,40.45837111588434,277.18867079925536,0.02528253011405468,-0.0073646758683025846,0.2681247889995575,0.9630242586135864,0.09179871275323896,0.07785284038643245,2.292018896918256,0.04888505861163138,-0.024290330708026886,0.06174904108047485,0.4915761873498559,0.3546680913493037,-9.562685582041741
8.4,3.9000000953674316,196.0,20.615015029907227,24.920860290527344,-79.78260165675326,40.458371116688426,277.41793315124505,0.024812918156385425,-0.007312565110623837,0.2677978277206421,0.963127851486206,0.09976744413852988,0.0944449704059835,2.288471822489824,0.055722694844007485,0.04026106372475624,-0.054896604269742966,0.6966062825918198,0.3668790876120329,-9.79133919596672
8.59,4.0,197.0,20.827863693237305,22.69436264038086,-79.78260159301253,40.458371123594475,277.9900500030517,0.02826456725597382,-0.009447225369513037,0.2676245868206024,0.963062345981598,0.11282977016163953,0.113260750308442,2.3909501887943927,-0.09004047513008118,0.046868201345205314,-0.13542836904525754,0.4158355950191617,0.3270289242267609,-9.798378658890725
8.7,4.0,197.0,20.67386054992676,24.077970504760746,-79.78260188951882,40.45837119692191,278.2562939376831,0.030650414526462555,-0.010423858650028706,0.2682332992553711,0.9628098607063292,0.10839414972521703,0.1543680573664115,2.403140705941507,-0.013273004442453384,0.009906651452183723,0.0469137653708458,0.5154501130431891,0.2509835823252797,-9.637881944775582
8.9,3.9000000953674316,195.0,20.72769927978516,24.10977935791016,-79.78260187820366,40.45837127522438,278.7364727706909,0.03105991892516613,-0.01185954548418522,0.27007952332496643,0.962263822555542,0.11156116220451136,0.1649462567418402,2.3826469811862205,-0.07288573682308197,-0.0032592578791081905,0.013926373794674872,0.5362365992367268,0.3563966744765639,-9.680604625940324
9.0,3.9000000953674316,196.0,20.73020362854004,23.70423889160156,-79.78260201224572,40.458371281582274,278.9675976486206,0.030103731900453568,-0.01369253359735012,0.2708367109298706,0.9620571136474608,0.10770380459220956,0.1697096483345739,2.3774642907165755,0.03686073794960976,-0.04595702514052391,-0.05953202024102211,0.4728427682071925,0.4252683963999153,-9.68169747054577
9.2,3.9000000953674316,196.0,20.68888664245605,24.483510971069336,-79.78260174828793,40.458371360697406,279.41439978790277,0.02721261978149414,-0.01719544641673565,0.27153530716896057,0.9618899822235109,0.1327354987770792,0.1404270311067529,2.350638158161838,-0.07754340767860413,-0.04226212948560715,-0.03011595644056797,0.5129443618655205,0.3831947196274996,-9.712684789896011
9.3,3.9000000953674316,197.0,20.593730926513672,24.91290855407715,-79.78260173953909,40.45837139250323,279.65019480895995,0.026309389621019363,-0.018230775371193886,0.2714177966117859,0.9619292616844176,0.13129280295746176,0.12601190062176704,2.3537045603031603,-0.014693456701934338,-0.0334119126200676,0.012467899359762669,0.4326788286119699,0.4102371053025127,-9.833165498971939
9.5,3.700000047683716,199.0,20.529874801635746,25.83531379699707,-79.78260161566675,40.458371386010214,280.0933119506836,0.026742445304989808,-0.019259652122855183,0.2709002494812012,0.9620431661605836,0.1162929855783046,0.10646560926267863,2.3667660747670944,-0.030086642131209373,0.02822047658264637,0.0650840625166893,0.5178678636252879,0.3274000031501055,-9.979801973104477
9.6,3.5999999046325684,204.0,20.482297897338867,26.272661209106445,-79.78260163452771,40.458371394592746,280.3321234436035,0.027343880385160446,-0.01853279210627079,0.2703032195568085,0.9622084498405457,0.09671647315546728,0.12065806875932608,2.4002556309157184,-0.05302928388118744,-0.010047435760498049,0.0548824667930603,0.4451880694180727,0.32637056428939104,-10.039438894987107
9.8,3.5,205.0,20.489809036254886,26.04205894470215,-79.78260173430806,40.45837140153208,280.776093170166,0.024461241438984867,-0.0163876935839653,0.26840299367904663,0.9628567099571228,0.062372548227580475,0.1248539905692079,2.4232557122307274,0.07613987475633621,-0.0076090870425105095,-0.04775325208902359,0.5161341641843319,0.4006779675185681,-10.112660068273543
9.9,3.5,206.0,20.449745178222656,26.471454620361328,-79.78260181198793,40.45837139554805,281.02034442138665,0.023303370922803882,-0.011203895322978495,0.268464595079422,0.9629425406455994,0.04876906012671918,0.11967485111741187,2.4537219753663617,0.1673460453748703,0.0013779390137642622,0.046869587153196335,0.3401329730451107,0.1906902739405632,-10.090559931993488
10.09,3.299999952316284,206.0,20.479793548583984,25.906879425048828,-79.78260188469817,40.45837131426491,281.48426692199706,0.023398613557219502,-0.0009063676698133347,0.27065324783325195,0.9623920917510986,0.009274352121625102,0.12012901192904675,2.4764312284137038,0.08427189290523529,0.056299556046724326,-0.07308446615934372,0.4284535209462047,0.1365368434879929,-10.085020279884338
10.2,3.2000000476837163,199.0,20.433467864990234,26.61458778381348,-79.78260196268582,40.4583713135871,281.69545809936517,0.0257331021130085,5.138815686223097e-05,0.27177876234054565,0.962015688419342,0.006085023037270361,0.12729360187820465,2.4493016235239162,0.002975313225761056,0.05576922371983528,-0.0687265396118164,0.34845381673425435,0.2884125050716102,-9.967167309522633
10.4,3.2000000476837163,201.0,20.46476936340332,26.272661209106445,-79.7826019976615,40.45837131449813,282.18957583618163,0.029875280335545536,0.00022062644711695611,0.2734873592853546,0.9614115357398988,0.03732232868607158,0.12974794591248745,2.477606318508264,-0.02778738923370838,0.05364380404353142,-0.0461236909031868,0.4504770587012172,0.3802968760952354,-9.86804881811142
10.5,3.0999999046325684,201.0,20.459760665893555,25.77169990539551,-79.7826019771885,40.45837130176531,282.39686267089843,0.03227965533733368,-0.0008191351662389934,0.2730889618396759,0.9614467620849608,0.034058245384805494,0.11803986442078065,2.430369105852052,-0.04652341082692146,-0.003274036105722189,0.009660244919359684,0.4150795865803957,0.29643185170367364,-9.841165659427643
10.7,3.0999999046325684,201.0,20.4096794128418,26.081817626953125,-79.78260184876537,40.45837127104282,282.8574320526123,0.031243603676557537,-0.008382299914956095,0.2711755037307739,0.9619861841201782,0.07511355588311826,0.10372454895988367,2.3928692312259194,-0.009305855259299278,-0.06407561898231506,0.0725037083029747,0.4152168865129352,0.22931931942701345,-9.797929008007053
10.8,3.0,203.0,20.364604949951172,26.90085029602051,-79.78260181435186,40.45837123922224,283.0969225616455,0.02600323222577572,-0.01090439222753048,0.2704363763332367,0.962324857711792,0.09386846379993936,0.08494397270564491,2.3939075108929706,0.08175449073314668,-0.11665214598178865,-0.023516526445746425,0.4712667243182659,0.2876633122935892,-9.784523096680642
11.0,3.0,205.0,20.31201934814453,27.62446212768555,-79.78260167533033,40.458371081654064,283.5610930175781,0.01853702217340469,-0.010537962429225443,0.2700263261795044,0.9626168608665466,0.08942242335200007,0.02535726675017165,2.4389590276251187,0.02763297967612744,-0.011999749578535557,0.05119555070996285,0.27963901380077005,0.37360543213784697,-9.90983068227768
11.09,3.0,206.0,20.4384765625,26.39193725585937,-79.78260163224668,40.45837104447747,283.8070170135498,0.0200073141604662,-0.010568409226834774,0.2701597809791565,0.9625495672225952,0.08031764412818093,0.021519214963140715,2.4785477904133857,-0.08003418892621994,0.034251999109983444,0.01737275347113609,0.3165128165110946,0.3687618910521269,-10.159164143800737
11.3,3.2000000476837163,211.0,20.58746910095215,24.491464614868164,-79.78260155683519,40.45837092156899,284.28528277587884,0.02546096779406071,-0.013544457033276558,0.2683185935020447,0.9628985524177552,0.08433092330053278,0.03807510916568649,2.4570757047590406,-0.101782388985157,0.04398815706372261,-0.025623943656682968,0.3406931363046169,0.3696862262114883,-9.993271619081495
11.4,3.299999952316284,210.0,20.389646530151367,26.92470741271973,-79.78260152182015,40.45837087769217,284.5287596435547,0.027989529073238373,-0.016659248620271683,0.26635506749153137,0.96332448720932,0.09776267783512006,0.04101748250194048,2.4120209774364696,-0.013206437230110168,0.033188819885253906,0.10601932555437088,0.3923950941860676,0.2517979715578258,-9.455273399949077
11.59,3.299999952316284,210.0,20.349580764770508,26.08976936340332,-79.78260142842893,40.45837078766239,285.00034205627435,0.0229137483984232,-0.0121226217597723,0.2653008997440338,0.9638171195983888,0.09887279054853493,0.058195517002959635,2.3934776771935486,0.0827227234840393,-0.08155768364667892,0.011319291777908802,0.4899525251984597,0.23451018512248994,-9.565302795767783
11.7,3.299999952316284,210.0,20.37462043762207,26.73386383056641,-79.78260141652349,40.4583708190349,285.2454096527099,0.01902167126536369,-0.012008258141577244,0.2664446234703064,0.9635877013206482,0.07746790076406501,0.061894811519354935,2.4316085154842897,0.060458146035671234,-0.021261043846607208,-0.03072796761989593,0.4386804473027587,0.2049988309107721,-9.837923963069915
11.9,3.4000000953674316,214.0,20.274457931518555,27.544944763183594,-79.78260142396105,40.45837076670533,285.73414485168456,0.022490279749035842,-0.013365454971790314,0.26883769035339355,0.9628301858901978,0.06801386292247859,0.05831369604745312,2.4579699849205285,0.019717194139957428,0.08230932056903839,-0.07519354671239853,0.4636099416017533,0.36351525753736497,-9.96942316532135
12.0,3.4000000953674316,215.0,20.266944885253906,27.5369930267334,-79.78260139361066,40.458370705399105,285.97650782775884,0.025672461837530136,-0.012269607745110987,0.2698734700679779,0.9624752998352052,0.07783525229734665,0.07934573493330836,2.48731701743328,0.06530756503343582,0.06238522753119469,-0.1148793026804924,0.468005476333201,0.4052908359467983,-9.974470481872562
12.19,3.4000000953674316,215.0,20.319530487060547,26.59868431091309,-79.78260132932178,40.4583707186181,286.46557681274413,0.026291221380233758,-0.010945956222712994,0.2691299915313721,0.9626827239990234,0.08324006148228813,0.1150415749834078,2.505835776732929,0.09361609071493147,-0.010826345533132551,-0.02057383768260479,0.5267654620483518,0.2800452856533229,-9.971848590373991
12.3,3.4000000953674316,214.0,20.32579040527344,26.63049125671387,-79.78260134481106,40.4583707146954,286.71698825073236,0.0230399277061224,-0.011079653166234492,0.2684082388877869,0.962965965270996,0.07157796389263693,0.11639084680976225,2.5124945342331366,0.026378095149993896,-0.08766819536685944,0.062145330011844635,0.4948924722522498,0.2690231927856803,-9.868442920446396
12.49,3.5,209.0,20.472280502319336,24.42784881591797,-79.78260133417193,40.458370666274035,287.2035357208252,0.014963280409574509,-0.010445384308695791,0.2672784030437469,0.9634466171264648,0.06911122283771112,0.08537833650777414,2.5013398932795434,0.11293145269155502,-0.015203402377665045,-0.0097487373277545,0.514765257909894,0.2999723773263395,-9.855900642871855
12.6,3.5,208.0,20.638803482055664,22.654603958129893,-79.7826013605829,40.45837067418896,287.45326487731927,0.015142230316996574,-0.008125643245875834,0.2666451930999756,0.9636415839195251,0.05423024237619821,0.0798392313879214,2.4804910890300285,0.0017408679705113173,0.041095465421676636,0.021811289712786674,0.2742071514576674,0.29111154327169064,-9.600046951174736
12.8,3.5,208.0,20.686382293701172,22.479665756225586,-79.78260136343873,40.458370704622936,287.92528025817865,0.023236509412527084,-0.008645335212349892,0.2648771703243256,0.9639633893966676,0.060524740687609976,0.11299348335022236,2.3311796913465885,0.04971933364868164,0.09361609816551207,-0.015899600461125374,0.32303085397928955,0.3684532311558724,-9.266873772740363
12.9,3.4000000953674316,208.0,20.73020362854004,21.620872497558594,-79.78260138516116,40.458370734377105,288.15403239440917,0.02619248256087303,-0.006646658293902874,0.2643650770187378,0.9640440940856934,0.06638723723862477,0.13027050029526935,2.2379498120300263,-0.00559570686891675,0.038151681423187256,0.010080856271088123,0.3874775127321482,0.31901527862995865,-8.889407351016999
13.09,3.4000000953674316,209.0,20.559925079345703,23.950742721557607,-79.78260140261949,40.458370745570605,288.5881430358886,0.0270297322422266,-0.0013772783568128946,0.2657905220985413,0.96365088224411,0.07978116565335136,0.1408764490372148,2.099759993992577,0.018766742199659348,0.00599835766479373,0.02620177716016769,0.3496920011937619,0.23483426705002786,-8.868463793992996
13.2,3.4000000953674316,206.0,20.54239654541016,24.10977935791016,-79.78260137282567,40.45837072813421,288.7958189697265,0.027101051062345505,-0.0013655652292072773,0.267158716917038,0.9632704854011536,0.06756024108617797,0.13578650722942698,2.054619303332476,-0.08122988045215608,-0.01171236950904131,-0.09079916030168532,0.4520649432018399,0.3860780182108283,-9.14179832160473
13.4,3.299999952316284,207.0,22.36162567138672,1.924329280853272,-79.78260130169933,40.45837081023753,289.19414202880864,0.02417933754622936,-0.006968684960156679,0.2691960334777832,0.9627566933631896,0.09740249052834987,0.10975069855451944,1.8593979083317047,-0.07832332700490953,0.019893316552042958,-0.043351028114557266,0.4064225645363331,0.2400532907433808,-9.183270283341407
13.5,3.299999952316284,206.0,21.751876831054688,11.188145637512207,-79.78260132708573,40.45837078936125,289.3778692932129,0.02509126625955105,-0.008285244926810266,0.269019216299057,0.9627723097801208,0.09851286079681736,0.08259763347240738,1.5164450446136644,-0.0614812932908535,0.08442664891481401,0.01719027198851109,0.3052540027722717,0.3263284277915955,-6.600156934261322
13.7,3.2000000476837163,207.0,21.189706802368164,16.722579956054688,-79.7826012189051,40.45837076923512,289.60973612976073,0.0316535048186779,-0.007329989690333605,0.2682400643825531,0.9628040790557858,0.10400775265007547,0.041420319138307314,0.7572063531432832,0.07543139904737473,-0.015883974730968475,-0.030799321830272675,0.2189442757889629,0.22456301148980856,-6.0059739893674875
13.8,3.0999999046325684,206.0,20.980613708496094,19.426183700561523,-79.78260114434389,40.458370809369036,289.6718146057129,0.031958207488060004,-0.005406403914093971,0.2686618864536285,0.9626891016960144,0.09392642994940087,0.03010419986054572,0.4886087050158906,0.04979851841926575,0.05564281716942787,-0.06391140073537828,0.3870962377265096,0.2918807262182236,-6.949702901244162
14.0,3.0999999046325684,204.0,20.6625919342041,23.42592620849609,-79.7826009911935,40.45837077386153,289.7583662719726,0.031935419887304306,-0.003624415257945657,0.2699456810951233,0.9623389840126038,0.09842709902653032,-0.010754611885160213,0.25225383707284765,0.0347430594265461,0.03982394188642502,-0.020696153864264488,0.3779007236659527,0.1894183949008584,-7.810638163089753
14.1,3.0,204.0,20.534883499145508,24.920860290527344,-79.78260087975366,40.4583707934034,289.7816988677978,0.033698104321956635,-0.00378771685063839,0.2705860733985901,0.9620984196662904,0.09858676502348312,-0.019806588637497163,0.22209835247074475,-0.04836120083928108,0.009670785628259182,-0.11095841974020004,0.4628679664805532,0.4391699688881636,-9.218977475166321
14.3,3.0,203.0,20.34832763671875,26.821332931518555,-79.78260069867024,40.458370678121604,289.87377421569823,0.03519593924283981,-0.007683387491852045,0.2724491059780121,0.961495578289032,0.1031319239861559,-0.04240282431981494,0.3242007127495537,-0.0799315869808197,0.0035389212425798173,-0.05775708332657814,0.5168508135527372,0.2856738519854844,-9.765129051804543
14.4,2.9000000953674316,200.0,20.344572067260746,26.60663604736328,-79.78260055302417,40.45837066707919,289.909544631958,0.03495852276682854,-0.007777249906212091,0.2733921706676483,0.9612358212471008,0.11303040774182445,-0.05885739920698285,0.4001067029635259,0.03556633368134498,-0.03559020161628723,-0.1160167008638382,0.3806434332579374,0.4987804321199656,-10.400553578138352
14.59,2.9000000953674316,200.0,20.329547882080078,26.23290252685547,-79.78260030902851,40.458370525882735,290.06801478576665,0.031249780207872387,-0.005098615307360888,0.2732382118701935,0.9614251852035522,0.12272976271010462,-0.06937897932553146,0.6726580134705579,0.034253526479005814,-0.060570161789655685,-0.015781745314598083,0.4635864431038499,0.3513309391960502,-10.739649986028672
14.69,2.9000000953674316,200.0,20.377124786376953,25.73194122314453,-79.78260044814068,40.45837054613771,290.22132746887206,0.029582910239696506,-0.00557178957387805,0.27242934703826904,0.9617047905921936,0.12097043327193835,-0.043482602715132684,0.8524036978852184,-0.02520626224577427,-0.04223248362541199,-0.00642240047454834,0.3917428007349372,0.3961481295526028,-10.7796741771698
14.9,2.9000000953674316,202.0,20.40592193603516,25.294591903686523,-79.78260012740748,40.45837049138676,290.4075648040772,0.029104335233569145,-0.011843141168355942,0.2693574726581573,0.9625275731086732,0.13342293957732024,-0.04994506335253808,1.0067697497830213,-0.07591214776039124,-0.06166471540927888,0.0800173282623291,0.4997961665689946,0.2551676671206951,-10.57533971786499
15.0,2.9000000953674316,203.0,20.264440536499023,27.083742141723643,-79.78259984686206,40.458370402454655,290.39343707275384,0.027238966897130013,-0.01558614429086447,0.2678179442882538,0.9629583358764648,0.1348320518754468,-0.06122387126508881,1.007747111078266,-0.02552221901714801,-0.07913683354854584,0.14153501391410828,0.4889744687452913,0.21893038865178824,-10.498696753978727
15.2,3.0,203.0,20.45099639892578,24.66640281677246,-79.78259959879483,40.458370249528734,290.5262152404785,0.02428196556866169,-0.017566107213497162,0.2655307948589325,0.9636364579200744,0.12309434198737408,-0.04931034194818144,1.0907298255634443,0.038307774811983115,0.0007290210924111308,0.08052179217338562,0.4827137453109026,0.2525690731219947,-10.512168738842009
15.3,3.0,202.0,20.548656463623047,23.068096160888672,-79.7825994895798,40.458370209993575,290.637478515625,0.023476848378777504,-0.0174966212362051,0.2649386525154114,0.9638206958770752,0.1110064787061735,-0.03666281144928564,1.1263262418725446,0.08020269870758058,0.020327629521489143,0.016015980392694473,0.5258505920693278,0.28050273891538385,-10.212821702957154
15.5,3.0999999046325684,205.0,21.37250518798828,15.474151611328125,-79.78259939244026,40.45837006271258,290.7517172546386,0.019129419699311256,-0.013225274160504341,0.2456905245780945,0.9690693616867064,0.10093723704752716,-0.015259691714152472,0.7836698268247612,0.13350039720535278,-0.0032364425715059038,0.4404106438159943,0.5448427139595151,0.484997192658484,-9.430288832187653
15.59,3.0999999046325684,203.0,21.054485321044922,17.978960037231445,-79.78259930958207,40.45837006799465,290.8171869964599,0.02027062326669693,-0.010871061123907566,0.221963718533516,0.9747836589813232,0.08095807528170301,-0.001633101794449799,0.5328893551385568,-0.06108479574322701,0.06177568435668945,0.5205857753753662,0.4661480351909995,0.4213508715480566,-7.4708564615249635
15.8,3.2000000476837163,201.0,20.882953643798828,20.197505950927734,-79.78259936098237,40.458369864287725,290.9267470092773,0.02224208228290081,-0.009045468643307686,0.17177750170230865,0.9848431944847108,0.0690489926493822,0.011029701728634708,0.25057825841795217,0.007049553096294403,0.0518721416592598,0.5126871466636658,0.3970679696649313,0.3221589244902134,-7.7658502453565585
15.9,3.299999952316284,199.0,20.86542510986328,19.768110275268555,-79.78259929818046,40.458369898218756,290.94631068420415,0.02395717240869999,-0.009047473780810831,0.14951340854167938,0.9884281158447266,0.07072997832431482,0.03154014297196925,0.14406523550058428,0.007578030694276094,0.0677005797624588,0.4327149093151093,0.6082302957773209,0.27239820566028355,-8.651826208233835
16.1,3.299999952316284,209.0,20.61751937866211,22.14569091796875,-79.78259922409221,40.458369905524975,290.94760958862304,0.028686257079243663,-0.008833509869873524,0.1176147162914276,0.9926056265830994,0.061281101182649886,0.05147279293310773,0.06747067938509325,-0.007352703250944614,0.00437240581959486,0.2839307188987732,0.4174816227704287,0.2293306849524379,-8.95946167230606
16.2,3.299999952316284,211.0,20.717683792114254,21.430030822753906,-79.78259919661662,40.45836991756176,290.94411532592767,0.022765161469578743,-0.011808305978775023,0.10655922442674637,0.9939755797386168,0.04438285856780061,0.09990893410937544,0.08790390588681035,-0.1404086947441101,-0.3017414510250092,0.2610978484153748,0.8734045954048634,0.11249463675543668,-9.617097432017326
16.39,3.2000000476837163,207.0,20.765260696411133,21.27099609375,-79.78259920342734,40.45837021296271,290.96033541870116,-0.02665524184703827,-0.026571054011583328,0.09479548037052156,0.9947851300239564,0.013322082788659649,0.2474574848961251,0.06513899627951802,-0.10698416829109192,-0.5718225836753845,0.04283367097377777,0.8485199419409037,0.20857964750379326,-9.648349630236627
16.5,3.2000000476837163,206.0,20.64381217956543,22.757976531982425,-79.78259926765226,40.45837065212453,290.9679953308105,-0.052071426063776016,-0.032181374728679664,0.0917072892189026,0.993902862071991,0.009746887843948957,0.349931862255757,0.12442286388414114,-0.0997052863240242,-0.44939371943473816,0.022255204617977142,0.5052496818825603,0.3080338056385517,-9.705689765810966
16.69,3.0999999046325684,214.0,20.56868934631348,23.70423889160156,-79.78259909463677,40.45837153427605,290.93871180725085,-0.08429022133350372,-0.03224045783281326,0.09286537021398544,0.9915804862976074,-0.000774099421730021,0.6554093888181141,0.2041158814539955,0.03838382288813591,-0.22223518788814545,0.043176785111427314,0.4081206690520048,0.16506693441420794,-9.844048336744311
16.79,3.0999999046325684,213.0,20.467273712158203,24.34037971496582,-79.78259928463066,40.458372224468214,290.94967333984374,-0.09034321457147597,-0.029127594083547592,0.09580589085817336,0.990863800048828,-0.01976839716268997,0.8591368050627209,0.2724159767626288,0.05418689176440239,-0.08728910237550735,-0.07645796239376068,0.3017373410984874,0.2739347260259092,-10.091322408914566
17.0,2.9000000953674316,214.0,20.482297897338867,24.483510971069336,-79.78259950359902,40.45837431055575,290.93037669372563,-0.09242085367441176,-0.025333065539598458,0.10304520279169084,0.9900496602058412,0.003959383866054718,1.276195142954334,0.40374573101034905,0.025710798799991608,-0.005847543478012085,-0.06341961771249771,0.5149006209522486,0.18871546821668744,-10.31814759850502
17.1,2.9000000953674316,216.0,20.509841918945312,23.64857482910156,-79.78259986101341,40.45837558847704,290.94744746398925,-0.09403786063194276,-0.02713080681860447,0.10618768632411957,0.9895175695419312,-0.001362964666684164,1.5077981906669764,0.4753368687384191,-0.10978088527917862,-0.06750178337097168,-0.04394501075148583,0.4311048677936197,0.2715528079122305,-10.354930093288422
17.29,2.700000047683716,220.0,20.533632278442386,24.411945343017567,-79.78260049802594,40.45837891436765,290.92934481811517,-0.10242722183465958,-0.035786360502243035,0.10844949632883072,0.9881633520126344,0.02118272110261614,1.9444776257229357,0.5927623122309964,-0.06565591692924501,-0.07884851098060608,-0.060733433812856674,0.4032426293939352,0.27486247815191744,-10.286267409324646
17.4,2.5999999046325684,225.0,20.486053466796875,24.07001876831055,-79.7826010466984,40.458380799675744,290.94871585083007,-0.10477374494075777,-0.039066165685653687,0.1087075024843216,0.9877645969390868,0.014073946236964178,2.17189824403847,0.6714488933137683,0.008591081947088242,-0.0400913767516613,0.02442456968128681,0.3025542336702347,0.25805712355300786,-10.22471844792366
17.6,2.5,235.0,20.468524932861328,24.61869239807129,-79.782601978504,40.45838540790438,290.9253489227295,-0.10851700603961943,-0.03745432198047638,0.105746790766716,0.987744390964508,0.004838888871914721,2.626596281430906,0.8034292903772527,0.12112077325582506,-0.011833837255835531,0.11029310524463654,0.2646064801700413,0.15765235433354974,-10.270305680036543
17.7,2.4000000953674316,241.0,20.365856170654297,25.64447021484375,-79.78260220103795,40.4583881920611,290.88378398132323,-0.11214123666286467,-0.03730129450559616,0.10226520150899887,0.9877119064331056,0.01792045609409787,2.8624001135003145,0.8478147137276569,-0.011110167019069195,-0.07397884130477905,0.05762854963541032,0.2618390295468271,0.1492979074269533,-10.307624949216844
17.9,2.299999952316284,257.0,20.39340209960937,25.040136337280273,-79.78260391222962,40.458393876289726,290.92779795837396,-0.12335382401943208,-0.042285725474357605,0.101612888276577,0.9862406253814696,-0.056428284158648666,3.3301497159882163,1.0902281946127341,-0.03395580127835274,-0.07734061777591705,0.0185713991522789,0.006417033670004457,0.2752729709632695,-10.403121675252915
18.0,2.299999952316284,264.0,20.37462043762207,25.11170196533203,-79.7826043401217,40.45839733720221,290.9013315887451,-0.12271499633789062,-0.04085785895586014,0.10036322474479677,0.9865084886550904,-0.03267543164447278,3.5420096147790368,1.191383728313467,-0.013267059810459614,0.13784199953079224,-0.012788461521267893,-0.26420059204101565,0.30536374770104885,-10.44878258228302
18.2,2.299999952316284,280.0,20.59122657775879,22.670507431030273,-79.78260559390992,40.45840463873518,290.9071947784424,-0.07998672872781754,-0.036237429827451706,0.10110514611005783,0.9909928441047668,-0.011025645187103205,3.9438002541241186,1.1881137102649315,-0.01282298658043146,0.5931786298751831,-0.012911803089082241,-0.39003570612519983,0.23829411936923864,-10.433412591218945
18.3,2.299999952316284,287.0,20.661340713500977,22.495569229125977,-79.78260668337455,40.45840831300677,290.9360491485596,-0.053700242191553116,-0.033213194459676736,0.10242044925689696,0.9927352666854858,-0.054629878991912725,4.138304792626887,0.9787942766202946,0.058409713208675385,0.42869022488594055,0.036587513983249664,-0.08267572813667358,0.18294653216376905,-9.807786828875543
18.5,2.4000000953674316,299.0,20.457256317138672,24.05411529541016,-79.78260758419873,40.458416410979865,290.9316794128418,-0.030092217028141018,-0.024427782744169242,0.0965660810470581,0.9945716857910156,0.02493606755633116,4.38542769926198,0.564853049954385,0.10726619511842728,0.087892085313797,0.03140149265527725,0.05148062249645592,0.1565990697965026,-9.633125819563864
18.6,2.5,304.0,20.598737716674805,22.018461227416992,-79.78260866500446,40.458420325324454,290.95423571777343,-0.02765791118144989,-0.02237515710294247,0.096036896109581,0.9947418570518494,-0.05154267113950041,4.439714048201148,0.5278233012220463,0.048393141478300095,0.034774836152791984,0.03808073326945305,-0.1103899497538805,0.18573358923196792,-10.008507124185565
18.79,2.799999952316284,312.0,20.678869247436523,21.14376640319824,-79.78260932025957,40.4584290368134,290.94467608642583,-0.02370234578847885,-0.025590859353542328,0.0888940617442131,0.9954301714897156,-0.03119081941561418,4.547936648154939,0.4856149329829618,-0.1446513682603836,0.032970666885375984,0.0730375126004219,-0.22335006142035127,0.2059630184993148,-9.988054733276368
18.91,2.9000000953674316,316.0,20.626283645629886,22.56713485717773,-79.78261034171094,40.4584330814854,290.96805064392083,-0.018908476456999786,-0.029886141419410706,0.08862108737230301,0.9954374432563782,-0.051612437417225286,4.559656060494675,0.4723881197508339,-0.12760157883167267,0.12551631033420566,0.07032911479473114,-0.414831920452416,0.3367582890763879,-9.848679331541062
19.1,3.0999999046325684,322.0,20.711421966552734,21.06424903869629,-79.78261115178327,40.45844202637424,290.9652392120361,-0.004186325706541538,-0.03119312971830368,0.08266446739435196,0.9960803985595704,-0.04253848024379207,4.621712154324679,0.36136499880436496,-0.02719776891171932,0.08001171797513963,0.03302519768476486,-0.2787119194865227,0.331403555162251,-9.818003668785096
19.2,3.299999952316284,326.0,20.7702693939209,20.213409423828125,-79.78261104768542,40.45844713401136,290.94366709899896,0.00044614827493205667,-0.02831861935555935,0.07729940116405487,0.9966056346893308,0.02889031078491801,4.687429342802732,0.2790808050906507,-0.002765267854556441,-5.445947317639366e-05,0.09419295936822893,-0.27916204545646905,0.3838213584199548,-9.776342257261275
19.4,3.5,328.0,20.834123611450195,20.078229904174805,-79.78261283091553,40.458455427902884,290.98477618408197,0.0033174871932715178,-0.022171501070261,0.07608466595411299,0.9968492984771729,-0.044412313758776384,4.6348624860079255,0.18113083161434126,-0.004910402465611696,-0.05687687918543816,0.14134183526039126,-0.4230224443227053,0.3178082305938005,-9.560357805490494
19.5,3.5999999046325684,328.0,20.805326461791992,20.65870857238769,-79.78261299822708,40.458460250533015,290.9750372619629,0.003475127974525094,-0.02283348701894284,0.07373832911252975,0.9970101714134216,0.00016412608626487166,4.649141973815015,0.13284168512924835,-0.07808226346969603,-0.04984752833843231,0.058259207755327225,-0.41665478993207217,0.38149069480597975,-9.51343097627163
19.7,3.799999952316284,328.0,20.811586380004886,20.141843795776367,-79.78261486735325,40.458468924963455,291.00432650756835,0.0067547564394772035,-0.026112036779522896,0.07575429230928421,0.996761679649353,-0.02466557890984119,4.618729017092687,0.09838666980853328,0.08761187642812729,0.03876260295510292,0.011519739404320715,-0.37006552778184415,0.3654700182750821,-9.525393210053444
19.8,3.9000000953674316,328.0,20.820350646972656,20.277023315429688,-79.78261572028434,40.45847301285607,291.0156618804932,0.006951403338462114,-0.02353953383862973,0.07694093137979507,0.996733546257019,-0.021374722101416933,4.573251367586173,0.05387429814786751,0.11615544557571413,0.03208792954683304,0.0252583771944046,-0.3957334888726473,0.4111927961558104,-9.524470519423485
19.99,4.0,328.0,20.764009475708008,20.571239471435547,-79.78261720808754,40.45848138133697,291.0282274932861,0.005231070797890425,-0.018168747425079342,0.07778546959161757,0.996790885925293,-0.006926384197626449,4.516598795219214,0.0234904361727442,0.045076828449964516,0.03997420519590378,-0.04523628950119018,-0.3027388046868146,0.4226086441799998,-9.457773084640504
20.09,4.0,327.0,20.79280662536621,20.491722106933594,-79.78261804208462,40.45848537683667,291.033682510376,0.006632864475250244,-0.01762906275689602,0.07772970199584961,0.9967965483665466,-0.007242507603126656,4.476384490545618,0.01183033029523951,0.012181825935840608,0.05856939405202865,0.01639861240983009,-0.3488713079318405,0.4328890360146761,-9.59277184545994
20.29,4.0,322.0,20.65007209777832,22.018461227416992,-79.78261964090323,40.45849354502127,291.03765742492675,0.013603510335087776,-0.014820688404142857,0.07665619254112244,0.996854603290558,-0.003017402054296357,4.407909917533711,-0.052723080624541056,0.012274633161723614,0.06171302869915962,0.04962792992591858,-0.33728998370468616,0.36158063314855104,-9.547065330147744
20.4,3.9000000953674316,322.0,20.681373596191406,21.70039176940918,-79.7826204305841,40.458497447690064,291.03952471923833,0.01703016459941864,-0.013841979205608368,0.07634095102548599,0.9968402981758118,0.009723028760899274,4.354267263227015,-0.09343104181775023,0.06864295899868011,0.05171049386262894,-0.01027799677103758,-0.29430637054145337,0.3406027968227863,-9.718232628107069
20.49,3.9000000953674316,321.0,20.632543563842773,22.193401336669922,-79.78262131709953,40.458501405306784,291.03372256469726,0.01962150260806084,-0.013020820915699005,0.07595793902873993,0.9968329668045044,-0.0015002645057084526,4.3097613486849555,-0.10036441025194387,0.07870279252529144,0.06351032108068466,-0.09463106095790864,-0.1724762154556811,0.4595864725112915,-9.800411735773087
20.7,3.9000000953674316,321.0,20.651325225830078,22.05821990966797,-79.7826228380457,40.458509177630944,291.02150599670415,0.02129368856549263,-0.011093104258179665,0.07537516951560974,0.9968661665916444,0.0068950705145000395,4.210930571171188,-0.11709688084667905,0.10278306156396866,0.008355262689292431,0.08858353644609451,-0.17413116021081804,0.2953129138983786,-9.9521785569191
20.9,3.799999952316284,317.0,20.68888664245605,21.39027214050293,-79.78262429053592,40.458516580237436,291.0337492675781,0.01744506135582924,-0.007511426694691181,0.07381769269704819,0.9970909357070924,0.024146359949388185,4.096396780617266,-0.09199863296008057,0.0812668427824974,-0.021176135167479515,0.014006226323544979,-0.19354906903579835,0.3768374805897475,-9.87511576294899
21.0,3.700000047683716,315.0,20.63629913330078,22.153642654418945,-79.78262514573541,40.45852026668724,291.009548828125,0.014446612447500229,-0.006706112995743752,0.07276582717895508,0.9972218871116638,0.0015097179923688506,4.0625876564607255,-0.0902749355870861,0.012483139522373676,-0.06191502884030343,-0.07233443856239319,-0.04851020039990545,0.3726274853199721,-9.825041377544403
21.1,3.5999999046325684,314.0,20.56868934631348,22.88520622253418,-79.78262583439916,40.45852386959864,291.01429049682616,0.011144021525979042,-0.006265369243919849,0.07248888164758682,0.9972873330116272,0.014557843491558203,4.0196884772301935,-0.0625289143392592,0.061462368816137314,-0.02248558774590492,-0.013499917462468149,-0.1837645759060979,0.3267959857732058,-9.844392153024677
21.3,3.5999999046325684,313.0,20.620023727416992,22.82954216003418,-79.7826273080777,40.45853096647031,290.99731509399413,0.008685223758220673,-0.006245523691177368,0.07351917773485184,0.997236430644989,0.011107429916256278,3.9512486750641815,-0.004163876741247942,-0.0068346927873790255,-0.014690868556499481,-0.010187958367168905,-0.12555787383578718,0.20403771311044694,-9.906455669403076
21.4,3.4000000953674316,311.0,20.493566513061523,23.33050537109375,-79.78262795688049,40.45853447583797,291.0043875427246,0.008502528071403503,-0.0059472857974469644,0.07521402835845947,0.9971134662628174,0.03520565707485037,3.926664080697092,0.015897141821761142,0.0008154549868777392,0.03345349058508873,0.021119974553585046,-0.07406524627469481,0.26777755312621593,-9.994974328279497
21.6,3.299999952316284,312.0,20.608755111694336,22.28087043762207,-79.7826294015705,40.45854137272253,290.989622756958,0.007897675037384033,-0.004599302541464567,0.07744919508695602,0.9969545006752014,0.058653457116596724,3.872913986614893,0.03878700498855777,-0.018612144514918327,-0.0064756423234939575,0.04685967043042183,-0.12460467718541622,0.2527596009895205,-9.93202554345131
21.8,3.2000000476837163,311.0,20.498573303222656,23.27484130859375,-79.78263077899074,40.458548173366616,290.97361628723144,0.00954713113605976,-0.004139102529734372,0.07647917419672012,0.9970169067382812,0.08174436741385467,3.8210148963080575,0.045408145632775516,0.01834203116595745,0.015616890043020247,0.10718506574630736,-0.03313666902948171,0.2243973891064525,-9.92967847108841
21.9,3.2000000476837163,310.0,20.588722229003906,22.75002479553223,-79.78263137314451,40.458551576600094,290.9858767242432,0.010667596943676472,-0.0054298932664096355,0.07441569864749907,0.997155487537384,0.09258753308329186,3.80158876158472,0.06075467716762933,-0.0044770105741918104,0.04972152039408684,0.06337563693523407,0.044047112055122864,0.2767547650448978,-10.022284333705905
22.0,3.0,308.0,20.493566513061523,23.93483924865723,-79.78263203531857,40.45855492095219,290.9737612457276,0.01161804236471653,-0.0068591455928981295,0.07123848050832747,0.997368097305298,0.07519014853521916,3.7767785906577998,0.05252224139238365,0.03914567455649376,0.02041727490723133,0.05424606055021286,0.0344092835392803,0.30948015097528697,-9.969720203876497
22.2,2.9000000953674316,310.0,20.582462310791016,22.47171401977539,-79.78263326336625,40.45856151637029,290.9766604156493,0.009945342317223549,-0.009114074520766735,0.06507597118616104,0.9977891445159912,0.03449758321680342,3.7190208587218248,0.06609060234966407,0.04815147817134857,-0.007120070047676562,0.03594004362821579,0.09366241794079544,0.25883102081716064,-9.961941068172457
22.29,2.799999952316284,309.0,20.588722229003906,23.06014442443848,-79.78263381616367,40.45856483425325,290.9912687988281,0.008197660557925701,-0.00840124674141407,0.06347315013408661,0.9979145526885986,0.02362448180065551,3.7113571959440512,0.07641691086915564,0.040797799825668335,-0.0074809668585658065,-0.03942285478115082,0.1448807197250426,0.2526199256256223,-9.879779502153397
22.5,2.799999952316284,308.0,20.691389083862305,21.28689956665039,-79.78263493472222,40.45857135170678,290.9961630554198,0.008273303508758545,-0.007156689185649157,0.06352389603853226,0.9979204535484314,0.02315066255291885,3.6703865412375007,0.09159538521895737,0.06497097760438919,0.024718321859836585,-0.003939098212867975,0.07331192846875638,0.23887979110702875,-9.860135196447374
22.69,2.700000047683716,308.0,20.588722229003906,22.86930084228516,-79.7826360356763,40.45857778308839,291.0055319519043,0.007106510922312737,-0.0064025958999991426,0.06845984607934953,0.9976080656051636,0.05578451863510305,3.633307367994239,0.04835382356781294,0.0002397747157374397,-0.01001561153680086,-0.07931803166866302,0.08437566904351115,0.2747683014348149,-9.70259717345238
22.8,2.700000047683716,306.0,20.711421966552734,21.175573348999023,-79.78263653260481,40.45858103262567,291.01525942993163,0.005493199452757835,-0.009977451525628568,0.07285425812005998,0.9972776174545288,0.07959611185598983,3.628891021148234,0.038817560639788855,-0.11431726068258286,-0.015714170411229134,-0.06587068736553192,0.030123126001562923,0.2344927348382771,-9.616702744960783
23.0,2.700000047683716,305.0,20.57119369506836,22.805686950683594,-79.78263701479872,40.45858427735351,291.02283541870116,0.0024815327487885948,-0.013534363359212877,0.077640600502491,0.9968865513801576,0.12450902345402345,3.621662862377964,0.0296881580903355,-0.03029216825962067,-0.11321231722831725,-0.12246941775083542,-0.06259069768711925,0.3261740978434682,-9.586161568164826
23.1,2.700000047683716,305.0,20.67010498046875,21.37436866760254,-79.7826381309849,40.45859070023271,291.0298830718993,0.0004258515837136656,-0.01687660440802574,0.08564326912164688,0.9961828589439392,0.17374371554817875,3.6070221669498372,0.06778410682700084,-0.07964619249105452,0.03540617972612381,-0.11969781666994095,-0.07695203491486609,0.448935769200325,-9.75062269449234
23.29,2.700000047683716,306.0,20.695146560668945,21.899185180664066,-79.78263920472693,40.458597041248225,291.0401331634521,0.0004204079741612077,-0.01821298524737358,0.08775792270898819,0.9959753155708312,0.19157471254814348,3.5843268486260964,0.06275402503344593,-0.03990035504102707,-0.04984935000538826,0.03559957444667816,0.029015373280271886,0.32447679731994866,-9.76034778356552
23.4,2.700000047683716,305.0,20.718935012817386,21.175573348999023,-79.78263971939204,40.45860025287676,291.04561297607415,-0.0020936462096869946,-0.01623229868710041,0.08704178035259247,0.9960702657699584,0.1873625641212857,3.5903418581926694,0.047584910414963766,-0.016676587983965874,-0.11033039540052414,-0.011780384927988052,-0.0323185567650944,0.38609826419502496,-9.630982230305671
23.5,2.799999952316284,305.0,20.804075241088867,19.97485542297364,-79.78264021913705,40.45860341443552,291.0446593017578,-0.0063967863097786895,-0.013094508089125156,0.08531602472066879,0.9962473511695862,0.1875252387583029,3.5882700221363635,0.06716516597406931,0.0656474158167839,-0.12616251409053802,0.035478722304105766,0.027732777390629054,0.2232881722971797,-9.711372089982033
23.7,2.799999952316284,304.0,20.825359344482425,19.89533805847168,-79.78264133957889,40.458609755021634,291.04089801025384,-0.014676929451525213,-0.01422718446701765,0.08043631166219711,0.9965502023696899,0.1475992080339074,3.60000528037615,0.1108297579160034,-0.04766253009438515,-0.05219633504748344,0.08767696470022203,-0.09839170991443097,0.14928480600938202,-9.595329417586328
23.79,2.9000000953674316,303.0,20.693893432617188,21.533403396606445,-79.78264187491517,40.458612980631905,291.0418383331299,-0.014440168626606463,-0.01763523742556572,0.07839539647102356,0.9966617822647096,0.1292419682062375,3.611696885986485,0.10853353932576383,-0.07931651175022125,0.027166686952114102,0.04196866229176521,-0.13066323313862085,0.29273697786033154,-9.570369408130649
24.0,2.9000000953674316,307.0,20.760251998901367,20.68256378173828,-79.78264296271715,40.45861937520407,291.0431296081543,-0.011137267574667929,-0.018171362578868862,0.07499799877405168,0.996955931186676,0.10269128507451936,3.638359815347084,0.11512248931905285,0.04719563201069832,0.03255612030625343,-0.0016754436073824765,0.08120850641280412,0.2785812342166901,-9.804305981397633
24.2,2.9000000953674316,310.0,20.77652931213379,20.2531681060791,-79.78264412101585,40.458625802755286,291.03457896423333,-0.0142116853967309,-0.014510602690279484,0.0730973482131958,0.9971179962158204,0.06218485936337202,3.649028248386873,0.11644848804963888,0.04409077763557434,-0.06079472228884698,-0.0010901966597884893,-0.1219651069957763,0.2054400216042996,-9.794747537970544
24.3,2.9000000953674316,312.0,20.75023651123047,20.571239471435547,-79.78264468304978,40.45862906912564,291.0360857696533,-0.014957983978092669,-0.011790665797889231,0.07268442958593369,0.9971731901168824,0.06878995344948577,3.664409221705272,0.12083159409186002,0.12004662305116652,0.027122348546981808,-0.09814513474702836,-0.047514218576252466,0.3216287282109261,-9.764674138426779
24.4,2.9000000953674316,311.0,20.7702693939209,20.889310836791992,-79.78264524216041,40.4586323478975,291.03676478576665,-0.01506674475967884,-0.009928306564688684,0.07236876338720323,0.9972147941589355,0.061724950270178686,3.6809514029525268,0.11942010605604167,0.003937374800443649,0.031418487429618835,0.009836834855377674,-0.09216227822005747,0.2325224789790809,-9.716375552415847
24.6,2.799999952316284,310.0,20.834123611450195,19.74425506591797,-79.78264635877947,40.458638916159394,291.02110354614257,-0.015854155644774437,-0.011900755576789379,0.07221561670303345,0.9971920847892758,0.07508755470753371,3.707005756202436,0.07248877653729201,-0.0313713364303112,-0.04894299432635306,0.0722905620932579,-0.045388856185600165,0.11001658676192164,-9.55099115073681
24.8,2.9000000953674316,310.0,20.78529357910156,20.52352905273437,-79.78264756067476,40.458645540313945,290.9990622253418,-0.020488832145929337,-0.015041648410260676,0.07139544934034348,0.9971242547035216,0.07602032876078589,3.746898360577975,0.031919974229084984,0.03313909098505974,-0.043714635074138634,0.03286362439393997,-0.10102686728350818,0.3820931772887707,-9.424762043952944
24.9,2.9000000953674316,309.0,20.7802848815918,20.793888092041016,-79.7826481039096,40.45864889844168,290.9865824432373,-0.01927679404616356,-0.012540286406874657,0.07074224203824997,0.9972295761108398,0.07324567724178062,3.7702087980660037,0.025330306266611563,-0.01360185444355011,0.02696564979851246,-0.006212903652340175,-0.2842960469797254,0.411104539744556,-9.45625690162182
24.99,2.9000000953674316,312.0,20.76651382446289,20.292926788330078,-79.78264870731395,40.45865225507504,290.9712855072021,-0.016343777999281883,-0.0108730411157012,0.07030782848596573,0.9973322153091432,0.06891648782327453,3.788618592596893,0.02300477881720938,-0.0018716958584263925,-0.010316946543753149,-0.028273912146687508,-0.13847979102283714,0.25790646638721226,-9.56411873459816
25.2,2.9000000953674316,309.0,20.70265769958496,21.62882423400879,-79.7826498127345,40.458659039349826,290.9325243682861,-0.015074565075337887,-0.015443310141563416,0.07201084494590759,0.997170388698578,0.06404633574906411,3.8219314116626935,-0.013400046584468014,-0.1081291437149048,0.04146600514650345,0.04890454187989235,-0.2155058206245304,0.16668915303423998,-9.675298277735713
25.3,2.9000000953674316,310.0,20.56868934631348,23.17942047119141,-79.78265037393079,40.458662459862964,290.9184958190918,-0.01360613200813532,-0.01804064959287644,0.07446298748254776,0.9969677925109864,0.07058062739785556,3.839363734387312,-0.013578036083767502,-0.004554443061351776,-0.008879234082996845,0.011788425035774708,-0.1360324389114976,0.2242026585526765,-9.852220405340196
25.51,2.9000000953674316,311.0,20.697650909423828,21.11195945739746,-79.78265094662919,40.45866589772445,290.9061171264648,-0.014781013131141663,-0.01778334565460682,0.07710866630077362,0.99675452709198,0.0889688721592335,3.8583078949071457,0.0023214742976699,0.08660228550434113,-9.172171849058941e-05,-0.08878372609615326,-0.041791224279440944,0.20806783340871327,-10.028712762594225
25.71,2.9000000953674316,315.0,20.725194931030273,21.398223876953125,-79.78265282111566,40.45867631038354,290.8382498474121,-0.013887764886021614,-0.0111575061455369,0.08096197992563248,0.9965580105781556,0.10520445194352232,3.898362904358241,0.03761781288517413,0.017187030985951424,0.06376519799232483,0.08243958652019501,-0.2651495768688619,0.22218750704079868,-9.847454924583435
25.8,2.9000000953674316,314.0,20.61626625061035,22.16159439086914,-79.78265344139649,40.45867979056817,290.830198928833,-0.01118454895913601,-0.009212895296514034,0.07995351403951645,0.9966933131217957,0.10415236226809783,3.90411364265002,0.04065527802823689,0.042969960719347,0.041888270527124405,-0.004357455298304558,-0.27257283641025426,0.1632870967872441,-9.922846584320071
25.9,3.0,316.0,20.632543563842773,21.84352302551269,-79.78265406408343,40.458683276661546,290.8235518188476,-0.009078669361770151,-0.007252511568367481,0.07793378084897995,0.996890902519226,0.09530758707074746,3.9068585272724494,0.02958115968503865,0.028595002368092537,-0.0026575520168989892,0.0889914259314537,-0.13058871768414976,0.09301814613863826,-9.938335858583446
26.1,3.0999999046325684,316.0,20.707666397094727,21.597017288208008,-79.7826552518738,40.45869026695243,290.7731863708496,-0.008669376373291016,-0.007108822930604219,0.0725652426481247,0.9973006844520568,0.06800125432052766,3.9147370764467375,0.003700087936922933,-0.024687329307198524,0.026657901704311367,-0.002410124754533172,-0.1369811039697379,0.28537933504208923,-9.905170451402665
26.3,3.0999999046325684,316.0,20.601242065429688,22.33653259277344,-79.7826564843795,40.45869732371674,290.7329813690185,-0.00960732251405716,-0.0009354844805784523,0.06808693706989287,0.9976326823234558,0.052613703564418524,3.9086416796931887,0.010713139009457143,0.06466876715421678,0.07346538454294205,0.05558949336409569,-0.11970888574607673,0.16140464052557946,-9.867062977552417
26.4,3.0999999046325684,319.0,20.81033515930176,19.76015853881836,-79.78265706749498,40.458700815959354,290.72802226257323,-0.0068167131394147856,-0.0006027983617968857,0.06728596985340117,0.9977102875709534,0.04469836627371215,3.902955659098936,0.0395685312342224,0.011463740840554236,0.0964558646082878,0.13244803249835968,-0.2713459443859756,0.03855513302609325,-10.021683239936829
26.49,3.0999999046325684,323.0,20.7702693939209,19.92714500427246,-79.78265771731245,40.458704365159534,290.69872538757323,-0.005165867973119021,-0.0020672515965998173,0.06746423989534378,0.9977062344551086,0.04280787866592058,3.9101955144719813,0.011507713686976407,-0.024478154256939888,0.02813120000064373,0.07322486490011215,-0.25165963008999825,0.09309858189895748,-9.933835841417313
26.69,3.0999999046325684,325.0,20.80908203125,19.77606201171875,-79.78265893650025,40.458711356343606,290.6688257904052,-0.007947179488837719,-0.00655683595687151,0.06907776743173599,0.9975581169128418,0.05809572882901118,3.9093418655341696,-0.009338219419192766,0.019782211631536484,0.025451775640249245,0.0209966953843832,-0.12518614623695612,0.06287687321193516,-9.852934935092927
26.79,3.0999999046325684,329.0,20.81909942626953,20.078229904174805,-79.78265950237946,40.45871485308647,290.6626135559082,-0.008345337584614755,-0.008638359606266022,0.06976234912872313,0.9974913597106934,0.06561612508574438,3.915170712421952,-0.005267951052605632,-0.030091863125562668,0.034521959722042084,0.0011059727985411882,-0.14502496322616934,0.18275097934529186,-9.757362195253373
27.0,3.0999999046325684,330.0,20.882953643798828,19.410280227661133,-79.78266006403675,40.45871835347077,290.65471713256835,-0.008397495374083519,-0.009856348857283592,0.06991112232208252,0.9974692463874816,0.0686266775154749,3.9169260774845274,-0.018037040458223786,-0.027949290350079536,0.04524320736527443,0.01651122234761715,-0.17406152352690696,0.2555560684204102,-9.705494468808174
27.1,3.2000000476837163,332.0,20.73020362854004,21.119911193847656,-79.78266135703805,40.45872533802468,290.6179129333496,-0.00641973689198494,-0.006873138248920441,0.06903788447380066,0.997569739818573,0.04218275029742951,3.920804900493364,-0.0768451452040173,-0.010461283847689629,-0.058613024652004235,0.004390207584947348,-0.16738630559295414,0.2240165526419878,-9.477548952698708
27.3,3.2000000476837163,332.0,20.761505126953125,20.714370727539066,-79.78266245605542,40.45873233982388,290.5854212493896,-0.005728729069232941,-0.004171778447926045,0.0683155283331871,0.9976386427879332,0.05038424958635843,3.93037220557863,-0.07290088798657153,-0.021620018407702446,0.029568901285529137,-0.013160437345504759,0.01269362909719348,0.11785839730873705,-9.913750655651091
27.4,3.0999999046325684,334.0,20.78654670715332,20.40425109863281,-79.78266302736525,40.458735850445436,290.5733114929198,-0.004061027429997921,-0.005478082224726677,0.06806206703186035,0.9976577758789062,0.050820546137842086,3.926863187952371,-0.07215945248066301,-0.07703382521867752,0.02541725337505341,0.03473060578107834,-0.1420568526070565,0.14837096842937172,-9.872397977113724
27.59,3.0999999046325684,337.0,20.765260696411133,20.610998153686523,-79.78266416323315,40.458742792607495,290.54358737182616,-0.005786416120827198,-0.010696425102651121,0.06785895675420761,0.9976208806037904,0.060076938060145586,3.906726115652642,-0.1079811416379934,-0.034009940922260284,-0.08813685178756714,0.05152633413672447,-0.1228263196349144,0.29023027651011946,-9.578159653544427
27.69,3.0999999046325684,338.0,20.718935012817386,20.8813591003418,-79.78266483973707,40.45874633583024,290.5267740936278,-0.008909530937671661,-0.009408259764313698,0.06657084077596664,0.9976975917816162,0.05924764717499222,3.907140438298812,-0.08493800379797357,0.09830218553543092,-0.05894360318779945,0.053997017443180084,-0.2440875771827996,0.18789486631751065,-9.713895163536073
27.9,3.0999999046325684,338.0,20.72769927978516,21.167621612548828,-79.78266592159126,40.45875332962515,290.49978701782226,-0.006349687464535236,-0.005971614271402359,0.0655594915151596,0.9978106617927552,0.06715041319816477,3.9112130178690387,-0.08588617530831383,0.049688395112752914,0.01228642463684082,0.06107029691338538,-0.17047155238687994,0.12929742406122388,-9.631013220548633
28.1,3.0999999046325684,335.0,20.910499572753906,18.93317413330078,-79.78266702291356,40.458760303254735,290.4584318847656,-0.006052960176020861,-0.011417225934565069,0.07320892810821532,0.9972329139709472,0.08184535496209734,3.909845134815018,-0.1063364335312737,-0.06305494904518127,-0.006273053120821714,-0.05119211971759796,-0.02097889613360167,0.061059823539108035,-9.766051157712935
28.2,3.0999999046325684,336.0,20.73896789550781,20.793888092041016,-79.78266761501256,40.45876380470399,290.43519465637206,-0.009151547215878963,-0.01764446310698986,0.07829971611499786,0.9967317581176758,0.10066565228163878,3.92248005388748,-0.11064372023395834,-0.1191355437040329,-0.039790946990251534,-0.09495382755994797,-0.08405737951397896,0.23638187885284426,-9.699973527789117
28.3,3.0999999046325684,335.0,20.64381217956543,22.05821990966797,-79.78266817055339,40.458767308695386,290.4185511322021,-0.010970395989716051,-0.02038135938346386,0.0823516845703125,0.9963346123695374,0.1406010236938382,3.922451920235515,-0.08611423113615191,0.06328281760215759,-0.027194010093808167,-0.10934998095035553,-0.15255959395319224,0.16993384608998896,-9.734167460203173
28.5,3.0999999046325684,335.0,20.75023651123047,20.77003288269043,-79.78266932750847,40.4587742816379,290.3816668243408,-0.008990361355245112,-0.0122328232973814,0.0843801498413086,0.9963180422782898,0.16415629208604782,3.9218741902929937,-0.0569172077905819,0.12488901615142822,0.02022693119943142,-0.06500939279794693,-0.05345856653060764,0.3245350136607886,-9.843426192998887
28.7,3.2000000476837163,334.0,20.66008949279785,21.477741241455078,-79.78267044766362,40.4587813182369,290.3430792541504,-0.0044314032420516005,-0.00462319003418088,0.07990629225969315,0.996781885623932,0.1740329970854237,3.925645908828344,-0.0659764365932016,0.019015785306692123,-0.0070314561016857615,0.19540861248970032,-0.11469923805445435,0.2858413747139275,-9.967818689346316
28.79,3.2000000476837163,331.0,20.764009475708008,20.642805099487305,-79.78267100328314,40.458784835110734,290.3321692199707,-0.006117480341345072,-0.0058394772931933394,0.0774921327829361,0.9969571232795716,0.1624172154942443,3.9329884012542737,-0.06321625389997249,-0.03666474297642708,-0.06711690127849579,0.19534210860729212,-0.10904922888614238,0.07911430785432458,-10.000370138883591
28.99,3.2000000476837163,328.0,20.78278923034668,20.51557731628418,-79.7826721746018,40.458791846906706,290.29666392517083,-0.010257221758365631,-0.013247388415038586,0.07313258945941925,0.9971815347671508,0.12077900028029336,3.936480483877634,-0.047068756303494025,-0.09356163442134856,0.002950360532850027,0.12713734805583954,-0.2094824941456318,0.14407548503950238,-9.88867779493332
29.1,3.2000000476837163,327.0,20.5849666595459,22.52737617492676,-79.78267272453772,40.458795366872344,290.28422038269036,-0.008792007341980934,-0.015767265111207962,0.07169967889785768,0.9972628951072692,0.11029120421983413,3.9390247798108335,-0.03988340464879276,-0.018638400360941887,0.09735032916069032,0.048129137605428696,-0.07993154760450125,0.19339621916413308,-9.839956455230713
29.2,3.2000000476837163,329.0,20.68262481689453,21.30280303955078,-79.78267330004134,40.45879887605106,290.26523272705083,-0.005833546631038189,-0.017003145068883896,0.0707804337143898,0.9973299503326416,0.08992768873804009,3.9386462934213062,-0.025623984212084304,0.033164393156766885,0.0960269495844841,0.08537392318248749,-0.017623800337314602,0.18231991164386274,-10.08604237318039
29.4,3.2000000476837163,329.0,20.910499572753906,18.60715103149414,-79.78267443214833,40.45880591763128,290.2489668579101,-0.0032502240501344204,-0.014775861985981463,0.06822233647108078,0.9975554347038268,0.06506664822419791,3.9456092183073377,-0.04735911619482064,0.04448369517922402,0.00081734819104895,-0.03766494616866112,-0.0774470291286707,0.3518707468360663,-9.734016602039338
29.5,3.2000000476837163,329.0,20.76275634765625,21.104007720947266,-79.78267506725929,40.458809428527644,290.2251459808349,-0.004815527237951756,-0.013847821392118927,0.06653638184070587,0.9976763129234314,0.04015118606982256,3.931871394307161,-0.10469709218025576,-0.0008423934341408312,-0.05709879100322724,0.15175701677799225,-0.24493200648576025,0.19411761939525604,-9.449869403243065
29.7,3.2000000476837163,328.0,20.58997344970703,22.193401336669922,-79.78267623654853,40.45881645901177,290.19520442199706,-0.005561342928558588,-0.013976536691188812,0.06342026591300964,0.9978735446929932,0.02157141649619595,3.927271717179877,-0.1047176921436702,0.07198849320411682,-0.006918894592672586,-0.025654040277004242,-0.03002331448718905,0.24718861145898705,-9.731277766227725
29.9,3.2000000476837163,327.0,20.90048217773437,19.22739028930664,-79.78267736314055,40.45882347176965,290.1635367126465,-0.0046840333379805105,-0.008631998673081398,0.062156394124031074,0.9980181455612184,0.01819846930740612,3.920316537927007,-0.13433495463418632,0.030599787831306458,0.0082639679312706,0.028138546273112297,-0.2301527669280768,0.1995960219204426,-9.483056445121765
30.0,3.2000000476837163,325.0,20.791553497314453,20.34063720703125,-79.78267806655012,40.45882698483028,290.13868968200677,-0.004978215787559748,-0.010361763648688791,0.062079552561044686,0.9980050325393676,-0.011997974594254914,3.9322232118539935,-0.171594443375034,-0.09883168339729308,-0.03692248463630676,-0.01385654229670763,-0.08292123810388148,0.154341788738966,-9.449011031985282
30.09,3.2000000476837163,323.0,20.80282211303711,19.982807159423828,-79.7826786449602,40.458830494799116,290.11642138671874,-0.0067308866418898106,-0.014892722479999062,0.06326179206371307,0.9978631734848022,-0.010984703625654294,3.9309210048915526,-0.18454501423839104,-0.14683659374713898,-0.080507792532444,-0.045745380222797394,-0.2354085732623935,0.3746000069752336,-9.541040359139444
30.3,3.2000000476837163,323.0,20.641307830810547,21.85147476196289,-79.78267993657856,40.45883751631706,290.0737463684082,-0.006161850411444902,-0.0208563394844532,0.06694895029067993,0.9975193738937378,-0.0026620457784719428,3.9328536318644263,-0.1726652653508287,0.027431005612015724,0.06755527108907701,-0.02141105942428112,-0.08399963825941087,0.3044389374554157,-9.683063380122183
30.4,3.0999999046325684,326.0,20.55366516113281,23.306650161743164,-79.78268053770611,40.45884102570191,290.0502611846924,-0.004516258370131254,-0.01800716482102871,0.06937243044376372,0.9974181056022644,0.001123779358257394,3.932961579253801,-0.1631067773431067,0.06130370497703552,0.043479107320308685,-0.03201153129339218,-0.1822257349267602,0.3188536762073636,-9.945111612081527
30.6,3.0999999046325684,328.0,20.51109504699707,23.815563201904297,-79.78268179663964,40.45884801448125,290.02179972839355,-0.0014402669621631505,-0.012978379614651205,0.07496336847543716,0.997100830078125,0.027908133554097225,3.9174538736060223,-0.07363560645202878,0.030979393050074574,-0.019269134849309918,0.016758432611823082,-0.2387425277195871,0.1807847982645035,-10.203700046539307
30.8,3.0999999046325684,330.0,20.57870483398437,22.43195343017578,-79.7826831105707,40.458854984538114,289.9968916625976,-0.005904479883611202,-0.009400871582329271,0.07710955291986465,0.9969608783721924,0.060057266094769836,3.9129735967020673,0.042305341513555306,0.0179267767816782,-0.05426841229200363,0.039336469024419785,-0.1002532075624913,0.2750166801922023,-10.380704619884492
30.9,3.0999999046325684,330.0,20.556167602539066,22.54327964782715,-79.78268373633836,40.45885847633412,290.00131861877435,-0.008609744720160961,-0.007973995991051197,0.07672859728336334,0.9969829320907592,0.07603101991312533,3.9173818305694312,0.12460282432836214,0.00823624525219202,-0.05787782371044159,-0.06822192668914795,-0.06608263660222292,0.3642624951526523,-10.356397744417187
30.99,3.0999999046325684,327.0,20.592477798461914,22.74207305908203,-79.78268434602779,40.45886195469802,289.98001162719726,-0.010578069835901259,-0.006792386528104544,0.0760047435760498,0.9970282316207886,0.08307365192817975,3.917740344802672,0.1454342276995388,-0.016718873754143715,-0.00411473773419857,0.09137748181819916,-0.17423136686906218,0.19429446112364526,-10.258541082143784
31.2,3.0999999046325684,327.0,20.667600631713867,21.58906555175781,-79.78268564023219,40.458868978174095,289.98240725708007,-0.008820685558021069,-0.006473574787378311,0.07399071007966995,0.99719899892807,0.08291384368580351,3.93072180138644,0.19286447879929464,0.010906019248068331,0.017240764573216442,-0.001646409509703517,-0.0963083104323596,0.2474539836868644,-10.052340191602706
31.3,3.0999999046325684,329.0,20.52361488342285,23.74399757385254,-79.78268623572112,40.45887249047895,289.99424998474115,-0.008593250066041945,-0.006573638413101436,0.07267558574676514,0.997296929359436,0.08167798723323658,3.936057852381423,0.20142726383199572,-0.025557314977049828,0.002660621656104923,0.011958870105445385,-0.09896170380525293,0.2261275436729193,-10.036918745040897
31.49,3.0999999046325684,329.0,20.513599395751953,23.24303436279297,-79.7826868207986,40.45887600721538,290.00872103881835,-0.00811618473380804,-0.006514807231724261,0.07091371715068817,0.9974281787872314,0.08101094214364896,3.9374579183623397,0.2340613079959648,-0.015446853823959827,-0.024641068652272224,0.045379087328910835,-0.2033118543773889,0.2419234130345285,-10.093454303741458
31.69,3.0999999046325684,331.0,20.453500747680664,24.04616355895996,-79.7826886409284,40.45888657872364,290.0291601867676,-0.0057909851893782616,-0.006894700229167938,0.06436498463153839,0.997885763645172,0.04826381297036664,3.945934814328533,0.2849220382299241,0.0438697561621666,0.007385597098618745,-0.06857029348611833,-0.11375330474227667,0.1848684754036367,-10.259669594764713
31.8,3.0,330.0,20.522363662719727,22.7977352142334,-79.78268920374376,40.45889011342677,290.0552679748535,-0.006571211386471987,-0.009439574554562569,0.06381335854530333,0.9978956580162048,0.03759688819067565,3.957495587338744,0.33635464712765384,-0.05958762392401695,-0.04617918282747269,0.05624273791909218,-0.03921011711005122,0.19331943791359665,-10.326878660917282
31.99,3.0,329.0,20.625030517578125,22.2331600189209,-79.7826897624665,40.45889365757705,290.0862547607422,-0.007511692121624947,-0.013403331860899923,0.06432896852493286,0.9978104829788208,0.038229165570628366,3.9634225191400287,0.3878856760156547,-0.09741812944412233,-0.0021532143000513315,-0.021645611152052883,-0.08387023206800223,0.2494619358144701,-10.244121848344806
32.09,3.0,327.0,20.57119369506836,22.74207305908203,-79.78269092758434,40.45890068589692,290.1424090118408,-0.002136881230399013,-0.01970730535686016,0.06780941039323808,0.9975013136863708,0.027791540421925186,3.960261138711028,0.3978084716372948,-0.03716523200273514,0.039244774729013436,0.007965593598783016,-0.13248513417318464,0.3077609233930707,-9.982477658987046
32.3,2.9000000953674316,326.0,20.698902130126953,21.263044357299805,-79.78269208880073,40.458907763822815,290.21702639770507,0.00139521190430969,-0.01502883993089199,0.07198372483253479,0.9972916245460508,0.06023288725774435,3.966204514842228,0.3313193044836728,0.14866559207439425,-0.031770553439855576,-0.05559592321515083,-0.04852937743999064,0.28681475339457396,-9.906196053028108
32.4,2.799999952316284,327.0,20.68387794494629,21.28689956665039,-79.78269268936046,40.45891130635847,290.2495104522705,-0.001180461491458118,-0.00840277224779129,0.07340172678232193,0.9972664713859558,0.0694559436972304,3.9662378664862814,0.3147592171054148,0.12723892927169805,-0.05542536452412605,-0.014027485623955728,-0.06351801127195357,0.21208967624232167,-9.676986953616142
32.5,2.700000047683716,325.0,20.78278923034668,20.714370727539066,-79.78269334684602,40.45891486995266,290.29407565307616,-0.002910850802436471,-0.004744709469377994,0.07419683784246445,0.9972281455993652,0.05790242004888005,3.964624817995447,0.3355227394619242,-0.02069871313869953,0.005578884854912758,-0.03731395676732063,-0.05766062694601715,0.23108722507953644,-9.706013116836546
32.7,2.700000047683716,324.0,20.54490089416504,23.083999633789066,-79.78269461049057,40.458921936061046,290.38472430419915,0.001163198030553758,-0.009315934032201769,0.07455950230360031,0.9971723556518556,0.08176401815896747,3.9585186404803814,0.3290322970845156,-0.10616409033536912,0.05063462629914284,0.005889919586479664,-0.026360746510326858,0.19288438679650427,-9.576422445774078
32.8,2.5999999046325684,315.0,20.6137638092041,21.35846519470215,-79.78269520794711,40.45892547055807,290.41554896545415,0.003170201554894448,-0.012583344243466854,0.07394420355558395,0.9971778988838196,0.08872888824785488,3.957723531151789,0.3030985192579941,-0.07171162217855452,0.019879380241036408,0.023654058575630188,0.001305217305198312,0.21361530616879465,-9.712475459575654
33.0,2.5,317.0,20.774024963378906,19.96690368652344,-79.78269642886643,40.45893251753173,290.51591937255864,0.002368192654103041,-0.01310371607542038,0.07152197510004044,0.9973502159118652,0.07511438755947528,3.94281377713669,0.3080141977126273,0.03105090744793415,-0.049727294594049454,0.07495588064193726,0.03308108621975407,0.1707430641911924,-9.633763166069985
33.2,2.5,318.0,20.791553497314453,20.284975051879886,-79.78269764196023,40.45893960411461,290.6059290618896,-0.00037931694532744586,-0.011063731275498869,0.06933928281068802,0.9975317716598512,0.03234687785904485,3.9382218004268967,0.2998281333711297,0.024309314787387848,-0.03801500424742699,-0.029969563707709312,0.06196438323240727,0.2647147815674544,-9.507153990268707
33.3,2.4000000953674316,319.0,20.827863693237305,19.96690368652344,-79.78269825956512,40.45894311834326,290.6342398376465,-0.0009038970456458627,-0.00953912828117609,0.06897498667240143,0.997572422027588,0.0326640941627151,3.935217970021779,0.2737051113925467,0.07538294047117232,-0.02114451676607132,0.02661968395113945,-0.0006838044617325067,0.09560161960311236,-9.42999647140503
33.5,2.4000000953674316,320.0,20.824108123779297,19.64088249206543,-79.78269887685519,40.45894663215966,290.65884844970697,-0.0009653031593188645,-0.007938427850604056,0.06897560507059097,0.9975863099098206,0.018927890850438504,3.9379736837175696,0.23949960125722825,-0.014854685403406618,-0.00028705553268082434,-0.037607818841934204,-0.04977687633130698,0.3414143538102508,-9.360732108950618
33.6,2.299999952316284,323.0,20.693893432617188,21.477741241455078,-79.78270001793446,40.45895363993632,290.73541133117675,0.002543826820328832,-0.007704928517341614,0.06920656561851501,0.9975693821907043,0.035643802053270474,3.922635096527779,0.1940697032475471,0.012298522517085077,0.04200004786252976,0.05760001763701439,-0.07937164016067982,0.16672988254576926,-9.369404699206349
33.79,2.299999952316284,325.0,20.66384506225586,21.469789505004886,-79.7827011875947,40.45896063864374,290.80918185424804,0.0028703792486339808,-0.005848451051861048,0.06951042264699936,0.9975599646568298,0.04544670417255075,3.923883714578833,0.17025677785391352,0.01188391912728548,-0.07783272862434387,0.0059974519535899145,0.057442772481590514,0.2489813495054841,-9.475836303234098
33.9,2.200000047683716,325.0,20.850400924682614,19.680641174316406,-79.78270177218869,40.45896413930287,290.82808177185063,0.00027062202570959926,-0.0057253465056419355,0.0699908584356308,0.997531235218048,0.05597766983097557,3.9141598552928,0.1589689819996561,0.019999392330646515,-0.05650324374437332,0.0012906051706522705,0.016615786040201783,0.10190775945782662,-9.628723450899123
33.99,2.200000047683716,321.0,20.794057846069336,20.388347625732425,-79.78270251480994,40.45896758877574,290.87814776611333,-0.0024309151340276003,-0.006230698898434639,0.07056202739477158,0.9974849820137024,0.043611649146155916,3.9037764878574617,0.1954908711205708,0.053116653114557266,-0.04842320829629898,-0.03428330644965172,-0.07332015111576766,0.10422290054149927,-9.531995885968213
34.19,2.200000047683716,323.0,20.867929458618164,19.306907653808594,-79.78270367477826,40.458974583085954,290.9273115844726,-0.0053389365784823895,-0.0081819212064147,0.07084730267524719,0.9974393248558044,0.052286153320527384,3.906472247913256,0.1942101575686494,-0.049484353512525565,-0.052023530006408684,0.034890245646238334,-0.19178295409306886,0.25145773669704796,-9.44611958384514
34.29,2.200000047683716,323.0,20.826610565185547,19.593170166015625,-79.78270426141856,40.45897807673703,290.9409376831054,-0.0052034598775208,-0.008380713872611523,0.0707128718495369,0.9974479675292968,0.06423846788541321,3.908584780743965,0.1610294927457732,0.03639206662774086,0.05899086967110634,0.011780922301113605,-0.04324373660143465,0.08308915369212627,-9.429060332179072
34.5,2.299999952316284,323.0,20.743976593017575,20.69051551818848,-79.78270484865479,40.458981570800354,290.950955078125,-0.003146576462313533,-0.009799940511584282,0.07105016708374022,0.9974196553230286,0.04960260569628646,3.9103712369675736,0.1330449483112763,-0.09006747603416443,0.021410204470157623,0.005073120817542076,-0.049990459587425005,0.04757691169157625,-9.542940119504927
34.69,2.299999952316284,324.0,20.77652931213379,20.4837703704834,-79.78270669249714,40.45899196573318,290.99589030456536,-0.0025363184977322817,-0.00928463228046894,0.07296653091907501,0.9972879886627196,0.06089343910917822,3.904920826548552,0.09236263010265153,0.08393853157758713,-0.0037333753425627947,-0.059591297060251236,-0.03827851404435933,0.22924787376075986,-9.599812477827072
34.8,2.4000000953674316,322.0,20.755245208740234,19.92714500427246,-79.78270729084194,40.45899545601765,291.0022875518799,-0.003897570539265871,-0.006781967356801033,0.07320210337638855,0.9972864389419556,0.0675125830304121,3.907126253694567,0.08038158079577233,0.06468461453914642,-0.014424892142415047,0.023524967953562737,-0.06839551188983023,0.16208426970988513,-9.557127803564073
34.99,2.4000000953674316,321.0,20.70140647888184,21.51749992370605,-79.78270788263175,40.4589989504932,291.0070730895996,-0.004938427824527025,-0.004796196706593037,0.07329854369163513,0.9972862601280212,0.07050516154060578,3.915522049521984,0.06932162247551983,-0.004792168736457825,-0.032580308616161346,0.0194002129137516,-0.15020122915506365,0.2249579360894859,-9.533905586600305
35.1,2.4000000953674316,320.0,20.78654670715332,20.284975051879886,-79.78270913977758,40.4590059424674,291.0026919097901,-0.0030686708632856607,-0.0055281026288867,0.0739162266254425,0.9972444772720336,0.07943953484560923,3.916075599955009,0.015681326250944483,-0.011127547360956669,0.07476603239774704,-0.07224659621715546,-0.04605891969054938,0.06490607174579055,-9.589318479895592
35.29,2.5999999046325684,320.0,20.717683792114254,20.8813591003418,-79.78271034507966,40.45901293375453,290.9916254730224,6.327626761049032e-05,-0.012334682047367096,0.0756862610578537,0.9970554113388062,0.08036971158683558,3.9215202578067285,-0.06658996370996523,-0.08705148845911026,-0.04293742775917053,0.0263790600001812,-0.020200814455747604,0.09578007845208047,-9.531220545172694
35.4,2.5999999046325684,320.0,20.732707977294922,20.603046417236328,-79.78271093518298,40.45901643867345,290.98384539794915,-0.0022145663388073444,-0.012508695013821123,0.07608488202095033,0.9970204830169678,0.0920271274511423,3.923221794652689,-0.07925392284900001,0.03456815704703331,-0.03748703747987747,-0.006413174327462912,0.01510865706950426,0.2469973892346025,-9.7008587962389
35.49,2.5999999046325684,322.0,20.74272346496582,20.420154571533203,-79.78271156253598,40.45901993651562,290.9708983154297,-0.004322707187384367,-0.010291390120983124,0.07605746388435364,0.9970409870147704,0.08865831218982742,3.9218606412434935,-0.06321849617125545,0.09296869486570357,0.020146656781435013,0.016070151701569557,0.010669715898111463,0.2399654363282025,-9.785190263986587
35.7,2.5999999046325684,322.0,20.539892196655273,23.0203857421875,-79.7827127552341,40.45902694965138,290.9385630340576,-0.0030046256724745035,-0.005948119796812534,0.07502501457929611,0.9971594214439392,0.08714812885914534,3.9280109062406914,-0.07376259468752085,0.02554897777736187,0.04117042198777199,-0.07043692469596863,-0.030347387278452518,0.17409507192671306,-9.704034419059754
35.79,2.5999999046325684,322.0,20.539892196655273,23.338457107543945,-79.78271334860926,40.459030455807024,290.9282519073486,-0.0018933569081127644,-0.0052432073280215255,0.0746360719203949,0.997195303440094,0.08644954365079519,3.9274197464968617,-0.06204439912815395,0.007705388125032186,0.013529542833566666,0.0023201939184218645,-0.05568248648196459,0.19073902510106566,-9.986339160203936
36.0,2.700000047683716,322.0,20.6137638092041,21.98665428161621,-79.78271393629522,40.45903396148172,290.9210306854248,-0.0022872446570545435,-0.005290109198540449,0.07485924661159515,0.9971774220466614,0.09054226479881644,3.92366778831545,-0.03902207177757272,0.012180850841104984,-0.03282765671610832,0.0026948011945933104,-0.07883175943046809,0.16778208900243044,-10.061723803281783
36.2,2.5999999046325684,323.0,20.61751937866211,22.074125289916992,-79.78271577432469,40.459044456588465,290.8746439666748,-0.004216580651700497,-0.00899606291204691,0.0811971127986908,0.9966486096382141,0.10386330262524072,3.915867316933739,0.007841796379839217,0.028573071584105488,-0.004643445368856193,-0.05410540848970413,-0.07790903225541115,0.18919267410412435,-10.126632574796675
36.31,2.5999999046325684,324.0,20.67386054992676,21.01653861999512,-79.78271638758956,40.459047956972775,290.87300555419915,-0.004228366073220968,-0.011913717724382877,0.08395802229642868,0.9963891506195068,0.11219951162235714,3.92107001565987,0.03461846232926878,-0.04478459060192108,0.030950231477618217,-0.09544357657432556,-0.012173939533531668,0.1371320900414139,-10.053188037872317
36.4,2.5999999046325684,325.0,20.713926315307614,20.674612045288086,-79.78271700734197,40.45905145941828,290.87370745849614,-0.0046262629330158225,-0.012564172968268394,0.08550656586885452,0.9962477087974548,0.12541685571687994,3.9253867569194285,0.053525912798689776,0.014792265370488169,-0.011253353208303452,-0.07554195821285248,-0.04872829240746796,0.3020458182692528,-9.949927378892902
36.6,2.5,327.0,20.67636489868164,21.278947830200195,-79.78271835479548,40.459058391961435,290.8421446533203,-0.0069232149980962285,-0.0064565222710371035,0.08552244305610658,0.9962913393974304,0.11225874263368364,3.9183002695042983,0.024952154964134842,-0.007572620641440153,-0.038555633276700974,0.04188401624560356,-0.1900186846777797,0.17279370099306107,-9.84622700929642
36.7,2.5,330.0,20.61000633239746,22.26496696472168,-79.78271910740095,40.459061894132105,290.8153940887451,-0.007432500831782819,-0.002506605582311749,0.08452574908733368,0.996390461921692,0.11942196194082708,3.9243543057842496,0.009260698185927205,0.1208321675658226,-0.01666318252682686,0.10498768091201782,-0.14049738191999495,-0.02041922166477889,-9.887728207111355
36.9,2.5,331.0,20.844141006469727,19.36256980895996,-79.78272041216293,40.45906892313905,290.8101412506104,-0.009123141877353191,0.0005903529818169773,0.08102036267518997,0.9966706037521362,0.10779264107075852,3.9521801915078663,0.05440077885667177,0.021911654621362686,-0.0070948065258562565,0.00321695813909173,-0.043889228096231823,0.0487257159780711,-9.881014434099198
37.11,2.5,333.0,20.77652931213379,20.8256950378418,-79.7827217745928,40.45907597104024,290.78476397705083,-0.006287264171987772,0.0004166739236097784,0.07596471905708313,0.9970906376838684,0.08797093185940867,3.956501998237632,0.0003668358084926507,-0.006229895167052746,0.03237370774149895,0.09187571704387663,-0.04337586083449423,0.006011554389260709,-9.735712879300117
37.21,2.5,333.0,20.7702693939209,20.380395889282227,-79.78272241886725,40.459079457408436,290.773407623291,-9.558341116644442e-05,3.704300979734398e-06,0.07329633086919785,0.9973102807998656,0.06988155413027218,3.9252524181164894,-0.02355473237968613,-0.05422532930970192,0.2528943717479706,0.05507626757025719,-0.1769421908631921,0.08511604531668128,-9.739363296031954
37.3,2.4000000953674316,334.0,20.70015525817871,21.33460998535156,-79.78272302443034,40.45908292989795,290.76635234069823,0.02392691560089588,0.0009726904681883752,0.07066130638122559,0.9972129464149476,0.058195046742988726,3.850739754742352,-0.06859516135286943,0.0008354411693289876,0.6721712350845337,-0.03363626450300217,-0.4301502367481589,0.1477164274547249,-9.820353080034256
37.5,2.299999952316284,336.0,20.64381217956543,21.87532997131348,-79.78272360574125,40.45908632179487,290.75911395263665,0.0635363981127739,0.0027408588211983442,0.06822147965431212,0.99564129114151,0.04668860788384443,3.7328725083227567,-0.2579527680721058,0.0008833695319481193,0.8488534092903137,0.07295343279838562,-0.3025575958192349,0.0570547777460888,-9.797813817858694
37.6,2.0999999046325684,336.0,20.514850616455078,23.219179153442386,-79.7827248396243,40.45909248716252,290.7395769805908,0.1314958930015564,0.00958707369863987,0.06430846452713013,0.98918217420578,0.019187694376239902,3.3201932761221644,-0.7686985799419466,0.02399022504687309,0.42341670393943787,0.0034736639354377985,0.2560157143883407,0.07977193688973785,-9.919726510047914
37.8,2.0,314.0,20.63003921508789,22.14569091796875,-79.78272592282208,40.4590981957701,290.7080904693604,0.15597102046012878,0.01309635303914547,0.0632261261343956,0.9856489896774292,0.020023838714415,2.7537892052771418,-0.9257514518538748,0.09414264559745787,0.14809900522232056,-0.05443205311894417,0.18251307075843207,0.135986163681373,-10.029888052940368
37.9,1.8999999761581416,308.0,20.452247619628906,24.83338928222656,-79.7827263094407,40.4591006568329,290.6990877838135,0.16376864910125732,0.015675928443670273,0.06439308077096939,0.98427015542984,0.04042762927528623,2.443545911433374,-0.8989387564013274,0.09352651238441467,0.1553008258342743,-0.016966216266155243,0.25659817015752195,0.007915316442959012,-10.09038217663765
38.1,1.7999999523162842,303.0,20.49106216430664,23.43387794494629,-79.78272702718013,40.45910486983985,290.6739985198974,0.17781585454940796,0.019784057512879368,0.06807343661785126,0.9815071225166321,0.08058686024386752,1.836585041551564,-0.76945586587394,0.05138247087597847,0.13261744379997253,-0.06181919202208519,0.3669482309371233,0.1338168649468571,-10.336574513912204
38.19,1.7000000476837158,183.0,20.35208511352539,25.75579643249512,-79.78272733569023,40.45910647846249,290.65633837890624,0.183954119682312,0.022362973541021347,0.07019995898008348,0.9801698327064514,0.10967217537418936,1.5173725790191377,-0.6897771074873729,0.08776512742042543,0.11186689883470537,0.06658248603343964,0.2197052178159357,-0.0912026770412922,-10.300127649307251
38.4,1.7000000476837158,175.0,20.100421905517575,29.64421272277832,-79.782727473378,40.459108848077065,290.6346251220703,0.19657182693481445,0.020485442131757736,0.07339820265769957,0.977523684501648,0.15439847466323695,0.8487972651942038,-0.4438952497268661,-0.12451127916574478,0.06283390522003174,0.07304050028324127,0.5094689230620861,-0.05712753446772695,-10.455950099229813
38.6,1.600000023841858,152.0,20.625030517578125,20.507625579833984,-79.78272777267969,40.45911049613718,290.6216551513672,0.08533273637294769,-0.004204321652650833,0.04821719974279404,0.9951763153076172,0.16697063726332095,0.5608503044234417,-0.2039666300850944,-0.148959219455719,-1.2729345560073853,0.6267157793045044,1.3941118669509889,0.03734623032622039,-10.220023133754733
38.7,1.600000023841858,139.0,20.698902130126953,20.905214309692386,-79.78272809668333,40.45911075399225,290.60542742919915,0.04084781929850578,-0.011020485311746596,0.004549894481897354,0.9990943074226379,0.09939938934373832,0.4165436287008645,-0.06219891059905661,0.05810937657952309,-0.2880762219429016,0.9290313720703124,-0.4181611423194409,0.6397170404344797,-10.365874911546706
38.81,1.600000023841858,249.0,20.640056610107425,22.257015228271484,-79.78272801343654,40.4591111052193,290.6062571258545,0.037817101925611496,-0.0011528526665642858,-0.04830394685268402,0.9981158375740052,0.07749444108687786,0.3359038487847779,-0.023885185798338947,0.2274960726499557,0.2261785119771957,1.2577513456344604,-0.3779545911401511,0.3640970554947853,-9.892525262832644
39.0,1.7000000476837158,244.0,20.592477798461914,22.20135307312012,-79.78272888518927,40.45911110391389,290.58921305847167,0.05493104457855225,0.019198868423700333,-0.17997290194034574,0.981948971748352,-0.003496518334716265,0.1842010250831997,-0.08234424189540716,0.06364218145608902,0.12050285190343855,1.502206563949585,0.3431391727924347,-0.12937993375584486,-9.565945989489556
39.2,2.0,222.0,20.503582000732425,23.65652656555176,-79.78272967702327,40.45911095420266,290.57514064025884,0.04701920598745346,0.023092063143849373,-0.3252198398113251,0.9441864490509032,0.026618070310396216,0.05500390895648781,-0.07824900202351481,-0.08370739966630936,0.04764702171087265,1.4389662742614746,0.4765731821581722,-0.099255060441792,-9.675112336277962
39.31,2.0999999046325684,214.0,20.468524932861328,22.7977352142334,-79.78272960371571,40.45911098175392,290.568350479126,0.04170216247439385,0.021047135815024376,-0.3950331807136536,0.9174785017967224,0.05813546109943511,0.044547890913412866,-0.056141568570744635,-0.06474654376506805,0.0646781250834465,1.3664299249649048,0.4366416693851352,-0.2950208637490869,-9.959737837314606
39.4,2.299999952316284,255.0,20.582462310791016,22.77388000488281,-79.78272950785372,40.45911097804378,290.56421343994134,0.03790534660220146,0.020854197442531586,-0.455249696969986,0.8893120884895325,0.07673743088291846,0.04431402068763767,-0.021876779182929296,-0.04286376759409905,-0.0061056846752762794,1.2691072225570679,0.2980388858355582,-0.3614329178631306,-10.05794182419777
39.6,2.5,269.0,20.528623580932614,27.21096992492676,-79.78273040463444,40.45911026432183,290.5558726043701,0.035206448286771774,0.023324163630604744,-0.5407395958900452,0.8401293158531189,0.12090223374906214,0.007387589568841855,0.030682324620330288,-0.004732982721179725,0.008472026325762272,0.7251005768775941,0.4546870905160904,-0.6465610601752997,-10.009901100397107
39.7,2.700000047683716,257.0,20.19683074951172,26.89289855957031,-79.78273139714224,40.459109463067946,290.5464350433349,0.04699042439460754,0.037762653082609184,-0.5660327672958374,0.8221756815910339,0.23674028768067198,-0.06355769502469258,0.06203937921031118,0.6036507487297058,0.06400050967931747,0.43615230917930603,0.4935941345617175,-0.020586200784891845,-10.096587241888047
39.9,2.799999952316284,252.0,20.198081970214844,26.82928466796875,-79.78273108524785,40.4591088903315,290.56296221923833,0.04403708502650261,0.09334331005811693,-0.5836005210876465,0.8054553866386414,0.4118339124920364,0.11712290129080667,0.21904048846573002,-0.15220215916633606,-0.6665980815887451,0.1433536410331726,0.9885530823469164,-1.1102123708277942,-10.386845365762714
40.0,3.0,271.0,20.213106155395508,26.527118682861328,-79.78273187093166,40.45910800504971,290.5538584442138,0.0009408564073964953,0.09001332521438599,-0.5838201642036438,0.8068771362304688,0.4660834671013471,0.14670652811745427,0.3145132288828958,-0.9094422459602356,-0.6723794937133789,-0.009186562150716782,0.5753500134497881,-1.0224792122840882,-10.573527081012728
40.21,3.0999999046325684,210.0,20.357091903686523,23.93483924865723,-79.78273107944621,40.459106826597754,290.60089366149896,-0.0777386873960495,0.046490523964166634,-0.5680487155914307,0.8179951310157776,0.5678952139130059,0.4026581280931947,0.460132439588919,-0.5512303113937378,-0.1355738490819931,-0.28471192717552185,0.3410497068241239,-0.23867895752191545,-10.810190795660017
40.4,3.2000000476837163,201.0,20.5949821472168,21.978702545166016,-79.78272914616191,40.459106309238656,290.6810766906738,-0.08959779143333435,0.03875111788511276,-0.5504371523857117,0.8291499018669128,0.5366029638320158,0.7901084260007658,0.5426094072914832,0.19767574965953827,-0.05267152562737465,-0.13543486595153809,0.3646938369423151,-0.29935703096911315,-10.12358383655548
40.5,3.2000000476837163,197.0,20.626283645629886,21.50954818725586,-79.78272821827042,40.45910573396008,290.71534030151366,-0.08628924190998077,0.048770781606435776,-0.5441713333129883,0.8330985307693481,0.4964098735272096,0.9741327609601942,0.5387758422633979,0.14711321890354154,-0.11664965003728868,-0.16312305629253387,0.472167341709137,-0.2975338508561254,-9.841563270092012
40.59,3.2000000476837163,183.0,20.67260932922364,21.14376640319824,-79.78272674631773,40.459105764877954,290.74892680358886,-0.08720342814922333,0.05796800553798676,-0.5378609895706177,0.8365051746368408,0.4479772271999445,1.18584346794027,0.5471292796021271,0.08087361603975296,-0.13321076333522794,-0.09306710213422777,0.3194430755451322,-0.5193940965458751,-9.586260386109352
40.8,3.2000000476837163,173.0,20.54490089416504,23.0203857421875,-79.7827235279138,40.45910536102181,290.7903391571045,-0.09746243804693222,0.06621348112821579,-0.5306347012519836,0.8393710851669312,0.4464499027647548,1.5876954474280245,0.5404912121066148,0.014240540564060213,-0.10896594822406767,-0.053646575659513474,0.2682217222452164,-0.5680824360251427,-9.463187021613123
40.99,3.2000000476837163,164.0,20.423450469970703,24.658451080322266,-79.78272140896577,40.459105692873656,290.805296585083,-0.1027950718998909,0.06638257205486298,-0.5283696651458739,0.8401500582695007,0.4237377180060056,1.8215597084836503,0.5724551839149639,-0.03489752858877182,-0.02594200149178505,-0.01233463641256094,0.2019042285718024,-0.4389663396030665,-9.606490582823756
41.1,3.2000000476837163,159.0,20.38839340209961,24.22905540466309,-79.78271677113874,40.459105768588095,290.8418661804198,-0.10613209009170532,0.06250634044408797,-0.5284174084663391,0.8400023579597473,0.4029665376283897,2.247757611375643,0.6530881011149112,-0.03507385402917862,0.00723296869546175,-0.12012957781553267,0.1222100231051445,-0.2303356385976076,-9.933541141748426
41.3,3.2000000476837163,145.0,20.4772891998291,23.266889572143555,-79.7827110601656,40.459106484439936,290.88661067199706,-0.10752806067466736,0.06345368921756744,-0.5296055078506471,0.8390050530433655,0.3635878065538135,2.6773990990108656,0.7705122348434881,0.04387190565466882,-0.07640538364648819,0.031080834567546844,0.06922550587914884,-0.3073285583406687,-10.024940139055252
41.41,3.2000000476837163,139.0,20.539892196655273,23.25893783569336,-79.78270779227908,40.459107339147394,290.89517466735833,-0.10789461433887483,0.065666563808918,-0.5298661589622498,0.838623046875,0.3130132839664189,2.9208468335409665,0.8231227164802818,-0.029022952541708943,-0.03491699695587158,0.01443811785429716,0.040965711632743484,-0.2750886374898255,-9.959764734506606
41.49,3.2000000476837163,129.0,20.38213348388672,24.523271560668945,-79.78270423863927,40.45910752760902,290.93455569458007,-0.10654382407665253,0.06769692897796631,-0.5320304036140442,0.8372629284858704,0.3361449162454318,3.094484263614797,0.8835565179530658,0.07643631845712663,0.09515968710184096,-0.033154282718896866,-0.14558492548763752,-0.4423268440738321,-9.933921210765837
41.7,3.2000000476837163,124.0,20.508590698242188,22.36833953857422,-79.7826964085944,40.4591088386643,290.9935785980224,-0.0794626772403717,0.04697244241833687,-0.5363469123840332,0.838934600353241,0.31404272989434484,3.4378220991454844,0.9393912970686858,-0.0006030837539583447,0.5863641500473022,-0.10209402441978456,-0.3604996291548014,-0.32037530444562434,-10.032023456096647
41.79,3.2000000476837163,118.0,20.574949264526367,21.692440032958984,-79.78269238736034,40.459109991420064,291.0063616485596,-0.05927608907222748,0.031150957569479942,-0.5379467010498047,0.8403151035308838,0.2455121669431591,3.607446105241268,0.8067246299305231,-0.07946363836526871,0.4008935689926148,0.053013887256383896,-0.4615310371667147,-0.3082258135825396,-9.91175207734108
41.99,3.299999952316284,129.0,20.687633514404297,20.8177433013916,-79.78268826016766,40.45911122648608,291.01938883972167,-0.04429129138588905,0.019503775984048843,-0.5394895672798157,0.8406003713607788,0.2052203265847322,3.7458450625132205,0.6300660201959181,0.02630192972719669,0.2641197144985199,0.21918673813343048,-0.22310422254726286,-0.5389235410094262,-9.890904414653779
42.09,3.5,121.0,20.80657958984375,19.24329376220703,-79.78267936094562,40.45911283854404,291.08766429138177,-0.03575335815548897,0.012622995302081108,-0.5452433824539185,0.8374199271202087,0.1378662942216722,3.8912087543476654,0.4139197795056692,-0.02361583709716797,-0.059037886559963226,-0.04969465360045433,-0.1805415906384588,-0.3626334974169732,-9.519965239763259
42.3,3.5,118.0,20.6337947845459,21.39027214050293,-79.7826698561605,40.45911480815003,291.11365191650384,-0.03314704820513725,0.02167167887091637,-0.5532333850860596,0.8320844769477844,0.11950076635198968,3.9949070022347466,0.3601444499326605,0.22123916447162628,0.08397995680570602,0.053249333053827286,-0.21661377662792802,-0.4320578543096781,-9.47803953409195
42.4,3.799999952316284,119.0,20.713926315307614,20.380395889282227,-79.78266546611188,40.45911617884246,291.117178604126,-0.02706925198435784,0.02496525086462497,-0.5559393167495728,0.8304068446159363,0.017531720634727473,4.01878670344027,0.3439482512048032,0.09664314240217207,0.03572668880224228,0.01952824741601944,-0.5253621668368578,-0.4272798751294613,-9.493656862378119
42.6,3.9000000953674316,120.0,20.75399208068848,20.133892059326172,-79.78265581657807,40.459118977459724,291.1411196441651,-0.018230630084872246,0.025882488116621968,-0.5623818039894104,0.8262714743614197,-0.03630657501239752,4.107678820302366,0.2578830510536168,0.1007186472415924,0.04501214250922203,0.13123948872089386,-0.4352540885657072,-0.3923369143903256,-9.521106031537057
42.8,4.199999809265137,115.0,20.86417388916016,18.527633666992188,-79.7826462495827,40.459122007892354,291.14129893493646,-0.01698450930416584,0.024935279041528702,-0.568646252155304,0.8220287561416626,-0.11854911292617765,4.1720674029714795,0.17751733646145354,-0.041342150419950485,-0.04447746649384498,0.029298966750502583,-0.5117484600841999,-0.2911068289540708,-9.375368274450304
42.9,4.300000190734863,114.0,20.96558952331543,17.97100830078125,-79.78264170449759,40.4591234607576,291.13344447326665,-0.01879367232322693,0.023129994049668312,-0.5697752237319946,0.8212600946426392,-0.1582497506985535,4.1825696042852485,0.1304514870672879,-0.0332937128841877,0.03371031582355498,-0.06420110911130905,-0.3200864885374904,-0.2967350846529007,-9.350738632678986
43.0,4.5,115.0,20.85916519165039,18.925222396850586,-79.78263680072268,40.459125121528395,291.13145510864257,-0.019460033625364304,0.019659144803881645,-0.5703213810920715,0.8209557533264159,-0.19309512785450786,4.198172193866297,0.10145563206169672,-0.03274967521429062,0.08103568851947784,-0.049306128174066544,-0.4087595504522324,-0.2415636996366084,-9.273202798962592
43.2,4.599999904632568,115.0,20.89923095703125,18.55944061279297,-79.78262739237576,40.459128218674905,291.10119120788573,-0.01523469015955925,0.014940750785171987,-0.5716489553451538,0.8202208280563354,-0.24041855846079066,4.231003824717515,0.011067393501443396,-0.002741729840636253,-0.06381067633628845,0.043628167361021035,-0.4332118023186922,-0.12611881367862227,-9.292853536605836
43.3,4.800000190734863,114.0,20.973100662231445,17.923297882080078,-79.78262282445516,40.45912975364431,291.07932536315917,-0.01264867838472128,0.01834627240896225,-0.5725522637367249,0.8195653557777405,-0.2682360467257397,4.231767724504131,-0.07446463946853626,0.12293542176485064,0.011538878083229063,-0.07096493244171143,-0.26848148480057715,-0.3119974138587713,-9.257445137500763
43.49,5.0,113.0,20.713926315307614,20.75412940979004,-79.78261826713712,40.459131308126324,291.05161921691894,-0.011657947674393654,0.02251425012946129,-0.5736015439033508,0.818742036819458,-0.2954132356479574,4.229735419914279,-0.134140441042178,0.06331121176481247,-0.03830627724528314,0.034304119646549225,-0.2379264208674431,-0.4273678391799331,-9.262204771041873
43.69,5.199999809265137,114.0,20.82911491394043,19.03654670715332,-79.78260403649969,40.45913617782893,290.96933428955083,-0.015500567853450775,0.023717861622571945,-0.5740975737571716,0.8182965517044067,-0.32584154155747524,4.244097573007372,-0.04482301405720796,-0.012365279719233513,-0.11906737089157104,-0.13169577717781067,-0.5102900183200837,-0.3860648254305125,-9.73796990454197
43.8,5.199999809265137,111.0,20.7990665435791,19.728351593017575,-79.78259946426367,40.459137745090324,290.94465892028813,-0.017067285254597664,0.023429784923791885,-0.5718560218811035,0.8198418021202087,-0.3118505590733275,4.245726849591931,-0.03207285748081728,0.022094255313277245,-0.05521288514137268,-0.10389703512191772,-0.4664462431892753,-0.06047689268365504,-9.804738675355912
43.9,5.300000190734863,110.0,20.75900077819824,20.20545768737793,-79.78259489628823,40.45913931509997,290.9199358673096,-0.017552344128489494,0.02218694239854813,-0.5684691667556763,0.8222180008888245,-0.30015847852562105,4.240144376816704,-0.02159208943430864,-0.04541832208633423,0.014896618202328682,-0.1308315247297287,-0.5419711828976871,-0.2276370389387012,-9.83373384833336
44.1,5.400000095367432,109.0,20.6625919342041,21.39027214050293,-79.7825854676433,40.45914259500547,290.8454233856201,-0.014003581367433071,0.01505926065146923,-0.5611103177070618,0.8274856209754944,-0.2351429974801373,4.254674794693569,-0.04597214464826053,-0.03235076367855072,0.05335776507854462,0.10475248843431473,-0.4246250564977527,-0.31337337333709003,-9.923932996988297
44.2,5.400000095367432,107.0,20.6776180267334,21.39027214050293,-79.78258083191389,40.45914432029157,290.79481761169427,-0.012738971039652823,0.01391251664608717,-0.5582476854324341,0.8294598460197449,-0.212656536386152,4.242699220400839,-0.08029910607528981,-0.0005574976094067097,-0.05527061223983765,-0.0036371678579598665,-0.44969795376062394,-0.31744058690965177,-9.929997729063032
44.41,5.5,107.0,20.787797927856445,19.012691497802734,-79.78257176801479,40.45914750490132,290.74871699523925,-0.01557354815304279,0.021345892921090133,-0.5548915863037109,0.8315029740333557,-0.17714924490789502,4.219216870565052,-0.03265763366343747,0.03543012961745262,-0.025980588048696518,-0.04181813821196556,-0.4839120590686799,-0.2728214527107775,-10.021774456501008
44.59,5.599999904632568,105.0,20.7064151763916,20.507625579833984,-79.7825626300387,40.45915083235164,290.6695811004638,-0.014077331870794296,0.024968530982732773,-0.5526737570762634,0.8329046368598938,-0.13638264849671566,4.211856796941247,-0.01675951383982354,-0.007917750626802444,0.015307948924601078,0.01218301523476839,-0.4792702469229698,-0.17651227433234454,-9.835601449012756
44.7,5.599999904632568,104.0,20.71017074584961,21.19942855834961,-79.7825580497924,40.459152590341965,290.6112715454101,-0.013319086283445358,0.025492440909147263,-0.5516617894172668,0.8335718512535095,-0.12675139811876351,4.209079326912454,-0.06984742729056742,-0.016500864177942276,-0.05291691794991493,-0.05883147567510605,-0.6401093155145645,-0.239688406214118,-9.7066785299778
44.8,5.599999904632568,101.0,20.652576446533203,21.581113815307614,-79.78255354938047,40.45915416351212,290.5820605010986,-0.015204879455268385,0.02620820514857769,-0.5506477952003479,0.8341876864433289,-0.10516154825316404,4.202458645650501,-0.09339759778467883,-0.007104589603841305,-0.08712024986743927,0.022509317845106125,-0.6280259712785483,-0.2478442305140197,-9.607131437659264
45.0,5.5,97.0,20.58997344970703,21.84352302551269,-79.78254905344066,40.45915572431511,290.55133692932134,-0.015712151303887367,0.026343725621700287,-0.5503548383712769,0.8343672752380371,-0.08124816282052354,4.193724804099891,-0.08550756032482641,0.009083237498998642,0.009343212470412254,-0.05790348723530769,-0.5748531828448177,-0.095231865439564,-9.681278809905052
45.19,5.400000095367432,97.0,20.48855781555176,23.839418411254893,-79.78253550370614,40.4591605369227,290.41247241210937,-0.012989040464162828,0.022476091980934143,-0.5463706851005554,0.8371410965919495,-0.04656811018806095,4.163225410408919,-0.12048783101344253,-0.2200390100479126,0.021638542413711548,-0.1566479206085205,-0.6029353861883283,-0.11823201611638068,-9.912681784629822
45.3,5.300000190734863,97.0,20.549907684326172,22.36833953857422,-79.78253103555463,40.45916206254803,290.3814169616698,-0.01578332856297493,0.014218510128557682,-0.54422527551651,0.8386701941490173,-0.015461274793323218,4.15496620405382,-0.10779843792906164,-0.0770682543516159,0.10532210767269136,-0.07580794394016266,-0.466283215507865,-0.1734528283774853,-9.987873469591145
45.4,5.300000190734863,96.0,20.52361488342285,23.0203857421875,-79.78252657377253,40.45916358631828,290.35263507080083,-0.015792610123753548,0.010594903491437435,-0.5428025126457214,0.8396451473236084,-0.0014983695863442148,4.1448450830213535,-0.10504664495569452,0.038706377148628235,0.010898935608565807,-0.024149149656295776,-0.5335844483971596,-0.08584976124577225,-10.02517402768135
45.6,5.199999809265137,96.0,20.55241203308105,22.956771850585927,-79.78251766871514,40.459166696106784,290.2814299316406,-0.01419609971344471,0.016293149441480637,-0.5422496199607849,0.839939534664154,-0.002259561419686009,4.132621991072073,-0.088816943108654,0.06075912714004516,-0.04355284944176674,-0.11724945902824402,-0.3462141504138708,-0.15312575060874226,-9.971452149152755
45.7,5.099999904632568,97.0,20.529874801635746,23.00448226928711,-79.78251321577605,40.45916827250613,290.23685710144036,-0.015552005730569363,0.01800902932882309,-0.5429521799087524,0.8394264578819275,0.0004043865903133807,4.119079235057477,-0.07432412213415457,-0.04110036045312882,-0.015553928911685944,0.057460803538560874,-0.4619082191213966,-0.20224133882671602,-10.079205808639527
45.9,5.0,97.0,20.479793548583984,23.55315399169922,-79.78250438895648,40.45917133509332,290.1964556427002,-0.017657943069934845,0.016575638204813004,-0.5465214848518372,0.8370947837829591,-0.044835434322808114,4.114111742306862,0.04190463594639637,-0.06601184606552124,-0.05765501037240029,0.07511065900325775,-0.6058064056187868,-0.17857818698510527,-10.133976677656172
46.09,4.900000095367432,98.0,20.602495193481445,21.756053924560547,-79.78249560699281,40.459174382084186,290.13524119567865,-0.013151917606592178,0.02258398756384849,-0.5494192242622375,0.8351380825042725,-0.07460880864961789,4.0979198585580345,0.04607307462841268,-0.016082540154457092,-0.04447302594780922,0.05595672503113746,-0.5723129696398974,-0.17475193351507187,-10.076469311714172
46.2,4.800000190734863,98.0,20.54239654541016,22.59099006652832,-79.78249121426823,40.45917598912658,290.0918432922363,-0.01185608096420765,0.02424563094973564,-0.5505070686340332,0.8343942165374756,-0.08740775918586739,4.088456160947317,0.03337720045331232,-0.07128189504146576,-0.02913431078195572,0.059189129620790475,-0.4819024806842208,-0.3693967159464955,-10.068855067491533
46.29,4.800000190734863,99.0,20.581209182739254,22.455808639526367,-79.7824868347379,40.45917751234718,290.0777975769043,-0.011930874548852444,0.021225230768322945,-0.5510407090187073,0.8341230750083923,-0.0934689030333069,4.082894250685975,0.0603620238762265,-0.10568828135728836,0.039061106741428375,0.00275680935010314,-0.4139852436259389,-0.22184080369770529,-10.061602181196212
46.5,4.800000190734863,100.0,20.64381217956543,21.15171813964844,-79.78247803594273,40.45918056758281,290.0435511322021,-0.0050480249337852,0.017330380156636238,-0.5508946180343628,0.8343795537948608,-0.08374434277262321,4.057739428728056,0.07298535826240772,0.04570821672677994,0.036637425422668464,-0.1903446465730667,-0.34263210956007245,0.004705199617892504,-10.052403341531754
46.69,4.800000190734863,103.0,20.65633201599121,21.692440032958984,-79.78246937877054,40.459183599526966,290.01713053894036,-0.008344100788235664,0.018418841063976288,-0.5466055870056152,0.8371461033821106,-0.0590816534493262,4.018907079408726,-0.0010807242931713931,-0.0004666757013183087,-0.05034647881984712,-0.0194320809096098,-0.24312306068837644,-0.11044931726530197,-9.904479310512542
46.8,4.800000190734863,103.0,20.681373596191406,20.889310836791992,-79.78246506819653,40.45918508482164,290.0057532043457,-0.012034974992275238,0.01845526695251465,-0.544563353061676,0.8384304046630859,-0.04394903772339266,4.006920474959192,0.014339984474116869,-0.0813615694642067,-0.11355870217084885,-0.00020613409287761897,-0.5804361774399877,-0.18418217673897744,-9.574180038571358
46.91,4.900000095367432,104.0,20.681373596191406,22.121835708618164,-79.78246077108095,40.459186567161936,289.99316088867187,-0.014985759742558002,0.01688704639673233,-0.5431506037712097,0.8393316864967346,-0.02380612920219911,3.9986895292349134,0.025388599456661963,-0.06273987144231796,-0.02921956591308117,-0.03228887915611267,-0.37195578642189503,-0.14775680978782474,-9.608477466702462
