time,wind_speed,wind_angle,battery_voltage,battery_current,position_x,position_y,position_z,orientation_x,orientation_y,orientation_z,orientation_w,velocity_x,velocity_y,velocity_z,angular_x,angular_y,angular_z,linear_acceleration_x,linear_acceleration_y,linear_acceleration_z
0.0,0.5,57.0,25.73089408874512,-0.11927660554647446,-79.78276010670372,40.45899888371434,270.4807983415127,0.04132845252752304,0.002692035399377346,-0.8347457647323608,0.5490758419036865,-0.024627630373797487,-0.0024646230065750877,0.002496905327279361,0.004815046209841968,0.003652633633464575,0.006138743367046118,0.4014861623570323,-0.7544403617084027,-9.778522099256515
0.2,0.5,60.0,25.735902786254893,-0.11927660554647446,-79.78276011303642,40.45899887285819,270.4920089917183,0.041374031454324715,0.0027111375238746405,-0.8347430229187012,0.5490764975547789,-0.01684826326827139,-0.006780808234202007,0.006466967325582539,0.0034658305812627077,0.003989957273006439,0.005066192243248224,0.4005156341940165,-0.7513912580162287,-9.77649194598198
0.3,0.5,65.0,25.72463417053223,-0.10337305814027786,-79.78276011232947,40.45899888984852,270.49277753400804,0.041383910924196236,0.002715646056458354,-0.8347379565238953,0.5490835309028625,-0.02176585925817551,-0.006679910731333115,0.006757158887779331,-0.004656593315303326,-0.0038720201700925827,-0.003729895688593389,0.39842525459826,-0.7514636904001236,-9.775898453593255
0.5,0.5,69.0,25.71962547302246,-0.12722837924957275,-79.78276009488229,40.45899888410161,270.50498402881624,0.041361983865499496,0.002713671652600169,-0.8347448110580444,0.5490747690200806,-0.02011445962582375,-0.003672110552111911,0.009097894160158479,-0.0039377273060381395,-0.0024742840323597197,0.0022143148817121983,0.3990179064497352,-0.7571275227516892,-9.777021118998528
0.6,0.5,71.0,25.735902786254893,-0.11132483184337616,-79.78276009005218,40.45899890201949,270.5060334877968,0.04136982187628746,0.002709163585677743,-0.8347523808479309,0.5490626096725464,-0.02429356832351921,-0.004055028708045584,0.00921534188507216,-0.003711320692673326,-0.0006695552146993577,0.00016368227079510691,0.3968370046466589,-0.742330120280385,-9.775614278912547
0.8,0.5,73.0,25.72588539123535,-0.12722837924957275,-79.78276009648812,40.45899887940596,270.518170096159,0.04137933254241944,0.002734225941821933,-0.8347614407539368,0.5490480661392212,-0.018891722208438537,-0.004585393340008915,0.011201337772025366,-0.006323922891169786,-0.0003074437845498324,-0.007155283819884063,0.4016108542308212,-0.7590522068738937,-9.777897616624832
0.91,0.699999988079071,75.0,25.7333984375,-0.10337305814027786,-79.78276009291143,40.45899889758658,270.51941854524614,0.04136931523680687,0.002714692847803235,-0.8347593545913696,0.5490519404411316,-0.022203624565182132,-0.004911218881981989,0.011201074657417218,0.002829106990247965,0.003127231728285551,0.0057181185111403465,0.4011796586215496,-0.7561451174318791,-9.776787815093996
1.1,0.699999988079071,81.0,25.73089408874512,-0.12722837924957275,-79.78276005860471,40.45899890210804,270.52978763747217,0.04136119782924652,0.0027350885793566704,-0.8347632884979248,0.549046516418457,-0.02421547998818073,-0.0005692650995303781,0.009062014057534946,0.006133022718131542,0.0059434520080685616,0.005626874975860119,0.3967960375919938,-0.7458806958049536,-9.774886300563812
1.2,0.8000000119209291,88.0,25.73965835571289,-0.10337305814027786,-79.7827600709643,40.45899889111181,270.54063735175134,0.04140084236860275,0.002728210296481848,-0.8347466588020325,0.5490689873695374,-0.01876380979525249,-0.0036039441196432493,0.010618840469033865,-0.0064913230016827575,-0.0042097815312445155,-0.002872635144740343,0.3974538128077984,-0.7510228103399277,-9.77575753569603
1.4,0.8999999761581421,86.0,25.74216270446777,-0.08746951073408127,-79.78276006117683,40.458998928877506,270.5430600421429,0.041428934782743454,0.002742301672697068,-0.8347409963607788,0.549075186252594,-0.026903292180594857,-0.004227456879253628,0.01096583663226437,-0.002912068739533425,-0.000977888936176896,-0.0005201792810112238,0.3986234386637807,-0.7490755413472653,-9.777236881256103
1.5,1.0,87.0,25.74091148376465,-0.09542128443717957,-79.78276005815063,40.45899891674895,270.55384448933603,0.041445717215538025,0.002757532522082329,-0.8347458243370056,0.5490665435791016,-0.021466373355810232,-0.002840455247567221,0.011381524111601402,0.005615227855741978,0.003736598417162895,0.00482391519472003,0.4000075842440128,-0.7480310824513435,-9.776586086153984
1.7,1.100000023841858,85.0,25.744667053222656,-0.10337305814027786,-79.78276011853953,40.45899892246822,270.56422180700304,0.0414983443915844,0.00276405387558043,-0.8347471356391907,0.5490606427192688,-0.014513345882725076,-0.013260465290048649,0.008712766151483349,0.002555737504735589,0.005452061071991921,0.0067172106355428704,0.400058089569211,-0.7504362615197897,-9.776806526184082
1.8,1.2000000476837158,85.0,25.72964286804199,-0.10337305814027786,-79.78276012625756,40.45899893951518,270.5651698337793,0.041498590260744095,0.0027772991452366114,-0.8347417712211609,0.5490687489509583,-0.019281629995403327,-0.013303591972195886,0.008967055062780652,-0.006575933657586575,-0.005051239859312773,-0.00455021020025015,0.3971232258528471,-0.7486297642439604,-9.775016108751297
2.0,1.399999976158142,85.0,25.734649658203125,-0.08746951073408127,-79.78276012761948,40.45899895302271,270.5773385988474,0.041506953537464135,0.00277871428988874,-0.8347376585006714,0.5490742325782776,-0.02009024009967503,-0.0090817013163745,0.01049758014376787,-0.004891793243587017,-0.002164163626730442,-0.007037302944809198,0.4009486570581794,-0.7539250758290291,-9.777702319622039
2.1,1.5,83.0,25.73965835571289,-0.10337305814027786,-79.7827601292488,40.458998971984585,270.57850006985666,0.041511401534080505,0.002795347012579441,-0.8347399830818176,0.5490703582763672,-0.02269744640287609,-0.00960419170045574,0.010557956867358134,0.005631342995911837,0.0025344653986394405,0.005655862856656313,0.4018080150336028,-0.7566853270679713,-9.77850689649582
2.3,1.600000023841858,82.0,25.74216270446777,-0.10337305814027786,-79.78276010285933,40.45899898548673,270.5909849779606,0.04150298610329628,0.0028183760587126017,-0.8347458839416504,0.5490619540214539,-0.02417113068849009,-0.00290268492418028,0.011228400519796252,0.004626896232366562,0.00196463568136096,0.008070848882198334,0.3967998017370701,-0.7408651734888554,-9.77487577557564
2.4,1.600000023841858,83.0,25.73840713500977,-0.09542128443717957,-79.7827600945617,40.458999008022964,270.59230012464525,0.04150109365582466,0.0028123443480581045,-0.8347470760345459,0.5490602850914001,-0.029132230087611,-0.00299707329904628,0.01157023264162591,-0.0035249227657914157,-0.005265635903924704,-0.007641720585525036,0.3971399269625545,-0.7403985656797887,-9.775939968824387
2.6,1.399999976158142,87.0,25.73715400695801,-0.11132483184337616,-79.78276011553567,40.4589990169556,270.60271272826196,0.04151694849133492,0.002824169583618641,-0.8347455859184265,0.5490612387657166,-0.024905218637635968,-0.0059285037104228645,0.008598752788077537,-0.007014414295554161,-0.0015018163248896599,-0.005848849657922983,0.40096013221889737,-0.7573348065465689,-9.777290675640105
2.71,1.5,77.0,25.73715400695801,-0.10337305814027786,-79.7827601210669,40.45899900373579,270.6146368609667,0.04151860624551773,0.002826904412359,-0.8347404599189758,0.5490688681602478,-0.016151718066748855,-0.003132331364723716,0.010219097959786807,0.006657263264060021,0.0002527878968976438,0.0046283104456961155,0.4015969305485487,-0.7566424231231214,-9.778143199682237
2.9,1.5,76.0,25.72964286804199,-0.08746951073408127,-79.78276011131298,40.458999037908356,270.61698577570917,0.04151856154203415,0.002824223134666681,-0.8347374200820923,0.5490735173225403,-0.02388237307961686,-0.0036052371290484523,0.010509494140118382,0.003986313473433256,0.003384682349860668,0.004416189156472683,0.39737962625920775,-0.7408295054733753,-9.77481788814068
3.0,1.5,75.0,25.74091148376465,-0.09542128443717957,-79.78276013799959,40.458999045719686,270.62749543058874,0.0415494330227375,0.002825425704941153,-0.8347316980361938,0.5490800142288208,-0.02099935145446117,-0.005479468008231691,0.00841465579432691,-0.003358174813911319,-0.002775617642328143,-0.008737758733332155,0.39755288656800986,-0.7404536025971175,-9.774426709413527
3.2,1.5,74.0,25.74216270446777,-0.10337305814027786,-79.78276014454075,40.45899906507609,270.6403527932167,0.041559524834156036,0.0028299589175730944,-0.8347247242927551,0.5490897297859192,-0.017820934437765317,-0.0025173435593405873,0.010084255427569062,-0.0044946214184165,-0.000699502881616354,-0.0068327817134559155,0.4012414198368788,-0.7565462364256382,-9.777090116143226
3.31,1.2999999523162842,75.0,25.73715400695801,-0.08746951073408127,-79.78276013982853,40.45899908040594,270.6414877997637,0.041576463729143136,0.0028252294287085533,-0.8347196578979492,0.5490962266921997,-0.020428345534016942,-0.003026953542881957,0.010142007593794052,0.005562643520534039,0.0014951818156987429,0.006699618417769671,0.4008111013099551,-0.7538243575394153,-9.777901124954225
3.5,1.2999999523162842,73.0,25.74591827392578,-0.10337305814027786,-79.78276016927856,40.458999104501466,270.6544486062527,0.04158564656972885,0.0028325326275080442,-0.8347249031066895,0.5490873456001282,-0.017678079004963817,-0.00614469705885338,0.011389047836522613,0.0063386904075741785,0.0018394932849332688,0.005949586629867554,0.3974568460509181,-0.7461882593482733,-9.775284495949746
3.6,1.2000000476837158,73.0,25.73840713500977,-0.11132483184337616,-79.78276016824229,40.458999121301,270.65571593511106,0.04160261154174805,0.0028451140969991684,-0.8347184658050537,0.5490958690643309,-0.021945487214905947,-0.006127371620445592,0.011634100349928152,-0.005744221154600382,-0.002333279699087143,-0.004242632072418928,0.3988836032152176,-0.7535093387961388,-9.77517456829548
3.8,1.2000000476837158,74.0,25.73965835571289,-0.11132483184337616,-79.78276018488758,40.458999139720476,270.66884208488466,0.041619155555963516,0.002885342342779041,-0.8347246646881104,0.5490849614143372,-0.01912396449147434,-0.003679955601323572,0.011893119192881671,-0.0019041522173210976,-0.002572567434981465,0.002150762127712369,0.3984398726373911,-0.7454851316660643,-9.775917164683342
3.9,1.0,74.0,25.73089408874512,-0.10337305814027786,-79.78276018027648,40.458999157886346,270.67017699050905,0.04160188511013985,0.0028848745860159397,-0.8347402811050415,0.5490626692771912,-0.02307570581584909,-0.004001528220957458,0.012121064848643698,-0.0027905181050300602,-0.000209519435884431,-0.0011389977298676968,0.3975335176661611,-0.7428032331168652,-9.775411380529405
4.1,1.0,70.0,25.72087860107422,-0.11132483184337616,-79.78276022356177,40.45899918917512,270.6832687558532,0.041645534336566925,0.002882484113797545,-0.8347401618957521,0.5490595102310181,-0.021326170821389257,-0.007051433442551589,0.012960732504677507,-0.00016803032485768204,-0.0013294584350660445,-0.00406700512394309,0.4015549036860466,-0.7584430000931025,-9.77762981414795
4.2,0.8999999761581421,68.0,25.72463417053223,-0.09542128443717957,-79.782760226949,40.4589992076209,270.6928640009761,0.0416380949318409,0.002887764014303684,-0.8347398042678833,0.5490605235099792,-0.01714812591809221,-0.00035604166669822145,0.0076677879290382184,0.003539641620591283,0.0002105284802382812,0.006089239846915007,0.40218391790986063,-0.7590451902151109,-9.77588792860508
4.4,0.8999999761581421,69.0,25.734649658203125,-0.08746951073408127,-79.78276021059641,40.458999241114725,270.694750972271,0.04166073352098465,0.002886808244511485,-0.8347518444061279,0.5490404367446899,-0.024258502695620767,-0.001028561100080443,0.008267525145764992,0.0057840109802782536,0.004505635239183903,0.008346503600478172,0.3958417719975114,-0.7401752020418644,-9.775483301281929
4.5,0.8999999761581421,64.0,25.748422622680664,-0.07951773703098297,-79.78276024421722,40.45899924794481,270.7046433539987,0.04168320819735527,0.002888097893446684,-0.8347487449645996,0.5490436553955078,-0.015544976640527338,0.0005134093631278231,0.005983364357741275,-0.006501820404082537,-0.0017016943311318755,-0.006344064604490995,0.3960488365218043,-0.7391360787302256,-9.774679309129718
4.7,0.8999999761581421,65.0,25.72713851928711,-0.09542128443717957,-79.78276024573,40.45899928554011,270.7172844337225,0.041685398668050766,0.0028885859064757824,-0.8347590565681458,0.5490276813507079,-0.016703287260221234,0.004215657430732075,0.008629372155580276,-0.008781097829341887,0.0006350821349769831,-0.006310059688985348,0.398344124481082,-0.7412498471885921,-9.775224269628524
4.8,0.8999999761581421,64.0,25.73965835571289,-0.10337305814027786,-79.7827602340912,40.45899929751515,270.71829339879747,0.04169361293315888,0.002901638159528375,-0.8347673416137695,0.5490142703056335,-0.019077776807696227,0.0037655517773271174,0.00866397966638372,0.007835157215595245,0.0028704721480607986,0.005326326470822096,0.4023962449282408,-0.7559494549781084,-9.776948613524436
5.0,1.0,60.0,25.728389739990234,-0.15108370780944824,-79.78276026176988,40.45899934494805,270.7290708573461,0.04169444367289543,0.002882327185943723,-0.834748387336731,0.5490431189537048,-0.019167702084427314,-0.0007497157785865457,0.007119385337264716,0.0084311468526721,0.006731613539159298,0.009639025665819643,0.3979611318558455,-0.7455045005679131,-9.774624930024148
5.1,1.0,53.0,25.722129821777344,-0.04771064221858978,-79.78276025393212,40.45899936110773,270.7299479508698,0.041706040501594537,0.002888624789193273,-0.8347350358963013,0.5490625500679016,-0.0233974189577066,-0.0008571393773390122,0.007466760550008506,-0.008616884239017962,-0.003073139814659953,-0.0065888515673577785,0.3966582991182804,-0.7473107054829597,-9.775431261062623
5.31,1.0,51.0,25.71461677551269,-0.015903547406196594,-79.78276027398971,40.458999412830494,270.74078320729734,0.04170558229088783,0.002881865715608001,-0.8347446322441101,0.5490481257438661,-0.02253075582593641,-0.0013019675804200536,0.005815885832512207,-0.006730267778038979,-0.0010426139924675226,-0.008764564990997314,0.4000436908006668,-0.7521776354312897,-9.777998188734054
5.4,1.100000023841858,50.0,25.73214530944824,-0.007951773703098297,-79.78276026518115,40.45899943282699,270.7415356898606,0.04170162230730057,0.002882782602682709,-0.8347492814064026,0.5490413308143616,-0.02510856282759748,-0.0018843264104916094,0.0059269802589036824,0.004857898224145174,0.0031433855183422565,0.007919437251985073,0.4028737797215581,-0.7529253481328487,-9.77785493195057
5.6,1.100000023841858,47.0,25.72964286804199,-0.06361418962478638,-79.78276031168413,40.458999482610395,270.75256945955755,0.041741665452718735,0.002867918694391847,-0.8347555994987488,0.5490288138389587,-0.021434746793250446,-0.00601344917101676,0.005002832163355057,0.006731542758643627,0.003907446749508381,0.009594960138201714,0.3969460552185774,-0.7449116659909487,-9.77530963897705
5.7,1.2999999523162842,40.0,25.735902786254893,-0.06361418962478638,-79.78276036456204,40.45899951421212,270.7631529534161,0.04177173227071762,0.0028696898370981216,-0.8347552418708801,0.5490269660949707,-0.015167031717705176,-0.008178446632526988,0.004223901006191912,-0.006147300824522972,-0.0036300839856266975,-0.0038221939466893673,0.3974569556862116,-0.7396806737780571,-9.774162415266037
5.9,1.2999999523162842,37.0,25.72087860107422,-0.007951773703098297,-79.78276036761838,40.458999548736,270.7642206998468,0.0418081134557724,0.0028415836859494448,-0.8347663283348083,0.5490075945854187,-0.021491777438357625,-0.009231359269880534,0.004607372769449594,0.0012424406595528126,-0.00027959307772107417,-0.0011496938532218335,0.4014056169614196,-0.7612480556219816,-9.777756114006042
6.0,1.399999976158142,35.0,25.71586990356445,-0.015903547406196594,-79.78276039052201,40.4589995930441,270.7763082824573,0.04180733487010002,0.002853382844477893,-0.8347668647766113,0.5490067005157471,-0.020620979119848847,-0.007377066212214348,0.0068865973638066146,-0.005765487439930439,0.001027169870212674,-0.003207020927220583,0.3978152438253165,-0.7544106139987707,-9.775651701092723
6.2,1.399999976158142,34.0,25.71461677551269,-0.015903547406196594,-79.78276041398371,40.458999650279466,270.78774203517656,0.04182948544621468,0.002864351961761713,-0.8347752690315247,0.5489922165870667,-0.01859566380826245,-0.005511009985595818,0.005261400349076436,-0.006332322955131532,-0.0040512392297387114,-0.007331603672355413,0.3999282448366285,-0.7528965505957604,-9.776910606622694
6.3,1.2999999523162842,26.0,25.71211242675781,-0.039758868515491486,-79.78276041184839,40.45899966746785,270.78838905430587,0.04183826595544815,0.00285243708640337,-0.8347712159156799,0.548997700214386,-0.02078803482483286,-0.0061030315885033295,0.0053821732679934405,0.0045116571709513656,0.003251264803111553,0.005453381221741438,0.4020641230791807,-0.7600226984918118,-9.77781926393509
6.5,1.2999999523162842,24.0,25.717121124267567,-0.03180709481239319,-79.78276043508062,40.458999701083,270.7991669123918,0.04183329641819,0.002849983517080545,-0.8347738981246948,0.5489940047264099,-0.013508257517554427,-0.002608406807341446,0.004252896209078727,-0.002632306888699532,0.00047527244896627957,0.0022054121363908052,0.39658513583242894,-0.7391452150046826,-9.775390330553057
6.6,1.2000000476837158,25.0,25.708356857299805,-0.05566241592168808,-79.78276043191697,40.458999713364,270.7997042501271,0.04184403643012047,0.0028609249275177717,-0.834774374961853,0.5489925146102905,-0.016439489855900817,-0.003217072665631772,0.00450182201290139,0.002392154652625323,0.002514018211513757,0.00687411380931735,0.4003554570302367,-0.7462324058264495,-9.77628670871258
6.8,1.2000000476837158,23.0,25.72713851928711,-0.039758868515491486,-79.78276043659228,40.45899975300382,270.81138023751976,0.04186068475246429,0.002885105786845088,-0.8347643613815308,0.5490064024925232,-0.015146897054714909,0.0012224385747415332,0.0041682824479607646,0.003052154090255499,0.006743873003870249,0.00584766361862421,0.3975824515521527,-0.7503367857635022,-9.776114800572396
6.9,1.2000000476837158,22.0,25.71962547302246,-0.03180709481239319,-79.78276042763116,40.4589997666772,270.81194835546614,0.041859354823827744,0.002881032647565007,-0.8347626328468323,0.5490090250968933,-0.019531255014808173,0.0010363954264180405,0.0046328146501703965,-0.004737142473459244,-0.007045785430818795,-0.004315439611673355,0.39629588138312105,-0.7461283253878356,-9.77545757353306
7.1,1.2999999523162842,18.0,25.72087860107422,-0.039758868515491486,-79.78276044833702,40.45899984034117,270.82290130499007,0.04186343774199487,0.0028613798785954714,-0.8347621560096741,0.5490096211433411,-0.023725360731834,-0.0019738001069959732,0.004310834962806148,-0.007117611821740866,0.00011097380775026976,-0.012939151376485823,0.401385772973299,-0.7551351571083069,-9.777911649942398
7.21,1.2000000476837158,14.0,25.72588539123535,-0.03180709481239319,-79.78276049265794,40.4589998808927,270.8331532889904,0.041886530816555016,0.002853941172361374,-0.8347722291946411,0.5489925742149353,-0.015215902718022154,-0.005980550482059471,0.003653009505211061,0.00800436083227396,0.002148386323824525,0.006604750175029039,0.4009745309874416,-0.755810656696558,-9.778618578314784
7.41,1.2000000476837158,11.0,25.73089408874512,0.0,-79.78276048981691,40.458999915806274,270.83418403583767,0.04191632941365242,0.0028306976892054077,-0.8347668051719666,0.5489985942840576,-0.02196503793898132,-0.007140124636726522,0.004247812667584353,0.0027503164019435644,0.002703910926356912,0.005388637073338032,0.3974541417136789,-0.7408634193241597,-9.775614278912547
7.52,1.100000023841858,9.0,25.717121124267567,-0.015903547406196594,-79.78276049543896,40.458999954468105,270.8447586821318,0.041937582194805145,0.002838902408257127,-0.8347712755203247,0.5489901900291443,-0.019662186126894785,-0.0011131153371568142,0.003245747970940343,-0.0016687136376276612,-0.0009583580540493133,-0.005050644278526306,0.39740254003554587,-0.7397169265151025,-9.774864665865898
7.7,1.100000023841858,10.0,25.73089408874512,-0.007951773703098297,-79.78276056143605,40.45900001946917,270.856185518384,0.041972558945417404,0.002837024629116059,-0.8347602486610413,0.5490042567253113,-0.01496448402616194,-0.009379642922831716,0.00370479653237428,-0.0001677994878264144,-0.001085764029994607,-0.00020170892821624875,0.4017870381474496,-0.7605019509047269,-9.777277227044106
7.8,1.0,8.0,25.7333984375,-0.03180709481239319,-79.7827605648029,40.45900003531003,270.85665297526117,0.04196309670805931,0.002834641840308905,-0.8347564339637756,0.5490107536315918,-0.017846133193108658,-0.010012773571410621,0.004099966043423868,-0.002822968177497387,-0.0014486155705526473,0.003769060829654336,0.398732745051384,-0.7581488120555878,-9.7769375038147
8.0,1.100000023841858,11.0,25.73214530944824,-0.02385532110929489,-79.78276059534541,40.459000104573825,270.86767884361745,0.0419660322368145,0.0028478531166911125,-0.8347569108009338,0.5490097403526306,-0.01928507182224164,-0.0085971030069683,0.00377270578669289,-0.0042263907380402106,-0.002758880378678441,-0.003810362657532096,0.3983723372966052,-0.7449142241477966,-9.774691588282586
8.11,1.100000023841858,6.0,25.728389739990234,-0.02385532110929489,-79.78276059614389,40.459000123269476,270.8681699337364,0.04198753833770752,0.002834840444847941,-0.8347591161727905,0.5490048527717589,-0.021429085057124857,-0.009474226215654429,0.003845067111557325,0.003221207298338413,0.00578178046271205,0.00591496378183365,0.4007235758006573,-0.7523902548104525,-9.776508902907374
8.3,1.100000023841858,8.0,25.71211242675781,-0.03180709481239319,-79.78276062787805,40.45900018878047,270.87925373035665,0.041990019381046295,0.0028273037169128656,-0.8347458243370056,0.5490248203277588,-0.01997540689041348,-0.007728855659808414,0.0036756158912468564,0.007042132783681155,0.003362026298418641,0.0042804903350770465,0.3972848648205399,-0.7449196328222752,-9.774731934070589
8.41,0.8999999761581421,4.0,25.7333984375,-0.04771064221858978,-79.78276062662158,40.45900020976652,270.87976679223783,0.04198970645666122,0.002809163182973861,-0.8347444534301758,0.549027144908905,-0.024342760228961,-0.008361944832384689,0.004030957056142144,-0.00638609379529953,-0.0029695983976125717,-0.006242194212973118,0.3971088270843029,-0.7414080143719912,-9.77453605234623
8.61,0.8999999761581421,1.0,25.7333984375,-0.09542128443717957,-79.78276066180356,40.45900027554375,270.89026934671404,0.04199599847197533,0.002807875396683812,-0.8347421884536743,0.5490300655364989,-0.02192915659894716,-0.0070562562196535734,0.00371413712257275,-0.005259883124381304,-0.004014207050204277,-0.007313460111618042,0.4011012693867088,-0.7588878270238638,-9.777613441944123
8.71,0.8000000119209291,1.0,25.72713851928711,-0.08746951073408127,-79.78276068205847,40.4590003247037,270.8983692752123,0.042017079889774316,0.0028247563168406487,-0.8347317576408386,0.5490441918373108,-0.016600433937575612,-0.00147467148253277,-0.0017334666658976724,0.0032062088139355183,0.004950339440256357,0.0064922519959509355,0.40155585385859016,-0.7603217104822397,-9.777117013335227
8.9,0.8999999761581421,5.0,25.72463417053223,-0.10337305814027786,-79.78276066818097,40.459000358622106,270.89837458747627,0.04202967882156372,0.0028156170155853033,-0.8347412943840027,0.5490288138389587,-0.0228092501835318,-0.0030537696288974233,-0.0010509781417521217,0.005891249049454928,0.004149860702455044,0.0030871178023517127,0.3953677820786834,-0.7393770571053029,-9.775259937644003
9.0,0.8999999761581421,2.0,25.735902786254893,-0.09542128443717957,-79.78276071823622,40.459000414827145,270.9081635998488,0.042063459753990166,0.002807872137054801,-0.8347463607788086,0.5490186214447021,-0.019928043763910927,-0.0034549707211630233,0.00016409001786024527,-0.0037908675149083133,-0.004745860118418932,-0.006817296147346497,0.3961746612936258,-0.7388544622063637,-9.774828413128851
9.2,0.8999999761581421,1.0,25.72463417053223,-0.10337305814027786,-79.78276076072865,40.45900049376488,270.91655001807214,0.042099829763174064,0.002828982891514897,-0.8347408771514893,0.5490240454673767,-0.01825612723931017,-0.00418798750958324,-0.002386027116938205,-0.0050770146772265426,-0.0018690190045163035,-0.0060122651048004645,0.3977772734686733,-0.7399638982862234,-9.774807363152505
9.3,1.0,357.0,25.73840713500977,-0.10337305814027786,-79.78276075670583,40.45900051069456,270.9164440261126,0.042105592787265785,0.002814406994730234,-0.8347388505935669,0.5490267872810364,-0.020209277695206425,-0.005147980631100309,-0.0021936056611416284,0.003299196716398001,0.0020767790265381336,0.006957430392503738,0.4018142277002335,-0.7579155081510545,-9.777255007624627
9.51,1.0,356.0,25.734649658203125,-0.11132483184337616,-79.78276083007766,40.45900056559739,270.92562875914575,0.042160455137491226,0.0028033072594553232,-0.8347431421279907,0.5490159392356873,-0.011192205400399412,-0.007664329303343679,0.00015527608538396832,0.0059891887940466395,0.00601020036265254,0.008494946174323559,0.39745428789407017,-0.7413909843564034,-9.774260648489
9.6,1.0,350.0,25.72087860107422,-0.11927660554647446,-79.78276083285641,40.45900057828875,270.9257308470011,0.04217735677957535,0.002807328477501869,-0.8347297310829163,0.5490351319313049,-0.015115484510976275,-0.008354164308726875,0.0006099778140231807,-0.004540672991424799,-0.0019597036298364397,-0.007008201442658901,0.3970979001000524,-0.7447621234506369,-9.774330230355265
9.8,1.0,351.0,25.735902786254893,-0.09542128443717957,-79.78276091278684,40.45900065418998,270.9352478461266,0.04222780466079712,0.0028090963605791326,-0.8347219228744507,0.5490431785583496,-0.014331231982867218,-0.011652783264110076,0.0020801743459441767,-0.006592420395463705,-0.006167432758957148,-0.0056007010862231255,0.3998963044211269,-0.7541610109806062,-9.777299446463584
9.9,1.100000023841858,351.0,25.7333984375,-0.09542128443717957,-79.78276091913595,40.45900067109604,270.9355277197361,0.04225123301148415,0.0028032218106091022,-0.8347185254096985,0.549046516418457,-0.016294018350460116,-0.012921201346834459,0.0023137779555209856,0.004217466339468956,0.003317202674224973,0.0010793528053909538,0.4000340063497425,-0.7504106799513102,-9.777962520718576
10.1,1.100000023841858,349.0,25.722129821777344,-0.11132483184337616,-79.78276097681963,40.45900074918782,270.94469546544553,0.04227085784077644,0.0027964627370238304,-0.8347110748291016,0.549056351184845,-0.017546521735934774,-0.0115186707046007,0.0028923182769767424,0.0018875192617997527,-0.0006314990459941328,0.004161980003118515,0.3969482113793493,-0.7525470332801343,-9.777005916237833
10.2,1.100000023841858,355.0,25.72338104248047,-0.09542128443717957,-79.78276103355128,40.45900081211911,270.9546893911362,0.0422649011015892,0.00279391766525805,-0.8347067832946777,0.5490633845329285,-0.01465732334028745,-0.008629829125122866,0.006533080901878836,0.0005361620569601655,0.0014230118831619618,0.0010695767123252153,0.4003952180966735,-0.7564719767868521,-9.777809908390044
10.4,1.100000023841858,353.0,25.735902786254893,-0.08746951073408127,-79.78276104003533,40.459000846395,270.9562226163149,0.04227831959724426,0.002785143442451954,-0.8347106575965881,0.549056351184845,-0.019709942292733658,-0.011155695508551977,0.007149704824540653,0.0022999634966254234,0.0040401541627943524,0.0056544383987784394,0.39738810472190383,-0.7407591927051544,-9.775462836027144
10.5,1.0,354.0,25.72588539123535,-0.10337305814027786,-79.7827611201823,40.4590009084782,270.9643385933638,0.04228635504841805,0.002783898031339049,-0.8347113728523254,0.5490548014640808,-0.01543265843299669,-0.01266689696019967,0.005901566139393898,-0.0024338318035006523,-0.0036690915003418922,-0.005021510645747185,0.39668424613773823,-0.7414036289602518,-9.775496165156364
10.7,1.100000023841858,353.0,25.73715400695801,-0.09542128443717957,-79.78276116644193,40.45900096702086,270.97293552029134,0.042316600680351264,0.002802943112328649,-0.8347042202949524,0.5490631461143494,-0.011016579015537372,-0.0034973281167082013,0.0044453957264363,-0.0055807982571423045,-0.0031704148277640343,-0.005093867424875498,0.4007732040435076,-0.7540469171851873,-9.777576604485512
10.8,0.8999999761581421,348.0,25.73214530944824,-0.10337305814027786,-79.78276116577138,40.459000977242006,270.9734593706131,0.04232044890522957,0.002797340508550405,-0.8347122669219971,0.5490507483482361,-0.013042686739702412,-0.004794533810546765,0.004687090461843489,0.0009843355510383844,0.004073956049978733,0.0013853334821760654,0.3985975647345186,-0.7456116507947446,-9.776082056164745
11.0,0.8000000119209291,347.0,25.735902786254893,-0.09542128443717957,-79.7827612336602,40.45900105633218,270.981666125536,0.04233285412192345,0.0027772458270192146,-0.8347134590148926,0.5490480661392212,-0.014442898527651682,-0.0059782314339509365,0.004215953419856268,-0.0018259043572470548,0.00022923332289792597,-0.0033286281395703554,0.3987233164161444,-0.7571088847517967,-9.776580823659897
11.1,0.8000000119209291,354.0,25.735902786254893,-0.11132483184337616,-79.78276123387505,40.45900107020979,270.9821901099682,0.04233430698513985,0.0027857425156980753,-0.8346939086914062,0.5490776300430298,-0.016264433543068342,-0.007165779106531294,0.0044918126750990856,0.003976977895945311,0.0018954594852402808,0.005962639581412077,0.40131038043648,-0.7572292643040419,-9.77745498239994
11.3,0.8000000119209291,355.0,25.73840713500977,-0.09542128443717957,-79.78276130552484,40.4590011557589,270.9899141566753,0.042348455637693405,0.002777658868581057,-0.8346900343894958,0.5490824580192566,-0.015501746127018066,-0.007508472246463313,0.003913454441314243,0.005413205828517675,0.0025846993084996947,0.004483072552829981,0.39797523826360703,-0.7425335302948952,-9.775935875773431
11.4,0.699999988079071,355.0,25.73715400695801,-0.08746951073408127,-79.78276130646034,40.45900117269985,270.99042544531824,0.04234927147626877,0.0027782681863754988,-0.8346906304359436,0.5490815043449402,-0.01904853217346867,-0.008464813682296108,0.0044377751494640025,-0.00902499072253704,0.00026965001598000526,-0.0021055187098681927,0.397531617321074,-0.7503318887203932,-9.775586212277412
11.6,0.699999988079071,355.0,25.72964286804199,-0.11132483184337616,-79.78276140716112,40.45900125873366,270.99561778473856,0.04237348213791847,0.002793524879962206,-0.8346883654594421,0.5490829348564148,-0.01640578510193873,-0.012752750432273094,0.0005096179878254201,-0.001853093272075057,-0.002500190632417798,-0.00036413065390661364,0.39998156413435937,-0.7483852775394917,-9.775086860060693
11.71,0.6000000238418579,354.0,25.735902786254893,-0.08746951073408127,-79.7827615079227,40.459001337772825,271.00236522424217,0.042386796325445175,0.002796717919409275,-0.8346871733665466,0.5490837097167969,-0.012392096457693295,-0.014227646054104568,0.0014004334432280315,-0.0012345358263701198,-0.0019993369933217764,-0.002047897549346089,0.3963178449869157,-0.7411717137694359,-9.774869928359983
11.91,0.699999988079071,353.0,25.73089408874512,-0.09542128443717957,-79.78276152744475,40.45900137219365,271.00280765461923,0.042391765862703316,0.002808981109410525,-0.8346865177154541,0.5490843057632446,-0.017720413371592334,-0.016484909801050683,0.002120528671669557,-0.0006359992548823358,-0.0016519632190465927,-0.006841251160949469,0.4003005297482014,-0.7574842759966851,-9.777107657790184
12.0,0.699999988079071,357.0,25.734649658203125,-0.08746951073408127,-79.78276158550527,40.45900143689789,271.0088625775576,0.042393509298563004,0.002827914897352457,-0.8346856832504272,0.5490853190422058,-0.013025629278715685,-0.00955782909305447,0.0020327226214544385,0.005908400285989046,0.003046905621886253,0.006152799353003503,0.4012854566797615,-0.7552574370056391,-9.777001823186877
12.2,0.699999988079071,359.0,25.73715400695801,-0.10337305814027786,-79.78276170615217,40.459001529362176,271.0146988706589,0.04242364317178726,0.002839123830199241,-0.8346832990646362,0.5490866303443909,-0.009979911076834224,-0.015912711740903578,0.00270026175255866,0.003461563726887107,0.0027933705132454642,0.004319857340306044,0.40114837601780895,-0.7527392604947091,-9.777718691825866
12.3,0.8000000119209291,12.0,25.7333984375,-0.09542128443717957,-79.78276171857406,40.45900154364076,271.01501595246793,0.04243132472038269,0.002851763274520636,-0.834682822227478,0.5490866303443909,-0.013301832975715022,-0.016659589488443656,0.003271730638513327,-0.004904821515083313,-0.005377233028411865,-0.004910737741738558,0.39890198539942506,-0.7496807281672955,-9.776061590909956
12.5,0.8000000119209291,19.0,25.73214530944824,-0.10337305814027786,-79.78276181069721,40.45900161566168,271.0184685366154,0.04244314134120941,0.002874659141525626,-0.8346785306930542,0.5490921139717102,-0.0072949359124187705,-0.010117712979080377,-0.001743462712631756,-0.0035367694217711687,-0.002076287055388093,-0.000820805667899549,0.4004561387747526,-0.7506178175657988,-9.77664572775364
12.6,0.8999999761581421,27.0,25.734649658203125,-0.11927660554647446,-79.78276181825643,40.459001625667604,271.01831672358514,0.042459461838006966,0.002889336086809635,-0.8346771001815796,0.5490928888320923,-0.00915486747747353,-0.011493199858761778,-0.001597794281350846,0.002381474478170276,-0.002139309886842966,0.0008426760323345661,0.3992599080875516,-0.7463467919826507,-9.775369865298273
12.8,0.8999999761581421,31.0,25.73715400695801,-0.11132483184337616,-79.78276191786762,40.45900171973629,271.02346322703363,0.04248599708080292,0.0028956348542124037,-0.8346807360649109,0.5490853786468506,-0.010195788936068276,-0.009543401406599143,0.00019954670164674785,0.0029319019522517924,0.0014008433790877461,-0.0022490513511002072,0.3981571597605944,-0.7549843720346691,-9.775965696573257
12.9,0.8999999761581421,34.0,25.73089408874512,-0.11927660554647446,-79.78276192342408,40.45900173288658,271.02355306613447,0.04248020797967912,0.002889149356633425,-0.8346719741821289,0.5490990281105042,-0.012836721425081144,-0.010640316422322212,0.0006818968716491852,-0.0014458803925663233,-0.0007245171000249684,0.00017941981786862016,0.3979381084442139,-0.7565464556962253,-9.776278522610664
13.1,0.8999999761581421,37.0,25.718374252319336,-0.11132483184337616,-79.78276202370287,40.45900185325479,271.02648260462286,0.04249754920601845,0.002897035796195269,-0.8346595764160156,0.5491166710853577,-0.017169210978341853,-0.012558171389894393,-0.0010329514220156649,0.0011864659609273074,-0.0019448233069852,0.0022908903192728762,0.398039374910295,-0.7433489245176316,-9.774875190854074
13.2,0.8999999761581421,46.0,25.728389739990234,-0.10337305814027786,-79.78276212328896,40.45900193756504,271.0286895709038,0.04251192882657051,0.0029038500506430864,-0.8346543312072754,0.5491234660148621,-0.012560479113834714,-0.009585463771986144,-0.00422744822164631,-0.000575937214307487,0.00012585731747094542,-0.0018246263498440387,0.3983312971517444,-0.7424090576916933,-9.775920673012736
13.4,1.0,48.0,25.735902786254893,-0.10337305814027786,-79.78276213207988,40.459001968837704,271.02804935741426,0.04253009334206581,0.002885151421651244,-0.8346421122550964,0.5491406321525574,-0.0171937140451077,-0.01191722533833839,-0.003462582071745358,-0.004298957530409098,0.000325875065755099,-0.0025554406456649303,0.4016263858973979,-0.7588758402317762,-9.777701734900477
13.51,0.8999999761581421,52.0,25.73089408874512,-0.11132483184337616,-79.78276223330015,40.45900205559079,271.0316991435289,0.04253077134490013,0.002888033166527748,-0.8346400856971741,0.5491436719894409,-0.012301239405123095,-0.009044177649709604,-0.001131899617804735,0.002082556253299117,0.0009852048242464662,0.005033100489526987,0.402038797326386,-0.7596579053252935,-9.777469015717507
13.7,0.8999999761581421,50.0,25.71211242675781,-0.11132483184337616,-79.78276232311205,40.45900215048557,271.03309295344354,0.04253996163606644,0.0029172939248383045,-0.8346379995346069,0.5491460561752319,-0.009103172480913227,-0.003605013219519757,-0.004131239848170057,0.0007506012334488332,0.0018415262456983328,0.005192579235881567,0.4015448172390461,-0.7593359430134297,-9.775654039978981
13.8,1.0,48.0,25.73089408874512,-0.11927660554647446,-79.78276232247835,40.459002160036825,271.03276325035097,0.04254747927188873,0.0029292230028659105,-0.8346371650695801,0.5491465926170349,-0.0117540167712415,-0.004807112305071306,-0.003729189450254318,-0.0006469982909038662,0.00269607687368989,-0.005291115958243609,0.3965340457856655,-0.7400186428427696,-9.774930739402773
14.0,1.0,50.0,25.735902786254893,-0.10337305814027786,-79.7827624421664,40.45900228319838,271.0350724833012,0.04255928099155426,0.0029046437703073025,-0.834641695022583,0.5491390228271484,-0.014780652678377219,-0.010331410995244069,-0.0021069835362300393,-0.0006441200384870173,-0.0005128888296894728,-0.002384376712143421,0.3967177579924465,-0.7405674771219493,-9.774234336018562
14.1,1.0,52.0,25.7333984375,-0.11927660554647446,-79.78276244641543,40.4590022993213,271.0349505918026,0.04254717379808426,0.002903535030782223,-0.8346375226974487,0.549146294593811,-0.01662525638042673,-0.0114678492686439,-0.0018086957393399355,0.003465456888079643,0.0004373422416392714,0.0036551319062709813,0.40014967158436776,-0.7584866349399091,-9.776153392195702
14.31,1.100000023841858,55.0,25.72338104248047,-0.13518016040325165,-79.78276257972473,40.4590023858806,271.03536758589746,0.0425524041056633,0.0029216562397778034,-0.834635853767395,0.5491482615470886,-0.009177098757490048,-0.012687459435940306,-0.003620443515504597,0.0024206482339650393,0.0010217542294412851,0.003683470655232668,0.3976915021240711,-0.7422082789242268,-9.774752984046936
14.4,1.100000023841858,55.0,25.73089408874512,-0.11132483184337616,-79.78276258906114,40.45900239936047,271.0350465254784,0.04256511479616165,0.002910597482696176,-0.8346501588821411,0.549125611782074,-0.0115928515163851,-0.014019332632773749,-0.003294062719251829,-0.001151615404523909,-0.0006904041511006652,0.00016614380001556128,0.3976172424852849,-0.7420418525487185,-9.775091537833212
14.6,1.2000000476837158,61.0,25.718374252319336,-0.12722837924957275,-79.78276269437143,40.45900247545601,271.03747553396227,0.04260274022817612,0.0029392957221716642,-0.8346417546272278,0.5491353273391724,-0.007342832073040807,-0.009678505543738206,-0.0006957073335882528,-0.003154901321977377,0.0017420677468180654,-0.00017609985661692915,0.3997320342063904,-0.7588534015417099,-9.776272090673448
14.7,1.2999999523162842,68.0,25.72964286804199,-0.11132483184337616,-79.78276279877839,40.45900258332824,271.03933934140207,0.042587269097566605,0.002917174948379397,-0.8346347212791443,0.5491473078727722,-0.010816222382343772,-0.009685086846063066,-0.0001967175196234364,-0.0014227923238649964,-0.001570675172843039,0.0023404713720083237,0.40028649643063546,-0.7585736122727395,-9.775777416229248
14.9,1.399999976158142,72.0,25.596923828125,1.3279461860656738,-79.78276281039268,40.45900261193801,271.0394636170864,0.042607612907886505,0.0029078626539558172,-0.8346835970878601,0.5490715503692627,-0.014197252916741074,-0.01417147094773436,0.0007349938084487812,0.00480254739522934,0.00505717983469367,0.013867312110960484,0.3949114434421063,-0.7368150995671751,-9.774568796753883
15.0,1.5,83.0,25.698341369628906,0.20674611628055573,-79.78276293493235,40.459002708592855,271.0410747306347,0.04261980578303337,0.0029233053792268038,-0.8345550298690796,0.5492658615112305,-0.013839672795509541,-0.011604980723150995,0.0007777899469579134,-0.00017656690033618358,-0.0009825221495702863,-0.04897574335336685,0.4168256748095155,-0.7720646005868912,-9.771868552565575
15.2,1.7000000476837158,83.0,25.692081451416016,0.198794350028038,-79.78276305043215,40.45900280893906,271.0425591545105,0.04265540838241577,0.00292237289249897,-0.8345597386360168,0.5492559671401978,-0.009225370530440638,-0.01424884877952461,0.002018737352537456,-0.006607840768992901,-0.005064718425273895,-0.041707586497068405,0.3996040167286992,-0.7412989638000727,-9.778946607112887
15.31,1.7999999523162842,84.0,25.68957710266113,0.1908425688743592,-79.78276306394693,40.45900282061968,271.0427653567791,0.042649704962968826,0.002912907628342509,-0.8347306251525879,0.5489966869354248,-0.007910447636650064,-0.01633267226913923,0.0022429404577017057,0.0099497577175498,0.007620153483003378,0.031670503318309784,0.4095785260945559,-0.7464771118015051,-9.77756081700325
15.5,2.0999999046325684,85.0,25.70084571838379,0.2385532110929489,-79.78276316610449,40.45900292637597,271.04399663972856,0.04262857139110565,0.0029107222799211736,-0.8347310423851013,0.548997700214386,-0.011180572415499529,-0.012478559302719313,0.0019288346475040575,0.007021833676844835,0.0045181685127317905,0.015866519883275032,0.4021177347376943,-0.7536504759639502,-9.775088029503825
15.6,2.200000047683716,82.0,25.68456840515137,0.2544567584991455,-79.78276317210891,40.459002941369,271.04426843690874,0.042632170021533966,0.0029146329034119844,-0.8345798254013062,0.5492272973060608,-0.015521441950208104,-0.01195775350052068,0.002431973041338692,-0.006333212833851576,-0.0018357634544372559,-0.010297654196619987,0.39332597091794014,-0.7406791589409113,-9.778528531193734
15.8,2.5,81.0,25.692081451416016,0.3419262766838074,-79.78276328268332,40.459003050911114,271.04339972901346,0.04265185073018074,0.002905188128352165,-0.8345869183540344,0.5492148995399475,-0.01443046971304618,-0.012623036989338893,-0.0010313398133917637,-0.005810533184558153,0.003354850923642516,-0.0070502194575965405,0.4085431669279933,-0.7579324650764466,-9.771417147517203
15.91,2.5999999046325684,74.0,25.682064056396484,7.872256278991699,-79.78276328988063,40.459003068208496,271.04335568118097,0.04264258965849877,0.0028869148809462786,-0.8346962332725525,0.5490496754646301,-0.015391982360640372,-0.013607259425858312,-0.0008889213747589234,0.005970867350697517,0.008278829045593739,-0.0022543466184288268,0.4149641771614552,-0.7603477305918932,-9.780837596654893
16.1,2.700000047683716,74.0,25.59817695617676,0.4691546559333801,-79.7827633531761,40.45900314878712,271.04012096691133,0.04392307996749878,0.003617673879489303,-0.834572970867157,0.5491318106651306,-0.016475197705656242,-0.005453803893183603,-0.008287725745641072,0.016512218862771988,0.04171266779303552,0.0037281871773302564,0.3680366170406342,-0.6653638784587383,-9.854207289218904
16.2,2.5,62.0,25.68832397460937,0.15108370780944824,-79.78276349076779,40.45900326663413,271.03663221764566,0.04373975470662117,0.003391592064872384,-0.8345462679862976,0.5491885542869568,-0.019448452571607468,-0.019160396262886688,-0.013188607987606982,-0.022430207580327988,-0.004669458139687777,-0.0009371383930556476,0.3645574506372213,-0.6889571743458511,-9.746621444821358
16.4,2.5999999046325684,61.0,25.24885368347168,2.512760639190674,-79.78276351185762,40.45900330299429,271.03466258215906,0.04385998845100403,0.003401604946702719,-0.8345785737037659,0.5491296648979187,-0.002293140213817801,-0.015436728652714813,-0.004461942535252339,0.021495874971151352,-0.05346370488405229,0.04678570106625557,0.37772687863558535,-0.8654007073491812,-9.754171369671823
16.5,2.5999999046325684,59.0,25.61445426940918,0.4771064221858978,-79.78276362778081,40.459003403081226,271.03338379430767,0.044275138527154916,0.0037156753242015843,-0.8345071077346802,0.5492029786109924,-0.02141608167848082,-0.016807636335987697,-0.01243699486634512,-0.027865907177329063,-0.061603792011737823,-0.020459257066249847,0.4041174459457398,-0.7869431331753731,-9.716726385354995
16.7,2.5999999046325684,55.0,25.695837020874023,0.13518016040325165,-79.78276371286742,40.45900349990625,271.028661303401,0.043556977063417435,0.003286965424194932,-0.8345890045166016,0.5491387248039246,-0.017479537006317915,-0.014528789788524853,-0.013708741753289828,-0.02212462574243545,-0.027008993551135063,-0.012538470327854156,0.3940837335214019,-0.7942345380038024,-9.779961683750154
16.81,2.4000000953674316,64.0,25.54559135437012,1.5426441431045532,-79.782763720752,40.45900351555572,271.0276684241295,0.04331057891249657,0.0031860012095421553,-0.8346154093742371,0.5491185784339905,-0.011017050156439764,-0.015708234726375562,-0.009604181443451376,0.011251405812799929,-0.0007682413561269643,0.028366316109895706,0.3801864368095994,-0.8377470318228006,-9.779852340817452
17.0,2.4000000953674316,64.0,25.240089416503906,4.961906909942627,-79.78276384159392,40.45900363865072,271.0278662519455,0.04322971031069756,0.0032113778870552787,-0.834640622138977,0.5490865707397461,-0.011014725924132508,-0.015999050674570525,-0.00338476615870212,-6.658233905909583e-05,-0.011953890323638916,0.0039422214031219465,0.4155891714245081,-0.7697632826864721,-9.770243026614187
17.1,2.299999952316284,68.0,25.11613655090332,6.1149139404296875,-79.78276385525699,40.45900365787026,271.02755878138544,0.04336272552609444,0.003316947026178241,-0.8346359133720398,0.5490825772285461,-0.013411223735809377,-0.01833644343168204,-0.001810903085331425,0.013441801071166992,-0.017036888748407364,0.008796574547886848,0.3820583132654429,-0.7781860506534577,-9.777256761789324
17.3,2.299999952316284,65.0,24.85946655273437,8.468639373779299,-79.78276393839458,40.45900375088581,271.0261756556034,0.04431301355361938,0.004074882250279188,-0.8345820307731628,0.5490835309028625,-0.012470479533372866,-0.014125043319367637,-0.00026651290476637955,-0.03832468017935753,-0.038268886506557465,0.014469385147094728,0.3915989957749844,-0.6831586367636919,-9.777164960503578
17.4,2.200000047683716,72.0,24.730504989624023,10.05899429321289,-79.78276395131206,40.45900376638393,271.02595969307424,0.044742606580257416,0.004535662941634655,-0.8345469236373901,0.5490982532501221,-0.01099091548507214,-0.020327258040355442,-0.001831712008637687,0.048626061528921134,0.099977508187294,0.01815706491470337,0.4170528756827116,-0.8200353039801122,-9.783778746128084
17.6,2.299999952316284,71.0,24.4362735748291,12.865970611572266,-79.78276406343916,40.45900383830502,271.025717564106,0.04527273029088974,0.005910510662943125,-0.8341361880302429,0.549665629863739,-0.014959853029532556,-0.01877448934093227,-0.0042546193569433215,-0.1898978054523468,-0.15302680432796478,0.07646836340427399,0.4712411792948842,-0.7870461172610522,-9.775068148970604
17.71,2.5,73.0,24.29604339599609,14.321145057678224,-79.78276410334969,40.45900393639143,271.0257844852209,0.04542308673262596,0.006741954013705254,-0.8337357640266418,0.5502508282661438,-0.003939213579465515,-0.017373127246231718,0.0014651665166317011,-0.0693536326289177,-0.04267845675349236,0.04749350994825363,0.3103859212249517,-0.7020593959093094,-9.788690991997722
17.9,2.5999999046325684,74.0,23.954235076904297,18.16185188293457,-79.78276413043515,40.45900395186325,271.0282579140664,0.043267574161291115,0.006888018921017647,-0.8314043879508972,0.553938090801239,0.0023218067529594084,-0.0261868872002307,0.037490406538756064,-0.04360130801796913,0.008693225681781769,0.031467515975236886,0.4478698217868805,-0.8458020830154419,-9.889239127635957
18.0,2.799999952316284,70.0,23.782703399658203,19.76015853881836,-79.78276420247145,40.4590040346904,271.03587076830865,0.04014832526445389,0.004792491439729929,-0.8300405144691467,0.5562354922294617,0.025331875301414297,-0.03481734556806579,0.06517080296572585,-0.1491853892803192,0.007119953166693448,-0.051031533628702164,0.19679915249347688,-0.4409530042111874,-10.122580454349519
18.2,2.9000000953674316,68.0,23.447153091430664,23.489540100097656,-79.78276456746731,40.459003737372655,271.0612170176506,0.026098273694515232,-0.0035779506433755155,-0.8308552503585815,0.5558648705482483,0.16902960573225964,-0.1008448121350369,0.1904946986601104,-0.0478944331407547,0.04429806768894196,-0.02077876590192318,-0.10651014857925477,0.2461677606962621,-10.732681274414062
18.3,3.0,69.0,23.825273513793945,17.978960037231445,-79.78276478352385,40.459003601444614,271.0844899492264,0.022806955501437187,-0.0034640512894839053,-0.8313751816749573,0.5552325248718262,0.2122743470479752,-0.11189160862925604,0.3013360546517373,-0.12654221057891846,-0.07468369603157042,-0.10259756445884703,0.27220490036532285,0.1070862546376884,-10.912462105751038
18.5,3.0999999046325684,65.0,23.93294906616211,17.477998733520508,-79.78276543552998,40.459003193744714,271.15225312876703,-0.0049091316759586326,-0.0014460437232628465,-0.8319063782691956,0.5548924207687378,0.2806759774642798,-0.1111368362387186,0.27272834800922857,-0.105553038418293,-0.21162885427474976,-0.06074130907654762,0.10207446905784308,0.20204838071018452,-9.552566975355148
18.6,3.0999999046325684,57.0,23.825273513793945,18.225465774536133,-79.78276569671584,40.45900300386496,271.1758153514862,-0.0127773592248559,-0.0013491963036358356,-0.8318944573402405,0.5547851324081421,0.2878330413733987,-0.12251249590911313,0.19575228437193595,-0.05361871048808098,-0.007677758578211069,0.0005989604978822173,-0.06555283775087446,0.2620299411378801,-9.243027657866481
18.8,3.2000000476837163,55.0,23.617431640625,20.444011688232425,-79.78276611145054,40.45900250848338,271.1892242805958,-0.01943376287817955,-0.005813692230731249,-0.8295939564704895,0.5579987168312073,0.28459234987658216,-0.07452729718510966,0.04628421933921439,-0.09092183411121367,-0.00194173795171082,0.04752780869603157,-0.06823217357508839,0.08020077534019948,-9.310376472473145
18.9,3.0999999046325684,58.0,23.801483154296875,18.64690971374512,-79.7827662991567,40.45900230437444,271.1931158976555,-0.02196360006928444,-0.007571353577077389,-0.8288534879684448,0.5589830875396729,0.26643400211929835,-0.06014090973562791,0.011390113149559618,-0.011226723901927471,-0.01131508219987154,0.0046318736858665934,-0.08367211195640266,0.28683192959055304,-9.400056973099707
19.1,3.0999999046325684,57.0,23.48221015930176,22.360387802124023,-79.78276687444219,40.45900179674272,271.2234807686806,-0.01756954751908779,-0.011927575804293156,-0.8282517790794373,0.5599536895751953,0.2599033582342984,-0.048071959386589064,0.039233099188422174,-0.10953828692436217,0.06486891210079193,-0.08655494451522827,-0.01319512833841145,0.3368691303581,-9.570932494997981
19.2,3.0999999046325684,55.0,23.42586898803711,22.121835708618164,-79.78276714732701,40.45900161652857,271.21933741140367,-0.017746297642588615,-0.015084960497915743,-0.828511118888855,0.5594881176948547,0.2703517902671697,-0.025906603706184368,0.10264493251354467,0.04418419674038887,-0.034858450293540955,0.08939960598945618,-0.08993198571726681,0.09392225358635188,-10.059169739484787
19.4,3.0,58.0,23.619935989379893,21.175573348999023,-79.78276740860494,40.45900124549265,271.25155327486993,-0.019183946773409843,-0.01337717566639185,-0.830920934677124,0.5558987855911255,0.20859886032542416,-0.019441577734026102,0.1953832520774348,-0.01772245205938816,-0.027535634115338332,0.04989279806613922,0.11699510159902275,0.2220167866162956,-10.275881584882736
19.5,3.0999999046325684,60.0,23.646228790283203,19.402328491210934,-79.78276743527405,40.45900104068429,271.27437508869167,-0.018802154809236526,-0.01547031197696924,-0.8330074548721313,0.5527257323265076,0.18969136730517336,0.003931753613996475,0.22965678507418835,0.055345568805933,-0.029431683942675587,0.1012871041893959,0.038462271932512525,0.2815474718995393,-10.28587096810341
19.7,3.0,61.0,23.58487892150879,20.56328773498535,-79.78276783174,40.45900073852008,271.3187631444931,-0.017865043133497238,-0.010250208899378777,-0.836200475692749,0.5480369925498962,0.18742496111214932,-0.0026193821289734465,0.26438175546087617,0.06739824265241623,-0.11452573537826538,-0.014296323060989382,-0.03159811584278941,0.2836034442856908,-10.159661157131195
19.81,3.0,57.0,23.52853775024414,20.8256950378418,-79.78276791981949,40.45900060099621,271.34678972530367,-0.017525959759950638,-0.005069976206868887,-0.8373695611953735,0.5463325977325441,0.19334706925947054,-0.013045843995878216,0.2821705364127985,0.17429164052009585,0.005237423349171878,0.015766419470310208,-0.03583258719183505,0.4260231988504529,-10.037730338573457
20.0,3.0,53.0,23.51601600646973,21.104007720947266,-79.78276796125634,40.459000597629064,271.390134282589,-0.015399797819554806,-0.003937392495572567,-0.8391723036766052,0.5436334609985352,0.13460360035978575,0.008574996193430773,0.3418018283881538,0.0037766695022583008,-0.06434575468301773,0.12267116457223892,0.10755845384672284,0.3705411987751723,-10.183536508083343
20.1,3.0,50.0,23.72135353088379,19.6885929107666,-79.78276800579224,40.459000488569494,271.4265394883156,-0.015997206792235374,-0.00476451450958848,-0.8387473225593567,0.5442650318145752,0.1368126373197081,0.031780566572814264,0.3713373968790996,-0.0768207460641861,-0.1129087060689926,-0.04438912495970726,0.17456423789262773,0.21457631433382632,-10.064664952754974
20.31,3.0,47.0,23.59113883972168,19.96690368652344,-79.78276793097385,40.45900016159744,271.4980351405144,-0.021854782477021217,-0.011414164677262306,-0.834644615650177,0.5502368807792664,0.1802834457213509,0.06088345273336492,0.373403173081028,-0.007107490673661231,0.04624315351247788,-0.09205102920532228,0.14824286872521045,0.5994948479533195,-9.953882435560226
20.41,2.9000000953674316,41.0,23.52853775024414,19.87943458557129,-79.78276792246385,40.45900001384249,271.5359147863388,-0.02412061579525471,-0.015063164755702019,-0.8321865797042847,0.5537660121917725,0.1654215177299472,0.07152079068290235,0.37272176689331865,-0.03574434295296669,0.09269820153713226,-0.10342254489660263,0.09963317429646852,0.627326936647296,-9.860029946565627
20.5,2.9000000953674316,38.0,23.490976333618164,20.75412940979004,-79.78276815061884,40.45899994588276,271.58919138479234,-0.02637511305510997,-0.017246417701244354,-0.829792320728302,0.5571819543838501,0.12571317941007992,0.05578168654038666,0.3918232505020485,-0.10059988498687744,0.04930704087018967,-0.0914413407444954,0.27890096727758645,0.42956299357116223,-9.95486476778984
20.7,2.799999952316284,36.0,23.598651885986328,19.951000213623047,-79.78276805414251,40.458999869410405,271.6733294205666,-0.03127753734588623,-0.01884747110307217,-0.8251636624336243,0.5637121796607971,0.04702302719687091,0.07648773152079807,0.4095271950409965,-0.02640434727072716,-0.07485601305961609,-0.06551288813352585,0.07153380389325321,0.3732751009985805,-9.84772740483284
20.9,2.799999952316284,35.0,23.40583610534668,22.92496490478516,-79.78276789024885,40.45899982310231,271.74237073230745,-0.02560008317232132,-0.02136763371527195,-0.8246555328369141,0.5646515488624573,0.008587408441640413,0.06504329597057654,0.21696801259609924,0.2832919955253601,0.17620021104812622,-0.013750825077295305,-0.06591290746349841,0.5688659629225731,-8.649043518304826
21.01,2.799999952316284,33.0,23.230548858642567,25.596759796142567,-79.78276791282387,40.458999616549185,271.80122078228,-0.011164482682943344,-0.018511798232793808,-0.8254328370094299,0.5640863180160522,0.02787905380431016,0.0650111844715481,0.21981233922923132,0.3149496912956238,0.10102216899394988,0.10244892537593844,0.0736269335076213,0.2400730981864035,-9.352956481575967
21.1,2.700000047683716,32.0,23.072790145874023,25.175315856933594,-79.78276784440169,40.458999601075774,271.8259561138153,-0.0023789433762431145,-0.015789443626999855,-0.8267945647239685,0.5622773766517639,-0.009373409816015931,0.06250286169045431,0.28560326219520005,-0.008474723435938358,0.009675142355263231,0.007603569887578487,0.17095221178606154,0.4176036833971739,-10.235543982982637
21.31,2.700000047683716,31.0,23.10659599304199,26.38398551940918,-79.78276780076037,40.45899946543676,271.9357236700058,-0.007696968968957663,-0.012870395556092262,-0.8310374021530151,0.556014358997345,0.00889358059705397,0.04804658356191955,0.560716260357258,-0.08644820749759674,-0.15688419342041016,0.16247734427452087,0.11900589510798455,0.31852151781320576,-11.001067303419113
21.4,2.700000047683716,30.0,22.781063079833984,28.79337310791016,-79.78276776281186,40.45899945372473,271.9988764600754,-0.012669969350099564,-0.010111556388437748,-0.8328294157981873,0.553292453289032,0.022727437412551142,0.04212372430785658,0.7055419205146946,-0.050606202334165566,-0.08782443404197693,-0.012017065659165379,0.005324545379262418,0.4505163081362844,-11.194688494205478
21.6,2.700000047683716,33.0,22.81862449645996,28.13337707519531,-79.78276796488312,40.458999547894884,272.15674925613405,-0.016537941992282867,-0.0075250049121677876,-0.8354793190956116,0.5492215752601624,0.02166742575147171,0.03096118018575995,1.050173128808057,-0.04773517325520515,0.008769928477704525,0.07620996236801147,0.09228291358798743,0.32080657314509153,-11.791609690189366
21.8,2.700000047683716,35.0,22.56696128845215,31.20276069641113,-79.78276782523909,40.45899955710343,272.4070808963776,-0.016581911593675613,-0.01117091067135334,-0.8361954689025879,0.5480670928955078,0.021091457894465118,0.05472234134046107,1.425803680238814,-0.023148709908127785,0.001817425829358399,-0.02943783812224865,0.1070367725752294,0.4601586225628853,-11.761033430099488
21.9,2.799999952316284,40.0,22.54442596435547,30.336017608642567,-79.7827677394076,40.45899956974163,272.5603643732071,-0.017226435244083405,-0.01179389376193285,-0.8357290029525757,0.5487450957298279,0.01535161346995033,0.06322550450753757,1.6470282820213793,-0.032757844775915146,-0.04361499100923538,-0.01310615800321102,-0.03280728349462152,0.34193932414054873,-11.996780301332473
22.01,2.799999952316284,40.0,22.53065299987793,31.051677703857425,-79.78276759121283,40.45899957460878,272.7335380392075,-0.018023857846856117,-0.01251649484038353,-0.8350265026092529,0.5497720837593079,0.02693428514834183,0.06569692321408875,1.860974422902579,0.12868142127990725,0.07432974874973297,0.14490465819835666,0.022514146557077768,0.2533527644723654,-12.076146898269654
22.2,3.0,39.0,22.285249710083008,34.168773651123054,-79.78276728187349,40.45899963221318,273.1432938652039,-0.015396702103316784,-0.01457663346081972,-0.834252655506134,0.5509747266769409,0.008246678009848192,0.07978968027993552,2.2554989166876984,0.03125831112265587,0.004495901521295309,0.05689434707164765,0.08482009397819637,0.30276575669646266,-11.856614356040955
22.4,3.0,39.0,22.66963005065918,28.92060089111328,-79.78276704285787,40.458999742107956,273.63843870925905,-0.011671325191855429,-0.01102795358747244,-0.834735631942749,0.5504167079925537,-0.010083679822635815,0.09507620571929973,2.6919461147076267,-0.0497768297791481,-0.12275196611881255,-0.08146161586046219,0.05040308115072548,0.4441381287574768,-11.940275148153304
22.51,3.0999999046325684,36.0,22.90501594543457,25.66037368774414,-79.7827668472053,40.45899980899308,273.9048297481537,-0.012510286644101143,-0.008846196345984936,-0.8350531458854675,0.5499558448791504,-0.016247572452326112,0.092224080009374,2.83773700573186,-0.022279474884271615,0.001442775595933199,-0.04624110460281372,0.12393385536968707,0.3785627015680075,-11.540095217227936
22.7,3.2000000476837163,34.0,22.78607177734375,28.07771301269531,-79.78276656520262,40.45899991501293,274.480149515152,-0.010436013340950012,-0.009586658328771593,-0.8353273868560791,0.5495702624320984,-0.014845621502633972,0.10104815975240504,2.994000662559284,0.1104554757475853,0.01870482787489891,0.013566313311457634,0.09950154799036684,0.3402718444168568,-10.952682763338089
22.81,3.2000000476837163,29.0,22.908771514892567,25.77169990539551,-79.78276641272403,40.45899997113772,274.78351975250246,-0.009365936741232872,-0.009207233786582949,-0.8354899287223816,0.5493488907814026,-0.02166721587640252,0.1199992128908691,3.0720703808816614,0.007528271991759539,-0.05078604072332382,0.02637278288602829,0.25014037728309635,0.23269243195652964,-10.591783257722856
22.9,3.299999952316284,28.0,23.001422882080078,24.69025802612305,-79.78276624647275,40.459000021052105,275.0935154037476,-0.007870797999203205,-0.007693606894463302,-0.8355987668037415,0.5492300987243652,-0.03219399617868966,0.13167874734487786,3.1227186888778493,0.01610044576227665,0.003485390217974782,-0.02885855361819268,0.1703915368951857,0.2747101399116218,-10.417801694869997
23.1,3.4000000953674316,26.0,23.155426025390625,23.72809410095215,-79.78276590915581,40.459000078929435,275.7138433532715,0.00013432353443931788,-0.012480540201067923,-0.8361784219741821,0.5483155250549316,-0.019237837274613444,0.14263212250859458,3.142781751810609,0.13461816310882568,0.12102284282445908,0.0035853411536663775,0.10374060574918986,0.3005184524506331,-10.007746986150742
23.2,3.299999952316284,25.0,22.93130874633789,25.811458587646484,-79.78276573723987,40.45900024116158,276.03673363494875,0.003942419309169054,-0.014301056042313576,-0.8363103270530701,0.5480557680130005,-0.046861260537331084,0.16671815449478045,3.1317138837979672,0.02105076238512993,0.07779292017221451,0.062132962048053735,0.1488166998513043,0.1475209294538945,-9.834903291463853
23.4,3.4000000953674316,25.0,23.02145576477051,24.51531982421875,-79.78276545037153,40.45900031519914,276.6638794021606,0.0016855482244864106,-0.01836957409977913,-0.835648775100708,0.5489544272422789,-0.03390219156905115,0.1834156492483316,3.1195100504935365,0.009516706690192223,-0.021188396960496902,0.0278665628284216,0.3356207498162985,0.06903052864596249,-9.676450763940812
23.6,3.5,25.0,23.1103515625,24.141586303710927,-79.78276498424306,40.459000774649965,277.38909006881715,0.005657597910612822,-0.02021097019314766,-0.834961473941803,0.5499081015586853,-0.05317972076806138,0.15239445206664826,3.0635294996767053,0.1012967899441719,0.029342643916606907,0.05566659942269325,0.19721457889303565,0.2302432891353965,-9.291588199138642
23.7,3.5,28.0,22.867454528808594,25.056039810180664,-79.7827648151303,40.45900080524471,277.5950622634888,0.008836901746690273,-0.020010611042380333,-0.8354105353355408,0.5491909980773926,-0.063849468283387,0.14668461412234174,2.9272940791803608,0.05083862319588661,-0.041658569127321236,0.05548742786049843,0.21709564201533801,0.10652129483409227,-9.329835421442986
23.8,3.299999952316284,25.0,22.88498306274414,26.638442993164066,-79.78276472229756,40.45900087882012,277.88722611236574,0.008442175574600697,-0.0169945489615202,-0.8358480334281921,0.5486329793930054,-0.0840389138848892,0.1326931840704996,2.894887349372301,0.00289583601988852,-0.03665711730718613,-0.010921839624643326,0.17083009634166954,0.2048286221176386,-9.422315568923947
24.01,3.299999952316284,30.0,22.85869026184082,27.33819961547852,-79.78276461612677,40.459000791710636,278.5521197395325,0.009779014624655248,-0.01230061799287796,-0.8366966247558594,0.5474412441253662,-0.05500782757115296,0.0720161386167853,2.9053093199689,0.09378214180469513,-0.012724893167614935,-0.002825526986271143,0.11955092869699002,0.17048783322796227,-9.738787345290184
24.1,3.2000000476837163,37.0,22.89875602722168,25.49338722229004,-79.78276461471604,40.45900085889205,278.8430023269653,0.010804876685142515,-0.009763963520526886,-0.8371599912643433,0.5467641949653625,-0.0779497139853238,0.06345149239028389,2.9123545605711665,0.014551879838109016,-0.12196152657270433,-0.008652828633785248,0.21548106132075195,-0.10139413638040423,-9.817164008617402
24.3,3.2000000476837163,29.0,22.80610275268555,25.946638107299805,-79.78276453971003,40.45900098997094,279.5173511581421,0.0052704461850225925,-0.007630778476595878,-0.8356107473373413,0.5492438077926636,-0.08562396679268015,0.027353463790779242,2.9419559265504507,-0.041430938988924026,0.016649819910526276,-0.018832651898264885,0.2537135924957693,-0.03687727449461818,-9.820522649288176
24.51,3.2000000476837163,27.0,22.867454528808594,24.65049934387207,-79.78276436499371,40.45900156207447,280.2130537109375,0.007227967493236066,-0.009328454732894896,-0.833745002746582,0.552023708820343,-0.0965757711873204,0.05353577193017453,3.008916739873112,0.12272901833057405,0.0014238241128623483,-0.032100066542625434,0.29744875559583306,0.09377925261855126,-9.909567557573318
24.6,3.299999952316284,344.0,23.0815544128418,23.489540100097656,-79.78276432105413,40.45900165537076,280.51480198669435,0.010156779550015926,-0.007415469270199537,-0.8342841863632202,0.5511912703514099,-0.11043962135150767,0.06568792885745216,3.0199510061798662,0.042454082518816,0.008610583841800691,0.04476110637187959,0.3881182944774628,-0.07092476156540216,-9.894982262849807
24.71,3.299999952316284,288.0,22.98639869689941,25.85121726989746,-79.7827640545272,40.45900215665733,280.93091107177736,0.0109253553673625,-0.009801175445318222,-0.8353109359741211,0.5495818853378296,-0.17763030626113366,0.0651963794125184,3.0678354952057125,0.04535088688135147,0.11178360134363174,0.055949803441762924,0.2316161422803998,0.006882647909224032,-9.821907269954682
24.91,3.5,258.0,23.056514739990234,23.89508056640625,-79.7827639645412,40.459002405116244,281.54853344726564,0.014054237864911556,-0.018734784796833992,-0.8376224040985107,0.5457474589347839,-0.16960686406368633,0.08183328780274526,3.107288068778135,-0.14834018051624298,-0.008592793717980385,0.02144681662321091,0.1772246113792062,-0.09974245327524844,-9.94966776251793
25.1,3.5,254.0,23.13664436340332,23.38616752624512,-79.78276417636768,40.45900244206524,282.2536583023072,-0.00031112253782339394,-0.01570185087621212,-0.8440751433372498,0.5359948873519897,-0.03343076308539047,0.05350741462826869,3.0249960837536345,0.1098288893699646,-0.013910152018070221,0.08235760778188705,0.3213867265731096,0.003396780048497021,-9.57987756550312
25.2,3.4000000953674316,266.0,23.01644897460937,24.03026008605957,-79.78276399611006,40.459002430821016,282.6295805053711,0.003040720010176301,-0.00975088868290186,-0.8463257551193237,0.5325677990913391,0.00269779178574827,0.0248013333677142,2.968992214377436,0.15914468467235565,-0.017782820388674736,0.11788029968738555,0.32854368198663,0.0676373016089201,-8.911046726703646
25.3,3.5,276.0,22.967618942260746,24.89700508117676,-79.78276401703509,40.459002492207475,282.9222335891724,0.007761036511510611,-0.012096116319298744,-0.8466455936431885,0.5319631099700928,-0.03823606402712906,0.020845802496076846,2.886516318796758,0.006010084878653288,0.15109729766845706,-0.03775586560368538,0.5008124126493931,0.07944576275534929,-8.987901359796522
25.5,3.5,282.0,22.816120147705078,26.20109558105469,-79.78276400893267,40.45900252446621,283.53673935699464,0.010753990150988102,-0.02968024276196957,-0.8416155576705933,0.5391536951065063,-0.017844753919906385,0.12149886427806045,2.8331838586959988,-0.04085575416684152,0.02539665065705776,-0.03479544445872307,0.4566657882928848,-0.06226834708359093,-9.433763832449914
25.6,3.5999999046325684,290.0,22.77104568481445,26.169288635253906,-79.78276402417266,40.45900255563797,283.81990242767336,0.00884226430207491,-0.034184690564870834,-0.8384491801261902,0.5438348650932312,0.01581189054508016,0.13804098844569848,2.8267445125077217,-0.12326962500810625,0.018766308203339577,-0.07679475098848343,0.43138948101550345,0.32659794788807633,-9.682936495542526
25.8,3.799999952316284,301.0,22.758525848388672,25.80350685119629,-79.78276398089677,40.45900238391817,284.45016766357423,0.0031680688261985783,-0.03324251249432564,-0.8343412280082703,0.55023592710495,0.081794586439754,0.12126424536624078,2.8971932139291887,-0.12997488677501678,-0.06573154032230377,-0.13595083355903625,0.3992253364250064,0.3540164922550321,-9.928767474889757
26.0,3.700000047683716,305.0,22.79733848571777,25.42182159423828,-79.78276372729471,40.45900208948772,285.0667190628052,-0.002926793182268739,-0.029125578701496124,-0.8337960839271545,0.5512961149215698,0.13959205919212336,0.11876893829289502,2.950068979378765,-0.03313836082816124,0.013182691298425198,-0.023061247542500496,0.4736067800223828,0.41475126542150975,-9.938141731023787
26.1,3.799999952316284,315.0,22.89124298095703,25.056039810180664,-79.78276378816402,40.4590020677706,285.3631591873168,-0.0053265783935785285,-0.02778252214193344,-0.8344359993934631,0.5503785014152527,0.15482341538539202,0.09663906725910107,2.9669070289412245,0.02825466729700565,-0.05332110822200775,0.13146677613258362,0.4473753666132689,0.09859026856720447,-9.99164141535759
26.2,3.799999952316284,320.0,22.71595573425293,26.98832130432129,-79.78276377434176,40.45900209196598,285.68760014343263,-0.0083489203825593,-0.02765041776001453,-0.835330605506897,0.5489886999130249,0.13291104472249168,0.08718687413892351,2.9900963928312607,-0.18059946596622467,-0.03687075525522232,0.0052451654337346545,0.4215647334605456,0.4824068030342461,-9.877086274623867
26.4,3.9000000953674316,319.0,22.75727462768555,25.350255966186523,-79.78276384431909,40.45900205893753,286.2920913772583,-0.007015986833721399,-0.0270194448530674,-0.8374671936035156,0.5457743406295776,0.16955010740600412,0.0921941763642029,3.0569970249839176,0.0829273909330368,0.12280775606632233,0.10156528651714324,0.37536818493157625,0.4429319212585688,-10.169406126737595
26.6,3.9000000953674316,316.0,22.980138778686523,23.64062309265137,-79.78276412368197,40.45900202304597,286.92219639587404,-0.008388406597077847,-0.03987882286310196,-0.8409042358398438,0.5396475195884705,0.135346201500497,0.13600516938952145,3.0739034872068727,-0.15560398995876312,-0.018665345385670662,0.17853395640850067,0.4824040621519089,0.2424765779078007,-10.145368223190307
26.71,4.0,317.0,23.01144027709961,22.89315795898437,-79.78276426965895,40.45900192889568,287.2368555145264,-0.010539251379668713,-0.04173314571380615,-0.8408905267715454,0.5394909977912903,0.1679596871205853,0.16036730918458006,3.0504983669851384,-0.08745381236076355,0.06820980459451675,-0.1749703735113144,0.8077739851176741,0.5804062470048666,-9.750940783023834
26.8,4.0,318.0,22.92880439758301,23.48158836364746,-79.78276429164755,40.459001933243506,287.54241276550295,-0.005934956949204207,-0.03923709318041802,-0.8389762639999391,0.5427192449569702,0.1908719999901308,0.16483572813300396,3.04228561358172,0.12196193635463715,0.12846675515174866,-0.19592833518981934,0.8238771439343692,0.7031201539188624,-9.808187363147736
27.0,4.300000190734863,322.0,23.10158729553223,21.294851303100586,-79.78276403745977,40.4590017520256,288.16452885437013,0.003643362782895565,-0.03744202107191087,-0.8355517983436584,0.5481222867965698,0.149689005574666,0.21530624017735506,2.9954163522096233,-0.026422476395964626,0.07720764726400375,-0.13228219747543335,0.6626836609840393,0.5863755963742733,-9.56818547308445
27.1,4.400000095367432,322.0,22.988903045654297,22.96472358703613,-79.78276402431742,40.45900171331225,288.46386433410646,0.005388299934566021,-0.03924081474542618,-0.8349999189376831,0.5488227009773254,0.1417225043494113,0.22653776357094305,2.972600745435088,-0.05945134535431864,0.14788717031478882,-0.01186041533946991,0.6602564817667008,0.5284473039954901,-9.564491202235224
27.31,4.5,324.0,23.2030029296875,20.841598510742188,-79.78276388522892,40.45900158396926,289.0640516357422,-0.002808652352541685,-0.05222248286008835,-0.8350915312767029,0.5476195812225342,0.1531421420678307,0.25256107518475324,2.902004646332194,-0.271572470664978,-0.015139685943722725,0.06571680307388306,0.5368346597626805,0.4042114399373532,-9.397741475701332
27.5,4.599999904632568,325.0,23.08531188964844,22.121835708618164,-79.7827637820152,40.45900137055812,289.6569185333252,-0.0065945712849497795,-0.054293569177389145,-0.8361214399337769,0.5458110570907593,0.2113640260081128,0.24785495994672385,2.855972253118194,-0.14371713995933533,-0.08697004616260529,0.10192671418190002,0.5513801568746567,0.41083962433040144,-9.303437581658363
27.6,4.699999809265137,328.0,23.000171661376953,23.64857482910156,-79.78276379917854,40.459001358434655,289.9440679626465,-0.007932963781058788,-0.05361273139715195,-0.8373119235038757,0.5440327525138855,0.21216832246694506,0.2248605144283113,2.8513877114184827,-0.058363676071166985,-0.017529426142573357,-0.01906808465719223,0.5619785276055336,0.5700742900371552,-9.719362310171128
27.7,4.800000190734863,328.0,22.9350643157959,22.88520622253418,-79.78276371005302,40.45900124727579,290.2469549255371,-0.011345621198415756,-0.052382394671440125,-0.8384612798690796,0.5423191189765929,0.2290430741036429,0.20390285552212425,2.8541264259048127,0.03993896394968033,-0.06044190749526024,0.1039532721042633,0.4347446499019861,0.592978637740016,-9.593672316670418
27.9,4.900000095367432,330.0,22.953845977783203,23.083999633789066,-79.78276377383649,40.45900124899829,290.81902981567384,-0.01375112682580948,-0.04358039051294327,-0.8394197225570679,0.5415590405464172,0.20721228764043487,0.1456460104497083,2.835033763899573,-0.05973351746797561,-0.06516396254301071,0.09268886595964433,0.3444493145495653,0.4931124701723457,-9.55236875474453
28.0,4.900000095367432,331.0,23.274370193481445,19.48184585571289,-79.78276374399005,40.459001233819535,291.1090612487793,-0.015230507589876653,-0.04707171767950058,-0.8394849300384521,0.5411260724067688,0.17155874237362567,0.13360398871992454,2.8012764041109937,-0.09537271410226822,0.0863695815205574,-0.054422132670879364,0.6807196900248528,0.5183328634500504,-9.402671263217927
28.2,5.0,332.0,23.23680877685547,19.752206802368164,-79.78276378862009,40.45900139423553,291.6721410827637,-0.016891824081540108,-0.05251597613096237,-0.8395816683769226,0.5404253005981445,0.16511627122573388,0.12180599105755145,2.618293926692996,-0.047581516206264496,0.008072761818766594,-0.09734944254159927,0.5607307317852974,0.6116188303381205,-8.5590174472332
28.41,5.0,334.0,23.0715389251709,22.54327964782715,-79.78276390426116,40.45900154946524,292.1669683532715,-0.014258459210395813,-0.05325295403599739,-0.839242696762085,0.5409553050994873,0.11566670839598756,0.0699011167970777,2.306801993616772,0.03406888246536255,0.050943415611982346,-0.09612046927213667,0.3342020325735212,0.7169988126307726,-8.397146052718163
28.5,4.900000095367432,339.0,23.03147315979004,21.978702545166016,-79.78276385964763,40.45900157810507,292.39543438720705,-0.015177868306636809,-0.05185900256037712,-0.8393066525459291,0.5409664511680603,0.09980122117104584,0.05349079206334237,2.1708599688599794,0.09387366473674774,0.01590284146368504,0.005296648014336824,0.5623735435679555,0.4761944653093815,-8.27911883533001
28.6,4.800000190734863,340.0,23.067781448364247,22.105932235717773,-79.78276393857588,40.459001693529636,292.60531521606447,-0.015376616269350054,-0.05171700567007065,-0.8395909070968628,0.5405330657958984,0.079221893872302,0.007075034718394976,2.0357194179311,0.05337200686335564,0.0455370768904686,0.15257064998149872,0.30264930574223403,0.5719424754381179,-8.362492529153824
28.8,4.900000095367432,343.0,23.0076847076416,22.765928268432607,-79.78276406731047,40.459001811294506,292.9967031555176,-0.012406066060066223,-0.04651903733611107,-0.8413680791854858,0.5383139848709106,0.03938682943271028,-0.03411021792794729,1.8280460827482223,-0.11913413554430008,0.02132960967719555,-0.024675536900758743,0.4639395418390632,0.5327764362841845,-8.632128692865372
29.01,5.0,345.0,22.85869026184082,24.17339324951172,-79.78276419665994,40.45900191512649,293.3561296539307,-0.019774677231907845,-0.04939241707324982,-0.8398918509483337,0.5401400327682495,0.047871468227255035,-0.08114426242155824,1.6630082376151056,-0.051402170211076736,0.017332134768366814,-0.021381955593824387,0.3586206264048815,0.7773979921638966,-8.665518633127213
29.11,5.0,346.0,22.92880439758301,22.455808639526367,-79.78276434253992,40.45900204685219,293.5187292175293,-0.02069860137999057,-0.05084743350744248,-0.8390638828277588,0.5412559509277344,0.04809594991543455,-0.10253730893401802,1.6038988739105369,-0.017464034259319302,0.07307558506727219,-0.05368562042713165,0.382502336204052,0.5966772209107876,-9.08229296207428
29.31,5.0,348.0,22.859941482543945,23.65652656555176,-79.7827645789073,40.459002238330434,293.84229946899416,-0.025664890184998512,-0.05144015699625015,-0.837651252746582,0.5431719422340393,-0.001830407058228865,-0.11864680065067575,1.5014483503511098,-0.07967735826969148,-0.09408587217330933,-0.08581852167844772,0.3887864850461483,0.7606409684568644,-8.99037707090378
29.4,4.800000190734863,350.0,22.74475288391113,24.78567886352539,-79.7827647463912,40.4590024413975,293.9877863006592,-0.02732553705573082,-0.04710603132843971,-0.8380221128463745,0.5429119467735289,-0.02798218556140661,-0.1497198041903584,1.4524793388948931,-0.03018200397491455,-0.07914441078901291,0.07781264185905458,0.3148137983679772,0.6824560207128525,-9.267577192783357
29.5,4.800000190734863,349.0,22.68715858459473,25.40591812133789,-79.78276480769686,40.459002353777535,294.15622235107423,-0.02782556414604187,-0.04275467246770859,-0.8397184014320374,0.5406207442283629,-0.02690294802617932,-0.15150620097731152,1.4812743097637964,0.01700529269874096,-0.05260193720459938,-0.011750590056180954,0.394084135517478,0.7211313322931528,-9.47404179275036
29.71,4.800000190734863,351.0,22.826135635375977,24.348331451416016,-79.78276510603966,40.45900236600298,294.4927072601318,-0.02532920427620411,-0.02634988166391849,-0.8434076309204102,0.5360296368598938,-0.04308291508488693,-0.164897322575321,1.5749878510980444,0.045533213764429085,-0.05188871175050736,-0.09112966805696487,0.3202528052777052,0.7259653716534377,-9.95664115190506
29.8,4.800000190734863,353.0,22.665874481201172,25.85121726989746,-79.7827652582677,40.459002573332,294.65034008789064,-0.02414843998849392,-0.019852234050631527,-0.843784749507904,0.5357704758644104,-0.06271790059943827,-0.17182192855757775,1.6005492516340774,0.05615233257412911,-0.08682623505592346,-0.013781860470771793,0.33243244584649795,0.50282370865345,-10.101724605560305
30.01,4.800000190734863,353.0,22.94132423400879,22.47171401977539,-79.78276575850713,40.45900251312214,294.94377232360836,-0.020277518779039383,-0.017068224027752876,-0.8407145738601685,0.540829598903656,-0.03327267546647101,-0.1532206872408458,1.6197572594043317,-0.056302469223737724,-0.03450634330511093,-0.10733480006456377,0.3783119291067124,0.4378742989897728,-9.706651048064233
30.1,4.800000190734863,352.0,24.446290969848643,2.854686737060547,-79.78276586480897,40.45900267227456,295.10376835632326,-0.02281690016388893,-0.019685301929712296,-0.8381578922271729,0.5445946455001831,-0.024465913018393327,-0.13813006770898914,1.583046184760183,0.08958848565816879,-0.012891897931694984,-0.0281364768743515,0.19630953954532745,0.5272715020179749,-9.428623545169831
30.31,4.599999904632568,354.0,23.323200225830078,17.660890579223633,-79.78276619514925,40.45900281774529,295.3049783782958,-0.011517413891851902,-0.011572509072721004,-0.8345168828964233,0.5507404208183289,-0.00851464036361863,-0.10352845764455954,0.9119086844754386,0.05939687043428421,-0.1500050723552704,0.023900935426354408,0.4639330368116498,0.3726048273593188,-6.630499305725098
30.4,4.599999904632568,354.0,23.427120208740234,17.80402183532715,-79.78276628541774,40.45900288920314,295.38465786743166,-0.015546455979347227,-0.006498644128441811,-0.8333547115325928,0.5524816513061523,-0.008206747930438962,-0.08109729825514356,0.6991189308565329,-0.05219737440347672,-0.12979695200920105,-0.13793233036994934,0.3025273730233312,0.4723104157671333,-7.4400878280401255
30.61,4.699999809265137,352.0,23.28939437866211,18.6787166595459,-79.78276636177651,40.459002896466686,295.45520115661617,-0.03212173283100128,-0.02406839281320572,-0.8293622732162476,0.5572676062583923,0.026955354131977083,-0.05155938088041759,0.4604712203681748,-0.3033842146396637,0.10978633910417557,-0.09654200822114943,0.1170671045780182,0.8658669497072697,-8.583186913132668
30.8,4.699999809265137,354.0,23.15417289733887,20.642805099487305,-79.7827664725013,40.459002941027606,295.47961140441896,-0.050266481935977936,-0.04892341047525407,-0.8254497051239014,0.5601005554199219,0.005947983962974072,-0.03845607472544392,0.3133369055368123,-0.3265407085418701,-0.03243543952703476,0.1074584424495697,0.18663142919540407,0.7592834642529488,-8.872039366364481
30.91,4.699999809265137,355.0,23.30442047119141,19.49774932861328,-79.7827665072946,40.45900299246346,295.5087404327393,-0.058912143111228936,-0.05501330643892288,-0.8247547745704651,0.559716522693634,-0.030908505235641807,-0.053864738804450016,0.28097397481543723,-0.11757490783929825,-0.03311880677938461,0.1574312150478363,0.005556253861868754,0.7900397454947233,-9.278578144311906
31.0,4.800000190734863,355.0,23.099082946777344,20.475818634033203,-79.7827664910968,40.45900309896694,295.486369140625,-0.06582099944353104,-0.05908416584134104,-0.8252551555633545,0.5577908754348755,-0.08871707238518839,-0.06082512962211663,0.2714790993362127,-0.02805316261947155,-0.09977570921182632,0.1798808127641678,-0.12226948197931052,0.7752946025133133,-9.386024240255356
31.21,4.800000190734863,358.0,23.17045021057129,21.15966987609864,-79.78276637066246,40.459003460115575,295.52126026916505,-0.07369458675384521,-0.05815684050321579,-0.8287996649742126,0.5516141057014465,-0.2392240359595473,-0.0390744354332546,0.3064161415484511,0.07102927565574646,-0.12641878426074982,0.020894348621368408,0.14215723285451531,0.8015314245969057,-9.582286033630373
31.4,4.900000095367432,359.0,22.97763442993164,22.32858085632324,-79.78276613030745,40.459004106878794,295.57174397277834,-0.06241855770349504,-0.05043206736445427,-0.8337765336036682,0.5462391376495361,-0.38387933555416864,-0.030514142216215626,0.3292878349174829,0.2795998454093933,0.018580861389637,0.05261518806219101,0.12376212995499375,0.7041594234108925,-9.59154509961605
31.5,4.900000095367432,1.0,23.62244033813477,14.981142044067385,-79.78276626297766,40.45900441887285,295.6304216461182,-0.05213521048426628,-0.0463176853954792,-0.8352497220039368,0.5454307198524475,-0.3871598970495093,-0.04357682452858902,0.40369272416713103,0.4861659109592438,0.05102084204554558,0.10372411459684372,0.1997802823036909,1.2434931465983392,-9.893727450370788
31.6,5.0,1.0,23.21302032470703,18.941125869750977,-79.78276609236946,40.45900479707356,295.66345310974117,-0.021116292104125026,-0.02790721133351326,-0.8291912674903871,0.5578684210777283,-0.3808937024971705,-0.023585851477678305,0.3624648049266931,0.9549010396003724,-0.01397089008241892,-0.5903561115264893,0.3492495496943593,1.3931220795214176,-9.449042606949806
31.81,5.199999809265137,5.0,23.39581871032715,18.1141414642334,-79.78276641322157,40.45900534765428,295.61110974121095,0.010072540491819382,-0.005943008232861757,-0.7788892388343811,0.6270524263381958,-0.38933410781291,-0.03548521254988804,0.12540669093000506,-0.16987812519073486,0.2569499313831329,-1.08530592918396,-0.008331771815428511,0.3298633620142937,-8.929337986707687
31.91,5.400000095367432,1.0,23.24432182312012,18.32088661193848,-79.78276633001757,40.45900565361345,295.61755085754396,0.0048555126413702965,-0.01977281272411346,-0.7445904612541199,0.6672110557556152,-0.29925269820435346,-0.02144726190580357,0.003305373868324907,-0.2540086209774017,0.1224220246076584,-0.8700886368751526,0.05937653806060553,0.8212871197611094,-8.811543488502503
32.1,5.400000095367432,5.0,23.27812767028809,19.14787101745605,-79.78276638728609,40.45900677357681,295.6486520843506,-0.007277130149304867,-0.02896203473210335,-0.6800322532653809,0.732573926448822,-0.19005033910977,-0.006606637360822773,-0.08486213681225267,-0.1381438821554184,-0.05470229312777519,-0.8407943844795227,0.04270533137954772,1.01343817435205,-9.106157788038256
32.3,5.400000095367432,6.0,23.02771759033203,19.43413543701172,-79.7827661353207,40.45900726719781,295.6225290374756,-0.017622167244553566,-0.021870680153369904,-0.6371498703956604,0.7702280282974243,-0.10189976077958657,-0.034127133361169716,-0.11578846073422125,0.02017174661159516,-0.06214917823672295,-0.35393598675727844,-0.20348769111558795,1.0835096718370916,-9.370636707544326
32.4,5.5,358.0,23.21427154541016,20.35654067993164,-79.78276619147121,40.45900735005663,295.6102590637207,-0.029466608539223667,-0.01769270747900009,-0.625485360622406,0.7794784903526306,-0.09775350472422296,-0.03010673981565492,-0.13441441049449507,-0.19347140192985526,-0.4000411331653595,-0.1466154307126999,-0.06697522320784627,0.7718394096940756,-9.586106604337694
32.5,5.5,354.0,22.990154266357425,22.33653259277344,-79.78276575496187,40.459007432142506,295.5704927520752,-0.0591304861009121,-0.007662396412342788,-0.6172074675559998,0.7845380306243896,-0.09002229156607956,0.06046858425111407,-0.14860202415469745,-0.11488337069749832,-0.6432530283927917,-0.13467557728290558,-0.2709490828961134,1.0344039507955314,-9.65362381875515
32.71,5.599999904632568,0.0,22.63707733154297,26.908802032470703,-79.78276551302434,40.45900784861696,295.4851408081055,-0.10282208770513536,0.02555104531347752,-0.6120805144309998,0.7836660146713257,-0.1242078678372794,0.2702009475550801,0.0010834181252375589,-0.08435703814029694,-0.4413284361362457,0.04694399982690811,-0.5714756849035622,0.9343402569741012,-10.598439728021622
32.9,5.599999904632568,2.0,22.60953140258789,25.93868637084961,-79.78276456484615,40.45900825601896,295.5021562652588,-0.11656801402568814,0.043238308280706406,-0.6156949400901794,0.7781145572662354,-0.11130762257209996,0.5814830597309365,0.3665660957738736,0.09434714913368224,-0.18907706439495087,0.15100125968456268,-0.490945894047618,0.6832959001511336,-11.298366644382474
33.01,5.599999904632568,353.0,22.455530166625977,28.228797912597656,-79.78276383257551,40.45900857793411,295.4642610626221,-0.11896244436502455,0.049741800874471664,-0.6191493272781372,0.7746146321296692,-0.11550298256492215,0.7553232254059989,0.5183662936136962,0.11673784255981445,-0.11592759937047956,0.1125074103474617,-0.4449655828624964,0.8459501637518406,-11.271723221540453
33.2,5.599999904632568,357.0,22.514375686645508,26.48735809326172,-79.78276150278631,40.45900937861571,295.4915819244385,-0.120120108127594,0.061360999941825874,-0.6253411173820496,0.7686055302619934,-0.136155218631115,1.1260188026281588,0.8704103601523918,0.09342850744724274,-0.07329258322715759,0.19043222069740293,-0.5057155953347683,0.8546073319762946,-11.289190024137495
33.3,5.699999809265138,3.0,22.5744743347168,26.30446815490723,-79.78275990487701,40.459009812233475,295.55153179931636,-0.11840474605560306,0.06312583386898041,-0.6272811889648438,0.7671464681625366,-0.1420703764453718,1.319368643763979,1.0371647193807099,0.16381098330020905,0.011282692663371565,-0.0049669030122458935,-0.3872102218866349,0.705908983424306,-11.164238533973696
33.4,5.699999809265138,5.0,22.603271484375,25.79555511474609,-79.78275803316872,40.4590102749409,295.6212377624512,-0.11551833152770995,0.06861311942338942,-0.6281042098999023,0.7664418220520021,-0.12743286679523844,1.5140356131435126,1.188346337239157,0.09579780697822572,-0.020585922524333,0.01730153150856495,-0.4367858397960663,0.8906738352030517,-11.058235530853274
33.6,5.9000000953674325,5.0,22.54692840576172,26.169288635253906,-79.78275370511577,40.45901151159561,295.6934270935059,-0.12092652916908266,0.0712648332118988,-0.6283228397369385,0.7651854157447815,-0.10095967846824794,1.8949450898506195,1.4132816624145192,-0.07282107323408127,-0.04406535252928734,-0.009493342600762844,-0.7011406521499157,0.7536840974539519,-10.603442605733873
33.7,5.9000000953674325,7.0,22.67964744567871,25.27868843078613,-79.78275153003914,40.45901265116178,295.63557530212404,-0.1224660500884056,0.06965924054384233,-0.6268999576568604,0.7662545442581177,-0.11843753816213776,2.0721228816892747,1.4391117004385705,-0.06238823384046555,-0.04584905505180359,-0.044938381761312485,-0.8053508258610964,0.852489982098341,-10.4358076107502
33.9,6.099999904632568,11.0,22.62956428527832,24.69025802612305,-79.78274556298194,40.459013809384935,295.8058042602538,-0.12011141330003736,0.07174957543611526,-0.6230918169021606,0.7695336341857909,-0.03782233335602511,2.4654684817966377,1.6512814106145082,-0.02534071914851665,-0.011862907558679579,0.08757669478654861,-0.8143059097230435,0.6072515449672937,-10.494800169467927
34.1,6.300000190734862,12.0,22.75727462768555,23.36231231689453,-79.78273959232327,40.45901639353709,295.74998379516603,-0.1239631325006485,0.07978864759206772,-0.6196958422660828,0.7708722949028015,-0.0447953976455706,2.84508329889388,1.6902551946075648,0.039772879332304,-0.11357904225587845,0.006112717092037201,-0.7818708197772504,0.6887147341668606,-10.313840539455414
34.2,6.5,13.0,22.68715858459473,24.6027889251709,-79.78273668858941,40.45901861935111,295.60152340698244,-0.12458094954490664,0.08767837285995482,-0.6193735599517822,0.7701743841171265,-0.11950885659247874,3.0276443900146024,1.631434362004345,0.05450785532593727,-0.03353620320558548,-0.030995896086096764,-0.6195961866527796,0.8653200888633729,-9.824128042459488
34.31,6.599999904632568,11.0,22.74224853515625,23.70423889160156,-79.78273271281684,40.459019409592564,295.66775036621095,-0.12639637291431427,0.08853527903556824,-0.6193944811820984,0.769763708114624,-0.08842954198746215,3.2272645828182767,1.6974393069800688,-0.03434344753623009,0.07707562297582626,0.0502653531730175,-0.7383107442408801,0.5445469910278916,-9.727205765247346
34.5,6.9000000953674325,13.0,22.568214416503906,25.33435249328613,-79.78272529290257,40.459023595417094,295.49557972717287,-0.12857002019882202,0.08565399795770645,-0.6166708469390869,0.7719134092330933,-0.19418432338730754,3.659647388534306,1.6672093526390253,-0.05577359348535538,-0.02251172065734864,-0.054351583123207085,-0.7837184668332339,0.6211181437969208,-9.73870431482792
34.7,7.0,14.0,22.648345947265625,24.11773109436035,-79.78271707920747,40.459028696580226,295.2974557952881,-0.12895026803016665,0.08667074888944626,-0.6131410598754883,0.7745438814163208,-0.2943237933270867,4.047709726720217,1.6838968115108846,-0.07366903871297836,0.0018116541905328636,-0.07742603123188019,-1.0310687720775604,0.5599491783231497,-9.871540775299072
34.81,7.199999809265138,16.0,22.57948303222656,26.479406356811523,-79.78271287770994,40.4590304240175,295.2764253692627,-0.12974920868873596,0.08455708622932434,-0.6123526692390442,0.7752674221992493,-0.2647473078112841,4.1985630685974415,1.6811005460371393,-0.03128822147846222,0.03743397817015648,-0.17639710009098053,-1.1179659980535508,0.7929997522383929,-9.649718463420866
34.9,7.400000095367432,16.0,22.419219970703125,26.050010681152344,-79.78270766556236,40.45903161155789,295.30455685424806,-0.1316535472869873,0.08791214227676393,-0.6106162667274475,0.7759425044059753,-0.21354391969423347,4.392847010071828,1.6912287260651082,0.02648383378982544,-0.13908109068870544,-0.05445418879389763,-1.1666389520466331,0.6946394254267216,-9.597823255062103
35.1,7.599999904632567,19.0,22.4279842376709,28.006147384643555,-79.78269767643924,40.45903798907085,295.09758282470705,-0.1346379816532135,0.10391159355640413,-0.6042571067810059,0.7784268260002136,-0.31411732243552354,4.784056822705384,1.7949274579843637,0.0768752247095108,-0.09981147944927216,-0.12700502574443814,-1.3108796757459642,0.4857853607833386,-9.650548183321952
35.2,7.800000190734862,20.0,22.19510269165039,29.98613929748535,-79.7826922509276,40.45904232264416,294.97446537780763,-0.1342146396636963,0.10657884180545807,-0.5998178720474243,0.7815664410591125,-0.4444949521281827,4.97245222867858,1.921611147235509,-0.029038820415735245,0.1368747055530548,-0.11691638082265855,-1.2956606890261173,0.5445036485418677,-10.153477141857149
35.4,8.100000381469728,19.0,22.402942657470703,26.08976936340332,-79.78267980482633,40.459045488956214,295.01451588439943,-0.12905053794384005,0.10768529772758484,-0.5984008312225342,0.7833685874938965,-0.2683642355006329,5.353859872698265,2.1660898873360925,0.13181237876415253,0.053624730557203286,0.05168427526950836,-1.378347773551941,0.3868304452300072,-10.594368896484378
35.6,8.199999809265138,20.0,22.190093994140625,30.16107940673828,-79.78266677777985,40.45905232142778,294.98463726806636,-0.1295909285545349,0.11808031797409058,-0.5970489382743835,0.7828128337860107,-0.3165032874965902,5.7425237857181415,2.334575520805644,0.06234777718782425,-0.10931670665740968,0.06649480015039444,-1.5525009521842004,0.4084387941285968,-10.237540222406386
35.7,8.5,23.0,22.51813125610352,26.360130310058594,-79.78265986225598,40.4590575133413,294.95514012146,-0.13410453498363495,0.11851847916841507,-0.5954737663269043,0.783186137676239,-0.5046136157903756,5.919209990547664,2.507510861186571,-0.17504754662513733,-0.03611170873045921,-0.01112784817814827,-1.6565021610260011,0.6214967510104179,-10.321869935989382
35.8,8.600000381469728,24.0,22.622053146362305,23.537250518798828,-79.7826525656474,40.45905943343985,294.98980046081545,-0.1399432122707367,0.1145939603447914,-0.596896231174469,0.7816643714904785,-0.41677239921196585,6.10308160212954,2.6533498927117383,-0.22504331171512604,-0.04840962588787079,0.05065956711769104,-1.4807484532892703,0.2319521744549275,-10.132152346372603
36.01,8.899999618530273,25.0,22.83615303039551,23.068096160888672,-79.78263709620572,40.459066644719755,295.00949383544923,-0.1481030285358429,0.11481542140245438,-0.5965079665184021,0.7804238200187683,-0.4994822992315398,6.478666909583089,2.7442686274798143,-0.003675817511975765,-0.003247851971536875,0.04034323990345001,-1.5847566787898542,0.5264318418502808,-9.073610431551934
36.11,9.100000381469727,25.0,22.605775833129893,25.7876033782959,-79.78262913772052,40.45906872369322,295.023291595459,-0.14820334315299988,0.1155385822057724,-0.5979363918304443,0.7792039513587952,-0.43340331133798615,6.664011665335589,2.7307154885027214,0.0957147404551506,0.0004555376945063472,0.04194532707333565,-1.8968899673223496,0.3630012141913176,-8.718804309368132
36.3,9.300000190734863,26.0,22.123735427856445,30.821075439453125,-79.78261218544003,40.459075855338135,295.0428400115967,-0.14080213010311127,0.11177315562963486,-0.5971927046775818,0.7816920280456543,-0.53819267244709,7.0543259729324825,2.7863563476719992,-0.034860458225011826,0.09456061571836473,0.11915088444948195,-1.8054187569022184,0.3366994880139828,-9.541473053097725
36.5,9.399999618530273,27.0,22.58323860168457,24.70616149902344,-79.78259447077646,40.45908273393746,295.0851221160889,-0.14126431941986084,0.10343548655509947,-0.5946410894393921,0.7846958637237549,-0.5593409673510652,7.468398313746407,2.811794206733796,-0.2450347691774369,-0.02670454606413841,0.07463300228118896,-1.6454266574978829,0.4254968032613397,-9.542861766815186
36.6,9.699999809265137,31.0,22.5206356048584,24.87314796447754,-79.78258544768038,40.45908509659526,295.0928011016846,-0.14507201313972473,0.09775307774543762,-0.5929968357086182,0.7859728932380676,-0.4306905334217259,7.643586249756459,2.913998027118339,-0.0748305693268776,-0.026191309094429016,-0.16179439425468445,-1.7468143071234228,0.5195768220350147,-10.132409623861314
36.7,9.899999618530273,31.0,22.453025817871094,26.209047317504893,-79.7825759066032,40.45909018125384,295.1531152801514,-0.15440118312835693,0.09846200793981552,-0.5884665846824646,0.7875103950500488,-0.5093493390023839,7.839194946423643,3.024616399434408,-0.053619153797626495,-0.19530245661735526,0.02233254723250866,-2.140844428986311,0.27468346199020743,-9.683957419395448
36.9,10.100000381469727,31.0,22.124988555908203,30.121318817138672,-79.7825568029061,40.45909535345292,295.1739130096436,-0.17547036707401276,0.09797526150941847,-0.5873900055885315,0.7839541435241699,-0.4022827300789181,8.093005063253909,3.3815606932872795,-0.1054914817214012,-0.05367714911699295,-0.209124356508255,-2.004988612532616,0.4402056935057044,-9.505695109963415
37.1,10.300000190734863,31.0,22.36162567138672,28.371929168701172,-79.78253664305332,40.45910380585776,295.2405653076172,-0.17826807498931885,0.0976625233888626,-0.5862082839012146,0.7842463850975037,-0.517508094341611,8.392993982930196,3.7855637045697392,-0.014179144985973837,0.009212941862642763,-0.03526153042912483,-2.2317329643666746,0.2497362067736685,-9.774968746304513
37.2,10.600000381469727,32.0,22.419219970703125,25.024232864379893,-79.78252614295384,40.45910926483728,295.2860860900879,-0.1769452691078186,0.10373697429895401,-0.5848022699356079,0.7848155498504639,-0.6974999361866505,8.600374310988729,3.8288198424338633,0.07979022711515428,-0.2433883994817733,0.2996236979961395,-2.3000220112502574,0.18347484637051825,-9.35840257823467
37.3,10.800000190734863,33.0,22.36162567138672,27.38591003417969,-79.7825156734594,40.45911237569038,295.29265881347663,-0.17796851694583893,0.10990875214338304,-0.5853675007820129,0.7833212614059448,-0.6824940177717916,8.759302674502628,3.8956966697814974,-0.05521988123655319,-0.10182589292526244,0.1069449633359909,-2.164127749353648,0.390837761387229,-9.352130270004274
37.5,11.300000190734865,33.0,22.28274726867676,28.57072448730469,-79.78249416151955,40.45912087018646,295.33139515686037,-0.18262611329555511,0.10890790075063704,-0.5822126269340515,0.784739077091217,-0.8117062954197511,9.024283251613195,4.133691730919543,0.05660342052578926,-0.03187771514058113,0.2033896446228028,-2.653129371106625,0.4245059560239315,-9.321706622242928
37.6,11.399999618530273,34.0,22.44300842285156,26.24880599975586,-79.78248314212348,40.45912419218285,295.3314275817871,-0.18285627663135529,0.1088072955608368,-0.5824134945869446,0.7845502495765686,-0.7169380166436086,9.193573525751024,4.2033873915628455,0.030197469517588605,-0.20619747042655945,0.05861761420965195,-2.4329846253991128,0.7344798678159714,-9.468215627074242
37.8,11.699999809265135,32.0,22.455530166625977,25.52519416809082,-79.78246067247683,40.459133468531775,295.36222935485836,-0.1984141170978546,0.1149239018559456,-0.5779627561569214,0.7831880450248718,-0.7806279791978556,9.506758484892604,4.395281533169868,-0.13747817277908325,-0.189114198088646,0.015133185312151909,-2.120997517257929,0.5544508952647448,-9.067545699477195
38.0,11.899999618530273,33.0,22.17632293701172,28.83313179016113,-79.78243757620223,40.45914345073568,295.38118077087404,-0.21744276583194733,0.12257057428359985,-0.5744174122810364,0.7795767188072205,-0.9520675107365396,9.71602214200414,4.859154779265559,-0.013655749149620531,-0.20367474853992465,0.19081264734268188,-2.663878600001336,0.4611245460435748,-8.804936134815216
38.1,12.300000190734865,34.0,22.161296844482425,29.94638061523437,-79.78242561846079,40.45914725450979,295.3531198577881,-0.2130049169063568,0.12071216851472855,-0.576105535030365,0.77984619140625,-0.8820775095442099,9.795171003938677,5.072868624773437,0.10032328218221664,0.3504731059074402,0.0723220556974411,-2.836283461153508,0.5476634107902646,-8.932915897965431
38.2,12.399999618530273,34.0,22.09493827819824,30.08951187133789,-79.78241383751369,40.459153550882675,295.3874998168945,-0.19527068734169006,0.1161089688539505,-0.5787287354469299,0.7832375764846802,-1.0265170614546506,9.9856080403336,5.0621013589505,0.19574646651744845,0.29623520374298096,0.31085628271102905,-3.1268362846970565,0.475873051173985,-9.035649138092996
38.41,12.699999809265135,34.0,22.15629005432129,28.16518402099609,-79.78238907716478,40.45916154553984,295.3234567718506,-0.16898250579833984,0.0951533541083336,-0.582589328289032,0.7892910838127136,-1.0912723759553995,10.612785825598696,4.420497555449366,-0.10031303763389587,0.17660079896450046,-0.07054349780082703,-2.977303392291069,0.516491757966578,-9.369119355082512
38.6,12.899999618530273,36.0,21.924659729003906,32.212635040283196,-79.78236413610885,40.45917172648553,295.32643605041505,-0.15655794739723206,0.08688054233789444,-0.5779032707214355,0.7962219119071959,-0.9893238976030942,10.982492323874554,4.119226895822228,0.13058218359947205,0.12402436882257464,0.21168775856494906,-2.734934841692448,0.7658164852112532,-9.465346983075145
38.71,13.100000381469727,37.0,21.98350715637207,30.93239974975586,-79.78235184542217,40.4591779385385,295.3637056427002,-0.15356627106666565,0.08552306145429611,-0.5733726620674133,0.8002169728279114,-1.078296656822291,11.099225682015481,4.167612048158526,0.017834939062595367,0.1097763180732727,0.044426307082176215,-2.554262017607689,0.4449339713528753,-10.808607369661331
38.8,13.199999809265135,37.0,21.928415298461914,31.50492858886719,-79.78233893417905,40.45918226894703,295.36636448669435,-0.15493012964725494,0.08649975061416626,-0.5695245265960693,0.802593469619751,-0.9569381174662,11.198980835423527,4.226684757004627,-0.09717530012130736,-0.004086655098944902,-0.27621644735336304,-2.7403575494885453,0.5160016882047057,-10.510574787855148
39.02,13.199999809265135,39.0,22.1062068939209,29.707826614379893,-79.78231330238421,40.45919320289747,295.41943074035646,-0.15096421539783478,0.095941461622715,-0.5665178298950195,0.8044020533561707,-0.9498452767704566,11.302907756534948,4.600538635209595,0.06229506805539131,-0.028553973883390427,-0.03958388790488243,-2.384029981791973,0.07654242832213641,-10.426239227056504
39.11,13.199999809265135,37.0,22.483074188232425,26.137481689453125,-79.78230010888197,40.45919774454376,295.4525537567139,-0.14513762295246124,0.09323232620954514,-0.5687213540077211,0.8042380213737488,-0.9373521693229008,11.36494416148108,4.687638423393999,0.0065012131817638865,-0.010512323118746279,0.10898320376873016,-2.8277424332499503,-0.108220778927207,-10.353563014268877
39.3,13.399999618530273,38.0,22.28775405883789,27.00422477722168,-79.78227371607576,40.45920908346678,295.54077244567867,-0.12112785130739212,0.08378877490758896,-0.5739266872406006,0.8055530190467834,-1.1087715993116285,11.594608801356669,4.535680823193211,0.13440169394016266,0.3430821597576141,0.06405746936798096,-2.737639178931713,0.08248860809952023,-10.682957721948622
39.41,13.399999618530273,38.0,22.59575843811035,23.17942047119141,-79.78226033350123,40.45921378391069,295.6083402709961,-0.10620144754648207,0.0819736197590828,-0.577534019947052,0.8052678108215332,-1.196645256013725,11.687869189035547,4.3414176196221295,0.23611390590667725,0.2609139382839203,-0.05947110429406166,-2.7828995516896247,0.4169908586516977,-10.732664902210237
39.6,13.399999618530273,44.0,23.17045021057129,17.39052963256836,-79.78223348141672,40.459224564130615,295.72924900817867,-0.08693758398294449,0.07425085455179213,-0.5802666544914246,0.8063617944717407,-1.3957335695638269,11.888565241859133,3.865890830465358,-0.1268070936203003,0.015644673258066174,0.1902463138103485,-2.558491308689117,-0.15589614311233166,-10.072164591550829
39.7,13.5,46.0,23.03898429870605,19.267148971557614,-79.78221998982431,40.45923059325285,295.7335271911621,-0.08673734217882156,0.07408667355775833,-0.5791383385658264,0.8072091341018677,-1.4745575887051388,11.92415475608747,3.581112519552533,-0.02137499861419201,0.2047555148601532,-0.0018069292418658733,-2.3253558039665223,0.16445714291185146,-9.517224065065383
39.9,13.600000381469727,47.0,23.0076847076416,19.291004180908203,-79.78219342728481,40.45924005343426,295.8860025482178,-0.08083173632621765,0.07735025137662888,-0.5815497636795044,0.8057810664176941,-1.4605412661164352,11.808499301396374,3.3991805876070744,-0.19707296788692474,0.04873631894588471,-0.014433055184781553,-2.649625134766102,0.02800532159395516,-9.035110024809835
40.0,13.600000381469727,48.0,23.142906188964844,18.360645294189453,-79.78217977270528,40.459246240890344,295.8881197052002,-0.08300864696502687,0.0736989751458168,-0.5796979069709778,0.8072350025177002,-1.532349454021107,11.812867152551295,3.284507819299084,-0.056275762617588036,0.09862765669822693,0.04202762246131897,-2.6168126070499422,-0.04489413606002927,-9.137576047182085
40.2,13.5,50.0,23.369525909423828,15.983065605163574,-79.78215297800806,40.459257114877296,295.9589395599365,-0.08984973281621933,0.06494367122650146,-0.5817767977714539,0.8057575225830078,-1.5214639258188698,11.793364971900216,3.1439817982188387,-0.05696801468729973,-0.28008535504341125,0.2878447771072388,-2.7221931740641594,-0.35144068412482743,-8.753527999520303
40.4,13.399999618530273,53.0,23.08656311035156,18.941125869750977,-79.782126955251,40.459266654740944,296.0464582519532,-0.09035763889551164,0.062074869871139526,-0.5836015939712524,0.8046063780784607,-1.5961032933661654,11.691969249713893,3.0953457619588205,0.20007048547267914,0.11734608560800552,0.04958876967430115,-2.7762006890773776,-0.35746298734098675,-8.341073593497276
40.5,13.199999809265135,54.0,23.11160469055176,17.382577896118164,-79.78211322174144,40.45927181122345,296.1215753631592,-0.07486896216869354,0.053947307169437415,-0.583549439907074,0.8068174719810486,-1.6103263928679996,11.724035283063754,2.897220309580736,0.10099977999925612,0.4608783125877381,0.19584032893180847,-2.3053454625606538,-0.16832061756402256,-8.664315276145935
40.6,13.100000381469727,54.0,23.30316734313965,16.165956497192386,-79.78210032763359,40.45927656252725,296.14556408691413,-0.0540894903242588,0.0392620824277401,-0.5838763117790222,0.8090867400169373,-1.5817506863084068,11.767664881717467,2.4197868474433344,-0.017899580299854282,0.5105222463607788,0.03253158554434776,-2.2204599711298942,0.28058145705610515,-8.761795962452886
40.8,12.899999618530273,59.0,23.397071838378906,16.23752212524414,-79.78207441731244,40.45928617741826,296.20102978515627,-0.017382202669978142,0.004109335597604513,-0.5829950571060181,0.8122793436050415,-1.5439097898773742,11.739182564236884,1.066989623102624,-0.4022540450096129,0.7300999164581299,-0.05543356016278267,-1.8140319979190829,0.2469065746665001,-8.994102331995965
40.9,12.699999809265135,66.0,23.33572196960449,16.476076126098633,-79.7820619098043,40.45929083316867,296.2077150421143,-0.00557078281417489,-0.013308375142514706,-0.5819578170776367,0.813090980052948,-1.5186668546848583,11.618033048079068,0.4445067487798858,-0.303149938583374,0.32847777009010315,-0.007032335735857487,-1.8990155763924124,0.2392007849738002,-9.087582938075068
41.1,12.5,66.0,23.433380126953125,15.25150203704834,-79.78203695078109,40.459300147245976,296.2236089782715,0.015003470703959463,-0.037213195115327835,-0.5782423615455627,0.8148778080940247,-1.4563085020258464,11.237146751228707,-0.3541657691880695,0.03470182418823242,0.0180694442242384,-0.12261632829904555,-1.8008516429364685,0.04438513593748212,-9.69102027118206
41.3,12.399999618530273,65.0,23.495983123779297,14.201868057250975,-79.78201279041285,40.45930914176991,296.2233247833252,0.02031601406633854,-0.06083352491259575,-0.5744664072990417,0.8160115480422974,-1.4437179890179492,10.801236066572473,-0.9002833063218015,-0.12286782264709473,0.15067028999328613,-0.08688370883464812,-1.643913690447807,0.023918903572484853,-9.622680353522304
41.4,11.899999618530273,79.0,23.46217918395996,14.655118942260742,-79.78200144940502,40.45931358796586,296.22047901916505,0.02257347479462624,-0.06252435594797134,-0.5733859539031982,0.8165842890739441,-1.4822850113445767,10.54075088581474,-1.0554615000249803,0.13569216430187225,-0.3675622344017029,0.09036607295274733,-1.3842033214867115,0.057276382651180034,-9.414376219511034
41.5,11.699999809265135,81.0,23.44590187072754,14.432469367980955,-79.781989755978,40.45931781189668,296.20358563232423,0.024683183059096336,-0.06269124150276184,-0.5726233720779419,0.8170452713966371,-1.4628205177018894,10.310514553575523,-1.1434697161246865,0.325531542301178,-0.17347517609596252,0.06250867247581482,-1.6203849332034588,-0.11227677315473557,-9.450241286158564
41.7,11.300000190734865,79.0,23.29816055297852,16.674869537353516,-79.78196787936344,40.4593261380793,296.1655092315674,0.035763312131166465,-0.07471630722284317,-0.5720005631446838,0.8160600066184998,-1.5460941759112763,9.770798630172813,-1.3023475995909772,0.1785828173160553,0.25587135553359985,-0.0912884771823883,-1.3615202178061008,0.2685172259062529,-9.938566238880158
41.8,11.199999809265137,79.0,23.5147647857666,16.22161865234375,-79.78195771731384,40.45933042288396,296.15074063110353,0.030986757948994637,-0.07169103622436522,-0.5725016593933105,0.8161753416061401,-1.6261841427590304,9.490509755982773,-1.3991539902233638,0.12685412168502808,-0.24062179028987885,-0.21858417987823486,-1.0468088918924332,0.09459680300205947,-10.029837766885755
42.0,11.100000381469727,80.0,23.51977348327637,14.026928901672365,-79.78193735921403,40.4593381542411,296.1269750671387,-0.0013601362006738784,-0.046900250017642975,-0.5726915597915649,0.8184272050857544,-1.6986401076561046,9.107302681097472,-0.9246220912629384,-0.19010882079601288,-0.7571226358413696,-0.04684511199593544,-1.3866550590097906,-0.025301971072331068,-9.880705701112749
42.2,11.0,70.0,23.46593475341797,15.410537719726562,-79.78191776342982,40.459345353707796,296.09595585632326,-0.04442282393574715,-0.01967170648276806,-0.5727262496948242,0.8183058500289917,-1.657172656078012,8.856070808885123,-0.0772810438369034,-0.06596264243125917,-0.5397868752479553,0.0522628054022789,-1.533276330381632,0.20482398089021445,-9.571455236077306
42.3,11.0,69.0,23.369525909423828,15.688850402832033,-79.78190867455871,40.459349466299926,296.06862164306636,-0.05485513433814049,-0.012209201231598854,-0.5729153156280518,0.8176857233047485,-1.6598992265743813,8.751639778148,0.2951069983713812,-0.039520565420389175,-0.04871535301208496,0.02497575432062149,-1.607269189953804,0.6522047927230596,-9.49853694856167
42.41,10.899999618530273,69.0,23.280630111694336,16.690773010253903,-79.7818997010019,40.459353598404654,296.0392294006348,-0.0638621523976326,-0.006847529672086239,-0.5729050040245056,0.8171013593673706,-1.7175676601552858,8.685162863182317,0.4999688901688541,-0.05679968371987343,-0.2096063643693924,-0.035491012036800385,-1.5049551951885225,0.5127215829491616,-9.553706597685814
42.6,11.0,59.0,23.284387588500977,16.849809646606445,-79.78188103789626,40.45936056969747,295.9747552947998,-0.10016575455665587,0.01819683238863945,-0.5709259510040283,0.8146651983261108,-1.7081561493987072,8.641642053276966,0.9033353558812678,0.044423799961805344,-0.8225635886192322,0.017674587666988373,-1.6611957210302353,0.2449027704074979,-8.96044341981411
42.7,11.0,55.0,23.162939071655273,18.543537139892575,-79.78187114434367,40.45936287294145,295.9501466827393,-0.11724381893873215,0.030642608180642125,-0.567078709602356,0.8147004246711731,-1.6197989325291888,8.58178135152109,1.2958038057567178,-0.21219395101070404,-0.552303671836853,0.11874611675739287,-1.776437032520771,0.15545659694820646,-9.258476001620293
42.91,11.100000381469727,54.0,23.14165306091309,19.076305389404297,-79.78185315594357,40.45937105645528,295.8548536376953,-0.15077176690101626,0.050569940358400345,-0.5609694123268127,0.812418520450592,-1.5532545181932755,8.613072449191932,1.9737278119548447,-0.09622606635093688,-0.05395857244729997,-0.03453139588236809,-1.8050255316495896,0.33117587920278313,-9.434604077339174
43.0,11.100000381469727,53.0,23.049001693725586,20.086181640625,-79.78184310938816,40.45937304406213,295.8296251373291,-0.1652323752641678,0.05893627554178237,-0.5568913817405701,0.8118478059768677,-1.3825575265633752,8.63559410674667,2.3343425446780515,-0.046869568526744836,-0.06879378855228424,-0.01354597695171833,-1.9230441243946552,0.4172315812110901,-9.49896496474743
43.2,11.300000190734865,42.0,22.71846008300781,23.720142364501953,-79.78182405941295,40.459379562133314,295.71771717834474,-0.19487223029136652,0.07619516551494597,-0.5543336868286133,0.8055640459060669,-1.2872445844500533,8.775385383922382,2.9648380166183217,-0.016596311703324318,-0.3862830400466919,-0.0601680651307106,-2.058476310074329,0.4806277145817876,-9.317942769527436
43.3,11.300000190734865,39.0,22.73348426818848,22.495569229125977,-79.7818143919915,40.459383743878405,295.6548128204346,-0.20684672892093656,0.08396455645561217,-0.5549211502075195,0.8013906478881836,-1.290452597558351,8.876587352964307,3.2945292747789248,-0.06354707479476929,-0.19329051673412329,0.14358298480510712,-1.883611525297165,0.6500188842415809,-9.52302099466324
43.5,11.300000190734865,38.0,22.392927169799805,27.751691818237305,-79.78179456899676,40.45939105279439,295.51198101806636,-0.2256526201963425,0.08659970760345459,-0.5538346171379089,0.7967738509178162,-1.3194892402974288,9.098156535087297,3.8105917141684715,-0.03514974191784859,-0.05641062930226326,-0.14457960426807406,-1.9481805735826487,1.0076179289817808,-9.36327564775944
43.7,11.300000190734865,38.0,22.362876892089844,26.996273040771484,-79.78177406419054,40.45939889549021,295.35284901428224,-0.238257497549057,0.08467254042625427,-0.551909327507019,0.7946446537971497,-1.3449491064958754,9.402676830012403,4.3361539956661215,-0.0010262958239763977,0.019002348184585568,-0.16295266151428225,-2.2411648155748845,0.9076866015046836,-9.872366402149199
43.8,11.5,35.0,22.15503692626953,29.98613929748535,-79.78176319739251,40.45940351352081,295.2772169189453,-0.2339691519737244,0.08981898427009583,-0.5530415773391724,0.7945665717124939,-1.35971791238883,9.600746077420297,4.543489410466412,0.13725236058235168,0.14982403814792633,-0.16358605027198792,-2.202126757353544,0.7240762824565172,-10.070657179355623
43.9,11.600000381469727,35.0,22.11622428894043,29.88276672363281,-79.78175207379081,40.45940826899853,295.2052927093506,-0.22153764963150024,0.09539850801229477,-0.5551810264587402,0.7959863543510437,-1.467099224423128,9.808352126228122,4.698059948849549,0.1951265037059784,0.23798520863056186,-0.0912889763712883,-2.321241410672665,0.6686782264709473,-10.454365503787995
44.11,11.899999618530273,36.0,22.097442626953125,31.63215637207031,-79.78173009994165,40.459416933422666,295.1108923034668,-0.1936376690864563,0.10272609442472458,-0.5562788248062134,0.8015645742416382,-1.5728907022453256,10.275818817635779,4.700442968415987,0.19033311307430267,-0.0010114916367456317,0.02841453440487385,-2.4329042261838922,0.2097589212656021,-10.957277505397796
44.3,12.0,36.0,22.52439308166504,25.54109764099121,-79.78170801896353,40.459426089063065,295.07464123535163,-0.16906915605068207,0.10740388184785844,-0.5567336082458496,0.8061810731887817,-1.5954750233744823,10.5551763370285,4.741662595484017,0.2830065488815308,0.2333492636680603,0.07962243258953093,-2.8195709493756294,0.0688721239194274,-11.195006582736974
44.4,12.300000190734865,36.0,22.63832855224609,22.821590423583984,-79.78169588370828,40.459431208959415,295.07188511657716,-0.15417960286140442,0.11065883934497832,-0.5587256550788879,0.8073468804359436,-1.6209169876470066,10.756034380991883,4.635364010015317,0.21799704432487488,0.1259477734565735,-0.11875122040510178,-3.057414047420025,0.3719782251119614,-10.524156700372695
44.6,12.5,36.0,22.75602149963379,21.58906555175781,-79.78167228313603,40.45944142223146,295.0361604766846,-0.12773852050304413,0.1153079867362976,-0.5621967315673828,0.8089015483856201,-1.6431405420292131,11.018448893229618,4.294976179637839,0.2835651636123657,0.06595072895288467,-0.02688187174499035,-2.8527436655759817,0.6027420991659165,-10.258915303945543
44.7,13.0,35.0,22.80109596252441,20.14979553222656,-79.78166030223281,40.45944697137093,294.9632501678467,-0.1230374202132225,0.11245075613260268,-0.5611225962638855,0.8107762336730957,-1.6290413788126534,11.139813060648322,4.103310873509908,0.11912012100219728,0.0689009353518486,-0.09970860183238983,-2.93633516818285,0.4513362704962493,-10.118679192066194
44.8,13.100000381469727,36.0,22.92379570007324,21.764005661010746,-79.78164776121878,40.45945196687438,294.9831247406006,-0.12097570300102235,0.10567545145750046,-0.5595840215682983,0.8130579590797424,-1.4975332127001328,11.208751803866944,4.00837345031569,-0.16847318410873413,-0.012204666621983051,0.0802270919084549,-3.0114581483602527,0.5655698143690825,-9.53139303803444
45.0,13.5,37.0,23.1103515625,17.430288314819336,-79.78162267262441,40.459462414469535,294.93442822265627,-0.12366294115781785,0.08760231733322144,-0.5574314594268799,0.8162741661071777,-1.1800970432814983,11.363212083076364,3.75462658823306,-0.42488276958465576,0.1091957688331604,0.15136787295341492,-2.6294984337687493,0.5495849154889584,-9.459988594651225
45.1,13.699999809265135,39.0,23.02396011352539,19.203533172607425,-79.78160996637452,40.45946720701435,294.9470338897705,-0.12950125336647034,0.0757279172539711,-0.5562106370925903,0.8173888325691223,-0.9979731529945836,11.393374044150946,3.6762997351283495,-0.07657764106988907,0.0020251350942999125,0.05765437334775925,-2.7547990027070046,0.7933123590052128,-8.954023177027704
45.3,13.800000190734865,38.0,23.02521324157715,19.65678596496582,-79.78158524630017,40.45947733447213,294.90733242797853,-0.10633695870637894,0.05053392052650452,-0.5581679940223694,0.8213326930999756,-0.8164962255975227,11.390240515221295,3.418099320343778,-0.11858611553907394,0.5081115365028381,0.15812936425209045,-3.2179832670092585,0.7006290938705206,-9.350873703360556
45.4,13.800000190734865,38.0,23.091571807861328,17.295108795166016,-79.78157262316292,40.45948198263049,294.91688824462886,-0.07410092651844025,0.01722903363406658,-0.5604662895202637,0.8246755599975586,-0.7812303078691581,11.462005691575987,2.912088333683444,-0.3148655593395233,1.0157939195632937,-0.0471782311797142,-2.9798013228178024,0.9768820399045944,-10.08146985054016
45.6,13.699999809265135,48.0,23.258094787597656,16.380653381347653,-79.78154736708399,40.459491746081866,294.95009327697755,-0.0017215332482010124,-0.034014180302619934,-0.5601583123207092,0.8276851177215576,-0.7627345953149208,11.538449651544644,0.9530630770860414,-0.14014403522014618,0.7951524257659912,-0.143403097987175,-1.9202181650698191,1.1576397947967052,-10.745134674310684
45.71,13.600000381469727,62.0,23.40583610534668,13.47030544281006,-79.78153450360368,40.45949666964975,294.946537979126,0.0229099690914154,-0.05368451774120332,-0.5607295632362366,0.8259392380714417,-0.8156932541316658,11.354587430435474,0.11410837970091968,-0.08828280121088028,0.3431350290775299,0.13006550073623654,-1.9097231438755995,0.6467481710761785,-10.956119756698609
45.9,13.300000190734865,61.0,23.632457733154297,12.476333618164062,-79.78151101016039,40.459505437442616,295.0496759490967,0.05583179369568825,-0.07424624264240265,-0.5642204284667969,0.8203814625740051,-0.937134371903644,10.708569324648613,-0.9497384211921556,0.044285230338573456,0.3330426812171936,0.008907654322683811,-1.7022994543612004,0.5840633514896035,-10.217307686805725
46.0,13.199999809265135,60.0,23.71759605407715,12.524044036865234,-79.7814990813375,40.45950990459403,295.0617189483643,0.06965945661067963,-0.08284445106983185,-0.566107451915741,0.8171945214271545,-1.037471254109284,10.371635021317546,-1.3152171528523282,-0.01322282198816538,0.4489609301090241,0.0583844855427742,-1.3788494646549223,0.1261289549432695,-9.843425023555756
46.2,12.699999809265135,81.0,23.644977569580078,12.468381881713867,-79.78147683233513,40.459518185327376,295.11504460144045,0.09020183980464937,-0.10094789415597916,-0.5697634220123291,0.8105818033218384,-1.2255048501995152,9.565490794487118,-1.8372020044515909,0.10601753741502762,0.09125712513923644,0.12315257638692854,-1.2285856702923776,0.3149206927791238,-10.258004307746887
46.4,12.399999618530273,86.0,23.688798904418945,11.999226570129395,-79.78145707266431,40.459525971031255,295.19341946411134,0.0957285687327385,-0.09703616797924043,-0.5771231651306152,0.8052011728286743,-1.3377066618207538,8.722307585682351,-1.9462130422028263,0.20955577492713928,0.2542896270751953,0.058463279157876975,-1.1162417272478342,0.6154187165200711,-10.3644095993042
46.51,11.800000190734865,86.0,23.72385597229004,11.426698684692385,-79.78144698734098,40.459529521639546,295.2148199157715,0.10144273936748503,-0.10973501205444336,-0.577899694442749,0.8023089766502379,-1.4129915132869897,8.346411170268588,-1.8684437975107109,0.12542064487934113,-0.03408224880695343,0.17294517159461975,-1.1536954092979432,0.7198716227710248,-10.521568722724917
46.6,11.600000381469727,86.0,23.633708953857425,12.484285354614258,-79.78143817497234,40.45953312017054,295.2507810668945,0.10950343310832976,-0.11536235362291335,-0.5778851509094238,0.8004681468009949,-1.4560091994976732,7.92901820282482,-1.9570608803517204,0.2312511950731277,-0.17937858402729034,0.06631147116422652,-0.8573981349170209,0.4850565784424544,-10.26842053771019
46.8,11.100000381469727,89.0,23.816509246826172,10.838268280029297,-79.78142054690692,40.45953946479247,295.31835079956056,0.11041074991226196,-0.11905161291360855,-0.5787157416343689,0.7992022633552551,-1.4486547645000083,7.144960775143862,-2.009169890318033,0.2605139911174774,-0.06126033887267113,-0.07162299007177353,-1.007343548387289,0.44406101860106,-10.0319486117363
47.01,10.800000190734863,88.0,23.874103546142567,10.552003860473633,-79.78140427445906,40.45954498655245,295.3775205688477,0.1085151880979538,-0.13549692928791046,-0.5753422975540161,0.7992787361145021,-1.4689849128378585,6.393936588953572,-1.9726309433773133,-0.15479616820812225,-0.15183432400226593,-0.06524410098791122,-0.832526052966714,0.5600694847851992,-9.428345802426339
