time,wind_speed,wind_angle,battery_voltage,battery_current,position_x,position_y,position_z,orientation_x,orientation_y,orientation_z,orientation_w,velocity_x,velocity_y,velocity_z,angular_x,angular_y,angular_z,linear_acceleration_x,linear_acceleration_y,linear_acceleration_z
0.0,0.8999999761581421,46.0,23.97927474975586,-0.11927660554647446,-79.7827743994343,40.45899084020799,270.3087902517318,0.002294118981808424,0.004940334241837263,-0.7680740356445312,0.6403379440307617,-0.04297034730570185,-0.009234769460269784,0.013087498997000869,-0.001657010056078434,-0.0008514494402334094,-0.0027585283387452364,-0.059169551194645474,-0.16795202370733026,-9.811830178499225
0.1,0.8999999761581421,45.0,23.968006134033203,-0.10337305814027786,-79.78277440113034,40.45899087928957,270.310169503212,0.002318517304956913,0.004946965258568525,-0.7680850625038147,0.6403245329856873,-0.048235166642871016,-0.010619771276599993,0.013480024960774876,0.0020706930663436647,0.0019613103941082954,0.0013039170298725367,-0.059950245846994224,-0.16023709774017333,-9.809840955734254
0.21,0.8999999761581421,48.0,23.976770401000977,-0.07951773703098297,-79.78277439381533,40.45899088910063,270.3240911216736,0.002322854939848185,0.004934143275022507,-0.7680761814117432,0.6403353810310364,-0.04519525736307604,-0.012552146093639072,0.014383431370835484,0.0012461432488635182,0.0015355071518570185,-0.0018646253738552328,-0.06030709502287208,-0.1573363671451807,-9.811255981922152
0.4,0.8999999761581421,50.0,23.97802352905273,-0.07156596332788467,-79.78277439877375,40.458990929913824,270.32560686779016,0.0023232896346598864,0.004954079631716013,-0.7680817246437073,0.6403284668922424,-0.051259546867811936,-0.013883336309513885,0.014822729615682494,0.001634572632610798,0.0029794599395245322,0.0036439422983676212,-0.0587615662906319,-0.17518347630277276,-9.811047821044925
0.5,0.8000000119209291,51.0,23.97426605224609,-0.09542128443717957,-79.7827744084074,40.45899096299031,270.3392639608383,0.002368609188124537,0.0049812765792012215,-0.7680789232254028,0.640331506729126,-0.05079220729902256,-0.01862800185981245,0.015150963459893812,0.004027179442346096,-0.00038928387220948935,0.006996425334364176,-0.0585930431401357,-0.1775455504283309,-9.810265463590623
0.7,0.8000000119209291,53.0,23.971763610839844,-0.08746951073408127,-79.78277441918122,40.45899101415912,270.34086875629424,0.002358659636229277,0.004959593061357737,-0.7680943608283997,0.6403132081031799,-0.058218222222513126,-0.019971300970338432,0.015673029755973983,-0.004754831548780203,-0.002321254462003708,-0.004984942264854908,-0.06017575650941581,-0.15035829998552802,-9.8103566801548
0.8,0.699999988079071,54.0,23.97426605224609,-0.08746951073408127,-79.78277435859512,40.45899099548548,270.3519181461334,0.0023502574767917395,0.00502557260915637,-0.7681180238723755,0.6402842998504639,-0.05138281398280707,-0.012370515995720262,0.012956904762863163,-0.004736240487545729,-0.004468878731131554,-0.007328219246119261,-0.060275880941189824,-0.15048071692697704,-9.810297038555143
1.0,0.6000000238418579,56.0,23.981779098510746,-0.07951773703098297,-79.78277427217793,40.458990967787145,270.3642909975052,0.0023272717371582985,0.005048658698797226,-0.7681205272674559,0.6402812600135803,-0.04405016395714213,-0.0043480257831616685,0.014331223253370853,0.0053662494756281385,0.003230561502277851,0.005584985483437777,-0.05893348813522607,-0.17190611192956567,-9.81079989910126
1.1,0.6000000238418579,64.0,23.97802352905273,-0.07951773703098297,-79.7827742634262,40.45899105570045,270.36737839889526,0.0023115710355341434,0.005042886361479759,-0.7681310772895813,0.6402686834335327,-0.05656249209270756,-0.006878393100007138,0.015393542032373324,0.004896665457636118,0.00012525227793958038,0.005225741304457189,-0.05936575268860906,-0.16662136187776924,-9.810618635416027
1.3,0.6000000238418579,62.0,23.968006134033203,-0.07951773703098297,-79.78277423702626,40.45899098092375,270.3788834066391,0.002343204105272889,0.005067913327366114,-0.7681322693824768,0.640267014503479,-0.04243535301673139,-0.0068432524276961434,0.015906227288757884,-0.0038377009332180015,-0.0007805319037288427,-0.004912213888019322,-0.05858824202790858,-0.16775369346141816,-9.811841872930527
1.4,0.6000000238418579,65.0,23.980527877807607,-0.07156596332788467,-79.78277419897758,40.45899095480996,270.39223437023156,0.002397745382040739,0.005114441271871328,-0.7681660652160645,0.6402258276939392,-0.035543862609433916,-0.005779761636733726,0.01595244427643009,0.0010318619897589087,0.003327611368149519,-0.0003879701253026724,-0.05953374593518675,-0.17494169393554332,-9.810713360309599
1.6,0.6000000238418579,66.0,23.97802352905273,-0.06361418962478638,-79.78277419800429,40.45899098556573,270.3939024658203,0.002413397189229727,0.005142841953784227,-0.768176794052124,0.6402126550674438,-0.04155296344793818,-0.006915247232606673,0.01649156163287289,-0.0024101824965327982,-0.002716074464842677,-0.0039179879240691644,-0.061064798240549875,-0.15291472094133496,-9.809918138980867
1.71,0.6000000238418579,68.0,23.97802352905273,-0.07156596332788467,-79.782774182732,40.45899092550749,270.40697245311736,0.0024449394550174475,0.005165144801139832,-0.7681992650032043,0.6401853561401367,-0.03075110632611875,-0.0085765526667698,0.016469089278922027,-0.0057108886539936074,-0.004034786950796843,-0.006878300104290247,-0.059839454814791686,-0.1527170485071838,-9.811196340322494
1.9,0.6000000238418579,66.0,23.981779098510746,-0.07156596332788467,-79.78277418637035,40.458990952833574,270.4086865634918,0.002468774328008294,0.0051850350573658935,-0.7682077884674072,0.6401748061180115,-0.03501928925473658,-0.009759525180361434,0.016997990511693095,0.006000679917633534,0.000652702001389116,0.005863906815648079,-0.05828260623849928,-0.17298578202724454,-9.810742596387863
2.01,0.6000000238418579,70.0,23.981779098510746,-0.06361418962478638,-79.78277413621902,40.458990958971256,270.42216722679143,0.0024842217098921533,0.005241231992840767,-0.7682135105133057,0.6401674151420593,-0.03853299035825273,-0.008882934603999845,0.0167580367591,0.0027903974987566467,0.0010734408861026168,0.002638948615640402,-0.06085362696088852,-0.16083656525239348,-9.810343816280367
2.2,0.6000000238418579,72.0,23.980527877807607,-0.07156596332788467,-79.78277413820526,40.45899099743744,270.4239148349762,0.002466083038598299,0.005212392657995224,-0.7682117819786072,0.6401698589324951,-0.04483012354595176,-0.010051697631675172,0.017267895373747642,0.0007359172450378537,0.0022134985774755482,0.0032168852631002665,-0.059309391011483976,-0.17545056615024807,-9.811245456933976
2.3,0.699999988079071,77.0,23.96925926208496,-0.07951773703098297,-79.78277414457969,40.45899100913067,270.4374740571976,0.002508324105292559,0.0052295951172709465,-0.7682046890258789,0.6401781439781189,-0.0447713536701061,-0.01471353797293934,0.01750225039751868,0.004911442752927543,0.004652075935155153,0.00620467122644186,-0.05862733157817274,-0.17418999781832098,-9.81104548215866
2.5,0.699999988079071,80.0,23.97301483154297,-0.06361418962478638,-79.78277409604321,40.45899096314759,270.4490892143249,0.002521361224353313,0.005241462029516697,-0.7681949138641357,0.6401897072792053,-0.03639404762773105,-0.010319907021786884,0.016290927145475916,-0.007445435505360366,-0.004872028715908527,-0.005722966510802507,-0.060168534284457564,-0.15948801459744574,-9.810926198959349
2.6,0.699999988079071,78.0,23.980527877807607,-0.06361418962478638,-79.78277410026166,40.458990995949506,270.45078246307366,0.0025474810972809787,0.0052663013339042655,-0.7682060599327087,0.640175998210907,-0.04067923804696494,-0.011478722990565276,0.016753212612502018,0.0028558296617120504,0.004414395894855261,0.002075071446597576,-0.05972146439831704,-0.16213197933509946,-9.810693479776383
2.8,0.699999988079071,79.0,23.97802352905273,-0.07156596332788467,-79.78277405861573,40.458990972566795,270.4643798322677,0.002542902249842882,0.00528688682243228,-0.7681960463523865,0.6401879191398621,-0.035179544013986326,-0.00873585011091888,0.01641911759256222,-0.0042944648303091535,0.0008531745406799017,-0.004393053241074085,-0.06149058517534287,-0.1516601460054517,-9.810367205142976
2.9,1.0,87.0,23.9830322265625,-0.05566241592168808,-79.78277406139749,40.45899098761645,270.476124212265,0.002579129533842206,0.005310666747391224,-0.7682120800018309,0.640168309211731,-0.03587969987668744,-0.014746067539271756,0.012902776080098249,-0.007672140840440989,-0.005782126449048519,-0.005924742203205824,-0.06072155297733844,-0.1559197877906263,-9.810784696340562
3.1,1.0,89.0,23.984283447265625,-0.06361418962478638,-79.78277407087653,40.45899102147125,270.4774840326309,0.002582980785518885,0.005326103884726764,-0.768219530582428,0.6401592493057251,-0.03996822243068457,-0.015827480844091864,0.013394747129748048,0.005436682607978582,0.0006065077031962576,0.003229989437386393,-0.058936886829324076,-0.16625750061124564,-9.810706343650818
3.21,1.100000023841858,89.0,23.976770401000977,-0.06361418962478638,-79.78277402074488,40.45899097090067,270.49138407421106,0.0026174469385296106,0.0053733685053884974,-0.7682276964187622,0.6401488780975342,-0.02920328671491218,-0.010307547344195459,0.014250031112760169,-0.005014535505324602,-0.002583442023023963,-0.0006469165673479438,-0.06098264029249549,-0.15548152070492507,-9.81113202095032
3.4,1.100000023841858,87.0,23.980527877807607,-0.07156596332788467,-79.78277402646012,40.45899099793179,270.492867395401,0.002633853117004037,0.0053849336691200725,-0.7682300806045532,0.6401458382606506,-0.033766400019971325,-0.011433387763424434,0.014664995424002241,0.0047672907821834105,0.001596117974258959,0.0021498859860002995,-0.059310825406573724,-0.17535081630572674,-9.811364740133287
3.5,1.2000000476837158,95.0,23.968006134033203,-0.07951773703098297,-79.78277400477262,40.45899100826379,270.50608484458917,0.002651579678058625,0.0053988597355782994,-0.7682347297668457,0.6401401162147522,-0.035042782567404535,-0.012983004610803015,0.01521983674043883,0.0049420874565839785,0.0008309925906360147,0.008677488192915916,-0.0580532309319824,-0.17190722655504942,-9.810252599716184
3.7,1.2000000476837158,95.0,23.976770401000977,-0.05566241592168808,-79.7827740122844,40.45899104444307,270.50768451404565,0.002633095253258944,0.005374666303396225,-0.7682327032089233,0.6401427388191223,-0.041783207580942575,-0.01419651594967222,0.015801517000555574,-0.0011595729738473892,-0.0008897934458218516,-0.0023788826074451212,-0.060797365782782435,-0.1687746355868876,-9.811141376495364
3.8,1.2000000476837158,94.0,23.976770401000977,-0.07951773703098297,-79.78277399612806,40.45899104671764,270.5208559484482,0.002677108161151409,0.005414247047156096,-0.7682396173477173,0.6401339769363403,-0.03904544772483847,-0.014964033714319515,0.01585590089619686,0.001040297676809132,0.002511640079319477,0.003418287727981806,-0.05932874620892108,-0.17680430620908738,-9.811806789636613
4.01,1.2000000476837158,93.0,23.980527877807607,-0.06361418962478638,-79.78277394549887,40.458991010512854,270.53211776924127,0.002691059606149793,0.005448490846902132,-0.7682483792304993,0.6401231288909912,-0.03188467899445147,-0.010313468291622243,0.015236149854755682,-0.006455869879573585,-0.003618495771661401,-0.00684937322512269,-0.059114249325357374,-0.15291074666194618,-9.810685293674467
4.1,1.2000000476837158,91.0,23.96925926208496,-0.07156596332788467,-79.78277395658225,40.458991076714135,270.5353674144745,0.0026901334058493376,0.005436560139060021,-0.7682589888572693,0.6401104927062988,-0.04244830723063093,-0.01272647310890157,0.016337014451493142,-0.005865937564522028,-0.0011078708339482546,-0.007577422074973583,-0.060923670209012924,-0.1588007109425962,-9.811503903865814
4.3,1.2999999523162842,88.0,23.96925926208496,-0.06361418962478638,-79.78277394145223,40.458991015566795,270.54660074424737,0.002723402110859752,0.005466344300657511,-0.7682687640190125,0.6400983333587646,-0.028274771542671037,-0.012169849620739371,0.015473408018740984,0.005867815110832453,0.0009005969041027129,0.0016782005550339818,-0.0584279643651098,-0.16633333168923856,-9.81050052165985
4.41,1.2000000476837158,80.0,23.971763610839844,-0.05566241592168808,-79.78277392725089,40.45899102455203,270.55744330596923,0.0027194221038371325,0.0055021485313773155,-0.7682726383209229,0.6400934457778931,-0.03052356528836508,-0.013655465225723484,0.01341334011566717,0.004766443744301796,0.0007177031948231161,0.002693442162126303,-0.060710096089169385,-0.16175722762942316,-9.810443218946457
4.6,1.100000023841858,72.0,23.9830322265625,-0.07156596332788467,-79.78277393619024,40.45899105372648,270.5588473529816,0.0027297323103994127,0.0055198073387146,-0.7682780027389526,0.6400867700576782,-0.03633729514551122,-0.014446368238277316,0.013849494225532357,-0.005084903910756111,0.0005498839309439063,-0.002743585500866175,-0.06059973903000355,-0.1664157591573894,-9.811056007146837
4.7,1.100000023841858,66.0,23.97551918029785,-0.06361418962478638,-79.78277390150903,40.45899102566932,270.568510219574,0.002739012474194169,0.005523697938770057,-0.768311619758606,0.6400464177131653,-0.029174553694402763,-0.010157466262555577,0.010524553797848274,-0.0056703537702560425,-0.0010816052090376618,-0.0019043325446546078,-0.06097276854794473,-0.16395720597356558,-9.811893328428267
4.9,1.100000023841858,65.0,23.97301483154297,-0.07951773703098297,-79.7827739070869,40.45899105315186,270.56962864112853,0.002743640448898077,0.005549829918891192,-0.7683129310607909,0.6400445699691772,-0.032791736187361614,-0.011308317939259769,0.011045652285220428,0.0075647206977009765,0.004193559754639864,0.008016371168196201,-0.060790741983801126,-0.1672136300057173,-9.811219729185103
5.01,1.100000023841858,57.0,23.980527877807607,-0.06361418962478638,-79.78277388131201,40.45899103770689,270.58180682373046,0.0027551623061299324,0.005614726338535547,-0.768329918384552,0.6400234699249268,-0.030234369588390406,-0.008528039904542055,0.012462657936331507,0.00899735651910305,0.004948332905769347,0.0073804245330393314,-0.05688256810884922,-0.1729037017375231,-9.811075887680056
5.2,1.2000000476837158,52.0,23.9830322265625,-0.04771064221858978,-79.7827738845421,40.458991068882405,270.58312718582147,0.002734126755967736,0.005609533749520779,-0.7683442831039429,0.640006422996521,-0.037119227678537065,-0.009390354928467569,0.013071464236358544,-0.005217676516622305,-0.004394843243062496,-0.00866442546248436,-0.059445288525894285,-0.15197056920267646,-9.810755460262301
5.3,1.399999976158142,43.0,23.964250564575195,-0.039758868515491486,-79.7827738879907,40.45899102903567,270.59542720031743,0.0027483217418193817,0.005639167968183756,-0.7683620452880859,0.6399847269058228,-0.030444891384037387,-0.010773581154830526,0.014069824971419786,-0.005410529207438231,-0.003982918336987495,-0.0055345813743770105,-0.0596791086299345,-0.14815509653650225,-9.811223237514495
5.5,1.5,44.0,23.97301483154297,-0.08746951073408127,-79.78277390796217,40.4589910068843,270.6038064212799,0.0027548619545996193,0.005620796233415604,-0.768360435962677,0.6399868726730347,-0.026463680263663792,-0.016051351266789048,0.01200032980105477,0.0016173846088349821,0.002152031753212213,0.008327004499733448,-0.05685997867025435,-0.17898603027686474,-9.812596163749696
5.6,1.600000023841858,51.0,23.97426605224609,0.015903547406196594,-79.78277393367237,40.45899106576083,270.6063870639801,0.0027634943835437298,0.005607193801552057,-0.7683741450309753,0.6399704813957214,-0.036624816949265435,-0.01792248121891444,0.012884716869980415,-0.0007128296419978143,0.0024518610443919893,0.002675429219380021,-0.060229011853225524,-0.17359553698450328,-9.810932046175004
5.8,1.600000023841858,53.0,23.97551918029785,0.007951773703098297,-79.78277389341048,40.458990992139256,270.6129082889557,0.002775971312075853,0.005669783800840378,-0.7683861255645752,0.6399554610252379,-0.023461125018340613,-0.010838324036865674,0.008916258654336177,0.004288939293473959,-0.002807301003485918,1.977863576030359e-06,-0.06026926171034575,-0.15814035929739476,-9.810399949550627
5.91,1.600000023841858,60.0,23.97301483154297,-0.03180709481239319,-79.78277390439581,40.45899096097233,270.6215955467224,0.002772466978058219,0.005694836378097534,-0.7684270739555359,0.6399060487747192,-0.018364352701750068,-0.011162272166021584,0.007233878712133324,0.00292745721526444,0.001534931594505906,0.0064132483676075935,-0.05899815468583256,-0.16652194093912842,-9.811123834848404
6.1,1.600000023841858,59.0,23.955486297607425,0.13518016040325165,-79.78277391324735,40.458990980077,270.62238256645196,0.0027822970878332853,0.005695384461432695,-0.7684344649314879,0.6398971080780029,-0.02457051553363917,-0.011837237835322957,0.007904043060752427,-0.008987224660813808,-0.00030933995731174946,-0.002310717012733221,-0.05985007573384792,-0.15843103900551794,-9.811825500726698
6.21,1.7000000476837158,63.0,23.96925926208496,0.0,-79.78277389709451,40.45899096800481,270.6299602241516,0.002777138957753777,0.00568999582901597,-0.7684463858604431,0.6398829817771912,-0.02746118585978293,-0.00903960247496122,0.006015586170912404,-0.003084822092205286,-0.004639255814254285,-0.00797630287706852,-0.060757362605072564,-0.15066980126313867,-9.811371756792068
6.4,1.7000000476837158,64.0,23.968006134033203,-0.02385532110929489,-79.78277390186602,40.4589909935464,270.63063518714904,0.002786877099424601,0.005714890547096729,-0.7684610486030579,0.639864981174469,-0.030696060457218795,-0.009878310782707973,0.006534133773197099,0.004924915730953217,0.002491466933861375,0.0063800266943871975,-0.05845080961938948,-0.1786219497397542,-9.811108632087707
6.5,1.7999999523162842,66.0,23.97551918029785,-0.015903547406196594,-79.78277392825402,40.458990996368996,270.63883249473565,0.0027759692166000605,0.005738987121731043,-0.7684831619262695,0.6398383378982544,-0.03295868735968666,-0.013679915372883544,0.006437252596189178,0.0072813727892935285,0.00398974074050784,0.007814477197825909,-0.058079337836243215,-0.18008269384503364,-9.810563671588898
6.7,1.8999999761581416,66.0,23.976770401000977,-0.03180709481239319,-79.78277393682829,40.45899103037571,270.63955180358886,0.002769384765997529,0.005733982659876347,-0.7685025930404663,0.639815092086792,-0.03907830070588138,-0.014364821760108644,0.006974966667829007,-0.0032650330103933807,-0.002823557006195188,-0.006577183958142996,-0.0600221894402057,-0.15123432252556088,-9.809978365302086
6.8,1.7999999523162842,73.0,23.97301483154297,-0.015903547406196594,-79.78277395393052,40.45899101982739,270.6471678466797,0.002797334687784314,0.00575621472671628,-0.768524706363678,0.6397881507873535,-0.03645175711234309,-0.014738058592075188,0.00617855934185844,-0.004845342133194208,-7.417183223878965e-05,-0.010103565640747549,-0.06364188544917852,-0.14881552127189934,-9.810485318899156
7.0,1.7999999523162842,75.0,23.968006134033203,-0.007951773703098297,-79.78277395866091,40.45899095094952,270.65313975524896,0.002821129746735096,0.005777182523161173,-0.7685273289680481,0.6397847533226013,-0.02280644843001035,-0.01285252291698236,0.0049464431021378225,0.004407628905028105,0.0019263346912339328,0.005300224758684635,-0.05863969752565025,-0.1770338459685445,-9.810350832939148
7.1,1.7999999523162842,74.0,23.96049499511719,-0.015903547406196594,-79.78277397848268,40.45899100307189,270.6543089599609,0.00281479605473578,0.0057870387099683285,-0.7685438990592957,0.6397647261619568,-0.03189693660117384,-0.014628268796979834,0.0059023781313112395,0.00629566004499793,0.0015103274490684267,0.006353559903800488,-0.059976147185079765,-0.17605175128206613,-9.811013907194136
7.3,1.8999999761581416,73.0,23.97426605224609,0.0,-79.78277398620455,40.45899094039128,270.65980570030206,0.002835883991792798,0.005798012483865023,-0.7685572504997253,0.6397485136985779,-0.02488896555849296,-0.013587572234672851,0.004783838055162595,-0.004273003898561001,-0.0013916873140260575,-0.003374072490260005,-0.06066643840167672,-0.14866019546985626,-9.810741426944734
7.4,2.0,73.0,23.96550178527832,0.04771064221858978,-79.78277399050347,40.458990891683825,270.66620056343083,0.002859933534637093,0.005870696157217026,-0.7685690522193909,0.6397335529327393,-0.018429786931470283,-0.009356400470370906,0.004706659144586184,-0.005694711580872536,-0.004166641738265753,-0.0039047976024448867,-0.061052528223954135,-0.14949484895914794,-9.810933215618132
7.6,2.0999999046325684,72.0,23.94922637939453,-0.07156596332788467,-79.78277399741758,40.45899090951528,270.6667281837464,0.002860808046534657,0.005882743746042253,-0.7685742378234863,0.6397271752357483,-0.021984789472290003,-0.010113142578020463,0.005179444517358871,0.0027834493666887283,0.0036581128370016813,0.006414091680198908,-0.060033166673965764,-0.17706295413896442,-9.811688675880433
7.7,2.0999999046325684,72.0,23.976770401000977,0.03180709481239319,-79.78277399610596,40.45899089098415,270.67443911743163,0.002826468320563436,0.005883445031940937,-0.7685805559158325,0.6397197246551514,-0.02358386388203402,-0.007955420964825792,0.008207311009138699,0.0013127546990290284,0.0009406752069480717,0.007225883658975363,-0.05781399301718921,-0.17728739585727454,-9.811353045701981
7.9,2.0999999046325684,71.0,23.966754913330078,0.015903547406196594,-79.78277400004191,40.45899091396133,270.67532674980157,0.0028282897546887398,0.005886860191822052,-0.7685974836349487,0.6396993398666382,-0.02843125198571632,-0.008597092895928688,0.008844153584513481,-0.0008524963050149381,-0.0009892693487927318,-0.005108886864036322,-0.06198156856466085,-0.15181759142316878,-9.811181137561796
8.0,2.0,67.0,23.971763610839844,0.007951773703098297,-79.78277403905014,40.45899086934915,270.68065612030034,0.0028612758032977572,0.0059161754325032226,-0.7686182856559753,0.6396740674972534,-0.02209558745312424,-0.013235384665663015,0.007137040285045742,-0.002426059450954199,-0.001935216248966753,-0.003430657088756561,-0.06236679957713932,-0.15064956441521646,-9.80938896596432
8.2,2.0999999046325684,66.0,23.968006134033203,0.015903547406196594,-79.78277404955375,40.458990892942545,270.6814274044037,0.002836163155734539,0.005924612749367952,-0.7686306834220886,0.63965904712677,-0.02618263119702124,-0.014009711214003772,0.007574689579873123,0.003663229988887906,-0.00016803453036118301,0.005261945072561503,-0.060340172904543576,-0.175691818613559,-9.810581213235855
8.3,2.0999999046325684,64.0,23.96049499511719,0.007951773703098297,-79.78277406321402,40.45899086100401,270.68661873054504,0.002852375153452158,0.00595237361267209,-0.7686570286750793,0.6396270990371704,-0.025581329625856082,-0.013475329655063336,0.006537208950560239,0.0026173647493124013,0.004471835214644671,0.003849068190902472,-0.057064028223976486,-0.17628065150231126,-9.811610323190688
8.5,2.0999999046325684,63.0,23.9830322265625,-0.04771064221858978,-79.78277403581444,40.45899083290498,270.6911734790802,0.002834506100043655,0.00597469974309206,-0.7686669826507568,0.6396150588989258,-0.02734117982049585,-0.007620209151267836,0.005492835200949982,-0.006731351837515831,-0.0021135127171874046,-0.009892488829791546,-0.05736068305559456,-0.15140466836281122,-9.81040228843689
8.61,2.0999999046325684,64.0,23.981779098510746,-0.06361418962478638,-79.78277403906208,40.45899085804668,270.6917900295257,0.002851160941645503,0.005981733091175556,-0.7686723470687866,0.6396085023880005,-0.03012715685783285,-0.00835410240822583,0.006001955644996568,0.0033998910803347826,0.0006472012028098106,0.007747303694486619,-0.05765600855927915,-0.17171322690322996,-9.811196340322494
8.8,2.0999999046325684,64.0,23.97051048278809,-0.07156596332788467,-79.78277403456781,40.45899080753542,270.6964010448456,0.002865766640752554,0.005992853548377752,-0.7686845660209656,0.6395936012268066,-0.022405407223899842,-0.0050120346945429686,0.005172487023687607,0.006883975584059954,0.0030739777721464643,0.007734349463135005,-0.05598211973905563,-0.17083941534161567,-9.811888650655748
8.9,2.200000047683716,64.0,23.97051048278809,-0.07156596332788467,-79.78277404521198,40.45899076895303,270.70099203300475,0.00288239773362875,0.006006304174661636,-0.7687082886695862,0.6395649313926697,-0.01971458993064084,-0.00786260540163708,0.004357022464547418,0.005831170827150346,0.004223388154059649,0.0071741947904229155,-0.06068453736137599,-0.16944511022418735,-9.811201018095018
9.1,2.200000047683716,64.0,23.97051048278809,-0.07951773703098297,-79.78277404970414,40.45899078875603,270.7014860363006,0.002874320140108466,0.00600513257086277,-0.7687079906463623,0.6395653486251831,-0.02564621895468008,-0.008201012511657653,0.004845812171818064,-0.0061465203762054435,-0.001297105336561799,-0.005837173666805029,-0.06099307391792536,-0.1581335801817477,-9.810878251791001
9.2,2.4000000953674316,62.0,23.971763610839844,-0.06361418962478638,-79.78277403589807,40.45899071900725,270.70556370925897,0.002883795415982604,0.0060069975443184384,-0.7687174081802368,0.639553964138031,-0.018348825179612383,-0.004828740550772068,0.00418535686510112,-0.007381276693195105,-0.001593735534697771,-0.0028130318969488144,-0.06192531195469201,-0.15391479581594467,-9.811095768213272
9.4,2.299999952316284,65.0,23.9830322265625,-0.05566241592168808,-79.78277403754034,40.45899073580811,270.70603458595275,0.002880672225728631,0.00600945670157671,-0.7687360048294067,0.6395316123962402,-0.021027551890642888,-0.005268371699000707,0.004656314095193045,0.004793960135430098,0.0024781543761491776,0.005535757169127464,-0.05885576128028334,-0.17430414643138648,-9.811188154220579
9.5,2.4000000953674316,64.0,23.97551918029785,-0.04771064221858978,-79.78277406757161,40.4589907256452,270.7104050369262,0.0028802093584090467,0.006006516981869936,-0.7687599658966064,0.639502763748169,-0.02570867148534704,-0.010347540920167469,0.004752041414546698,0.0059964554384350785,0.003597913077101112,0.0056533683091402045,-0.05838464471977205,-0.1783261537179351,-9.811458295583725
9.7,2.4000000953674316,66.0,23.97802352905273,-0.07156596332788467,-79.78277407368847,40.45899075275067,270.7109481544494,0.0028791944496333603,0.006008620839565992,-0.7687828540802002,0.6394752264022827,-0.03160890800874105,-0.010843138903733843,0.005273121993825817,-0.0032274017576128244,-0.0012301940005272627,-0.007575398311018944,-0.059869015230797226,-0.1492582834046334,-9.810313410758972
9.8,2.4000000953674316,69.0,23.97802352905273,-0.07156596332788467,-79.78277406819424,40.45899071742271,270.7150627822876,0.0028907761443406343,0.006063185166567564,-0.7687921524047852,0.6394634842872621,-0.02933110519613675,-0.007504501650983584,0.004814834445732007,-0.003199001774191857,-0.0013754739193245769,-0.003900729585438967,-0.06025013035163284,-0.15107116693630815,-9.811549512147904
10.0,2.4000000953674316,71.0,23.984283447265625,-0.06361418962478638,-79.78277408376026,40.458990640332814,270.71642319869994,0.002901532454416156,0.006063534412533046,-0.7687985897064209,0.6394556760787964,-0.017240231467363542,-0.008103586075055569,-3.42478008717266e-06,0.0035920136142522092,0.00302154989913106,0.00550682144239545,-0.058099026507698,-0.1791984486579895,-9.811267676353458
10.1,2.5,70.0,23.9830322265625,-0.07156596332788467,-79.78277409423579,40.458990680225185,270.7166005821228,0.002877955324947834,0.006063251290470362,-0.7688199877738953,0.6394301056861877,-0.02620189481979274,-0.008985772390934224,0.001105245136578772,-0.0033443691208958626,0.0004239389672875405,-0.001958341570571065,-0.061881530927494176,-0.17228848328813912,-9.811543664932252
10.3,2.5,68.0,23.976770401000977,-0.07951773703098297,-79.78277411030993,40.45899059282517,270.717826292038,0.002909546019509435,0.006080370396375656,-0.7688337564468384,0.6394132971763611,-0.015624614055895672,-0.008924809988346216,-0.0022588653384298307,0.00563933327794075,0.0020244885236024857,0.0012882017763331532,-0.059536897949874414,-0.16316494479775429,-9.810750782489775
10.41,2.5,66.0,23.9830322265625,-0.05566241592168808,-79.7827741271458,40.45899054454444,270.7210556716919,0.0029240027070045467,0.006105626001954079,-0.7688405513763428,0.639404833316803,-0.014282254688579176,-0.00938071809369444,-0.0005375202748274088,0.0028962581418454647,0.004602409899234772,0.003406011033803225,-0.05901748704258353,-0.1704873581416905,-9.810839660167693
10.6,2.4000000953674316,66.0,23.97802352905273,-0.07156596332788467,-79.78277413464002,40.45899055964468,270.7210580558777,0.0029390084091573954,0.006127374246716499,-0.7688468694686891,0.6393969655036926,-0.020154076782710854,-0.009516194532985077,-5.76509074292116e-07,-0.006018776912242174,-0.0052209380082786075,-0.006682667415589094,-0.059142402755096565,-0.1534846051968634,-9.810529757738117
10.71,2.4000000953674316,66.0,23.97551918029785,-0.06361418962478638,-79.7827741302413,40.4589905161581,270.7244064064026,0.002949949121102691,0.006165623664855957,-0.7688679099082947,0.6393712162971497,-0.01906004479900233,-0.006322784832961764,0.0011127903816280117,-0.005762010812759399,-0.002345142187550664,-0.00504771713167429,-0.06049934050999582,-0.14811630391515793,-9.810420999526976
10.9,2.299999952316284,66.0,23.97802352905273,-0.06361418962478638,-79.78277413349913,40.458990534104025,270.724567577362,0.0029386729001998893,0.0061638853512704355,-0.7688690423965454,0.6393699049949646,-0.022071349551301026,-0.006672482994910979,0.0014631075930737088,0.0006965756183490157,0.0018951803212985399,0.007278109434992075,-0.05962738818023354,-0.17994338393211365,-9.81052274107933
11.0,2.299999952316284,65.0,23.97051048278809,-0.07156596332788467,-79.78277415795884,40.45899049727606,270.72577612113946,0.0029773672576993704,0.006201479583978653,-0.7688804268836975,0.6393556594848633,-0.022244052528465303,-0.008515647167688056,-0.0011248444306332112,-0.0029997886158525944,-0.003923220559954643,0.00040523233474232256,-0.05923057693988085,-0.17210979603230955,-9.81158693432808
11.2,2.299999952316284,63.0,23.97802352905273,-0.06361418962478638,-79.78277416282134,40.45899051986007,270.725726530075,0.002985951490700245,0.006191855296492578,-0.7688965797424316,0.6393362879753113,-0.025256259807004112,-0.009037467061623995,-0.0005469909761670466,0.0043547460809350005,-0.00027241837233304983,0.005731260869652033,-0.060231848666444425,-0.16472962316125633,-9.811900345087052
11.3,2.299999952316284,62.0,23.97301483154297,-0.07951773703098297,-79.78277416006104,40.458990467479225,270.7288605422973,0.002987091429531575,0.006206742953509092,-0.768915593624115,0.639313280582428,-0.0232169602163592,-0.005904679463304779,0.001137522758868132,0.0063141025602817535,0.001333581400103867,0.009539221413433552,-0.057656131898984324,-0.17483869157731535,-9.811432567834855
11.5,2.200000047683716,63.0,23.98678779602051,-0.015903547406196594,-79.78277418988327,40.45899040973447,270.7315804214477,0.003005885751917959,0.006214575376361609,-0.7689117789268494,0.6393176317214966,-0.018917831654335242,-0.00948166722150125,0.0015707719382732895,-0.008419777266681194,-0.005277735646814108,-0.009115933440625671,-0.0602875342592597,-0.1516170776076615,-9.810539113283156
11.6,2.0999999046325684,67.0,23.97802352905273,-0.07156596332788467,-79.78277420332428,40.458990450230296,270.73207132530206,0.0029980882536619893,0.006222864147275686,-0.7689363360404968,0.6392881870269775,-0.026363308225530728,-0.010046096570649268,0.002717325284623073,-0.005393635481595993,-0.0028470219112932678,-0.001660501235164702,-0.0601894654892385,-0.1491415309533477,-9.81090047121048
11.8,2.200000047683716,66.0,23.966754913330078,-0.08746951073408127,-79.78277419831,40.458990364228704,270.73428694915765,0.0029923308175057173,0.006262026261538267,-0.7689284086227417,0.6392972469329834,-0.015702983398125682,-0.005439228993912343,0.00254063335363956,-0.00026423853705637157,0.0008924926514737307,0.00020085059804841881,-0.05862427549436688,-0.17679769154638053,-9.812195044755935
11.9,2.200000047683716,67.0,23.976770401000977,-0.07156596332788467,-79.78277421587775,40.45899030399253,270.73630659294133,0.0030314098112285137,0.006295373197644949,-0.7689393162727356,0.6392837166786194,-0.011510586236072371,-0.0066855965780308856,0.002537366877869992,-0.0046271649189293385,-0.0014832840533927085,-0.002122121397405863,-0.0603261944046244,-0.16346145344898105,-9.811509751081466
12.11,2.299999952316284,66.0,23.981779098510746,-0.07951773703098297,-79.78277422130525,40.4589903152004,270.73660628509515,0.003043734468519688,0.006304978858679533,-0.7689505219459534,0.6392701268196106,-0.013514693420421395,-0.007078834406099047,0.002986980705718653,0.008605759590864182,0.003989675547927618,0.0051123439334332926,-0.05835031973663717,-0.17225482525303962,-9.810437371730805
12.2,2.299999952316284,63.0,23.97301483154297,-0.07156596332788467,-79.782774240549,40.4589902866804,270.7383186073303,0.003058583475649357,0.006308805197477341,-0.7689693570137024,0.6392471790313721,-0.018469731030750145,-0.009329268889582113,0.002922111313065057,0.005946141667664051,0.004420014098286629,0.007373835425823927,-0.058848493373952815,-0.18013241345062853,-9.811346029043198
12.4,2.299999952316284,63.0,23.97927474975586,-0.07951773703098297,-79.78277424713879,40.458990305434696,270.73866359901433,0.0030817356891930103,0.0063268830999732035,-0.768990695476532,0.6392212510108948,-0.02298059851493621,-0.009521447490078248,0.003399670952223272,-0.002349917078390717,-0.001764950808137655,-0.00031159413629211485,-0.0607867768406868,-0.15312755959108473,-9.810951926708222
12.5,2.4000000953674316,63.0,23.976770401000977,-0.07951773703098297,-79.78277425826715,40.45899027565061,270.7383426876068,0.0030934831593185663,0.006318716797977686,-0.7689979076385498,0.6392126083374023,-0.022870927396782075,-0.01017312983338887,0.001045212696488909,0.005714562721550465,0.0019086099928244948,0.00671641668304801,-0.0592710095224902,-0.16723478961735966,-9.810446727275847
12.7,2.4000000953674316,62.0,23.96299934387207,-0.12722837924957275,-79.78277426466266,40.45899029996261,270.7385040969848,0.0030868719331920147,0.006312098819762468,-0.7690033912658691,0.6392061710357666,-0.028334573021924426,-0.010329814216545708,0.0014399391840298386,-0.009235567413270472,-0.0038556144572794437,-0.0099082812666893,-0.06014410845469684,-0.15268088713288308,-9.809637472629547
12.8,2.5,65.0,23.968006134033203,-0.14313192665576935,-79.78277425226729,40.45899027011828,270.7394062728882,0.0031149135902523994,0.006329011637717485,-0.7690142989158629,0.6391927003860474,-0.02877390461596425,-0.007388551555065939,0.001948076391229356,-0.003485931782051921,-0.002686352003365755,-0.007056747563183308,-0.061586561738513415,-0.1468506740871817,-9.80998772084713
13.0,2.5,64.0,23.95673751831055,-0.14313192665576935,-79.7827742341753,40.45899020047886,270.73757831764215,0.0031359572894871235,0.006355174351483584,-0.7690197825431824,0.6391857862472534,-0.020209067061161184,-0.004528128230935987,-0.002271574957471409,0.0001791258400771767,0.0020481664687395096,0.004899058490991592,-0.059959587687626485,-0.17502578420564532,-9.811455956697463
13.1,2.5,62.0,23.97301483154297,-0.07951773703098297,-79.78277423500064,40.45899021969665,270.73740641784667,0.0031504028011113405,0.0063778748735785476,-0.7690366506576538,0.6391651630401611,-0.023532135138854358,-0.004871210529011464,-0.0017895838654305297,0.003234337782487273,-1.3788616342935711e-05,-0.002234269632026553,-0.06061816232744605,-0.15612243035808207,-9.809934511184693
13.3,2.5,58.0,23.96925926208496,-0.12722837924957275,-79.78277426119014,40.458990155099904,270.7374974937439,0.00318632135167718,0.006386344321072103,-0.7690410614013672,0.6391595602035522,-0.01578552107749905,-0.009810549077094066,-0.0002610247015424346,0.0051917205564677715,0.0018700973596423864,0.002483738586306572,-0.05777389847673476,-0.16687332205474378,-9.811215051412583
13.4,2.299999952316284,57.0,23.97551918029785,-0.10337305814027786,-79.78277425051608,40.45899010379489,270.7371849269867,0.003213175572454929,0.006425075698643923,-0.7690607905387878,0.6391353011131287,-0.013024673867304307,-0.006665479294500678,0.0006742447790016479,0.00836542621254921,0.002048332244157791,0.007796247489750384,-0.0590015762206167,-0.17475284714251754,-9.810425677299499
13.6,2.200000047683716,56.0,23.97301483154297,-0.06361418962478638,-79.78277425526021,40.45899011718002,270.73729746055596,0.0032207351177930828,0.006443536374717951,-0.769058883190155,0.6391374468803406,-0.017778637090248153,-0.006952317260285369,0.0010477522489709447,-0.005669948644936085,-0.005581108387559652,-0.009112699888646604,-0.060324527034536016,-0.15060824104584755,-9.809290732741356
13.71,1.8999999761581416,54.0,23.97551918029785,-0.08746951073408127,-79.78277427847434,40.45899006675409,270.73697225761407,0.0032487257849425077,0.00644498597830534,-0.7690832614898682,0.6391079425811768,-0.014163596416349143,-0.01089958933106489,0.0016409889954418298,-0.005923044867813586,-0.002540443791076541,-0.004472007043659687,-0.061394065003842126,-0.15044544177129865,-9.810368374586108
13.9,1.7999999523162842,54.0,23.97426605224609,-0.07951773703098297,-79.78277428822359,40.458990080767386,270.73717944335937,0.0032542103435844183,0.0064432527869939795,-0.7690979838371277,0.6390902400016785,-0.01591541370625301,-0.011302556802621063,0.0019991838626007108,0.0063110277988016605,0.0034940359182655807,0.007297215051949023,-0.058964830124750726,-0.17754127465188504,-9.81106653213501
14.1,1.600000023841858,52.0,23.976770401000977,-0.09542128443717957,-79.78277427027987,40.458990031813286,270.73700730514526,0.0032356532756239176,0.006478272378444672,-0.7691118121147156,0.6390733122825623,-0.01528987943135188,-0.006911895158290926,0.002076837018679822,0.00491657480597496,0.0034409023355692625,0.0039375764317810535,-0.059473199844360364,-0.1772026295028627,-9.810280666351321
14.2,1.5,47.0,23.976770401000977,-0.11132483184337616,-79.78277425430414,40.45899000563159,270.73654548835754,0.0032332651317119607,0.00650335382670164,-0.7691354751586914,0.6390446424484253,-0.018866441531064287,-0.005149824080205037,0.0021104766412601765,0.008491432294249535,0.0021444892045110464,0.006120541132986546,-0.05963607677724213,-0.17559835452586414,-9.810813932418824
14.4,1.5,42.0,23.96925926208496,-0.07156596332788467,-79.7827742559232,40.4589900241501,270.736821100235,0.00325661594979465,0.006526629440486431,-0.7691367268562317,0.6390426158905029,-0.023402404042273155,-0.005336065602367254,0.002772722656235148,-0.006614138837903738,-0.0026930447202175856,-0.003499041544273496,-0.061215702085755774,-0.15509448984637858,-9.811209204196931
14.51,1.399999976158142,42.0,23.968006134033203,-0.06361418962478638,-79.78277424123769,40.458989970543826,270.7364811153412,0.003277364419773221,0.006562207359820604,-0.7691492438316345,0.6390272378921509,-0.019437848099163543,-0.003159383129776974,0.0029950371789068037,-0.003217685036361217,-0.0042490209452807895,-0.008255502209067345,-0.059870399376377476,-0.16107836589217187,-9.810895793437956
14.7,1.2999999523162842,44.0,23.981779098510746,-0.05566241592168808,-79.78277424077001,40.458989988947074,270.73683325958245,0.0032640257850289345,0.006559779401868582,-0.7691507339477539,0.6390253901481628,-0.02114702112654801,-0.003459855428703311,0.0034683538832258843,0.002887625945731997,0.004331505857408047,0.002073024632409215,-0.0594865159643814,-0.16481199581176045,-9.810529757738117
14.8,1.2999999523162842,46.0,23.94046211242676,0.4771064221858978,-79.78277426408607,40.458989950237466,270.7361101360321,0.0033039117697626352,0.006558850407600403,-0.7692443728446959,0.638912558555603,-0.02039343284312756,-0.007876183623454467,0.003362054066207825,-0.00047262015868909657,-0.0027788954321295023,-0.0054197758436203,-0.0550400373665616,-0.15894701924175025,-9.81161383152008
15.01,1.2999999523162842,51.0,23.955486297607425,0.21469789743423465,-79.7827742596582,40.45898987124594,270.73473851394647,0.00332545954734087,0.006586340721696615,-0.7691067457199097,0.6390777826309204,-0.011366987817557305,-0.007921905660778734,0.002650787749880494,-0.004406332969665527,0.0013009689282625914,0.004473836161196232,-0.05787804743740708,-0.16437389317899942,-9.813234679698942
15.1,1.5,55.0,23.950477600097656,0.20674611628055573,-79.78277427378647,40.458989897480784,270.73538725090026,0.0033151616808027033,0.006582465954124928,-0.7691486477851868,0.63902747631073,-0.0160763398535086,-0.008542339446000096,0.003571641738144367,0.010443148203194141,0.009344869293272495,0.010020182467997074,-0.05885916454251856,-0.17246748117730026,-9.811267676353458
15.31,1.7000000476837158,56.0,23.96299934387207,0.22264966368675232,-79.78277429227481,40.458989844499285,270.73586861801147,0.003329650266095996,0.006586375646293163,-0.7692562937736511,0.6388977766036987,-0.016855628691993856,-0.013039395194857705,0.006288185640763864,-0.009480933658778671,-0.004504031501710415,-0.009843702428042887,-0.05414950185455382,-0.1623916688002646,-9.809780144691468
15.4,2.0,59.0,23.95298194885254,0.2306014448404312,-79.78277431577355,40.45898978788336,270.73474375915526,0.003364350413903594,0.006601901724934578,-0.7692644000053406,0.6388876438140869,-0.01238541974507312,-0.015229638702315394,0.005176550132910804,-0.007972859777510166,0.0015289396978914738,-0.00520261749625206,-0.06240872137248516,-0.16119890989735725,-9.810493505001068
15.6,2.0,66.0,23.955486297607425,0.278312087059021,-79.78277433031012,40.45898980136497,270.7353104801178,0.0033480953425168987,0.0066197244450449935,-0.7692132592201233,0.6389491558074951,-0.014336879253365088,-0.015177326340826754,0.005608471640978992,0.00484355678781867,0.0030160106252878904,0.008022082038223743,-0.058715857509523635,-0.16875842783600092,-9.81106302380562
15.7,2.200000047683716,68.0,23.95173072814941,0.326022744178772,-79.78277432910389,40.458989753321774,270.7335898132324,0.003366903867572546,0.006648765876889229,-0.7692347764968872,0.638922929763794,-0.013750821459664456,-0.013418580836034054,0.004566077794314282,0.0004472753789741546,0.0026917110662907358,0.007254578173160553,-0.0682210958423093,-0.15099849700927734,-9.812071083784103
15.9,2.200000047683716,70.0,23.950477600097656,0.8667433857917786,-79.78277434163908,40.45898976765229,270.73408500862115,0.003372832667082548,0.006642079446464777,-0.7692803144454956,0.638867974281311,-0.01671031712713219,-0.013167304189763907,0.005007005435080442,-0.00024035877140704545,-3.7801870348630466e-05,8.926888403948396e-05,-0.0621094535663724,-0.17377168435603382,-9.809020006656647
16.0,2.0999999046325684,75.0,23.60115623474121,4.405282974243164,-79.78277431865719,40.458989703676046,270.72982661437993,0.0042580110020935535,0.007406993303447963,-0.7693067193031311,0.6388224959373474,-0.005725765097041615,-0.010390153028659664,0.005526937194442142,0.0003656857006717473,0.03599157184362412,0.014688967727124691,-0.0787905365601182,-0.1284482073504478,-9.80332423388958
16.2,2.0999999046325684,81.0,23.941713333129893,0.1908425688743592,-79.78277432518865,40.45898971939397,270.72997324180596,0.004489202983677386,0.007478999905288219,-0.7693138718605042,0.6388115286827087,-0.01839580386935493,-0.0045703503212632356,5.755868671894077e-05,-0.0004569770826492458,-0.021838439628481858,-0.0015327620785683393,-0.04448550248052925,-0.3366223778575659,-9.78249879062176
16.3,2.200000047683716,78.0,23.94546890258789,0.18289080262184146,-79.78277432415636,40.45898962824986,270.7262694091797,0.0042943526059389114,0.007335646077990531,-0.7693547010421753,0.6387653350830078,-0.011261676475330013,-0.00757094712972141,-0.0005602373160767132,0.000326008623233065,0.0011785933747887616,0.0030578789301216602,-0.04431608397513628,-0.2440852200239897,-9.793880395889284
16.5,2.200000047683716,78.0,23.927940368652344,0.556624174118042,-79.78277431624859,40.45898956749088,270.72362439346307,0.004634325858205557,0.007721184752881527,-0.7693104743957521,0.6388116478919983,-0.011915059848102946,-0.007767506086630952,0.00012847288618354687,-0.015662916004657745,-0.02335374429821968,-0.015058942139148712,-0.11264352148398755,-0.2019024195894599,-9.782507561445236
16.6,2.5,75.0,23.950477600097656,0.18289080262184146,-79.78277432839414,40.45898959210842,270.7236344070434,0.00462001608684659,0.007555428892374039,-0.7693212628364563,0.638800859451294,-0.01879094436197629,-0.008027317054091796,0.001028372786389103,-0.02154768817126751,0.014314909465610981,0.0010941186919808388,-0.0010259830649010837,-0.24542750319465997,-9.810458421707152
16.8,2.4000000953674316,71.0,23.93294906616211,0.9860199689865112,-79.78277431235902,40.45898951310669,270.7193671913147,0.0044233105145394785,0.007407682016491891,-0.769338846206665,0.6387826204299927,-0.0074074552013997895,-0.008905754102329265,0.00030990759974580857,0.008459310047328472,0.002350604860112071,0.01571274921298027,-0.02553725526435301,-0.24010085418820384,-9.815360727310182
16.9,2.299999952316284,68.0,23.768930435180664,3.172757863998413,-79.78277431487231,40.45898945652027,270.7180587501526,0.004273597616702318,0.0072783874347805986,-0.7693849802017212,0.6387296319007874,-0.012890944893839408,-0.008817685660828248,0.0052673683565873965,-0.023415423929691315,0.0067750229500234144,0.007262335158884525,-0.04427703096996993,-0.1805264792405069,-9.809146891236306
17.1,2.299999952316284,66.0,23.65249061584473,5.12094259262085,-79.78277432208297,40.45898946559301,270.71865312767034,0.004297670442610979,0.007406699936836958,-0.7694339156150818,0.6386690735816956,-0.011669115215993424,-0.0104437654009487,0.005811039316546057,0.0011130673810839653,-0.0009652359876781703,-0.0016786700580269098,-0.08802614059299231,-0.15293128500692546,-9.80383469581604
17.21,2.299999952316284,60.0,23.56860160827637,6.6953935623168945,-79.78277432852977,40.45898938141447,270.7174231262207,0.00492794718593359,0.007860955782234669,-0.7694564461708069,0.6386319994926453,-0.0007247056826581345,-0.005299748060444037,0.009585641817067008,0.016728570684790608,-0.0435253381729126,0.02572238817811013,-0.05522371759638192,-0.20015702571719887,-9.798243003487588
17.4,2.299999952316284,63.0,23.434633255004893,8.564060211181639,-79.78277433777937,40.458989386373936,270.718475982666,0.005460541695356369,0.008181661367416382,-0.7694857716560364,0.6385883092880249,-0.003946760174234495,-0.008423163105520461,0.010474845368632135,0.0008843421819619834,-0.04717940092086792,0.014934527687728403,-0.06912852889392525,-0.1281326130218804,-9.840119007825852
17.5,2.5,59.0,23.344486236572266,10.011282920837402,-79.78277435911902,40.458989317828795,270.71684281539916,0.006775631103664637,0.009283245541155338,-0.7695526480674744,0.638480007648468,0.009797989439684835,-0.013303429529809695,0.014170522016138238,0.024180972948670387,0.10834119468927383,-0.05569736286997795,-0.105486401617527,-0.1699209273979068,-9.777630398869515
17.71,2.5999999046325684,62.0,23.19423866271973,13.279462814331055,-79.78277437018376,40.458989320365966,270.71828643989556,0.007836617529392242,0.010152413509786127,-0.7696037888526917,0.6383929848670961,0.017241798203236108,-0.0037082834510759797,0.014299750720970075,0.0633753314614296,-0.15212257206439972,0.07806095480918884,-0.009921340816654266,-0.4443609442189336,-9.865318168401721
17.8,2.700000047683716,57.0,23.08405876159668,14.933431625366213,-79.78277437578201,40.45898926944911,270.71532599639886,0.010307813063263891,0.010886382311582564,-0.7698200941085815,0.6380848288536072,-0.006299069078609231,-0.024331446770503667,0.019080248839534297,-0.021127939224243164,0.11486319452524185,-0.06714795529842378,-0.02527230102103204,-0.3139242175966501,-9.929745129346848
18.0,2.700000047683716,58.0,22.862445831298828,17.899442672729492,-79.78277434687368,40.45898918477386,270.7073191852569,0.0123708788305521,0.010251915082335472,-0.7699261903762817,0.6379307508468628,-0.0007137289240376432,-0.017930989832893398,0.020776329616801682,-0.006743446458131075,0.13507618010044098,-0.03716309368610382,0.08699226150289179,-0.3394098551943898,-9.923117895126344
18.1,2.799999952316284,60.0,22.76603889465332,19.61702537536621,-79.78277440781537,40.45898918228822,270.7117966861725,0.017516212537884712,0.00781711470335722,-0.7700893878936768,0.6376476883888245,0.029537300185432026,-0.0352248643757276,0.037534562197797584,0.10216134786605836,0.039684467017650604,-0.0024650918785482645,-0.14860653812997046,-0.2626106610149145,-9.89064596772194
18.3,2.700000047683716,62.0,22.535659790039066,23.903032302856445,-79.7827744703863,40.45898907408064,270.7110199184417,0.01845576800405979,0.005269082728773356,-0.7718493342399597,0.6355158090591431,0.05191857374652222,-0.040099763676688736,0.0894661826662763,-0.04685293510556221,0.07232877612113953,0.07110609114170073,-0.015018226224929097,-0.1950060489960015,-10.34088858962059
18.4,2.5999999046325684,68.0,22.88498306274414,17.120168685913086,-79.78277450126824,40.45898881081073,270.72994463157653,0.014293710701167585,-0.001954994862899184,-0.7766493558883667,0.6297678947448729,0.10337830182593163,-0.07361371673363956,0.30203473723915153,-0.13140869140625,0.004911883734166622,0.14231304824352264,-0.03177184210158885,-0.15769284630194308,-10.905679335594176
18.6,2.700000047683716,74.0,22.80610275268555,18.77413749694824,-79.78277461277409,40.45898872291424,270.760270521164,0.005563011858612299,-0.003873456036671996,-0.7775924801826477,0.6287322044372559,0.11318058903991228,-0.08724711266375934,0.3077837511836996,-0.13933193683624268,0.0544881783425808,0.031028697267174717,-0.06203727699816228,0.12169773392379285,-10.062772793769836
18.7,2.799999952316284,78.0,22.8962516784668,17.382577896118164,-79.78277482159642,40.45898836472881,270.79493181419366,-0.006514311768114567,-0.004998239688575268,-0.77625572681427,0.6303648352622986,0.10366066667754137,-0.08262629430090929,0.17905862754093366,-0.12951697409152985,-0.0003736385551746935,-0.007614696864038706,-0.05636181416921316,0.13542920725420118,-9.565039671063424
18.9,2.9000000953674316,78.0,22.74850845336914,19.442087173461914,-79.78277492763192,40.45898829258814,270.81010358047484,-0.010773084126412868,-0.006520314607769251,-0.7747240662574768,0.6321741938591003,0.08043932914321203,-0.06665335072482895,0.12565568754148,-0.1843358278274536,0.02925933711230755,-0.11877841502428055,0.1486704646423459,-0.05277895105071366,-9.336338694691658
19.01,2.9000000953674316,78.0,22.70719146728516,20.165699005126953,-79.78277528958775,40.458987920131996,270.8034559936524,-0.012299110181629658,-0.005038467701524496,-0.7720288038253784,0.635448694229126,0.10316500339501156,-0.07815966710786547,0.04869971566006739,0.17846442759037018,-0.017043618485331542,-0.06314785778522491,-0.13886578948237002,0.2746839553490281,-9.50440462946892
19.2,3.0,76.0,22.571969985961914,22.0105094909668,-79.78277539665626,40.45898784653287,270.80776040267943,-0.004347513429820538,-0.0005225369823165238,-0.7712065577507019,0.6365700960159302,0.10133037694896532,-0.07724904626297954,0.031319267460825036,0.20615515112876887,0.09037666022777556,0.05114913731813432,-0.07763903707265854,0.1125578689109534,-9.649319098591805
19.31,3.0999999046325684,73.0,22.6859073638916,20.30883026123047,-79.78277530573988,40.45898725849704,270.85085980606084,-0.002538974862545729,-0.0015494389226660132,-0.7717518806457521,0.6359168887138367,0.10383266490090608,-0.02474732912767319,0.058381458172917934,-0.1314876228570938,0.1629842221736908,-0.05380527302622795,0.1616266337223351,0.11231724685057998,-9.790610048174859
19.5,3.0999999046325684,76.0,22.53315734863281,22.082077026367188,-79.78277545780946,40.458987198758585,270.8608350009918,-0.004841065965592861,-0.006131618283689022,-0.7716231942176819,0.6360319256782532,0.09907239633829852,-0.020339422906307032,0.10338732245084314,-0.15710212290287018,0.11132188886404036,-0.04756998643279076,0.0556834823358804,0.2264068761281669,-10.066320884227752
19.6,3.0999999046325684,78.0,22.77980995178223,18.615102767944336,-79.78277552756892,40.458987009170436,270.8907126636505,-0.009380967356264593,-0.005244802683591843,-0.7721316814422607,0.6353716850280762,0.10539690398571484,-0.008324378179503586,0.17357379917788116,0.01769216172397137,-0.05729318782687187,0.025939805433154103,-0.08519214134663344,0.09084826268255712,-10.043412662744524
19.8,3.0,78.0,22.674638748168945,19.76015853881836,-79.78277558336524,40.45898688579646,270.8945597858429,-0.010094975121319294,-0.0029561060946434736,-0.7728613615036011,0.6344878077507019,0.09195201300812,-0.01589234572865926,0.1583263391249405,-0.057032667100429535,-0.013308878056704998,0.054291732609272,-0.12802507907152175,0.07697315798141062,-9.812924777269364
19.9,3.0999999046325684,78.0,22.5932559967041,21.000635147094727,-79.78277558849443,40.45898659437943,270.91217152786254,-0.01019530650228262,-0.006499066948890686,-0.7758691310882568,0.6307781338691711,0.08163051629094834,0.005894447366235471,0.11399275173645873,-0.1564917415380478,-0.05254907160997392,0.05247252807021141,0.16254941571503878,-0.0408769618626684,-9.698059149384498
20.1,3.0999999046325684,78.0,22.68966293334961,19.728351593017575,-79.78277560343997,40.45898652502785,270.92443458747863,-0.014264937490224838,-0.007869266904890537,-0.7771461009979248,0.6291093826293945,0.08810682027312294,0.011152548661213868,0.1280291547829978,0.04335188865661621,-0.0769353061914444,0.04945908859372139,0.004794666585512459,0.0016839798353612426,-9.81284291625023
20.2,3.0,78.0,22.54818153381348,21.45388603210449,-79.78277549542909,40.45898636019321,270.94952051353454,-0.01563831977546215,-0.003891138127073645,-0.7753398418426514,0.6313387155532837,0.03919347395293296,0.02399355934336676,0.14601289188472294,0.0726224035024643,-0.08273449540138245,-0.12247221171855928,-0.009044281309470536,0.2606257871165872,-9.922072412967683
20.4,3.0999999046325684,78.0,22.712200164794922,19.306907653808594,-79.78277547976116,40.45898633584121,270.9658714981079,-0.016095509752631187,-0.0019857713486999273,-0.7734197378158569,0.6336867809295654,0.016018914798655828,0.028585477767574988,0.16270620726658067,0.011356323957443236,0.017005730420351032,-0.09801161289215088,0.0414836378954351,0.1493833681382239,-9.793713750243187
20.5,3.0,76.0,22.260210037231445,25.898927688598643,-79.78277529373663,40.45898626863657,270.97142283630365,-0.015119071118533613,0.0015827467432245614,-0.7718733549118042,0.6355946660041809,0.028770978602965607,0.03475343883756719,0.03206870612620424,0.21341167390346527,-0.07013670355081557,-0.0199233740568161,-0.2637455142103136,0.1731274673715234,-8.842824338078497
20.6,3.0999999046325684,76.0,22.339088439941406,24.75387191772461,-79.78277523085544,40.45898622245503,270.97604934883117,0.0002596440317574888,0.00019518460612744093,-0.7699909210205078,0.6380547881126404,0.01648633391462857,0.0341085695309826,0.07686726964380257,0.01829535141587257,0.14635613560676575,-0.030417654663324363,0.00048815114423632637,0.08725041607394815,-10.226430512666704
20.81,3.0,77.0,22.068645477294922,29.222768783569336,-79.78277526351175,40.458985990362585,271.03548185539245,-0.0040475791320204735,-0.006582969333976507,-0.7699927091598511,0.6380059719085693,0.019884448911529885,0.03776807507613103,0.4227035061492984,-0.04360717907547952,-0.10893090069293976,0.0166480652987957,0.057337609394453475,0.21095992108806969,-11.403763875961303
20.9,3.0,79.0,22.223899841308594,27.05988693237305,-79.78277531759764,40.458985876326096,271.05840747070306,-0.007232029922306538,-0.004202487878501415,-0.7709305882453918,0.6368643045425415,0.023735607716441884,0.02465689726804972,0.5766075338061275,-0.004562532994896174,-0.05126133933663368,-0.012725754640996456,-0.08218661768361926,0.27305203400552275,-11.649418269395829
21.11,3.0999999046325684,79.0,21.859554290771484,31.55263900756836,-79.7827753000724,40.45898586159663,271.12586204719537,-0.009078098461031914,-0.0018849539337679746,-0.7726731896400452,0.6347364187240601,0.028919120449238625,0.01081382780514438,0.7827366555788269,-0.01191713847219944,-0.03387068584561348,0.12404056638479233,-0.10371052913367748,0.06282580143772068,-11.87996228814125
21.3,3.0999999046325684,78.0,21.924659729003906,31.457218170166016,-79.78277524700194,40.4589857953728,271.31253449630736,-0.008063699118793009,0.0008041456458158791,-0.7761024832725525,0.630554735660553,0.018925410267994845,-0.004482018067775517,1.2836341265503295,-0.0046170977875590324,0.0631583109498024,0.01986565813422203,-0.1913791307620704,0.1890847381576896,-12.407377631664277
21.4,3.299999952316284,77.0,21.98600959777832,30.45529365539551,-79.78277523147734,40.458985788308674,271.45316450309747,-0.007873872295022009,9.645316458772868e-05,-0.777973473072052,0.628247857093811,0.02217996426333129,-0.004140276681186324,1.5285430594079772,-0.0452984906733036,0.012984462082386015,0.02553449384868145,-0.11772961238399147,0.1567950794287026,-12.273630759716037
21.5,3.4000000953674316,77.0,22.02607536315918,29.40566062927246,-79.78277523072403,40.45898574325714,271.7819482536316,-0.011554878205060959,-0.001569074927829206,-0.7795084118843079,0.6262833476066589,0.026403942213578755,-0.027868291370449636,1.958895691564861,-0.07964978367090225,0.017167389392852783,0.012298841029405594,-0.1957832353189588,0.2277804053574801,-12.048698898553848
21.7,3.5,80.0,21.803211212158203,33.103233337402344,-79.78277530613059,40.45898570290663,272.1657501907348,-0.01721883751451969,0.002088273875415325,-0.7796350121498108,0.6259938478469849,0.03554598450865271,-0.0556618640916,2.3268428894832547,0.041175477206707,-0.1244036927819252,-0.056924156844615936,-0.2984623156115413,0.12389268731698395,-11.872976034879684
21.8,3.5999999046325684,81.0,21.699291229248047,34.68563842773437,-79.78277532184491,40.45898573123486,272.411104604721,-0.016290020197629932,0.005606089252978563,-0.779671311378479,0.6259520649909973,0.02477407875727068,-0.08767023893525999,2.5865626237890007,0.06078581884503365,0.001801461447030305,0.06411832571029663,-0.3617264846339822,0.042152965930290526,-12.354107158184053
22.01,3.700000047683716,80.0,22.084922790527344,26.28061294555664,-79.78277536677994,40.458985678219314,272.610360786438,-0.015148561447858809,0.0069833588786423215,-0.7803193926811218,0.6251588463783264,0.005476795129257268,-0.10017649403650156,2.793216389895225,0.08946617692708969,-0.13257548213005066,0.07048114389181137,-0.2491049084812403,0.04393855484202505,-12.452166134119036
22.2,3.700000047683716,81.0,22.380407333374023,22.63870048522949,-79.78277539946293,40.45898572991012,273.20783965301507,-0.01678408309817314,0.017792219296097755,-0.7875637412071228,0.6157477498054504,0.035454185274806864,-0.1261030698866102,3.1074113715575202,0.0780092179775238,-0.15234361588954926,0.10829553753137587,-0.3308570232242346,0.21782796923071146,-11.03397309422493
22.3,4.0,79.0,22.272729873657227,24.451704025268555,-79.78277520436203,40.45898561470509,273.77633826446527,-0.023915650323033333,0.018329858779907227,-0.7886115908622742,0.6141530275344849,0.04397199171232445,-0.1360680908719964,3.099429481870335,-0.07793183624744415,0.1552427113056183,-0.10084056854248047,-0.25293278820812704,0.4551676220074296,-10.034496828317645
22.4,4.099999904632568,77.0,22.28900718688965,24.197248458862305,-79.78277505417716,40.45898538979985,274.03350512695306,-0.02446876838803292,0.013223986141383648,-0.7862597107887268,0.6172698140144348,0.08850156699866768,-0.10837150605138583,3.036691493818642,-0.07438892126083374,0.02342585287988186,0.012896948494017124,-0.4646179284900427,0.2107705078460277,-9.68332592010498
22.6,4.300000190734863,74.0,22.21012687683105,24.904956817626953,-79.78277498632137,40.458985338257186,274.3354250640869,-0.02388032153248787,0.007759694941341877,-0.7826278805732727,0.6219833493232727,0.11836116456559427,-0.07308323591316078,2.9928125458023525,-0.02202368527650833,0.03333892300724983,-0.16921333968639374,-0.388245252147317,0.3065464932471514,-9.346066707372666
22.8,4.400000095367432,73.0,22.29526710510254,23.06014442443848,-79.78277460034396,40.458985049051364,274.8719131202697,-0.016095062717795372,0.006777319125831127,-0.7762665748596191,0.6301628947257996,0.15008785992960574,-0.009669282043433466,2.907577027826605,0.08221213519573213,0.01020007859915495,-0.04268061369657517,-0.3083990008011461,0.2964717224054039,-9.794449914693834
22.9,4.599999904632568,72.0,22.38165855407715,22.33653259277344,-79.78277451288955,40.4589849684094,275.16344706726073,-0.018515828996896744,0.0057664806954562655,-0.7742816209793091,0.6325439214706421,0.11815217458908865,-0.0021659693279301867,2.9201565561822362,-0.10357736051082612,-0.11040954291820526,-0.004885462112724781,-0.3991491398960352,0.33115077272057536,-9.85789805173874
23.0,4.599999904632568,73.0,22.34660148620605,22.686410903930664,-79.78277406895774,40.458984502584435,275.663556739807,-0.029387425631284717,0.006372932344675064,-0.7726342678070068,0.634138822555542,0.1840199885052025,-0.014191319611171429,2.813678850105604,-0.10376404225826263,-0.07108292728662491,0.07022512704133987,-0.4783943705633283,0.29911077182739976,-9.59475463628769
23.2,4.699999809265137,68.0,22.230159759521484,24.38809013366699,-79.78277398591784,40.45898439593604,275.94438521575927,-0.03200167044997215,0.007940731011331081,-0.7729671001434326,0.6335887908935547,0.1992345626786127,-0.03370939481842765,2.7880060174172394,-0.030788989737629887,-0.17750582098960874,0.048921272158622735,-0.5217874715477229,0.2375232736207545,-9.52640360891819
23.31,4.699999809265137,65.0,22.324064254760746,23.38616752624512,-79.78277357493505,40.4589837472716,276.5318209381104,-0.03351977467536926,0.0146584864705801,-0.7740880846977234,0.6320199966430664,0.2233564468989705,-0.020430335054571758,2.697188123893953,0.025399401783943176,0.028754962608218193,-0.1066816672682762,-0.35711719762533906,0.2819782289676369,-9.32863908112049
23.5,4.599999904632568,60.0,22.21012687683105,24.642547607421875,-79.78277270348637,40.45898356972732,277.167001411438,-0.0277963113039732,0.010922891087830068,-0.7747508883476257,0.6315609216690063,0.16597035710998198,0.07559156334924197,2.630018300940336,-0.06219765543937681,0.05581849813461304,-0.06755062192678453,-0.2776425002887845,0.3649997925013304,-9.219545239806175
23.7,4.599999904632568,60.0,22.097442626953125,26.30446815490723,-79.78277244732887,40.45898344936931,277.4273821563721,-0.024349145591259003,0.006236672401428223,-0.7743920683860779,0.6322067379951477,0.16752665862412955,0.11381740470089954,2.5937780206609133,0.03293295204639435,0.14295193552970886,-0.03882687911391258,-0.18982028134167195,0.208303202111274,-9.44230486035347
23.8,4.5,62.0,22.11622428894043,26.28061294555664,-79.78277176666886,40.458983440108454,277.8246170730591,-0.01825270801782608,0.0003325711004436016,-0.7737208008766174,0.6332637667655945,0.14014781966714696,0.17642023580601035,2.6393307878055854,0.006540272850543261,0.1454087644815445,-0.006028530187904835,-0.2006927768513561,0.2070898135006428,-9.551445479393005
24.0,4.400000095367432,63.0,22.191347122192386,24.674354553222656,-79.78277054303277,40.45898322431942,278.4918028564453,-0.013616878539323808,-0.005581325851380825,-0.773293673992157,0.6338772773742676,0.10273680208136288,0.28905642725961833,2.674940069806899,0.022746767848730087,0.02039184980094433,0.005421668756753206,-0.01359699193853885,0.3405243344977498,-9.70514714419842
24.1,4.300000190734863,64.0,22.14251708984375,25.588808059692386,-79.78276981903073,40.45898306834413,279.02538459014886,-0.016803201287984848,-0.005400575697422029,-0.7743037343025208,0.6325680613517761,0.06535498133478583,0.2874139660812263,2.6668388077788574,-0.0873083546757698,0.018418407067656517,0.021015353500843048,-0.29998292058706283,0.12874989626929165,-9.666323971152304
24.3,4.300000190734863,65.0,22.12248420715332,25.39796638488769,-79.78276872696985,40.458982949059646,279.5292450637817,-0.01543188374489546,-0.010037016123533249,-0.7751123309135437,0.6315553188323975,0.07353222278649994,0.2938378138513871,2.764147376954284,0.07931327074766159,0.10765637457370758,0.014500506222248076,-0.2252928536385298,0.03761658182367682,-9.712393013834953
24.4,4.099999904632568,69.0,22.08241844177246,26.07386589050293,-79.78276833765827,40.458982918854076,279.80492655944823,-0.011681469157338142,-0.01204613596200943,-0.7764644026756287,0.6299377083778381,0.053587317558825266,0.31343772735397923,2.7564778434104213,0.08630027621984482,0.09341651201248168,0.02581322006881237,-0.029021547117736187,0.2109357282333076,-9.779450052380565
24.6,3.9000000953674316,71.0,22.10871124267578,25.52519416809082,-79.78276735965649,40.45898248186808,280.63406436157226,-0.0037975083105266094,-0.004947931971400976,-0.7786269187927246,0.6274562478065491,0.021341394477496577,0.3234446115370909,2.881672234758447,0.0777151882648468,-0.005262896418571472,-0.0672803521156311,-0.09842150330543516,0.07861577790230513,-9.830810240507127
24.71,3.9000000953674316,72.0,21.988513946533203,27.19506645202637,-79.78276699112914,40.45898246577843,280.92288558197015,-0.0006241491064429282,-0.0028660311363637447,-0.7787718176841736,0.6273004412651062,-0.026136945591097586,0.3126712139557337,2.8995672693226338,-0.011973991058766842,0.02545099332928657,0.013112961314618587,-0.08528686624020339,-0.07936384691856803,-9.974216712713243
24.8,3.799999952316284,72.0,22.05988121032715,26.376033782958984,-79.78276642940527,40.45898246880421,281.6752754898071,-0.0015921092126518488,-0.004346068017184734,-0.7807425856590271,0.6248356103897095,-0.03525085543964808,0.2771708921988263,3.070943886059512,0.0322548933327198,-0.09015452861785887,0.02698460780084133,-0.03212318667210639,0.15609533216804267,-10.332929359674452
25.0,3.799999952316284,74.0,22.11622428894043,25.23097801208496,-79.78276626351044,40.45898217948755,282.2874027938842,-0.006699055433273314,-0.0004972615861333908,-0.7814841866493225,0.6238889098167419,0.013590972000814891,0.18874293533591546,3.09065860776274,-0.03191035240888596,-0.0008622141904197633,-0.004245915450155735,-0.1826566381752491,0.10876555670052768,-9.977081848382948
25.11,3.799999952316284,74.0,22.15253257751465,24.24495887756348,-79.78276603413957,40.458982147723724,282.5963913650512,-0.008089476265013218,-0.0026720028836280107,-0.7802387475967407,0.6254238486289978,0.020355035688127247,0.1669195629050093,3.0885004186063854,-0.08226252347230911,0.07950986176729202,-0.02392985112965107,-0.1684353691712022,0.2518919290043414,-9.841421767473221
25.3,3.799999952316284,72.0,22.071149826049805,25.58085632324219,-79.78276580651166,40.458982417936255,282.9091583938598,-0.009181864559650421,-0.0056325471960008144,-0.7784733176231384,0.6275854110717773,-0.0013375476104094848,0.1478144774009468,3.071915179729068,-0.07245786488056183,0.02784316800534725,-0.03444119170308113,-0.09006079805083574,0.2182156761735678,-9.908167734146119
25.51,3.799999952316284,72.0,22.058629989624023,25.898927688598643,-79.78276551053919,40.45898216348111,283.5269200057984,-0.008425901643931866,-0.009834361262619495,-0.776046633720398,0.6305425763130188,0.05080887725486938,0.15226172289769707,3.0732651362240047,-0.01154756173491478,0.012834588065743445,0.0006459665019065143,0.07324587777256966,0.07905547024682165,-9.85635906457901
25.61,3.799999952316284,67.0,21.987262725830078,26.932659149169922,-79.78276517137414,40.45898217065985,284.1423880310058,-0.005827849265187979,-0.009573642164468764,-0.7751173377037048,0.6317179203033447,0.042962440138480606,0.1497647879097122,3.0830063702772166,0.1300877332687378,0.05875668302178382,0.011361014097929,-0.008669471360044555,0.23054723471403124,-9.907870695590974
25.7,3.799999952316284,65.0,22.09243392944336,25.46953201293945,-79.78276500998923,40.458982154144564,284.43975608062743,-0.0031926610972732306,-0.010342096909880638,-0.7751436829566956,0.6316923499107361,0.03020166542823789,0.14102902503019515,3.0594716594721683,0.04792142659425736,-0.019808357581496242,-0.012727881781756878,-0.03688476167153567,0.1908401819318533,-9.794208424687387
25.9,3.700000047683716,63.0,22.141263961791992,24.252910614013672,-79.78276455487638,40.45898198659546,285.0412699432373,-0.0024518591817468405,-0.007520989514887333,-0.7767325639724731,0.6297808885574341,0.03473774669077074,0.16450780453799702,3.014130843610741,0.012587986886501312,-0.04448596760630608,0.03611302748322487,0.1360676683858037,0.0924644879065454,-9.7215281188488
26.1,3.5999999046325684,64.0,22.054872512817386,25.37411117553711,-79.78276440736538,40.45898197512901,285.3421923370361,-0.0037281226832419634,-0.006938669364899397,-0.7784325480461121,0.6276789307594299,0.02099762411101044,0.15388093894308946,2.997501221955334,-0.07821013033390045,0.0026766553055495024,0.015172535553574562,0.09183931091800332,0.16131064653396607,-9.594977999925613
26.21,3.5999999046325684,63.0,22.09493827819824,24.88109970092773,-79.78276426119692,40.4589819666282,285.640989944458,-0.004966916516423225,-0.007257369812577963,-0.7800869941711426,0.6256093382835388,0.03015816885252477,0.14269747935639415,2.9787388774518533,0.020223034545779228,6.337771628750488e-05,0.04176462441682816,0.16470897518098354,0.07950743260793389,-9.661656138896943
26.4,3.5,65.0,22.02983283996582,25.668325424194336,-79.78276414184056,40.458981939525145,286.2355353088379,-0.0035439438652247186,-0.006753378082066774,-0.7810118794441223,0.6244696974754333,0.01876807440575063,0.11500505938898818,2.9401471815395896,0.02164403349161148,0.06900084018707275,-0.008407787419855595,0.0907508517242968,0.12522073617205026,-9.709583426713943
26.5,3.5,64.0,22.03609275817871,25.93868637084961,-79.78276435643225,40.45898208560565,286.5498530120849,-0.0025636893697083,-0.00746140582486987,-0.7803186178207397,0.6253324747085571,-0.01041704918873012,0.07248947531121533,2.9587927127976266,0.02875660918653012,-0.011772324331104755,-0.0746648907661438,0.09320865573361516,-0.04871833386830986,-9.78770690560341
26.7,3.299999952316284,61.0,21.918399810791016,27.886871337890625,-79.78276419342757,40.45898215389979,287.14123980712884,0.003247017273679376,-0.003330616280436516,-0.777197003364563,0.6292402148246765,-0.01882958551356749,0.09301975648008844,2.9565522794591867,0.16014324128627774,-0.01854322850704193,-0.006544519215822221,0.18207915253937249,-0.12782307604327794,-9.81639802336693
26.8,3.299999952316284,55.0,21.978498458862305,26.376033782958984,-79.7827640936284,40.458982167209506,287.74353091430663,0.005676106084138155,-0.006138591561466456,-0.7748141288757324,0.6321339011192322,-0.04767532117298261,0.10162650952030043,2.95204195276182,-0.07067505270242691,0.014418160542845724,0.02884356491267681,0.2330112513899804,-0.03663013827055693,-9.766306096315382
26.9,3.299999952316284,49.0,21.838268280029297,28.817228317260746,-79.78276397820343,40.45898221607315,288.04786936950677,0.004882403183728457,-0.010064927861094477,-0.7745643854141235,0.6323962211608887,-0.026921820860828508,0.11265254821290915,2.9633363841191374,-0.1133255884051323,0.1138446405529976,-0.08345947414636612,0.1402795914094895,0.25540455244481564,-9.785505428910255
27.12,3.0999999046325684,39.0,21.938432693481445,27.51313781738281,-79.78276390373783,40.458982219068865,288.344229385376,0.004700287710875273,-0.014170516282320024,-0.7746483683586121,0.6322160363197327,0.003051829297788567,0.11780270713269014,2.961528292828356,-0.05278967693448067,0.09148775041103364,0.060455910861492164,0.2250011141225696,0.1960848054662347,-9.882178030014039
27.21,3.0999999046325684,32.0,21.86581420898437,28.316267013549805,-79.78276372768215,40.45898229096204,288.9391714782715,0.0005362454685382545,-0.02006346732378006,-0.7757838368415833,0.6306795477867126,0.024056438884938844,0.14092385876545002,2.9496225480117366,-0.08477366715669632,-0.02849353291094303,0.04207707196474075,0.21540767876431344,0.12567134636454286,-9.612876327037812
27.4,3.2000000476837163,21.0,21.8282527923584,29.04783058166504,-79.78276366746044,40.458982311055436,289.23232142639165,0.0007571132737211883,-0.020563891157507896,-0.7763492465019226,0.6299670934677124,0.03307919901748567,0.13508496986057686,2.901395934552806,0.02321144193410873,0.05034835636615753,0.04118182510137558,0.31149992544203997,0.2037447858788073,-9.450455294251443
27.5,3.2000000476837163,13.0,21.8570499420166,28.14132881164551,-79.78276359420384,40.45898229000552,289.81463877868646,0.003495467128232121,-0.017380012199282646,-0.7761326432228088,0.6303205490112305,0.04537044144035012,0.11442104796302513,2.8625772971549,0.0014699370367452502,0.00029691969393752515,0.02151182666420937,0.14710109023377302,0.2759487263672054,-9.477797459363938
27.71,3.299999952316284,356.0,21.816984176635746,28.30036354064941,-79.78276356068986,40.45898230229215,290.09952037048333,0.002203854499384761,-0.016929177567362785,-0.776458740234375,0.6299368143081665,0.0376437517278031,0.11334077753198413,2.832787902643399,0.05789027735590935,-0.012631176970899105,0.056829828768968575,0.3579427879303694,0.18845141161233184,-9.574485263228416
27.9,3.4000000953674316,348.0,21.83075523376465,28.30831527709961,-79.78276346598508,40.458982272663604,290.67337481689447,0.0011570575879886744,-0.014384426176548002,-0.7795979976654053,0.6261139512062073,0.06348595220379727,0.12088719674496184,2.8005723112655616,0.06265364587306976,-0.04209302365779877,0.06467824429273605,0.4633821925520897,0.22854346700012684,-9.566279280781746
28.01,3.700000047683716,334.0,21.83451271057129,28.006147384643555,-79.78276340987955,40.45898218663945,290.9616209716797,-0.0011108999606221914,-0.016562873497605324,-0.7806045413017273,0.6248048543930054,0.03965009477577865,0.14636347077929274,2.8326539002154187,-0.16166512668132782,0.01913661882281304,0.0016066061798483133,0.5549900085479021,0.0558576197270304,-9.805998750329016
28.2,3.700000047683716,330.0,21.642948150634766,31.115291595458984,-79.78276320145955,40.458982172538,291.532892868042,-0.002984828082844615,-0.029117261990904805,-0.7789942026138306,0.6263476610183716,0.07947444051262237,0.1873393640325301,2.8692253860390977,-0.07774913311004639,0.12353575974702835,-0.10618064552545547,0.458177147358656,0.43679351426661017,-10.005895757675171
28.3,3.9000000953674316,328.0,21.62541961669922,31.4810733795166,-79.78276292075554,40.458982146531035,292.11120097351073,0.002571373013779521,-0.03387470543384552,-0.7752808928489685,0.6307024359703064,0.0788175371235528,0.2467442595598097,2.98447004545379,0.05880416929721832,0.10232950001955032,-0.1182461529970169,0.4491127936542034,0.2350061021000147,-10.414218521118164
28.51,3.9000000953674316,325.0,21.776918411254886,29.06373405456543,-79.78276266628178,40.45898218354176,292.3818251342773,0.006371352355927229,-0.03647635132074356,-0.7733647227287292,0.6328791379928589,0.06031400505848027,0.2475736247264828,3.0060325653047966,0.015135225839912891,0.13904662430286407,-0.08997465670108795,0.4247344359755516,0.20476079441607006,-10.411186155080797
28.6,4.0,326.0,21.75563240051269,29.381805419921875,-79.78276256472755,40.45898221346929,292.68446223449706,0.010268473066389559,-0.03680356591939926,-0.7719212770462036,0.6345688104629517,0.043233983095609864,0.2575397924192769,3.0220831007085285,0.008208317682147026,0.0013899067416787148,-0.04573162272572517,0.4105081968382001,0.29874756837263705,-10.002594419717788
28.8,4.099999904632568,327.0,21.73434829711914,29.52493667602539,-79.78276255370744,40.458982319577714,293.26113192749017,0.014700669795274734,-0.031127151101827618,-0.7711127996444702,0.6357673406600952,0.008522474846300962,0.20800928626699888,3.0060754172777884,0.033091161400079734,-0.015517433173954487,0.028246428817510605,0.26636069968342785,0.15525590954348445,-9.91559720635414
28.91,4.099999904632568,332.0,21.816984176635746,27.696027755737305,-79.782762559786,40.45898236559649,293.56231562805175,0.013997681438922882,-0.026042811572551727,-0.7710422873497009,0.6360973119735718,0.0119955330956786,0.16400304012208378,3.0098684487167566,0.11303721368312836,-0.08140382915735245,0.10795597732067108,0.17773225933313372,0.16279185589402914,-9.890423773527148
29.0,4.099999904632568,332.0,21.97348976135254,25.747844696044922,-79.78276270980855,40.45898260316704,294.14121882629394,0.0092307161539793,-0.02002316527068615,-0.7736257910728455,0.6332590579986572,-0.01647733149109766,0.06325365634502393,3.0058144121809653,-0.10871883481740953,-0.05314945802092552,0.02183898538351059,0.2710568543896079,0.2502683216705918,-9.808499604463575
29.2,3.9000000953674316,329.0,21.888351440429688,26.717960357666016,-79.78276300582702,40.45898261978433,294.72391192626947,-0.007385105360299349,-0.01818669214844704,-0.7748329043388367,0.6318613290786743,0.045724976640660664,-0.016779278462620006,2.9726992881577905,-0.06690420210361481,-0.06679726392030716,0.03789590299129486,0.279242554306984,0.12437828030437233,-9.733414338827133
29.3,3.9000000953674316,326.0,21.84703254699707,27.354103088378906,-79.78276312009352,40.45898265247783,295.0207583160401,-0.006348213646560907,-0.01685808040201664,-0.7753283381462097,0.6313015222549438,0.08686840590975299,-0.04431941855447994,2.967950083442936,0.10270576924085616,0.08189050853252411,0.04781998693943024,0.13514278504997493,0.3165652587264776,-9.771586132049563
29.5,3.700000047683716,329.0,21.85329246520996,26.7418155670166,-79.78276333417048,40.45898262858896,295.3082205505371,0.0006854583043605089,-0.015671713277697563,-0.7759115099906921,0.630646824836731,0.10577100421316292,-0.046632411721822975,2.9760489532392533,0.19547192752361292,0.08076930046081543,0.0015242561930790546,0.22727354312315584,0.2617762267962098,-9.941560013294222
29.7,3.700000047683716,331.0,21.859554290771484,27.25072860717773,-79.78276355135277,40.4589826533109,295.90327899169915,0.008895308710634708,-0.01896321028470993,-0.7771198153495789,0.6290040612220764,0.03647062035994415,0.007579161814839016,2.9598060134671966,0.00034880469320341945,0.05355827510356903,-0.010946748778223991,0.33273909576237204,0.2538388873636723,-9.630417973995213
29.8,3.5999999046325684,336.0,21.862056732177734,26.86109161376953,-79.78276370805997,40.45898264907365,296.1913572998047,0.007101092487573624,-0.020878955721855164,-0.7768810987472534,0.6292610764503479,0.05800048934899232,0.026320704095822232,2.9420740857739585,-0.03310070931911468,-0.022268237546086308,0.06516915559768678,0.3533578034117818,0.017544205114245415,-9.649892710447313
29.9,3.5999999046325684,340.0,21.90337562561035,26.312419891357425,-79.78276400357319,40.45898287300385,296.7933031768799,-0.0002412534668110311,-0.025020873174071312,-0.7761921286582947,0.6299998164176941,0.0693380732160197,-0.003106595833166713,2.942554404157363,-0.07408050447702408,-0.035475097596645355,-0.016402622684836388,0.3656869134306908,0.2289449148997665,-9.640141308903695
30.1,3.4000000953674316,341.0,21.882089614868164,26.535070419311523,-79.78276414991312,40.45898290018473,297.08718363952636,-0.0033839670941233635,-0.024973956868052486,-0.7758527994155884,0.6304104924201965,0.08901400201438557,-0.016249339314958058,2.94007685353577,-0.00929667241871357,0.020350614562630653,-0.008117381483316422,0.2956439211219549,0.4463359509408473,-9.757277995347977
30.3,3.4000000953674316,342.0,21.849536895751953,26.781574249267567,-79.78276456827031,40.45898322332211,297.6864496917724,-0.0031248084269464016,-0.021439746022224426,-0.7759632468223572,0.6304059624671936,0.04904615171347301,-0.06626156571040212,2.989149627340763,0.04103749990463257,0.040775701403617866,-0.04206907376646996,0.3278836409747601,0.4557544631883502,-9.93285701751709
30.4,3.299999952316284,335.0,21.84077262878418,27.37795829772949,-79.78276472981683,40.458983301551825,297.98618952941894,-0.0042204675264656535,-0.01976054348051548,-0.7765075564384459,0.6297839283943176,0.04014627273200163,-0.05856916849616906,3.007557078171525,0.08261305838823317,-0.10452593863010406,0.058371450752019875,0.3566558523103595,0.1527258193306625,-9.958880635499957
30.5,3.299999952316284,332.0,21.801958084106445,27.266632080078125,-79.78276507587212,40.45898376200589,298.5925280303955,-0.009356099180877207,-0.015081360004842281,-0.7781122922897339,0.627874493598938,-0.013842911043272274,-0.08617024131674189,3.040361302855253,0.02427923120558262,0.022050360217690468,0.05942922458052635,0.29543696623295546,0.3281807891651988,-9.973058964014054
30.7,3.299999952316284,331.0,21.83075523376465,27.3620548248291,-79.78276548636829,40.45898381864678,299.2130991668701,-0.0061437785625457755,-0.01796010322868824,-0.777710497379303,0.6283359527587891,0.009753539215130736,-0.07208151677976565,3.0651960297767915,0.028779910877346992,0.06578442454338074,-0.0013992140302434564,0.21840169072151186,0.1310361575894058,-9.912348493337632
30.9,3.4000000953674316,333.0,21.89210700988769,25.73989295959473,-79.78276559073623,40.45898391924983,299.5198237152099,-0.002586825517937541,-0.01851627603173256,-0.7770928144454956,0.6291083097457886,0.009702293495979857,-0.043654304824048265,3.080998730696419,0.05944865196943281,0.0313066691160202,-0.015485121868550776,0.2653541197814048,0.14038132382556798,-9.933078042268754
31.0,3.299999952316284,334.0,21.88083839416504,26.320371627807607,-79.7827657867605,40.45898394323882,299.82899729919427,0.0013844191562384367,-0.018491655588150024,-0.7765503525733948,0.6297823190689087,0.012918858263660838,-0.031450479640546584,3.097311769123757,-0.017670093104243282,0.06369681656360626,-0.012062277644872664,0.2989309334009886,0.3447460972890258,-9.970753991603852
31.2,3.299999952316284,337.0,21.94719696044922,25.22302627563477,-79.78276599635478,40.45898410254959,300.44882647705083,0.0002062201383523643,-0.01811864599585533,-0.7755639553070068,0.6310089826583862,-0.01744752804751263,-0.0075199220929938046,3.100083893973104,-0.11042270064353944,-0.003983595874160528,-0.0865979939699173,0.31516693364828824,0.31554630830883984,-9.801559544205666
31.3,3.299999952316284,341.0,21.882089614868164,25.73989295959473,-79.78276618326264,40.45898405751739,300.7537733764648,-0.002037468133494258,-0.01749272644519806,-0.774924099445343,0.631808876991272,0.03607239084577864,-0.009919089557930642,3.0795562453087824,0.018899723887443542,-0.039448313415050514,-0.03238219767808913,0.2692936265096069,0.21245174679905174,-9.740799956917764
31.41,3.299999952316284,342.0,21.869569778442386,26.01025199890137,-79.78276637064184,40.45898415111722,301.36784808349614,-0.0021436959505081177,-0.016319582238793373,-0.7743379473686218,0.632558286190033,0.057398866916364075,-0.01561514518025276,3.0610429353527064,-0.06760872155427933,0.08661039173603058,-0.06846243143081665,0.2634528062492609,0.5215438253805041,-9.757863886356354
31.6,3.299999952316284,342.0,21.96973419189453,24.674354553222656,-79.78276646664877,40.45898417155737,301.67407672119134,-0.0013471334241330626,-0.01741938665509224,-0.7748602628707886,0.631891131401062,0.07935742151289743,-0.018010203958175732,3.0665320420664846,0.026291314512491226,0.09172976762056352,-0.05770945549011231,0.2981724764406681,0.33186581410467625,-9.859849852323533
31.7,3.299999952316284,344.0,21.918399810791016,25.000377655029297,-79.78276670042729,40.45898422414754,302.28494326782226,-0.0061542917974293215,-0.01974637433886528,-0.7759822010993958,0.630415678024292,0.09307167453382743,0.0066324918924396395,3.05732579877424,-0.0748213678598404,-0.06692070513963701,0.03049740195274353,0.2933413241431117,0.1669429039210081,-9.746446613073351
31.9,3.2000000476837163,347.0,21.958465576171875,24.539175033569336,-79.78276678697361,40.45898423007481,302.5902563781738,-0.009292815811932087,-0.01850061304867268,-0.7761872410774231,0.6301624178886414,0.1153025271311258,-0.0027750664744101705,3.0458005017137384,0.027386868372559547,-0.05532827600836754,0.10577425360679626,0.2034692541137338,0.20512774374336004,-9.702436375021936
32.1,3.2000000476837163,349.0,21.96973419189453,24.34037971496582,-79.78276702271098,40.4589842826003,303.2004934997558,-0.01423975732177496,-0.01867957785725594,-0.7775032520294191,0.6284401416778564,0.12675789821254327,-0.019975501357008915,3.0486464108406937,-0.017191357910633087,0.01784009300172329,0.02510754764080048,0.17969717960804701,0.1896874216385186,-9.787929099798204
32.2,3.2000000476837163,349.0,21.96973419189453,24.22905540466309,-79.78276707742405,40.45898429836628,303.5045057983398,-0.012053070589900015,-0.01998183876276016,-0.7777969837188721,0.6280823945999146,0.13833400462787598,-0.006044353998942789,3.0289260655713286,0.16808632016181946,0.06422198563814162,-0.01092667505145073,0.2126033724099398,0.35037225164473057,-9.604550476670266
32.31,3.2000000476837163,349.0,21.945945739746094,25.517242431640625,-79.78276717788239,40.458984328938726,304.10923068237304,-0.006688897032290697,-0.01674266904592514,-0.7769076824188232,0.6293563842773438,0.09128649222799352,0.05902143767711308,3.0429392097968506,-0.03093669936060905,-0.1080053523182869,0.026952596381306648,0.30220155520364644,0.1344299546442926,-9.943432291746143
32.5,3.2000000476837163,347.0,22.02607536315918,23.33050537109375,-79.78276730843491,40.45898436299481,304.72397677612304,-0.003810783382505178,-0.0223767589777708,-0.7756222486495972,0.6307892203330994,0.09687113920045856,0.09379847807166264,3.1082791169218127,-0.1015891283750534,0.10573671758174896,-0.042669642716646194,0.4656031843274832,0.599235450848937,-9.975266872644426
32.6,3.299999952316284,347.0,22.1062068939209,22.042316436767575,-79.7827672679998,40.458984349409214,305.0353056640625,-0.0016483780927956106,-0.028408970683813095,-0.7748280763626099,0.6315313577651978,0.11109048963598933,0.1332167176956593,3.1021122154107363,-0.091915063560009,0.11552655696868895,-0.003641659859567881,0.3478681815415621,0.5644441522657871,-9.720093212127686
32.8,3.2000000476837163,346.0,22.124988555908203,21.35846519470215,-79.78276721866747,40.458984341351226,305.33101336669915,0.0005997412372380495,-0.032928884029388435,-0.7732076048851013,0.6332972645759583,0.12673334712655468,0.17820252434078254,3.047674859462723,-0.05054932087659837,0.07430364191532135,-0.025034725666046143,0.4460634341463447,0.3326593178138137,-9.481130957007409
33.0,3.2000000476837163,347.0,22.05612564086914,22.32858085632324,-79.78276720881703,40.458984376926104,305.9300696105957,0.001371908467262983,-0.0337187722325325,-0.7699131965637207,0.6372557878494263,0.15264069679897924,0.18030600342260325,2.935132017013516,0.11213476955890657,-0.02281897142529488,-0.01456634793430567,0.3849328410252929,0.4118180096894503,-9.290686558485033
33.11,3.299999952316284,349.0,22.12248420715332,21.294851303100586,-79.7827672216595,40.458984348058145,306.5114065856933,-0.001431141863577068,-0.030091268941760063,-0.7695408463478088,0.6378867626190186,0.13844911651953287,0.12026156569107893,2.8549448043285928,-0.02193061262369156,-0.15411745011806488,0.04196978732943535,0.21289264513179665,0.3410617667064071,-9.38656276881695
33.2,3.2000000476837163,350.0,22.0035400390625,23.131710052490234,-79.78276708787814,40.458984348198,306.8225714416504,-0.006856625899672508,-0.027254799380898486,-0.7708494663238525,0.636397123336792,0.14433737620364626,0.10543644797555367,2.8596382775092763,-0.03201795369386673,-0.0784497857093811,-0.0163779966533184,0.2273973761871457,0.4731537304446101,-9.370323296785351
33.4,3.2000000476837163,349.0,21.958465576171875,23.99845314025879,-79.78276713186007,40.458984329152095,307.10721270751947,-0.010149217210710049,-0.02603308297693729,-0.7726734280586243,0.6341885328292847,0.15794869175349036,0.053667197051025683,2.826122281757589,-0.022831682115793228,0.02355741336941719,0.056417640298604965,0.20703835800290107,0.4008370117843151,-9.474061673283575
33.6,3.299999952316284,350.0,21.93342399597168,24.06206703186035,-79.78276719584929,40.45898436150984,307.6978575439453,-0.013192934915423392,-0.02497691661119461,-0.7758578062057495,0.6302751302719116,0.1500821319466986,0.03058693563199528,2.854327888872815,-0.022490890696644783,-0.03362615779042244,0.08624770492315292,0.09972921481356026,0.2546839562058449,-9.712844418883323
33.7,3.299999952316284,353.0,21.88083839416504,25.21507453918457,-79.78276724037305,40.45898437360592,307.9845549316406,-0.012165321968495846,-0.02497712336480617,-0.7769630551338196,0.6289328336715698,0.14677983170334458,0.017655286154070752,2.8752753282965817,0.11466684192419052,0.0786658450961113,0.03380873799324036,0.17643806951120494,0.2403805520944297,-9.940351978540422
33.8,3.2000000476837163,356.0,21.952205657958984,24.10977935791016,-79.7827674121523,40.45898439749642,308.5694739074707,-0.00921674259006977,-0.02405237779021263,-0.7789383530616759,0.6265712976455688,0.10255817763126507,0.02483728481742395,2.9326007663848523,-0.08678550273180008,-0.06997526437044144,0.05708673223853111,0.1883845340833068,0.2302177075669169,-9.93770085096359
34.0,3.2000000476837163,4.0,21.925912857055664,24.523271560668945,-79.78276761552965,40.458984520475475,309.14497439575194,-0.014096045866608618,-0.01905988343060017,-0.7792636156082153,0.626247763633728,0.10093125931170747,0.011066624033715724,2.940175842619232,-0.008790062740445137,-0.07405558973550798,-0.06114013865590096,0.16640963785350324,0.3057257634401321,-9.83824322104454
34.2,3.0999999046325684,5.0,21.928415298461914,24.96857070922852,-79.78276765667442,40.458984566886905,309.43908755493163,-0.016543582081794742,-0.015231537632644175,-0.7786599397659302,0.6270430684089661,0.09449259828055752,-0.009660734312571684,2.942887673880392,0.0864887610077858,-0.042889248579740524,0.044680938124656684,0.1629724983125925,0.2299181656725705,-9.86577074289322
34.3,3.0999999046325684,9.0,21.77190971374512,26.185192108154297,-79.78276782971305,40.458984657738746,309.7157561035156,-0.016032900661230087,-0.013518513180315495,-0.7780933380126953,0.6277985572814941,0.08197254076590299,-0.028516525254790936,2.9463803287580626,-0.02386125549674034,0.058285530656576164,-0.04639378562569618,0.22571399934589864,0.43080706179142,-9.931564782857896
34.5,3.2000000476837163,10.0,21.90713119506836,23.529298782348643,-79.7827678848742,40.45898476088581,310.28290621948236,-0.011009159497916698,-0.017342500388622284,-0.776519775390625,0.6297579407691956,0.07394994300824713,-0.0019593492198212567,2.960406227257094,0.08141613751649858,0.12312904745340347,0.012423720210790634,0.10270647084340452,0.2970371298864484,-9.955157128572463
34.61,3.0999999046325684,9.0,21.89210700988769,25.27868843078613,-79.78276788665622,40.45898485151301,310.8756491394043,-0.008219446055591106,-0.0221298448741436,-0.7747258543968201,0.6318565011024475,0.0635308043352854,0.050918625319055916,2.9637282119587125,-0.032071001827716834,0.0025224615819752216,-0.044303182512521744,0.2605172664485872,0.2734982131049037,-9.84208601117134
34.7,3.0999999046325684,10.0,21.850788116455078,25.31049728393555,-79.78276796644873,40.458984943171615,311.1516272277832,-0.009013546630740166,-0.021974137052893642,-0.7738030552864075,0.6329808831214905,0.060488351828527465,0.045834958608456204,2.9543029492442017,0.051135487854480736,-0.028798146173357964,0.08249819278717041,0.21577005995437504,0.31812284734100105,-9.980710630416873
34.9,3.0999999046325684,8.0,21.86080551147461,25.22302627563477,-79.78276797586385,40.458984998902146,311.44876162719726,-0.009375201538205149,-0.020271752029657364,-0.7730578184127808,0.6339423656463623,0.05722200283602246,0.04891063490203587,2.984703209350488,-0.06219491735100746,-0.052456546574831016,0.0010304716415703297,0.22340325281023984,0.42996539164334535,-10.009613417387007
35.1,3.0999999046325684,8.0,21.88083839416504,24.722064971923828,-79.78276818276737,40.458985152028816,312.02100054931634,-0.00892272125929594,-0.01841549389064312,-0.7732922434806824,0.6337195634841919,0.051029457198964526,0.033322841031185976,3.01667710860384,0.0021218224428594112,-0.0252488125115633,0.1061178669333458,0.16018343126401305,0.2349316414631903,-10.079511033296583
35.21,3.0999999046325684,6.0,21.87332534790039,25.000377655029297,-79.78276818598853,40.45898521791849,312.32405154418944,-0.008762871846556664,-0.019310323521494862,-0.7738419771194458,0.6330236792564392,0.03763354586628792,0.03862755048272037,3.045938352318524,-0.015637682750821114,0.08629453182220459,-0.009896094910800457,0.1927898629009724,0.35124345023185016,-10.070126252174378
35.3,3.0999999046325684,7.0,21.85329246520996,25.366159439086914,-79.78276828611615,40.458985440732214,312.89603869628905,-0.002660722006112337,-0.020983656868338585,-0.7737557291984558,0.6331309676170349,0.03038815583269138,0.056830054153787536,3.0183214157428773,0.06509273499250412,-0.02373608946800232,0.025124123319983482,0.2419292237050832,0.3353898578882217,-9.803099700808524
35.51,3.0999999046325684,6.0,21.952205657958984,23.56110572814941,-79.78276844241938,40.45898565072414,313.16845385742187,-0.0018080503214150667,-0.01935740187764168,-0.7738175392150879,0.6331101655960083,0.006393301882750016,0.053670282290780205,2.9880358165086265,-0.05733400210738183,-0.03819984570145607,0.0011468875454738734,0.3025471804663539,0.4155438920482993,-9.856604647636416
35.6,3.0999999046325684,5.0,21.87457847595215,25.159412384033203,-79.78276849758218,40.45898578076653,313.76492373657226,-0.0055141756311059,-0.016451118513941758,-0.775149941444397,0.6315390467643738,0.02764701426988847,0.03417405263146793,2.9717627523228733,-0.007428369950503111,-0.031003048643469814,-0.012789297848939896,0.23340475073084235,0.3370337660238147,-9.673407872915268
35.8,3.0999999046325684,3.0,21.888351440429688,24.38809013366699,-79.78276854869364,40.458986117815606,314.05481402587884,-0.0071124816313385955,-0.016018114984035492,-0.7756449580192566,0.6309261322021484,-0.0030143885331576532,0.008033500195345634,2.9707395639541097,-0.02410799451172352,0.006597870960831642,0.0072568170726299295,0.12216902864165605,0.42809775441884995,-9.754183064103126
36.01,3.0999999046325684,2.0,22.143768310546875,21.09605598449707,-79.78276864411058,40.45898634182928,314.64157931518554,-0.007951873354613781,-0.018251974135637283,-0.7761077284812927,0.6302860975265503,0.012842099960273884,0.01650652947191366,2.9346286300970297,-0.05667949467897415,0.025191983208060258,0.029150579124689106,0.29550746172666553,0.29352240510284905,-9.503750326037409
36.1,3.0999999046325684,1.0,22.12248420715332,20.8177433013916,-79.7827686581522,40.45898641965615,314.93079821777343,-0.00932495389133692,-0.02116032876074314,-0.7754619717597961,0.6309707164764404,0.01946640614235523,0.02730081980647281,2.845914261343814,-0.08543562144041061,0.03471345081925392,0.003626637626439333,0.21126143641769887,0.1853395599871874,-8.992405470013619
36.3,3.0999999046325684,1.0,22.191347122192386,19.648834228515625,-79.78276877596,40.45898664975529,315.4941298217773,-0.008471108973026277,-0.02602197229862213,-0.7736873626708984,0.6329763531684875,0.041586549946539916,0.04544289964727719,2.6621166015582083,-0.009550564922392368,0.06534730643033981,-0.0950670763850212,0.2727696134895086,0.4592361146584154,-8.633308076262473
36.4,3.0999999046325684,1.0,22.276485443115234,18.48787498474121,-79.78276893088012,40.45898684611933,316.0097815246582,-0.0021456328686326747,-0.024919768795371056,-0.7737662792205809,0.632977306842804,0.020765330587995703,0.03940495202787174,2.4539606221828048,0.06712597608566284,0.01999992877244949,0.03969762474298477,0.2001451668329537,0.3416118435189128,-8.578834830522537
36.6,3.0999999046325684,2.0,22.276485443115234,18.464019775390625,-79.78276896232906,40.45898692726385,316.248318359375,-0.003572874702513218,-0.024958427995443344,-0.7744756937026978,0.6321011185646057,-0.0011097162752640721,0.03561595862013503,2.3156188805268405,-0.019232982769608498,-0.11302543431520462,0.07280684262514114,0.13610061379149554,0.21487446751445533,-8.442699955701826
36.7,3.0999999046325684,1.0,22.20011138916016,19.33076286315918,-79.78276899608625,40.4589870081801,316.47253482055663,-0.007036113645881414,-0.02319255843758583,-0.7748600244522095,0.631668210029602,-0.0009007110604827422,0.01979608985324113,2.172013665162572,0.02277061901986599,-0.06581384688615799,0.07224807888269424,0.11479154183529318,0.3573704916983843,-8.390248677134513
36.9,3.0,1.0,22.165054321289066,19.96690368652344,-79.78276910060686,40.458987194916396,316.8888785095215,-0.010321101173758509,-0.023672668263316158,-0.7745786309242249,0.6319502592086792,0.00275706739324088,-0.003157329475073571,1.9648778118436647,-0.04800074920058249,0.016800513491034508,0.048493433743715286,0.20311420021578672,0.2994631579332054,-8.73065193772316
37.01,3.0,1.0,22.342844009399414,16.54764175415039,-79.7827691828292,40.45898731804353,317.09103076171874,-0.00923167634755373,-0.02527439408004284,-0.7742059826850891,0.632361650466919,0.007635362072375754,-0.005217208895509556,1.9015186443528609,0.05617835372686386,0.05940752848982811,-0.003340431256219745,0.2312435284629465,0.4242391768097878,-8.889902610182762
37.1,3.0,1.0,22.30528259277344,17.8835391998291,-79.78276925919516,40.45898746507082,317.45197360229486,-0.006140697281807661,-0.02319279871881008,-0.7756116986274719,0.6307542324066162,0.006276763313689184,0.010549762490550169,1.6945500844830002,-0.002658091252669692,0.003409200580790639,0.01572959683835506,0.4223115690797568,0.3776703068241477,-8.717731345295906
37.3,3.0,0.0,22.312795639038086,17.50980567932129,-79.7827693351656,40.45898760776518,317.7970701904297,-0.011088067665696144,-0.022825391963124275,-0.7766654491424559,0.6294020414352417,-0.0002475127601921194,-0.0009504431464323127,1.5024123302295742,-0.07394225895404816,0.0755690187215805,-0.012562652118504049,0.372969839796424,0.3776251005381346,-8.710174988508225
37.4,3.0,0.0,22.2426815032959,18.615102767944336,-79.7827693884387,40.458987712658015,317.9671484680176,-0.011957084760069849,-0.0249636173248291,-0.7760886549949646,0.6300161480903625,0.006005970892105781,0.006763997139101739,1.4277599932676523,-0.061050552874803536,0.058114327490329735,-0.0921187624335289,0.33565261714160444,0.40169242288917306,-8.69349405169487
37.6,3.0,359.0,22.203866958618164,19.79196548461914,-79.78276940326242,40.458987771486846,318.1054045410156,-0.012434042990207672,-0.026793593540787697,-0.775173544883728,0.6310574412345886,0.0035369541088485115,0.006220304146846472,1.3447004785727927,-0.057061661034822464,0.03511304408311844,-0.025091076269745827,0.30228877007961275,0.5827068340033293,-8.941739346385003
37.8,3.0,357.0,22.25520133972168,18.567392349243164,-79.78276941295628,40.45898791179655,318.3891989440918,-0.012019310146570206,-0.02818309888243675,-0.7732926607131958,0.6333086490631104,-0.006532774533108476,0.026881282132632217,1.2777057359192059,-0.015378420241177082,0.07406075298786162,-0.1343899965286255,0.3821865865588188,0.5525615502521396,-9.351539701223373
37.9,3.0,355.0,22.28900718688965,17.80402183532715,-79.78276942579137,40.45898798325732,318.5136114807129,-0.012322967872023579,-0.02840442955493927,-0.7729966640472412,0.6336541771888733,-0.0217251233186716,0.029889659956932345,1.2320158196986812,-0.05479677394032478,-0.031249852851033214,0.009098679758608341,0.24582721520215275,0.37519295118749146,-9.25326320886612
38.0,3.0,355.0,23.18672752380371,1.2881873846054075,-79.78276943265453,40.45898813705799,318.7764288635254,-0.013060995377600193,-0.02482737973332405,-0.772323489189148,0.6346096396446228,-0.022988341659457484,0.0468262611449258,1.0321597343715787,0.11755968630313872,-0.10333343595266342,-0.045563042163848884,0.3169835539162159,0.4173571501672268,-8.101939430236818
38.21,3.0999999046325684,355.0,22.344097137451172,16.937278747558597,-79.78276940352278,40.45898836967256,318.9196020812988,-0.006197710055857897,-0.01337599754333496,-0.7384586930274963,0.6741375923156738,-0.08843354282255989,0.04302315264369089,0.5619491261893675,0.035198774188756936,0.08858804404735565,-0.8630141615867615,0.12328174464404584,0.10477919915691017,-7.322405596375465
38.4,3.0999999046325684,354.0,22.3353328704834,17.136072158813473,-79.78276941861955,40.45898848049836,318.96482150268554,-0.005550906527787447,-0.01936337910592556,-0.7134016156196594,0.7004659175872803,-0.08728564444165575,0.045134796039369686,0.3984419806082213,0.004740758799016476,0.17321205139160156,-0.8502289056777954,0.22688793752342465,0.28052177891135216,-8.152511413693428
38.51,3.2000000476837163,354.0,22.24768829345703,18.45606803894043,-79.7827695026548,40.458988700409584,318.9205710144043,-0.004100590478628874,-0.02278986945748329,-0.6818625926971436,0.7311137318611145,-0.06960311323220184,0.06011737392535783,0.2313815312388107,0.11525449901819228,0.06673406064510345,-0.9572919607162476,0.20207359682768586,0.3437342366203666,-8.224708739519121
38.61,3.2000000476837163,355.0,22.23516845703125,18.328838348388672,-79.7827693997841,40.45898882986854,318.9456297607422,0.000904301239643246,-0.019097050651907917,-0.6252820491790771,0.7801645994186401,-0.0420680489765238,0.0493749412915508,0.04856729316468657,0.10304641723632812,-0.11971749365329742,-0.5534768104553223,0.1135745078511536,0.25428468273952604,-8.93552901864052
38.8,3.299999952316284,347.0,21.845781326293945,24.730016708374023,-79.78276934477138,40.45898899677729,318.8787771911621,-0.009847216308116913,-0.015218786895275116,-0.5913398861885071,0.8062187433242798,-0.011532938950449262,0.06836300913431168,-0.07904420414114398,-0.11490973085165025,-0.3494856059551239,-0.21789617836475367,0.3915156729519367,0.2669348597154021,-9.328188845515252
38.9,3.299999952316284,344.0,21.959716796875,23.79170799255371,-79.78276925014455,40.45898915845133,318.80961291503905,-0.036124315112829215,-0.00836497638374567,-0.5824973583221436,0.8119863867759705,-0.008363038702757203,0.11906695213178894,-0.0795046907082582,-0.03790745884180069,-0.657455563545227,-0.1346968710422516,0.18089779570698736,0.6226026056706906,-9.752347623109818
39.1,3.4000000953674316,349.0,22.058629989624023,22.48761749267578,-79.78276907682779,40.45898920572991,318.803681060791,-0.06315109133720398,0.00796933565288782,-0.5787524580955505,0.813015341758728,-0.004955636968794546,0.19786642347583305,-0.02820716143565892,-0.00990433432161808,-0.5298548936843872,-0.014927544631063938,0.19129180625081066,0.8528433001041413,-10.128814755678178
39.3,3.5,352.0,21.912139892578125,24.523271560668945,-79.78276820347854,40.45898951555717,318.77248446655267,-0.096929170191288,0.03852201625704765,-0.5808888077735901,0.8072726726531982,-0.016278082535831098,0.4798708173913869,0.13873206004545874,0.033894028514623635,-0.2390923202037812,0.01840301044285297,-0.18475045301020146,0.4613462651520968,-10.403616349697113
39.4,3.5999999046325684,341.0,21.98600959777832,23.131710052490234,-79.78276755009729,40.45898970511874,318.78052203369134,-0.1016201227903366,0.048376228660345084,-0.5849243402481079,0.8032414317131042,-0.009594489685494973,0.6619394364301776,0.2464998837862492,0.15547078847885132,-0.12890256941318512,0.01987326145172119,-0.1714964596554637,0.296396092325449,-10.432074748277664
39.5,3.5999999046325684,343.0,21.869569778442386,25.485435485839844,-79.78276594331876,40.4589903150846,318.8134924621582,-0.10883302241563796,0.05887215957045555,-0.5917975306510925,0.7965332865715027,-0.049124666099744786,1.0249026294532615,0.4945902525737026,-0.03769568353891373,-0.1110849305987358,0.1191464364528656,-0.19374041916802529,0.30935688436031344,-10.55015576004982
39.7,3.700000047683716,351.0,21.89711570739746,24.84134101867676,-79.78276370616965,40.45899148716014,318.79579989624017,-0.11428508907556535,0.05891809985041618,-0.5954336524009705,0.7930488586425781,-0.07806349886651118,1.3951117615619224,0.7336889396020505,0.00945497676730156,-0.027270900085568428,0.062033068388700485,-0.3620385066792369,0.3060038716346026,-10.696905670166016
39.9,3.799999952316284,355.0,21.9497013092041,23.815563201904297,-79.78276187108716,40.45899199837667,318.83451525878905,-0.11516844481229782,0.05738973617553711,-0.5965876579284668,0.7921652793884277,-0.07733816843639141,1.6075574034956015,0.8562666847303211,0.08079983294010162,-0.002414175542071461,0.07632727921009064,-0.3916020290181041,0.3742739150673151,-10.656922409534452
40.0,4.0,3.0,22.002286911010746,22.877254486083984,-79.78276040121095,40.45899306394203,318.74890963745116,-0.1153457909822464,0.05707564577460289,-0.5966783165931702,0.7920939922332764,-0.12500835963568258,1.7918728354338809,0.9078049907295443,0.056098245084285736,0.05017230659723282,0.004342362284660339,-0.3270423362776637,0.4485296800732613,-10.601742235422137
40.2,4.099999904632568,7.0,21.90087127685547,24.68230628967285,-79.78275554865228,40.45899445844268,318.83760516357415,-0.12261592596769333,0.05454028770327568,-0.5943697690963745,0.7929157614707947,-0.1531261921450905,2.2273553071786623,1.0465035105715272,-0.1202070415019989,-0.0619693323969841,-0.1469581127166748,-0.26047127444297075,0.4838116696849466,-10.084896318912506
40.3,4.400000095367432,13.0,21.922155380249023,25.00832939147949,-79.78275027417641,40.45899673496041,318.8215223999024,-0.12729695439338684,0.06078432500362396,-0.5893665552139282,0.7954545617103577,-0.183068188825984,2.619114481554192,1.1586120344230235,0.13570748269557953,-0.1294124871492386,-0.0042800018563866615,-0.543293969258666,0.27899843305349353,-10.05810905456543
40.4,4.5,17.0,21.96096992492676,23.29074668884277,-79.7827474183869,40.45899856774657,318.7908751220703,-0.12670862674713135,0.0668635368347168,-0.5864632725715637,0.7972046136856079,-0.2724646078810903,2.8218143924954884,1.2105307608904021,0.09559085220098497,-0.0506662167608738,-0.016759449616074562,-0.4342342245206237,0.29098027328029274,-10.076518428325654
40.6,4.699999809265137,20.0,21.804462432861328,25.636518478393555,-79.78274396859986,40.458999672010535,318.8278204650879,-0.12930141389369965,0.07236603647470474,-0.5850599408149719,0.7973389029502869,-0.2672048481392552,3.047078650353648,1.2769436645471304,0.050793688744306564,-0.16908922791481018,-0.06876169890165329,-0.5044028223305941,0.22409689703956248,-9.916400613784793
40.8,4.900000095367432,19.0,21.984758377075195,22.94086837768555,-79.78273661265959,40.45900288028607,318.8509451599121,-0.13445766270160675,0.08448772877454758,-0.5813210606575012,0.7980281710624695,-0.32371434007292754,3.4564204631736035,1.5353843876833917,0.022099250927567482,-0.03522208705544472,-0.18430499732494354,-0.5018268680199981,0.5853354497998953,-10.446593384742737
40.91,5.099999904632568,23.0,22.13625717163086,19.799917221069336,-79.78273237291747,40.45900422928109,318.8935438842773,-0.13233007490634918,0.08764917403459549,-0.5805333852767944,0.7986159324645996,-0.3029109181480009,3.6691365401657485,1.681160434619818,0.02105226740241051,-0.1119384989142418,0.028905127197504044,-0.7501413425803185,0.3747656293585897,-10.435616991519929
41.01,5.300000190734863,25.0,22.217639923095703,18.81389617919922,-79.78272346826796,40.45900809886197,318.93111865234374,-0.13439300656318665,0.0894099697470665,-0.5733752250671387,0.803234338760376,-0.31838163200774033,4.120715528096191,1.7717543946068972,-0.02483646757900715,-0.1571778804063797,-0.050081729888916016,-0.8552079872041941,0.13914973575621845,-9.632223009467127
41.2,5.699999809265138,28.0,22.021068572998047,21.86737823486328,-79.78271372865525,40.45901253508261,318.960289642334,-0.14022855460643768,0.09643543511629103,-0.5651661157608032,0.8072319030761719,-0.3340002350231167,4.53491622979382,1.8608771661995729,-0.023349769413471225,0.03123208694159985,-0.11962997168302535,-0.8618042311817408,0.3989299423992634,-9.519208025336264
41.31,5.9000000953674325,30.0,22.18508720397949,19.47389411926269,-79.78270829180505,40.45901430956658,318.98576800537114,-0.13850978016853333,0.099804624915123,-0.5638176798820496,0.8080617785453796,-0.2581611660003366,4.746857370768199,1.9408422078569705,0.06483455002307892,0.02226036973297596,-0.038446713238954544,-1.0329137147963048,0.01198023224249482,-9.678321288228037
41.5,6.300000190734862,34.0,22.216388702392575,18.77413749694824,-79.78270321484534,40.45901756267625,318.9840819091797,-0.1368875950574875,0.0998404324054718,-0.560461163520813,0.8106645941734314,-0.3581024498924373,4.9436604188012225,1.9621268122188318,0.07971891015768051,0.05608859285712242,0.029174705967307087,-1.1177655847370624,0.22525024205446245,-9.493806551098825
41.7,6.5,35.0,22.22264862060547,18.28907966613769,-79.78269124093694,40.45902155848686,319.0131842346192,-0.13619235157966614,0.1027723029255867,-0.5607329607009888,0.8102272152900696,-0.2729284939517547,5.386509151969367,1.9723561486179189,0.08244360238313675,-0.1645168662071228,-0.0758209303021431,-1.259268495887518,-0.018496698271483186,-9.16566607117653
41.8,6.9000000953674325,34.0,22.18258285522461,19.47389411926269,-79.78267870517497,40.45902698953509,319.0079161376953,-0.14565277099609375,0.10217620432376864,-0.5573243498802185,0.811008632183075,-0.2756850362447906,5.770816416845458,2.0095661908099856,-0.0015336086507886648,-0.18083415925502772,0.07876933366060257,-1.506405743211508,0.1197285926900804,-8.948105794787407
41.9,7.099999904632568,35.0,22.033588409423828,21.811716079711914,-79.7826721391308,40.45903051872418,319.00900714111333,-0.1483139544725418,0.10404213517904284,-0.5560128092765808,0.8111892938613892,-0.34111527191853896,5.954303795452724,2.091434699051152,0.14077679812908173,-0.011573052033782005,-0.02622549049556256,-1.509031143039465,0.3727268148958683,-9.201841624975208
42.1,7.599999904632567,36.0,22.2714786529541,18.04257583618164,-79.78266521485453,40.45903286986508,318.9942900390625,-0.14731475710868835,0.10650518536567688,-0.5577057003974915,0.8098886013031006,-0.3171694712819889,6.141166457367612,2.174780452498996,-0.0187405813485384,0.10395020991563796,0.1404394954442978,-1.6268648175895215,0.06118351042270661,-9.576522433161736
42.3,7.800000190734862,36.0,22.117475509643555,20.6507568359375,-79.78265094616269,40.45903923919125,318.99171130371093,-0.14710430800914764,0.10525169223546982,-0.5578026175498962,0.8100239038467407,-0.43600252921518734,6.5368848580579435,2.282989746799984,-0.0595320425927639,0.10998670756816864,-0.09807245433330536,-1.1673886381834746,0.3111863319575787,-9.588457769751553
42.41,8.199999809265138,38.0,22.079914093017575,21.21533203125,-79.78264336160649,40.45904182018076,318.9706007690429,-0.15081152319908142,0.10508542507886888,-0.5586695075035095,0.8087653517723083,-0.3786879421848198,6.7538142976525615,2.3101382322551087,0.01688484288752079,-0.10128189623355864,0.0009192288271151484,-1.6178871488571167,0.2110765913128853,-9.26260939836502
42.5,8.399999618530272,38.0,21.96347427368164,22.86134910583496,-79.78262776535,40.45904879487885,318.9531065673828,-0.15711520612239838,0.10744990408420564,-0.5566370487213135,0.8086560964584351,-0.42546194668998855,7.12792682832684,2.5190706895132537,-0.05239228531718254,-0.06265223771333693,0.05776747688651085,-1.7654382736980916,0.2364351981505752,-9.467494080662727
42.7,8.800000190734863,38.0,21.945945739746094,22.662555694580078,-79.78261947962089,40.459051611973536,318.92297808837884,-0.1536758691072464,0.10301944613456726,-0.557020902633667,0.8096286654472351,-0.4004219033379327,7.339817314944236,2.646132676529467,-0.054714161902666085,0.0891883373260498,0.1430629938840866,-1.5021558406949045,0.01413078334182501,-9.941805596351623
42.8,8.899999618530273,38.0,22.083669662475586,21.58906555175781,-79.78260222906096,40.459058869698964,318.9122893066406,-0.1479760706424713,0.09359220415353776,-0.5552285313606262,0.8130589723587036,-0.39634391168549343,7.807150568187223,2.7363086484350383,-0.12116295844316485,0.06653285026550293,-0.01712661795318127,-1.3596483778953552,0.4396883611008525,-10.12066139817238
43.0,9.100000381469727,39.0,22.004791259765625,22.344484329223643,-79.78258444096738,40.459066654977754,318.90548388671874,-0.14970345795154572,0.09213656187057497,-0.5508853793144226,0.8158584833145142,-0.4030680611060618,8.191793341401336,2.823620746385628,-0.08920881152153015,-0.09335248172283173,-0.018538044765591614,-1.3627414087951184,0.2911579920910299,-9.818637506961824
43.2,9.199999809265137,40.0,21.99352264404297,22.376291275024414,-79.78257503584872,40.45906993222912,318.8895575256348,-0.15234601497650144,0.09162196516990664,-0.551095724105835,0.8152850866317749,-0.3712439370524096,8.372873198652528,2.9370231066166195,-0.08862388879060745,0.04785075783729553,-0.056668445467948914,-1.494748441725969,0.3346773746609688,-10.050463235378265
43.3,9.300000190734863,40.0,21.978498458862305,22.479665756225586,-79.78256569833779,40.459074798264,318.8799750061035,-0.15123744308948514,0.09080933779478073,-0.5486812591552734,0.8172085285186768,-0.4667232172836807,8.521878872268964,3.1007621053318206,0.08617377281188965,0.13924860954284668,-0.09337300807237624,-1.5486140155792236,0.3306573408097029,-10.373926527500153
43.41,9.399999618530273,39.0,22.033588409423828,21.946895599365234,-79.78254585985151,40.459083160380075,318.82763354492187,-0.15303170680999756,0.0912051722407341,-0.545455276966095,0.8189881443977356,-0.4969795143429102,8.872921129253918,3.300263999203313,-0.08642175793647766,0.12985415756702426,0.04920167475938797,-1.8417458997666842,0.2488075592927635,-10.227616328001023
43.6,9.600000381469727,40.0,21.96973419189453,22.89315795898437,-79.78253565294106,40.45908685411234,318.8277975769043,-0.15334734320640564,0.08877666294574738,-0.5451222658157349,0.8194174766540527,-0.4074898097976782,9.047016292662542,3.416072228604476,0.016696317121386528,-0.02045728452503681,0.07117334753274918,-1.7500035247206691,0.2498490580357612,-10.3309062230587
43.7,9.600000381469727,39.0,21.93592834472656,22.82954216003418,-79.78251440138258,40.45909550001153,318.77429644775384,-0.15697327256202698,0.09194286167621613,-0.5440673232078552,0.8190828561782837,-0.459729463619917,9.401639781681695,3.5328511819163584,0.040783513337373734,-0.002429031301289797,0.0447830893099308,-1.800944467484951,0.3607664814591408,-9.920794211626053
43.9,9.699999809265137,40.0,21.8570499420166,24.24495887756348,-79.78250361331338,40.45909942037179,318.77255694580083,-0.1543077975511551,0.08979722857475281,-0.5448654890060425,0.8192967176437378,-0.4239094863979143,9.52844548709646,3.646083428310668,-0.0005324537050910294,0.19160215556621552,0.062201805412769325,-2.0029692766070366,0.32336407218128443,-9.944149160385132
44.1,9.800000190734863,40.0,22.240177154541016,18.734378814697266,-79.78248139820155,40.45910852223228,318.72618167114257,-0.12556086480617526,0.06686781346797943,-0.5463030934333801,0.8254187703132629,-0.4604184474180393,9.892723122100113,3.5037674463829944,0.0203211959451437,0.4744865596294403,0.006972938776016235,-2.22028557792306,0.32947028294205666,-10.394270160198213
44.2,10.0,44.0,22.099946975708008,20.316781997680664,-79.78247020473336,40.45911265659574,318.7376028747558,-0.1086934208869934,0.05618111416697502,-0.5487991571426392,0.8269516229629517,-0.4777357877485256,10.11460034308458,3.078491282285105,-0.0020379244815558195,0.2837195992469788,0.12788741290569305,-2.06836073577404,0.1260776913072914,-9.723369407057763
44.4,10.100000381469727,50.0,22.17381858825684,18.42426109313965,-79.78244724776933,40.45912187360812,318.6855360717773,-0.08507038652896881,0.04047392681241036,-0.5529760122299194,0.8278542160987854,-0.6026050340672038,10.36547913032757,2.273008239736149,-0.028964301571249962,0.2440243661403656,0.010686464607715608,-1.7549248337745669,0.3733291511982679,-9.53678826391697
44.5,10.199999809265137,51.0,22.262714385986328,17.247398376464847,-79.78242417076872,40.45913130451205,318.64046160888665,-0.061823990195989616,0.03180311620235443,-0.5552197098731995,0.8287928700447083,-0.7413926437262764,10.4952595266826,1.77221305014216,0.1636764109134674,0.09611126035451888,-0.005108608864247799,-1.730557731986046,0.3757115626707673,-9.883452723026275
44.7,10.300000190734863,51.0,22.345348358154297,16.35679817199707,-79.78241292580486,40.45913560328129,318.64645068359374,-0.05751952528953552,0.03700819239020348,-0.5553171038627625,0.8288214802742004,-0.7433643053172871,10.508272449853227,1.5338874488611112,0.36898273229599,0.03390859067440033,-0.20823189616203308,-1.6674308994412423,0.4407082251459361,-9.700927793383599
44.8,10.5,56.0,22.344097137451172,16.277280807495114,-79.78240102019005,40.459140509105744,318.606774017334,-0.05131184682250023,0.03425421565771103,-0.5520548224449158,0.8315221667289734,-0.7807719332861569,10.489188157231004,1.5362730704904488,0.1551699936389923,0.38308343291282654,-0.1744394451379776,-1.823904144465924,0.2437141045555473,-10.27503607749939
45.0,10.600000381469727,59.0,22.340341567993164,16.022825241088867,-79.78237800390481,40.45914951347189,318.60199801635736,-0.04751715436577797,0.018248165026307103,-0.5470765829086304,0.8355336785316467,-0.6085736876104488,10.534737938539976,1.231175861806167,0.09843150526285173,-0.1325959414243698,-0.15497080981731415,-1.4906653310358524,0.36551716145128016,-10.004740347862244
45.1,10.600000381469727,59.0,22.33783721923828,16.643062591552734,-79.78236682305194,40.4591537829722,318.61536471557616,-0.04946177080273628,0.020185641944408417,-0.5460008978843689,0.8360797166824341,-0.529750467498854,10.508437511579366,1.2012924689708429,-0.1287526935338974,0.10666480660438538,-0.18081669509410853,-1.4052291780710222,0.4477455684542656,-9.81953563928604
45.21,10.600000381469727,59.0,22.4279842376709,15.5457181930542,-79.7823440438491,40.45916274063517,318.6218039245605,-0.044224813580513,0.01664600521326065,-0.5458775162696838,0.8365314602851868,-0.5320857612736429,10.432270844718355,1.2307776170949754,-0.21655921638011927,0.3069831132888794,-0.03598818928003311,-1.389215408563614,0.10831768739037216,-9.772458536624908
45.4,10.699999809265137,58.0,22.3353328704834,17.136072158813473,-79.78232144998563,40.45917146227456,318.6360441894531,-0.02145124599337577,-0.007602660916745663,-0.5445135831832886,0.8384432196617126,-0.5098806919105795,10.334010836849018,0.6803205409124709,-0.08510696142911911,0.2237566113471985,-0.06501468271017075,-1.4846717888116838,0.5116593631356955,-9.20741460621357
45.5,10.699999809265137,64.0,22.193851470947266,19.028594970703125,-79.78231062559959,40.45917563343888,318.63610522460937,-0.008530373685061932,-0.0219009816646576,-0.5428732633590698,0.8394856452941895,-0.5136219408630427,10.174447732318614,0.272851695794144,-0.03614132851362229,0.3759089410305023,-0.07880023121833801,-1.8036780408024788,0.4465669159591198,-9.135461109280588
45.7,10.800000190734863,63.0,22.251445770263672,18.241369247436523,-79.78230000908509,40.45917974146203,318.63060061645507,0.005714091006666422,-0.03432318940758705,-0.5425574779510498,0.8392978310585022,-0.4753816156852363,9.985710387433938,-0.14991593075256746,0.04463071748614311,0.3492344617843628,-0.13040578365325928,-1.6745042762160305,0.6845294433832169,-9.142656692862511
45.9,10.800000190734863,63.0,22.339088439941406,17.008844375610348,-79.78227877362745,40.45918791917017,318.62768618774413,0.02602522075176239,-0.04672529175877571,-0.5413737893104553,0.8390792608261108,-0.4974896631414878,9.539719216455019,-0.7487444992237546,-0.18982021510601044,0.29694241285324097,-0.007875160314142704,-1.7456008636951448,0.4163648776710034,-9.986426868438723
46.0,10.800000190734863,74.0,22.277738571166992,17.764263153076172,-79.78226842516018,40.45919191119978,318.62966983032226,0.030201062560081482,-0.04916010797023773,-0.5406790375709534,0.8392481803894043,-0.4745009326163502,9.318170623800784,-0.9001275328517366,-0.009953432716429234,-0.029074311256408688,-0.07918798923492433,-1.4489026165008545,0.3695825112238527,-10.037628597021104
46.1,10.800000190734863,75.0,22.319055557250977,16.94523048400879,-79.78224931123346,40.459199428639614,318.6222540588379,0.021734852343797684,-0.04592425748705864,-0.5413158535957336,0.8392828106880188,-0.4791341071345726,8.813138902478034,-0.8929137880151184,0.15204089879989624,-0.2416243255138397,-0.2502682209014893,-1.4530906847119331,0.5958135871589184,-10.025966910123826
46.3,10.800000190734863,74.0,22.294015884399414,17.81992530822754,-79.78223059506004,40.45920663911653,318.65378253173833,-0.004137668292969465,-0.036724358797073364,-0.5414062142372131,0.8399485945701599,-0.4866984962968562,8.495481869796835,-0.4994159104593504,0.07025859504938126,-0.1607830375432968,-0.2277336418628693,-1.1665245658904315,0.6806350515782833,-9.863475126028062
46.4,10.699999809265137,74.0,22.310291290283203,17.30306053161621,-79.78222108693885,40.45921013481125,318.6940085144043,-0.015111408196389675,-0.02728644385933876,-0.5416160821914673,0.8400471806526184,-0.4792038509275561,8.391914550841163,-0.2437483848258337,0.13242000341415405,-0.3091404736042023,-0.010669994167983532,-1.3561643144488336,0.4369003355875611,-9.67049362063408
