time,wind_speed,wind_angle,battery_voltage,battery_current,position_x,position_y,position_z,orientation_x,orientation_y,orientation_z,orientation_w,velocity_x,velocity_y,velocity_z,angular_x,angular_y,angular_z,linear_acceleration_x,linear_acceleration_y,linear_acceleration_z
0.0,0.699999988079071,351.0,23.248077392578125,-0.08746951073408127,-79.78281539818157,40.45899600894115,270.0514094552994,0.00541785778477788,-0.006336092017591,-0.7126595377922058,0.701460599899292,0.007654899776842059,0.0015357892584743876,0.010006234235124376,0.00607720110565424,0.0037998063489794727,0.002830390818417073,0.15893008058890698,0.015738153231795882,-9.809421710371973
0.1,0.6000000238418579,353.0,23.25559043884277,-0.07951773703098297,-79.78281539690981,40.45899600298088,270.0524519405365,0.005423979368060827,-0.0063421032391488535,-0.7126590609550476,0.7014609575271606,0.005433937795821713,0.0012892536752483641,0.01082272016642003,-0.005755172111093998,-0.002530573867261409,-0.007350816857069732,0.15922931184992195,0.012532628526678307,-9.810954265594482
0.3,0.6000000238418579,351.0,23.23931312561035,-0.12722837924957275,-79.7828152917571,40.45899598083917,270.0606487116814,0.005408209748566151,-0.006325806491076946,-0.7126608490943909,0.7014594078063965,0.009190338559710088,-0.006316978639099921,0.008868158443675448,-0.005983727052807808,-0.0037569014821201563,-0.004932229872792959,0.16149096004664898,-0.0021237509802449497,-9.811647745370868
0.4,0.6000000238418579,351.0,23.24306869506836,-0.09542128443717957,-79.78281511043848,40.45899599092721,270.0702675304413,0.005396953783929348,-0.006295866332948208,-0.7126631140708923,0.7014574408531189,0.00894333374177408,0.000769297780938559,0.010302693247164305,0.005021770484745503,0.004112005699425936,0.00310252932831645,0.15962652051821352,0.008467836066847667,-9.81033446073532
0.51,0.6000000238418579,346.0,23.241817474365234,-0.10337305814027786,-79.78281510962806,40.45899597697229,270.07248804187776,0.005369345657527447,-0.0062775262631475925,-0.7126654386520386,0.7014554738998413,0.006354763002550818,0.000510348950431838,0.011836401508467669,-0.0017427853308618069,-0.003031757893040777,-0.004731422290205956,0.1610974972508848,-0.010177983334288002,-9.811546003818512
0.7,0.6000000238418579,347.0,23.246826171875,-0.07951773703098297,-79.78281496934612,40.458995984739865,270.08034858322145,0.005360156763345003,-0.006261488422751428,-0.7126489281654358,0.7014725208282471,0.007477403968151878,-0.0019942220021972575,0.009384736035027477,0.003521008649840951,0.005265310872346164,0.0034285369329154487,0.1603678378276527,-0.00761748131888453,-9.811643067598345
0.9,0.6000000238418579,346.0,23.25308609008789,-0.08746951073408127,-79.78281484467189,40.45899598289446,270.08918544864656,0.0053429873660206795,-0.0062489421106874925,-0.7126437425613403,0.7014779448509216,0.007264855527825303,-0.007746570207864769,0.007590063777001919,0.005258088931441307,0.003415776649489999,0.003969593904912472,0.15979703994467856,0.009201075767632577,-9.811204526424408
1.0,0.6000000238418579,343.0,23.25308609008789,-0.07951773703098297,-79.78281485396244,40.45899597742693,270.08996603107454,0.005332386586815119,-0.006259024143218994,-0.7126322388648987,0.7014896273612976,0.0054053590434948225,-0.0076844190794206095,0.008259647668371046,-0.005113150458782911,0.000566238129977137,0.0016026654047891498,0.15969281332567334,-0.003789723218651489,-9.811107462644577
1.11,0.5,335.0,23.24306869506836,-0.07951773703098297,-79.78281472878838,40.45899597893203,270.0987811408043,0.005322895478457213,-0.006251189857721329,-0.7126303911209106,0.7014917135238647,0.005894032546798698,-0.010699262406278059,0.007494957454720714,0.0031134455930441627,0.0017576655372977257,0.003346480429172516,0.15846635984256865,0.011905594590352848,-9.811307437419893
1.3,0.5,334.0,23.248077392578125,-0.09542128443717957,-79.7828147415777,40.458995974548785,270.0995514712334,0.0053464891389012345,-0.006248778663575649,-0.7126320004463196,0.7014898061752319,0.0038967959909643186,-0.010654743792514984,0.00822249615179716,-0.006677960976958275,-0.005241044797003268,-0.009555015712976456,0.15805436868220568,0.01354097287170589,-9.810936723947526
1.5,0.5,323.0,23.25183296203613,-0.07951773703098297,-79.78281453361171,40.45899598092398,270.1080608687401,0.005308478605002165,-0.006237629801034927,-0.7126175761222839,0.7015049457550049,0.004326902093646852,-0.00033315520695652604,0.006986557926793315,-0.002091211499646306,-0.0018936920678243039,-0.0031891062390059233,0.1604610643722117,-0.003466408738167957,-9.811298081874847
1.6,0.5,315.0,23.246826171875,-0.07156596332788467,-79.78281453428825,40.45899597701845,270.10879615163805,0.00529740285128355,-0.0062430202960968035,-0.7126273512840271,0.7014949917793274,0.0041113590328934295,-0.00044666091811733653,0.007709078980185231,0.0010270146885886786,-0.0002127890766132623,-0.0009733461192809043,0.15843898756429553,0.008334505845559762,-9.810817440748217
1.71,0.5,291.0,23.22929763793945,-0.15903547406196594,-79.78281437220578,40.45899598250798,270.1167538485527,0.005311092827469111,-0.006221976596862078,-0.7126179933547974,0.7015045881271362,0.0035576753931823076,0.0010089823479889897,0.006902041776374006,-0.0024203937500715256,-0.0003247541026212275,-0.007641522213816644,0.15955090871080754,-0.007317065197275952,-9.810939062833787
1.9,0.5,278.0,23.23305320739746,-0.16698725521564484,-79.78281424147711,40.45899599297121,270.1261270365715,0.005318282637745142,-0.006252472288906574,-0.7126256823539734,0.7014964818954468,0.0054644746774081656,-0.0045240153637655,0.009187720438607098,0.005464924965053797,0.004179807845503092,0.0038716380950063467,0.16089739456772806,-0.009388344269245863,-9.811093429327013
2.0,0.4000000059604645,272.0,23.235557556152344,-0.15903547406196594,-79.78281425252912,40.45899598612849,270.1281035861969,0.005319880787283182,-0.006250896025449038,-0.7126317024230957,0.7014903426170349,0.0034213394865185297,-0.004612182749878093,0.010677848757910668,0.005478916689753532,0.0034004508052021265,0.0031829711515456442,0.1595459751226008,0.009490089247701693,-9.810622143745423
2.2,0.4000000059604645,270.0,23.24306869506836,-0.15108370780944824,-79.78281405867197,40.45899598045162,270.1357435307503,0.0053091291338205355,-0.006244485266506672,-0.7126297950744629,0.701492428779602,0.007461782134839966,0.002443442969737498,0.008286028388980073,-0.002475883113220334,0.00018280943913850933,0.002094968454912305,0.16025622909888626,-0.005034906064392999,-9.811603306531909
2.4,0.4000000059604645,256.0,23.23680877685547,-0.15108370780944824,-79.78281405356046,40.458995968144045,270.13755801534654,0.0053101046942174435,-0.006254447624087335,-0.7126352787017822,0.7014867663383484,0.006321839677570706,0.002355419798119206,0.009701214929980093,0.002005874179303646,0.004768339917063713,0.010403364896774292,0.15849033342674376,0.01390075022354722,-9.811682828664779
2.5,0.4000000059604645,247.0,23.235557556152344,-0.15108370780944824,-79.78281388154282,40.45899600425892,270.1448277554512,0.005300988443195821,-0.006255915854126215,-0.7126336693763733,0.7014884948730469,0.0007839361025020247,0.002761818026463074,0.006931506096548133,-0.003579893615096808,0.0013653663918375973,-0.00350555102340877,0.16002325410023333,0.004560650051571429,-9.811942445039751
2.61,0.4000000059604645,228.0,23.241817474365234,-0.15903547406196594,-79.78281374735144,40.458996001833256,270.1537729225159,0.0053139938972890394,-0.006263394840061665,-0.7126433849334717,0.7014783620834351,0.004631804221179671,-0.002355793145316259,0.006999529566871892,0.0014687676448374989,0.0002785235992632807,0.0014616916887462141,0.15868590451776982,0.008218351820250974,-9.810802237987517
2.8,0.5,237.0,23.235557556152344,-0.15903547406196594,-79.78281375036038,40.458995998339965,270.15450343704225,0.005313123110681772,-0.0062662330456078035,-0.7126393318176271,0.7014824748039246,0.002876866749917248,-0.0023548826193337197,0.007672859356572887,-0.007017401047050953,-0.0006977106677368282,-0.006711255759000778,0.15868162874132394,0.015695116810966282,-9.81002455830574
2.91,0.4000000059604645,244.0,23.22929763793945,-0.14313192665576935,-79.78281358531841,40.4589960221886,270.16288063144685,0.005313027184456587,-0.006263084709644318,-0.7126291394233704,0.701492965221405,-0.0005183035310202107,-0.00041039363330680066,0.0066962968493623895,-0.00647578714415431,-0.002986751729622484,-0.006875807419419289,0.16153364472091195,-0.006181047126883641,-9.810175416469574
3.1,0.5,254.0,23.24056434631348,-0.15903547406196594,-79.78281358610545,40.4589960225069,270.16358456230165,0.005332254804670811,-0.006265273317694664,-0.7126290202140808,0.7014929056167603,-0.000384612345762933,-0.0006461074235944198,0.007403361712680815,0.003189428010955453,-0.00035530966124497365,0.002447610488161445,0.16012324148789048,0.0013910948589909823,-9.811037296056748
3.3,0.5,259.0,23.230548858642567,-0.18289080262184146,-79.78281336794863,40.45899603215317,270.17234513378145,0.0053141689859330645,-0.006259703543037176,-0.7126200795173645,0.7015021443367004,-0.0003207998591480618,0.00776417381138378,0.007054620685268184,-0.004996225703507662,0.0009718828368932008,-0.0010097331833094358,0.16035594239830972,-0.0065264782437589024,-9.811223237514495
3.4,0.5,255.0,23.230548858642567,-0.16698725521564484,-79.78281335893583,40.458996032190754,270.173099609375,0.005305605009198189,-0.006268903147429228,-0.71262127161026,0.7015008330345154,-0.0004291139419910362,0.007693412632318133,0.007749970224826486,0.002875233767554164,0.0033203843049705037,0.008714362047612667,0.16147160941734912,-0.0092754655983299,-9.810556654930117
3.6,0.5,267.0,23.23806190490723,-0.15108370780944824,-79.7828132126767,40.458996038262136,270.1813379249573,0.005337504204362631,-0.006283333990722896,-0.7126187682151794,0.7015031576156616,0.0010689672504875503,0.002584563442226864,0.007276532959745759,-0.00022236947552300992,0.0018425742164254189,0.0035791590344160795,0.15954816782847048,0.00920932810753584,-9.811003382205962
3.7,0.5,270.0,23.23931312561035,-0.15903547406196594,-79.78281307950162,40.458996060806406,270.1888400039673,0.0053278105333447465,-0.006298270542174578,-0.7126202583312988,0.7015015482902527,-0.0010514981047868366,-0.0019476749242425594,0.006821394893403989,-0.0039005677681416273,0.0015259678475558758,0.0004621600091923028,0.15973456609994174,-0.004909228614997119,-9.811370587348938
3.91,0.5,276.0,23.249330520629893,-0.07156596332788467,-79.78281291398233,40.458996066460735,270.19672975158693,0.005341438110917807,-0.006271666847169399,-0.7126147747039795,0.7015072107315063,0.00222785563578263,-4.0511380262888905e-05,0.005750664774890203,0.0028535923920571804,0.0034403535537421703,0.008337441831827164,0.15801299963146448,0.013827454461716116,-9.810404627323152
4.01,0.5,279.0,23.249330520629893,-0.08746951073408127,-79.78281291419951,40.45899606539203,270.1973435602188,0.005343633703887464,-0.006269059609621763,-0.7126031517982483,0.7015190124511719,6.023571110201667e-06,-8.569878669271827e-05,0.0065598052858943405,-0.006464437115937471,-0.003242839127779007,-0.009091057814657688,0.15779935698956252,0.011865860932739452,-9.811194001436236
4.2,0.5,311.0,23.25308609008789,-0.08746951073408127,-79.78281276994848,40.458996052041,270.2051059923172,0.005339358001947403,-0.006242000032216311,-0.7126052379608154,0.7015171647071838,0.006516368555485954,-0.002890757446888979,0.005735042940379478,0.0015249133575707676,-0.00045022062840871513,-0.002184357028454542,0.15946669053286314,-0.0005508031463250519,-9.811502734422684
4.31,0.6000000238418579,320.0,23.25183296203613,-0.09542128443717957,-79.78281277359085,40.458996046338356,270.2057072839737,0.005334570072591305,-0.0062449080869555465,-0.7126020789146423,0.7015203833580017,0.005828949666095614,-0.0029148604727620717,0.006382975149937045,0.0011087474413216114,0.0009255040786229074,-0.0036514361854642643,0.1578993443772197,0.012731012448202818,-9.810063149929046
4.41,0.6000000238418579,327.0,23.249330520629893,-0.09542128443717957,-79.78281260466836,40.458996050165524,270.2132029256821,0.005312654655426741,-0.006235983688384295,-0.7125893235206604,0.7015335559844971,0.0049905409929967655,-0.00012920105510468623,0.005458398608551863,-0.004027894232422113,-0.0002113913651555777,-0.005333743058145046,0.16031228927895427,-0.009234389479388485,-9.811230254173278
4.6,0.6000000238418579,336.0,23.246826171875,-0.07951773703098297,-79.78281260500664,40.45899604555575,270.21378275966646,0.005308049265295267,-0.006225319113582373,-0.7125875949859619,0.7015354633331299,0.005270565375096239,-0.0001355406495055921,0.006133030051592482,0.003252889262512327,0.002880157670006156,0.0035327784717082977,0.16147440511733294,-0.003976469239569271,-9.810905148983002
4.8,0.6000000238418579,355.0,23.24432182312012,-0.02385532110929489,-79.782812448667,40.45899606492182,270.22171041584016,0.005296889692544937,-0.006237404886633158,-0.7125528454780579,0.7015707492828369,0.0012894713886765627,0.001098554185106613,0.006748251394646458,0.004916980862617493,-0.0004443785874173045,0.0005869678570888938,0.1596259723417461,-0.0005831021605990827,-9.811597459316252
4.91,0.6000000238418579,4.0,23.24432182312012,-0.08746951073408127,-79.78281231509784,40.45899605886976,270.22880766010286,0.005302920937538147,-0.0062184263952076435,-0.7125390768051147,0.7015848755836487,0.007984411013212513,-0.002282967246950401,0.005207939764446155,0.0024150321260094643,-0.0006275964551605284,0.003016194328665733,0.1610909739509225,-0.009384391688508914,-9.811630203723908
5.1,0.699999988079071,11.0,23.25308609008789,-0.06361418962478638,-79.78281232096998,40.458996046636265,270.2299810371399,0.005331370513886213,-0.00622576754540205,-0.712524950504303,0.7015988826751709,0.006621791581640379,-0.002289246368168584,0.006613472297564736,0.0069491942413151256,0.004279951564967632,0.004830359946936369,0.15786201355978846,0.014266575789079071,-9.81082679629326
5.2,0.6000000238418579,12.0,23.24557304382324,0.007951773703098297,-79.78281218465501,40.45899607130507,270.2390792093277,0.005338366609066725,-0.00620895903557539,-0.7125264406204224,0.7015975117683411,0.0017345942164024664,-0.004043954847928596,0.009427451396657136,-0.007435149047523738,-0.0018359707901254296,-0.005552662070840597,0.1593290251493454,0.006684622015454807,-9.810942571163178
5.4,0.6000000238418579,16.0,23.241817474365234,0.03180709481239319,-79.78281201202623,40.458996077887996,270.2477508506775,0.005333987064659596,-0.006172341294586658,-0.7125163078308105,0.7016081809997559,0.002954416700191527,0.0022949574895455393,0.008024276900474393,0.00285206432454288,0.0026790837291628122,-0.00031042768387123937,0.15912757029756905,0.005149106640019455,-9.810208160877233
5.5,0.6000000238418579,20.0,23.23931312561035,0.0,-79.78281200947491,40.4589960753872,270.24858984565736,0.0053560081869363785,-0.006161191500723362,-0.7125121355056763,0.7016122937202454,0.001935653851243439,0.0024294313576449732,0.00871773285872351,-0.0006784242577850819,-0.003966879099607468,-0.006427832879126072,0.15859088726341725,0.014872765315230938,-9.810098233222963
5.7,0.6000000238418579,18.0,23.23806190490723,0.06361418962478638,-79.78281189149321,40.45899608242424,270.2558605394364,0.005336274392902851,-0.006153336726129055,-0.7124972343444824,0.7016276717185974,0.0019367710858306363,-0.0026188060118943024,0.005484021109037725,-0.006130687426775694,-0.003936572466045618,-0.008721936494112015,0.16039787789806725,-0.008965517487376928,-9.810459591150282
5.8,0.6000000238418579,17.0,23.23806190490723,-0.02385532110929489,-79.78281189477627,40.458996080494536,270.2564340553284,0.0053277425467968,-0.00616330001503229,-0.7124917507171631,0.7016332149505615,0.002514961918960772,-0.0027099000495779584,0.006095855707885149,0.008034402504563332,0.006634489633142947,0.004127439111471176,0.1606167464889586,-0.0032741432654438537,-9.810650210380556
6.0,0.5,20.0,23.22804450988769,-0.02385532110929489,-79.78281176539657,40.458996101478455,270.26363072013856,0.005330843385308981,-0.006163464393466711,-0.7125054597854614,0.7016192674636841,-0.0005183693222489641,-0.003674432386762784,0.0032078584149950826,0.005245467647910118,-0.002047172049060464,0.003774523502215743,0.159462049305439,0.003234582626027986,-9.810675938129426
6.1,0.5,17.0,23.241817474365234,0.007951773703098297,-79.782811769663,40.458996102747356,270.26397893047334,0.005320878233760595,-0.006186602637171745,-0.7124970555305481,0.7016277313232422,-0.0018977918551078984,-0.003561117458005508,0.003940559722447808,-0.0047597219236195105,0.0005990599747747183,0.005365589167922735,0.16000456128269436,-0.007236213736468927,-9.811713234186174
6.3,0.5,19.0,23.23931312561035,-0.02385532110929489,-79.78281161758579,40.458996122940604,270.2730163059235,0.005318518728017807,-0.006225609686225653,-0.7124891877174377,0.7016353607177734,-0.003071308284423563,-0.0006212857225434313,0.00455696125051803,0.0044207586906850355,0.0010938788764178753,0.004071794915944339,0.15817562531679868,0.012345722049940378,-9.81052274107933
6.4,0.5,19.0,23.246826171875,-0.007951773703098297,-79.78281161827134,40.45899612589283,270.27350685215,0.005328507628291845,-0.006217638030648232,-0.71248859167099,0.7016359567642212,-0.004874069510130901,-0.000524016974378923,0.005340235840911939,-0.005241849459707737,0.0004994875052943826,-0.005838362965732813,0.15899598967283965,0.015289530178997666,-9.811268845796583
6.6,0.5,26.0,23.23931312561035,-0.015903547406196594,-79.7828114662625,40.45899612281339,270.28315767860414,0.005325902253389359,-0.0062190755270421505,-0.7124680876731873,0.7016567587852478,-0.0014945949820526195,0.0011887022034238,0.005644331910280565,-0.005372027866542339,-0.0052685742266476146,-0.006819233763962984,0.16168075701221826,-0.010354637769050896,-9.812713108062745
6.71,0.6000000238418579,28.0,23.24557304382324,-0.03180709481239319,-79.78281134939799,40.45899610729863,270.29209479904176,0.005315291695296764,-0.006207597907632589,-0.7124757170677185,0.7016492486000061,0.005617156368906577,-0.0015412217040306,0.005224863282812745,0.006135282572358847,-0.0003634865570347756,0.005268661770969629,0.16094159586355092,-0.008593652273411863,-9.811533139944077
6.9,0.699999988079071,25.0,23.23931312561035,-0.007951773703098297,-79.78281121340548,40.45899611669369,270.3019215784073,0.005322232376784086,-0.006200277712196112,-0.7124534249305725,0.7016718983650208,0.0023754735391990664,1.3457451371754565e-05,0.0047001088143579116,0.007988409139215944,0.004210303537547588,0.0047926194965839395,0.15833569284528495,0.015183951391372831,-9.810340307950971
7.0,0.8000000119209291,25.0,23.25058174133301,0.015903547406196594,-79.78281121342499,40.4589961156486,270.3024294099808,0.005319484043866396,-0.006192321889102459,-0.7124476432800293,0.7016777992248535,-5.5317218627327856e-05,0.00021078060050794904,0.005463943369139354,-0.0072168558835983285,-0.003690354060381651,-0.0038638329133391385,0.15799759587273002,0.014102516850689428,-9.810090047121047
7.2,1.0,32.0,23.24432182312012,0.0,-79.7828110563258,40.458996114174106,270.31265768623354,0.005304843187332153,-0.006180971395224333,-0.7124375104904175,0.701688289642334,0.001497697721313267,0.005212459801390568,0.005434755655657135,-0.006944497115910053,-0.003147078910842538,-0.004861473571509123,0.16112033793702726,-0.006743034215178341,-9.811736623048784
7.3,1.100000023841858,34.0,23.24432182312012,-0.015903547406196594,-79.7828110503825,40.45899611251226,270.3132419309616,0.005303304642438889,-0.0061988686211407185,-0.7124345302581787,0.701691210269928,0.0020868015608838373,0.005111802517072191,0.006052728058133395,0.007810668554157019,0.006503190379589796,0.006102860439568758,0.16095537336543206,-0.007037285635597073,-9.810412813425064
7.5,1.2999999523162842,39.0,23.24432182312012,-0.007951773703098297,-79.78281093534297,40.45899610841296,270.3240437231064,0.005341559648513794,-0.006210697814822197,-0.7124338746070862,0.7016914486885071,0.003102861864778484,0.0009231307632689936,0.0061458266005974685,0.010456628166139126,0.004561396781355143,0.005560752935707569,0.1592899949848652,0.01145022782497108,-9.811292234659195
7.6,1.399999976158142,39.0,23.241817474365234,0.0,-79.78281093432226,40.45899610669262,270.32469675159456,0.005331454798579216,-0.006219759117811918,-0.7124224901199341,0.7017030715942383,0.0007171814631544753,0.0011457634031629864,0.006887731589350031,-0.006168230436742307,-0.0036373308394104242,-0.011796295642852785,0.15971786499023438,0.010395343297859657,-9.810571857690812
7.8,1.5,41.0,23.23931312561035,-0.02385532110929489,-79.78281078639081,40.458996106390416,270.3352377138138,0.005341310054063797,-0.006233516149222851,-0.7124064564704895,0.7017191648483276,0.0012305951326845662,0.004917941899312954,0.0066100437476541716,-0.008921400643885136,-0.002101175719872117,-0.007735513616353273,0.1613197097182274,-0.004396348430891522,-9.811258320808411
7.9,1.600000023841858,40.0,23.24557304382324,0.007951773703098297,-79.78281066833341,40.45899609932332,270.34490129566194,0.005330052692443132,-0.006230620201677084,-0.7124092578887941,0.701716423034668,0.0054023144461718435,0.0037100536521278774,0.00514489591486285,0.008764645084738731,0.006590057164430618,0.00584216695278883,0.16188137132674454,-0.006990324613871053,-9.811402162313463
8.11,1.7999999523162842,38.0,23.24557304382324,-0.07156596332788467,-79.78281065994675,40.458996092824115,270.34609446144106,0.005315355025231838,-0.006240117363631725,-0.7123898267745972,0.7017361521720886,0.0033255960419973844,0.0036239753775126546,0.006581959128817834,0.006492504384368658,0.00151678582187742,0.007436620071530342,0.15898634176701307,0.013757431770209223,-9.810164891481401
8.2,1.7999999523162842,35.0,23.249330520629893,-0.07951773703098297,-79.782810561972,40.45899610352944,270.3566183767319,0.005314257461577654,-0.006247430574148893,-0.7123993635177612,0.7017263770103455,-0.00030784517761150613,-8.362073896052213e-06,0.005952073046153397,-0.004688417073339224,-0.0027249185368418694,-0.011976134963333608,0.1592311025597155,0.015895125847309833,-9.810284174680714
8.4,1.8999999761581416,32.0,23.25308609008789,-0.08746951073408127,-79.78281044841081,40.45899609636465,270.36795184230806,0.0053154611960053435,-0.006264456082135439,-0.7124102711677551,0.7017151117324829,0.0022159907522986072,0.000996104406806703,0.005251256200326891,-0.008478911593556404,-0.004463930148631334,-0.003804107662290335,0.1609847921691835,-0.011464664280647413,-9.811906192302702
8.51,1.8999999761581416,32.0,23.25058174133301,-0.09542128443717957,-79.78281044743791,40.458996094293255,270.368517490387,0.00530416425317526,-0.00627816841006279,-0.7124001979827881,0.7017253041267395,0.00229484461222052,0.0009525473481454367,0.005944045622676622,0.0036321254447102547,0.004314875230193138,0.00792270340025425,0.1618628429621458,-0.01264476944343187,-9.811378773450851
8.7,1.8999999761581416,32.0,23.249330520629893,-0.07951773703098297,-79.78281035665272,40.458996091746286,270.38009950733186,0.005284840706735849,-0.0062795737758278855,-0.7124017477035522,0.7017238736152649,0.001925177649672128,-0.0011246354375053572,0.006265129393662357,-0.00029139075195416814,0.0016530528664588928,0.004003482405096293,0.15830139527097345,0.016463994834339246,-9.8105215716362
8.8,1.7999999523162842,28.0,23.24306869506836,-0.10337305814027786,-79.78281035808487,40.45899609053051,270.3807605228424,0.00529925897717476,-0.006280049216002226,-0.7124024033546448,0.7017231583595276,0.0009325281668502396,-0.001096169973595839,0.0069596345089134575,-0.0001910229620989412,0.001035002525895834,-0.002490414073690772,0.15847907753661275,0.01076257128152065,-9.810114605426786
9.0,1.7999999523162842,27.0,23.25058174133301,-0.08746951073408127,-79.78281023738259,40.45899610128843,270.39465913391115,0.005299373995512724,-0.006285401526838541,-0.712402880191803,0.7017226219177246,-0.0011015940295623168,0.0029549552311798053,0.010110414995872927,0.005665095988661051,0.00047384761273860926,0.006543868221342564,0.15973796479403973,-0.002095451370114461,-9.811024432182313
9.1,1.7999999523162842,27.0,23.249330520629893,-0.07156596332788467,-79.782810233973,40.458996103337284,270.39571568584444,0.005302898585796356,-0.006292062345892191,-0.7123971581459045,0.7017283439636229,-0.0035752242171150405,0.003049512628752316,0.0109355352497282,-0.004747491795569657,-0.001385918934829533,-0.0088555458933115,0.15800536170601845,0.007220760870259256,-9.811053668260577
9.21,1.7000000476837158,27.0,23.249330520629893,-0.07951773703098297,-79.78281015663603,40.4589960626529,270.4080643377304,0.0053149014711380005,-0.006291543133556843,-0.7124106884002686,0.7017144560813904,0.004539188107876764,-0.0017732105641090773,0.008616108876893082,-0.007588935550302267,-0.002723070560023189,-0.0032763483468443155,0.16120455611497164,-0.005575690714758821,-9.811702709197998
9.4,1.7999999523162842,31.0,23.248077392578125,-0.08746951073408127,-79.78281006823397,40.45899605076938,270.42264840221407,0.005321056582033634,-0.006294087506830692,-0.7124121189117432,0.701712965965271,0.007191266469071331,-0.004046994917581491,0.011047842386042771,0.009215188212692738,0.004557696171104908,0.007198906037956476,0.160903351418674,-0.01176684541627765,-9.811934258937836
9.6,1.7000000476837158,35.0,23.248077392578125,-0.07951773703098297,-79.7828100783402,40.45899604111667,270.42498955345155,0.005324110854417086,-0.00630708783864975,-0.7124032974243164,0.7017217874526978,0.004933633646679156,-0.004079132147405966,0.012514166032956214,0.005622819997370243,0.002326187677681446,0.005501651205122471,0.15820774845778945,0.016450935672037304,-9.810979993343354
9.71,1.600000023841858,34.0,23.246826171875,-0.07156596332788467,-79.7828099808347,40.4589960324924,270.43951723194124,0.005337012000381946,-0.006305495742708446,-0.7124014496803284,0.7017236351966858,0.004577864870999997,-0.0022332179414570447,0.013302819449901427,-0.00045731768477708096,0.0008588592172600329,-0.005089520942419767,0.15814275300130248,0.016347169292857868,-9.811286387443543
9.91,1.600000023841858,36.0,23.24056434631348,-0.08746951073408127,-79.78280990910513,40.45899602728522,270.45421478366853,0.005352645646780729,-0.006300005596131086,-0.7124158143997192,0.701708972454071,0.0016586003903312815,-0.004360614318110513,0.010820087832993354,-1.5854486264288425e-05,-0.0009859129786491394,-0.0016129568684846165,0.16088054727762938,-0.010804179017432034,-9.81196817278862
10.0,1.7000000476837158,38.0,23.25308609008789,-0.07156596332788467,-79.78280991449118,40.458996026434974,270.4553299865723,0.0053514172323048115,-0.0063081434927880755,-0.7123993635177612,0.7017256021499634,0.0002848766730593709,-0.004396555556477785,0.011601774554745556,-0.00326863257214427,0.0002011493779718876,-0.003961460199207068,0.15941181806847454,-0.004927900875918568,-9.810682954788213
10.2,1.7000000476837158,43.0,23.25058174133301,-0.06361418962478638,-79.78280982805462,40.45899600886922,270.46985790348054,0.005368900019675493,-0.0062944390811026105,-0.7124133110046387,0.7017113566398621,0.0021143666776770893,-0.0019023586717723199,0.009101761204065618,-0.007356639951467514,-0.0002355696487938985,-0.003317377530038357,0.1590040295943618,0.004504296368686483,-9.8104946744442
10.3,1.7000000476837158,45.0,23.24306869506836,-0.09542128443717957,-79.7828098307176,40.45899600694222,270.47079667663576,0.005370201542973518,-0.006299121771007775,-0.7124279737472534,0.7016964554786682,0.002356832170426345,-0.002235909238809478,0.009745810351894715,0.005395255517214537,0.006055778823792934,0.006379853934049606,0.16007090890780093,-0.002339548640884459,-9.810630329847335
10.41,1.7000000476837158,53.0,23.23680877685547,-0.08746951073408127,-79.78280975031888,40.45899596043176,270.48520669555666,0.005393370985984802,-0.00629326980561018,-0.7124342918395996,0.7016899585723877,0.00918540719983313,-0.0005796279090284906,0.0075502084569011455,0.005714613012969494,0.004437263123691082,0.008301278576254845,0.1578163687326014,0.0069395697541767744,-9.810392932891846
10.6,1.7000000476837158,55.0,23.25058174133301,-0.07156596332788467,-79.78280975135013,40.45899595337165,270.48599836444856,0.005373054184019566,-0.006292385980486871,-0.7124297022819519,0.7016947269439697,0.00655056156588233,-0.0005666596509179135,0.008326983163776738,-0.0039012280758470297,-0.0025460920296609397,-0.009428457356989384,0.15911680776625872,0.011795676072360949,-9.811266506910323
10.8,1.7000000476837158,61.0,23.24306869506836,-0.11927660554647446,-79.78280968513484,40.458995925611575,270.50072691059114,0.005346958991140127,-0.006263623014092445,-0.7124243974685669,0.7017005681991577,0.0053881973375595965,-1.0977240616030693e-05,0.00818900320545812,-0.009229539893567562,-4.3668078433256596e-05,-0.005203259643167257,0.16136138940230013,-0.00719187653856352,-9.811701539754868
10.9,1.7000000476837158,65.0,23.246826171875,-0.08746951073408127,-79.78280963706567,40.45899591140386,270.5151123723984,0.005346623715013266,-0.006255952175706625,-0.7124338746070862,0.7016909718513489,0.004714801734267191,-0.002392085872737442,0.00759192803293898,0.0096184853464365,0.005871097557246685,0.0026281168684363365,0.1618183127604425,-0.006226269401377067,-9.81089930176735
11.1,1.7999999523162842,71.0,23.25559043884277,-0.07156596332788467,-79.78280964304128,40.45899590631207,270.5167777261734,0.005368508864194155,-0.0062768012285232535,-0.7124148607254028,0.7017099857330322,0.002695032120087045,-0.002566138249836207,0.009082445987459095,0.008027493953704834,0.0021003554575145245,0.0027064268942922354,0.15890566846355794,0.011907317920122295,-9.81108758211136
11.2,1.7999999523162842,74.0,23.254337310791016,-0.07156596332788467,-79.7828096073738,40.45899587618862,270.53064319705965,0.005365077871829271,-0.006284414790570736,-0.7124150395393372,0.7017098069190979,0.003785495823004915,-0.005134787945656453,0.00734088406448233,-0.004410410299897194,-5.186710495763691e-06,-0.004100254271179439,0.15850573718547822,0.005947786619653925,-9.810903979539873
11.3,1.7999999523162842,75.0,23.25934600830078,-0.09542128443717957,-79.78280962029865,40.45899586952517,270.53224358177187,0.005376758053898811,-0.006293369457125664,-0.7124130129814148,0.7017115950584412,0.0024315159709653224,-0.005409147780875609,0.008811045628576538,0.0016094341408461332,-0.0004431005218066275,0.0002505200682207942,0.15922030348330735,0.003672808598494158,-9.809924570918085
11.5,1.7999999523162842,79.0,23.249330520629893,-0.08746951073408127,-79.78280953454025,40.45899585508825,270.5462002477646,0.005380089394748211,-0.006282371934503317,-0.7124132513999939,0.7017114758491516,-0.00026951051692874605,0.0019308993441575007,0.006823662198941571,-0.0015464227180927992,-0.0011096495436504485,-0.0018540048040449621,0.15881028575822712,0.013517378442920744,-9.810837321281431
11.7,1.7999999523162842,85.0,23.24056434631348,-0.09542128443717957,-79.78280950292606,40.45899580946881,270.56075594043733,0.005374270491302013,-0.0062979599460959435,-0.7124161124229431,0.7017084360122681,0.003811352377398389,-0.0016131976658106313,0.0068814477111834435,-0.00844560656696558,-0.004780774470418693,-0.005589666310697794,0.16098119247704745,-0.009213485683430918,-9.810695818662644
11.81,1.7999999523162842,86.0,23.24432182312012,-0.10337305814027786,-79.7828095051913,40.45899580585905,270.56147441482545,0.005382715258747339,-0.00630944361910224,-0.7124148607254028,0.7017096281051636,0.0040625083387089604,-0.001808982100902668,0.007563276471361608,0.006334866862744093,0.00652358029037714,0.002322594402357936,0.16121007442474367,-0.001106211545993574,-9.810595246553422
12.0,1.7999999523162842,88.0,23.249330520629893,-0.08746951073408127,-79.78280949411742,40.458995770048,270.57498309230806,0.005402857903391123,-0.006308585871011019,-0.7124196290969849,0.7017046809196472,0.003459150547457979,-0.007087741406645974,0.004969019563568839,0.0005926094599999487,-0.0009054085821844636,-0.002718787640333176,0.1598180533759296,-0.004490257340949029,-9.810955435037613
12.1,1.7999999523162842,90.0,23.24306869506836,-0.07156596332788467,-79.78280950269698,40.45899576736685,270.57550022220613,0.005394937004894018,-0.006301934830844402,-0.712407112121582,0.7017173767089844,0.0031911148783540545,-0.007251547217705172,0.0056593558248916025,0.004241056740283965,0.0014161365106701849,0.0043843756429851055,0.1612386526912451,-0.009014863647753371,-9.811576409339905
12.3,1.7000000476837158,91.0,23.23931312561035,-0.07951773703098297,-79.78280946210374,40.45899574313013,270.58718463993074,0.005383138544857502,-0.006326008588075639,-0.7123987078666687,0.7017257809638977,-0.00011170429457965803,-0.004010784010783611,0.0012415605230217824,0.008905035443603992,0.003980894107371569,0.005299474112689495,0.15916068015620113,0.010354102154960857,-9.810431524515153
12.4,1.7000000476837158,89.0,23.24557304382324,-0.039758868515491486,-79.78280945468471,40.45899571217629,270.6016087255478,0.005379313603043556,-0.00631888909265399,-0.7124002575874329,0.7017243504524231,-0.0013165770658958695,-0.008945698060122012,0.00291779728948086,-0.002563099609687925,0.0010296875843778253,0.0020168868359178305,0.15998268904164434,-0.004533241228200495,-9.810456082820895
12.6,1.600000023841858,87.0,23.248077392578125,-0.07156596332788467,-79.78280947622324,40.45899571628955,270.60229274845125,0.005373517517000437,-0.006325164344161749,-0.7123764157295227,0.7017485499382019,-0.002727554949755111,-0.009255720784537829,0.0041875365793234455,0.004247333388775587,0.00236072950065136,0.006094895303249359,0.1595285796560347,0.012278228964423762,-9.809496554732323
12.71,1.600000023841858,88.0,23.249330520629893,-0.07951773703098297,-79.78280943387634,40.458995672212794,270.6158224067688,0.005399055313318968,-0.00630223099142313,-0.7123821973800659,0.7017427086830139,0.00016600435809811153,-0.0055984485502238715,0.004281536079714876,-0.005288835149258375,-0.002017891034483909,-0.005548475775867701,0.15826855950057508,0.01333451362559572,-9.810515724420542
12.9,1.600000023841858,90.0,23.241817474365234,-0.09542128443717957,-79.7828094029842,40.45899562706304,270.6281447134018,0.005377554800361395,-0.00628295773640275,-0.7123867869377136,0.7017382979393005,0.002878188646800637,-0.003121524300740696,3.020485962419009e-05,-0.0024375321809202433,-0.002764220116659999,-0.0066775712184607965,0.16082498045638205,-0.003655158458277583,-9.811512089967726
13.01,1.7000000476837158,92.0,23.23931312561035,-0.08746951073408127,-79.78280940682987,40.45899562446132,270.628181429863,0.005384590476751328,-0.006275417283177376,-0.7123799920082092,0.701745331287384,0.002728648729463611,-0.00325713519724618,0.0007825774894171107,0.0016319473506882787,-0.00032267658389173454,0.00036222158814780414,0.15926836028695107,0.007818048238987105,-9.811150732040408
13.2,1.600000023841858,94.0,23.24306869506836,-0.08746951073408127,-79.7828093931805,40.45899557585157,270.64224752998354,0.005391353741288185,-0.006254920735955238,-0.7123692631721497,0.7017562985420227,0.0035940837722146955,-0.005647636795986973,0.0027920668560774088,-0.006005085539072752,-0.003193669253960252,-0.00644124299287796,0.1609908038377762,-0.008500818588654509,-9.811278201341633
13.3,1.600000023841858,95.0,23.24306869506836,-0.07951773703098297,-79.7828094000686,40.45899557267765,270.6425536594391,0.005392963532358408,-0.006253272294998169,-0.7123542428016663,0.7017714977264404,0.003803102429679833,-0.0058712752845423676,0.0034754843478450185,0.005095699802041054,0.003309554420411587,0.005512181669473648,0.1606953184492886,-0.008302301049116069,-9.811261829137804
13.5,1.600000023841858,98.0,23.23680877685547,-0.08746951073408127,-79.78280939383929,40.45899552516558,270.65471586799623,0.005409646313637495,-0.006249289494007826,-0.7123535275459291,0.7017722129821777,0.00497767147544627,-0.007465428559663056,0.0004921432456747027,0.0053276680409908295,0.0008093556389212607,0.0018706725677475329,0.15989094257354738,0.009689085299614816,-9.811426720619203
13.6,1.600000023841858,100.0,23.249330520629893,-0.04771064221858978,-79.78280940265498,40.45899552167766,270.65479108905794,0.0053928508423268795,-0.0062457318417727965,-0.7123400568962097,0.7017859816551208,0.003233570308027594,-0.007402064537608908,0.0012389847740419775,-0.003789675654843449,-0.0025512296706438065,0.00014358687622006985,0.1603121796436608,-0.002609195503173396,-9.810312241315842
13.8,1.7000000476837158,102.0,23.234304428100586,-0.13518016040325165,-79.7828093605161,40.45899550660626,270.6689595899582,0.005395254120230675,-0.006257985252887011,-0.7123388051986694,0.7017871141433716,-0.001420691394637278,-0.002900275209476165,0.003189514804776477,0.0025057524908334017,0.0002458067028783262,0.007772469893097877,0.15891144258901474,0.01046997980796732,-9.81056601047516
13.9,1.600000023841858,104.0,23.241817474365234,-0.07951773703098297,-79.78280931072071,40.45899546764064,270.68280908679964,0.005402924027293921,-0.006232813466340303,-0.7123469114303589,0.7017790675163269,0.0008756879259119551,0.0019525957598563683,0.003731293164315556,-0.007047558203339577,-0.0028383985627442607,-0.0075896522030234346,0.15763143226504325,0.01274965159012936,-9.81180328130722
14.1,1.600000023841858,106.0,23.24557304382324,-0.07951773703098297,-79.7828093064432,40.45899546649462,270.68371936893465,0.005404603201895952,-0.006211073137819767,-0.7123269438743591,0.7017995119094849,-0.0007699169218180358,0.0019575050706927824,0.005287512619552988,-0.0039165462367236606,-0.001435562502592802,-0.003952953964471817,0.16107781771570445,-0.0054528152465354645,-9.811786909103397
14.2,1.600000023841858,107.0,23.246826171875,-0.07951773703098297,-79.7828092909288,40.458995421766225,270.6975649318695,0.005414681509137154,-0.006212376989424229,-0.7123242020606995,0.7018022537231445,0.002955120286934707,-0.0020806325542168467,0.0053781015495132966,0.0013004570500925185,0.0038797447923570867,-0.0012788586318492892,0.15843840284273028,0.010172934400616214,-9.810363696813585
14.41,1.600000023841858,109.0,23.23680877685547,0.21469789743423465,-79.78280928032187,40.45899537784997,270.7123106441498,0.005407257005572319,-0.006215760949999094,-0.7123215198516846,0.7018049955368042,0.003967215970298181,-0.004593648709973797,0.0060322010863696155,-0.0064385905861854545,-0.00044366417569108313,-0.006130381487309933,0.16126057974994185,-0.009307621287298387,-9.811098107099532
14.5,1.600000023841858,111.0,23.19173622131348,0.834936261177063,-79.78280928599567,40.45899537429925,270.7129423341751,0.00540849519893527,-0.006213274318724871,-0.7122514843940735,0.7018760442733765,0.0038505803059259327,-0.005145291236716124,0.006788950246341054,0.002734794979915023,6.370774644892664e-05,-0.002994010224938393,0.15704793496057393,0.00014488132728729397,-9.813363318443301
14.6,1.600000023841858,113.0,23.22679328918457,0.21469789743423465,-79.78280924306728,40.45899532040392,270.7276426277161,0.00540142972022295,-0.0061885868199169644,-0.7122910022735596,0.7018362879753113,0.005671374866666943,-0.00021434004768286843,0.007039081697076131,0.001449803588911891,-0.0030715214088559146,-0.011051724664866924,0.15606361102312805,-0.008645966009935366,-9.81104197382927
14.8,1.600000023841858,114.0,23.22804450988769,0.2306014448404312,-79.78280924355109,40.45899531451933,270.7283885202408,0.0053979475051164644,-0.006202159449458122,-0.7123277187347412,0.7017989158630371,0.007388354764998861,-0.0006198643514542515,0.007765282681672895,0.007487240247428417,0.004361024592071772,0.013930778950452805,0.1603789658099413,-0.006133668691618369,-9.809936265349393
14.9,1.600000023841858,116.0,23.231800079345703,0.20674611628055573,-79.78280920645497,40.458995278130175,270.74229690647127,0.005403782706707716,-0.0062060910277068615,-0.7122851610183716,0.7018419504165649,0.006750171767581957,0.0004676525206824874,0.0062399303679613214,-0.0006004507886245848,-0.002900140825659037,-0.012005994096398357,0.1554092527739704,-0.0014049602975137532,-9.813854484558108
15.11,1.600000023841858,118.0,23.22929763793945,0.2306014448404312,-79.78280920603648,40.458995267545646,270.7436896286011,0.005420651752501726,-0.006234433501958847,-0.7122941017150879,0.7018324732780457,0.005345548328979447,0.0008718534883634637,0.007566056497258301,0.00739741139113903,-0.0009953626431524754,0.007332828361541033,0.1670126502402127,-0.020005101752467454,-9.808666250109672
15.3,1.7000000476837158,121.0,23.22554016113281,0.2624085247516632,-79.78280922564954,40.45899520623003,270.75631484603883,0.005440042354166508,-0.006244951393455267,-0.7123000621795654,0.701826274394989,0.009224735733155702,-0.0075296873442955705,0.004024437235621437,0.0008319832850247622,-0.006159641314297914,-0.004128510132431984,0.161556576769799,0.001706580123282038,-9.808392015695572
15.4,1.7000000476837158,122.0,23.21677589416504,0.3180709481239319,-79.7828092236039,40.45899518424668,270.7712309083939,0.005452384240925312,-0.006258729379624128,-0.7123516798019409,0.7017737030982971,0.006583955343742281,-0.011556056799384908,0.004999167799983383,0.002247379627078772,0.00339870760217309,0.010238615795969965,0.16136367347091438,-0.00020553905196720734,-9.813331743478775
15.6,1.7999999523162842,129.0,21.898366928100586,17.95510482788086,-79.78280925099223,40.45899517515382,270.7723439655304,0.005469199735671282,-0.006251678802073003,-0.7123802900314331,0.7017445564270021,0.0069167490682832,-0.010940054217436776,0.007406932031674611,0.009532920084893705,0.0022512469440698624,0.010621420107781887,0.15833604002371432,0.01951743026264012,-9.807663452625276
15.7,1.8999999761581416,129.0,23.17170333862305,1.2245731353759766,-79.78280923731548,40.458995158299814,270.7860312185288,0.0056256582029163855,-0.006856229621917009,-0.7125040292739868,0.7016119956970215,0.0009392945948882061,-0.00917831747824753,0.0054631485842321645,-0.008269177749752998,-0.04112784937024117,0.004429898224771023,0.1995630582422018,0.05528423627838493,-9.787946056723596
15.9,2.299999952316284,132.0,23.22929763793945,0.15108370780944824,-79.78280925714706,40.45899516539482,270.79793951129915,0.005611293017864227,-0.00703910319134593,-0.7124835848808289,0.7016311287879944,-0.00805150549924705,-0.015170483724873332,-2.714433993995679e-05,-0.016784869134426117,-0.04010945186018944,0.0010986304841935637,0.14397831162437796,-0.019984211660921576,-9.81293881058693
16.0,2.5,130.0,22.6132869720459,8.492494583129883,-79.78280927718738,40.458995168363145,270.7979548892975,0.0055831759236753,-0.007102752104401589,-0.7124543190002441,0.7016603350639343,-0.006470044690036158,-0.018636796206111344,0.0031797812618826315,-0.017745232209563255,0.0032801043707877398,-0.0005693839048035443,0.1908184558711946,-0.015956905335187913,-9.85936804175377
16.2,2.700000047683716,137.0,23.22053337097168,0.2862638533115387,-79.78280918659912,40.45899512609208,270.80986377811433,0.005642842967063189,-0.007311527151614429,-0.7125218510627747,0.7015891075134277,0.0010385072017780519,-0.00035036955477141333,-0.0013075676447863952,-0.015258087776601316,0.008769630454480648,-0.013031355105340479,0.2013929078355432,-0.008045627125538886,-9.789434173107148
16.3,2.5999999046325684,139.0,23.22679328918457,0.15108370780944824,-79.7828091881908,40.45899512567126,270.8097258529663,0.005600471515208483,-0.007377711124718189,-0.7124285697937012,0.7016835212707521,0.0020787741073559464,-0.0007318424871068318,-0.00036653888311329177,0.02850293181836605,0.008884231559932232,-0.0012722865212708714,0.16768926445394755,0.005246489618439228,-9.812309650182724
16.5,2.799999952316284,143.0,23.105342864990234,2.2105932235717773,-79.78280920429866,40.45899511015489,270.8238392791748,0.00555263226851821,-0.0074776955880224705,-0.7124204635620117,0.7016910314559937,-0.0011713578368586846,-0.006763456552535404,-0.0008450559907379454,-0.007597554475069045,-0.032020386308431625,0.009823241271078588,0.1786206341162324,0.027893961828667668,-9.814283670186997
16.6,2.700000047683716,145.0,22.99766731262207,3.800947904586792,-79.78280921301561,40.45899511120373,270.8238522729874,0.005559404846280813,-0.007509959395974874,-0.7124083042144775,0.7017030715942383,-0.0004984306204429094,-0.007731283805695793,0.0006698497017064143,0.004072035662829876,-0.006409837398678064,0.009412103332579136,0.16736013930290938,0.035898788636550306,-9.811833686828614
16.8,2.700000047683716,147.0,22.90251159667969,5.470820426940918,-79.78280918055921,40.45899507359773,270.8393535337448,0.0056079076603055,-0.007403753232210874,-0.7125742435455322,0.7015352845191956,-0.0010827251226411645,-0.005419454867282316,0.003721701727489832,-0.014696577563881876,0.023111522197723392,-0.010643735527992249,0.1716890888661146,-0.02161884190980345,-9.821963403224943
16.9,2.700000047683716,147.0,22.83990859985352,6.671538352966309,-79.78280917747004,40.45899504280492,270.8549027166367,0.0057354411110281936,-0.007479389663785695,-0.7126471996307373,0.7014593482017517,0.0014606765876078432,-0.008860384942330489,0.005999005074813213,-0.05316952243447304,0.011284898966550829,0.0009004056919366121,0.1784511744976044,0.14679209229536355,-9.80914630651474
17.1,2.700000047683716,148.0,22.69216728210449,9.120684623718262,-79.78280920102887,40.45899503600836,270.85613164520265,0.005920003168284893,-0.007412424311041831,-0.7128140330314636,0.7012889981269836,-0.00010841703291145178,-0.011152705669853094,0.00721300359296283,0.004341340158134699,-0.013686173595488071,-0.013913939706981182,0.1730900086462498,0.1142626520432532,-9.796780614852906
17.2,2.799999952316284,148.0,22.632068634033203,10.544052124023438,-79.78280913113342,40.45899498729822,270.87336632823946,0.00643492816016078,-0.007697063032537699,-0.7129381895065308,0.7011551856994629,0.01415304289682309,-0.002522853509956784,0.012153077623113795,0.1002497598528862,0.0858130007982254,-0.09027504175901413,0.11865316182374955,-0.08522271132096647,-9.773320416212082
17.4,2.5,150.0,22.461790084838867,13.319221496582033,-79.78280913398369,40.45899494041149,270.8890865764618,0.00766053842380643,-0.00807503703981638,-0.713080108165741,0.7009941935539246,0.0023599886006456013,-0.0054183051062734935,0.017555108589901055,-0.051273997873067856,-0.02655774541199208,-0.04938701912760735,0.2879598392173648,-0.057202579826116574,-9.872621340751648
17.5,2.5,152.0,22.365381240844727,15.028852462768555,-79.78280914896472,40.45899493067128,270.8909394464493,0.009304694831371307,-0.00864913873374462,-0.7131367921829224,0.7009097933769226,0.005268323698328589,-0.022494052260943143,0.016548566913645275,0.020762428641319275,0.030887281522154805,-0.0067814895883202535,0.1285968819446862,0.21531204024329784,-9.751533105969427
17.7,2.5,153.0,22.21012687683105,17.891490936279297,-79.78280913455781,40.458994886519385,270.90779718971254,0.011990047991275787,-0.00860214326530695,-0.7129917144775391,0.7010172605514526,0.012597621505554006,-0.006622254392572938,0.014248350027346824,0.027583852410316467,0.0982157588005066,0.0062630600295960894,0.2050181449949741,-0.032080218773335216,-9.82391988158226
17.8,2.4000000953674316,154.0,22.09619140625,19.712448120117188,-79.78280914134999,40.458994874636936,270.9095797262192,0.013484237715601921,-0.007003432605415583,-0.7121796607971191,0.7018328309059143,0.014565010928356471,-0.014399497456001971,0.014251327253893269,0.09861518442630768,-0.003752749878913164,-0.012542029842734335,0.1633460623025894,-0.13157607486471534,-9.730515289306641
18.0,2.5,152.0,21.855796813964844,23.71219062805176,-79.78280915452045,40.45899486632454,270.9296457490921,0.015712449327111244,0.0011071793269366026,-0.7110339999198914,0.7029812335968018,0.02003489342821509,-0.01904753060073882,0.08323615909650545,0.1659092754125595,0.002327487803995609,-0.029971234500408176,0.3150498796999455,-0.08222287042066455,-10.031042293310168
18.1,2.4000000953674316,153.0,21.77316093444824,25.294591903686523,-79.78280918279002,40.45899484495685,270.94201323604585,0.016729749739170074,0.007652837317436933,-0.7111268043518066,0.7028231024742126,0.025012597920644364,-0.03262214516237469,0.17772042518249126,0.12434416264295578,-0.09683966636657716,0.07433802634477615,-0.17893905155360698,-0.3639938886836172,-10.661193215847016
18.3,2.5,154.0,22.001035690307614,20.99268341064453,-79.78280923071338,40.458994958216095,270.9914089164734,0.003595290938392281,0.0015834036748856304,-0.7107591032981873,0.7034245729446411,-0.0017980055085649925,-0.03018580433569553,0.31136167503955897,-0.3424047529697418,0.0534963496029377,0.056284110993146896,-0.027133008381351832,-0.2986389746144414,-10.940739240646362
18.4,2.5,156.0,22.0423526763916,20.292926788330078,-79.7828092184821,40.458994616161924,271.0262583217621,-0.006836113519966602,-0.006993806455284357,-0.7112597227096558,0.7028613090515137,-0.005452953628919175,-0.024758976082055555,0.30547846845501625,-0.2045211642980576,-0.004341126885265112,-0.028545146808028218,0.10209191020578147,-0.1551801332831383,-10.19078354716301
18.5,2.5999999046325684,156.0,22.04986572265625,20.110036849975586,-79.78280926312725,40.45899462535087,271.0912432394028,0.002498317509889603,-0.0027306810952723018,-0.7110282778739929,0.7031537294387817,-0.01999612203894677,-0.013071623158709468,0.3163235493899851,0.1283503770828247,0.0533427819609642,-0.026922443881630898,0.08366764431819321,0.059281995892524725,-10.082385524511338
18.7,2.700000047683716,158.0,21.984758377075195,20.8256950378418,-79.78280910672571,40.45899475437769,271.11608991241457,0.004173527006059885,-0.001185604021884501,-0.7111345529556274,0.7030425667762756,-0.060818107448016676,0.00011839175625228891,0.2609347320702702,-0.02250055968761444,-0.05852385237812996,0.05624418333172798,0.12576410695910453,-0.2894358957186341,-9.702938650846482
18.9,2.799999952316284,158.0,21.88083839416504,22.46376037597656,-79.78280925991228,40.4589948197824,271.1671980342865,0.0007009999244473875,0.003116521751508117,-0.7130808234214783,0.7010746002197266,-0.07745032097230417,-0.005589908981791951,0.22908860277148602,-0.01669591851532459,0.02976460754871368,0.03525394946336746,0.0021425020415335896,-0.10564486116170883,-9.812141250371932
19.0,2.9000000953674316,160.0,21.890853881835934,22.447856903076172,-79.78280925933605,40.458994896582716,271.19011363601686,0.002158512594178319,0.004344225395470858,-0.7143296599388123,0.6997925639152527,-0.09015559358500508,0.0017602699745315128,0.23529997432620745,0.08943834900856018,0.03889870271086693,0.057632647454738624,0.06101675514131785,-0.17382566146552564,-9.861177170276642
19.2,2.799999952316284,158.0,21.890853881835934,22.288822174072266,-79.78280949015897,40.45899515421017,271.26963529205324,0.008603286929428577,0.002332486445084214,-0.7150884866714478,0.6989771127700806,-0.12310516279679393,-0.015327707317449852,0.2981040638638849,0.06740731745958327,0.00047967891441658123,-0.10843165218830107,-0.01045469367876649,-0.3694961551576853,-9.859661571979524
19.3,2.9000000953674316,161.0,21.959716796875,20.921117782592773,-79.78280950932157,40.45899526369433,271.3015244922638,0.011863925494253635,0.0043190247379243365,-0.7135853767395021,0.7004545331001282,-0.12629120886486214,-0.010795584827682322,0.3298677758551369,0.08931360393762589,0.0038144944701343775,-0.02588352560997009,0.2473270077444613,-0.09340007895603776,-10.127461709976195
19.5,2.799999952316284,163.0,21.918399810791016,21.30280303955078,-79.78280936664105,40.458995510402296,271.3845108470917,0.014111394993960856,0.004648901987820864,-0.7103082537651062,0.7037339806556702,-0.12223926900341638,0.018740106193732155,0.34366353613793305,0.07437507808208466,-0.030487243086099625,-0.03320923075079918,0.24005884559825064,-0.3011603305488825,-10.052239619493484
19.6,2.9000000953674316,163.0,21.92716407775879,21.23123550415039,-79.78280934756067,40.458995616337326,271.419606300354,0.015708493068814278,0.0047959433868527395,-0.7092891931533813,0.7047263383865356,-0.12433165147535473,0.02690778889284344,0.35333491025387065,-0.010709686204791069,0.025867881253361702,-0.04450196400284767,0.255203371681273,-0.2676442366093397,-9.910500773191453
19.8,3.0,163.0,21.915895462036133,21.50954818725586,-79.78280948985821,40.45899593750315,271.51517209625246,0.016752185299992558,0.005157125648111105,-0.7092759013175964,0.7047131061553955,-0.15312673105287586,0.01212089632431021,0.3660418624198848,-0.026408590376377102,-0.017730381339788437,0.01872327551245689,0.2041484082117677,-0.28775211688131097,-9.882657501697539
19.9,3.0,165.0,22.69091415405273,8.961648941040039,-79.78280934476277,40.458996078484894,271.57553872680666,0.016011351719498634,0.005733659025281668,-0.710351288318634,0.7036418318748474,-0.13887305589870402,0.04152121655467685,0.37753898668785024,0.02241184748709201,-0.040282133966684334,0.06615632772445679,0.12812888542190196,-0.31066410250961785,-9.70683932840824
20.1,3.0,169.0,21.736852645874023,23.9825496673584,-79.78280925787158,40.45899631035389,271.62754211044313,0.015946701169013974,0.00393108744174242,-0.7115486860275269,0.702444851398468,-0.141127048649445,0.039278975931275516,0.14015099179605972,-0.08836977183818817,-0.02080906741321087,0.08832996338605881,0.19375951398164035,-0.3459567998349667,-8.764045971035959
20.21,2.9000000953674316,170.0,21.685518264770508,24.89700508117676,-79.78280920330887,40.458996537258855,271.6802390537262,0.013472308404743671,-0.0006314011407084763,-0.7120457887649536,0.702003538608551,-0.14674603900864389,0.045214323851340964,0.1867099066751295,-0.06134605407714844,-0.042102087289094925,0.08138129860162735,0.1054895079508424,-0.33577058471739296,-9.618644020557404
20.4,2.9000000953674316,176.0,21.5352725982666,27.38591003417969,-79.78280897054292,40.45899668933023,271.76660618400575,0.016132982447743416,-0.004567443858832121,-0.7133357524871826,0.7006218433380127,-0.12653759491809813,0.07264586543299502,0.40455528012100456,0.0212713573127985,0.053130313754081726,0.02555159479379654,0.21931279655545952,-0.27169820258393884,-10.251320940256118
20.5,2.799999952316284,177.0,21.395042419433594,30.21674156188965,-79.78280889250219,40.458996798782174,271.8140567264557,0.018149079754948616,-0.004276024643331765,-0.7134022116661072,0.7005066871643066,-0.13529464727548635,0.08018687884973755,0.54490682300459,0.03134256601333618,-0.07394437491893767,0.061725027859210975,0.2640570611692965,-0.36434117674827576,-11.13029895544052
20.6,2.799999952316284,177.0,21.436359405517575,29.83505630493164,-79.78280881484936,40.45899690932806,271.87787136650087,0.017772544175386432,0.00035881332587450743,-0.7133363485336304,0.7005963921546936,-0.13603166926810156,0.08109389218653291,0.7256727979655929,0.10712212324142456,-0.15628328919410706,0.15280656516551971,0.2255475546978414,-0.4655946327745914,-11.496501885652542
20.8,2.9000000953674316,178.0,21.378765106201172,30.47914886474609,-79.78280878805762,40.45899720069357,272.0624884090424,0.01714300736784935,0.006960095837712288,-0.7124708890914917,0.7014577388763428,-0.14720245819122446,0.0630808852611244,1.0872319737387133,-0.0038539739325642586,0.008233822882175446,0.03731471672654152,0.13400577569380406,-0.2969680231064558,-11.753446083068848
20.9,2.799999952316284,180.0,21.38627815246582,29.48517799377441,-79.78280867799619,40.45899729687015,272.19001540756227,0.018988922238349915,0.003630377352237701,-0.7119775414466858,0.7019361853599548,-0.15116325431552866,0.05584852242761109,1.2686233840286163,0.025367556139826768,0.11819988489151,-0.060292761772871024,0.2233635831065476,-0.22063116095960145,-11.819717255830765
21.11,2.799999952316284,178.0,21.2134952545166,33.38949966430664,-79.78280860712289,40.45899748958725,272.48457154846193,0.01742696575820446,-0.001220336533151567,-0.7111443281173706,0.7028290033340454,-0.1431889767282845,0.06972539919753792,1.671519133109001,0.10547920316457747,-0.1029740869998932,-0.05590049922466278,0.2376427030004561,-0.3420121950656176,-11.810763999223713
21.2,2.700000047683716,181.0,21.202226638793945,32.41143035888672,-79.78280845929352,40.45899765490713,272.86961540794374,0.013132871128618715,0.011605908162891865,-0.7067057490348816,0.7072904706001282,-0.16073641156228885,0.07134574799763749,2.1148989682797223,-0.10501109808683397,-0.08623114973306656,-0.11736074835062027,0.22574921054765584,-0.1971727347560227,-12.027164772748947
21.41,2.5999999046325684,180.0,21.189706802368164,33.35769271850586,-79.78280829779159,40.458997703728926,273.1084695777893,0.010558470152318478,0.010641030967235563,-0.7045072913169861,0.709538459777832,-0.14748610602263607,0.06556568315355876,2.317191721835328,-0.02432723343372345,-0.0048328065313398855,-0.09321049600839616,0.15627593804150822,-0.20713927729055287,-11.931972101926803
21.5,2.5,186.0,21.18219375610352,32.26034545898437,-79.78280821732645,40.45899774994954,273.350393863678,0.01241127494722605,0.010135389864444731,-0.7039002776145935,0.7101181149482727,-0.1193480196035928,0.07702064867537735,2.5179944571940105,-0.009075387381017208,0.05529959499835968,0.035839829593896866,0.18935588451102373,-0.05106886887922883,-11.860893348455427
21.7,2.5,185.0,21.342456817626953,29.64421272277832,-79.78280788995198,40.45899779569189,273.9419318161011,0.022979579865932458,0.005009362008422613,-0.7088570594787598,0.7049600481987,-0.08185454854655119,0.101131477043604,2.948579451663928,-0.04396072030067444,0.2276270687580109,0.08640526235103607,0.0683341252617538,-0.07304720948450268,-11.866614264249804
21.8,2.5999999046325684,179.0,21.358732223510746,29.532888412475586,-79.78280781306371,40.458997747009114,274.2450390777588,0.02638377994298935,-0.003673335071653128,-0.7128357887268066,0.7008249759674072,-0.050095514265266435,0.13072545008324282,3.1041424056808844,-0.15334543585777285,0.13437075912952426,0.042023777961730964,0.13372950389049948,-0.01489784895675257,-11.412093819379807
22.01,2.5,171.0,21.64545249938965,24.51531982421875,-79.78280754328068,40.458997550758475,274.9453211746216,0.01739576831459999,-0.005466069560497999,-0.7172331213951111,0.6965947151184082,0.0734550549657059,0.17115050345746669,3.3427266578002324,-0.07568896561861037,-0.1764102280139923,0.008463781327009201,0.25109204817563296,0.10074913367629053,-10.79760174036026
22.2,2.5,129.0,21.61164665222168,24.91290855407715,-79.78280702008989,40.45899701700974,275.7468281707764,0.000254134793067351,-0.006066869013011456,-0.7180081605911255,0.6960082650184631,0.18830236371539785,0.07243964131198767,3.473298833089221,-0.006037825252860785,-0.030736638233065605,0.002437425777316093,0.045866098618134864,0.03353476848453284,-10.416397193670274
22.3,2.5,65.0,21.606639862060547,24.36423492431641,-79.78280701139015,40.458996827552966,276.09477910614015,-0.0014652459649369116,-0.0075272819958627215,-0.7179225087165833,0.6960808038711548,0.2324907529159863,0.04298075462166824,3.4837017573355533,-0.07936651259660721,0.041178200393915176,-0.07338353991508484,0.11108251590281726,0.3906438530981541,-9.99579059958458
22.4,2.5,10.0,21.76439666748047,21.692440032958984,-79.78280653383534,40.45899663905326,276.50923976516725,-0.0016715341480448842,-0.009435211308300495,-0.7174073457717896,0.6965880393981934,0.2580748236290626,0.06443313155934949,3.5134159170468484,-0.0228071641176939,-0.036201979964971535,0.02384831197559833,0.17349196817725898,0.12297843860462307,-9.925564370155335
22.6,2.5999999046325684,6.0,21.829504013061523,20.984731674194336,-79.78280644485847,40.458996206393095,277.21119794464107,0.0012889675563201304,-0.005819282028824091,-0.7150515913963318,0.6990463137626648,0.2938590552966697,0.08709177149511227,3.4956231615467632,-0.0652385801076889,0.00334022450260818,0.013796286657452585,0.15168179897591472,0.2391981537267566,-9.628893020153047
22.8,2.799999952316284,356.0,21.654216766357425,23.378215789794922,-79.78280592126255,40.45899608705655,277.9460717163086,-0.00894912052899599,-0.03151575475931168,-0.7140644788742065,0.6993129849433899,0.3324771913198803,0.1355325960093745,3.3169234705870845,-0.1410272866487503,0.2554628551006317,0.006415932904928923,0.16445696018636227,0.07910867990925909,-9.062425292730333
22.9,3.0,357.0,21.69803810119629,22.52737617492676,-79.78280562070087,40.45899648349719,278.2129040679932,-0.004734642338007689,-0.03797689825296402,-0.7135336399078369,0.6995749473571777,0.3580802297211045,0.18661229570372834,3.1483376085889905,0.06857287138700485,0.10196557641029358,-0.10112649202346803,0.4583211715891958,0.6139404673129321,-8.783864523768425
23.0,3.2000000476837163,4.0,21.84703254699707,19.784013748168945,-79.7828055445698,40.45899632734852,278.5245343170166,-0.001069862861186266,-0.03880871459841728,-0.7117869853973389,0.7013217210769653,0.34907979272398504,0.19992364940580906,3.0409942566610457,0.10302836447954178,0.03479458764195442,-0.07456999272108078,0.2848419576510787,0.5222086903452874,-8.744774717688559
23.2,3.299999952316284,7.0,21.56782531738281,24.642547607421875,-79.7828047064568,40.45899518518816,279.2023659667969,-0.0074511743150651455,-0.03812696784734726,-0.7109860181808472,0.7021323442459106,0.3600112400827584,0.1745556521623501,2.8579756662588363,-0.06917393952608109,-0.08536143600940704,-0.03367622196674347,0.13436874160543086,0.3130570755153895,-8.784555664658546
23.3,3.5,12.0,21.511484146118164,25.62856674194336,-79.78280469375504,40.45899501261385,279.48681172943117,-0.01213652640581131,-0.03594428300857544,-0.712211012840271,0.7009395956993103,0.35977495033307993,0.13013353704145045,2.7987654147583934,-0.017800139263272285,-0.1783846765756607,0.02228769473731517,0.09539774363860487,0.4352653444558382,-9.112628901600836
23.5,3.5,10.0,21.572834014892575,24.348331451416016,-79.78280425154591,40.458994360114716,280.1678257904053,-0.010330121032893658,-0.01825748011469841,-0.7150558233261108,0.6987525820732117,0.3678263205894377,0.05699269033008408,2.8149971772464317,0.16952547430992124,-0.1040344089269638,0.06261837482452393,0.10342058032751084,0.27118637021631004,-9.586967314481736
23.7,3.5,7.0,21.654216766357425,23.250986099243164,-79.782804187456,40.45899406299774,280.76824102020265,-0.015553502365946768,-0.020196279510855675,-0.7166882157325745,0.6969277858734131,0.2778770081536757,0.011114011849935351,2.7901935851898623,-0.2161596715450287,0.002006511902436614,-0.0015221636276692152,-0.057889097761362786,0.1896806425228715,-9.667256017327313
23.8,3.5999999046325684,5.0,21.604135513305664,24.03026008605957,-79.78280419854008,40.45899391015771,281.0436764678955,-0.023195981979370117,-0.028000537306070328,-0.7170246243476868,0.6960988640785217,0.3009733931263149,0.013912472876611778,2.700525916208725,-0.141911581158638,-0.04178935289382935,0.03445339947938919,0.01589917321689427,0.2397663934528828,-9.03695014357567
23.9,3.5999999046325684,357.0,21.566574096679688,25.09579849243164,-79.78280424691984,40.45899392086464,281.32584771728517,-0.02507207356393337,-0.030839722603559494,-0.7167803049087524,0.6961654424667358,0.3395809027136104,0.016324842748463853,2.6252171541471885,0.03878407925367355,0.05895406752824784,-0.039841413497924805,0.2065489460527897,0.342534936144948,-8.873235706686973
24.1,3.700000047683716,357.0,21.214746475219727,30.69384765625,-79.78280421816154,40.45899373523664,281.82901486968996,-0.017668506130576134,-0.0258446466177702,-0.7161714434623718,0.6972219347953796,0.2456027390933565,0.0603382029340088,2.385677986863651,0.21351458132267,0.04614589735865593,0.040833547711372375,0.2794564527645707,0.3464706239104271,-8.750780977606771
24.3,3.700000047683716,356.0,21.21099090576172,30.28830718994141,-79.78280422081714,40.458993580385865,282.3107071838379,0.007903666235506535,-0.016463037580251694,-0.7130908966064453,0.7008337378501892,0.14201942568245468,0.0956043496401122,2.360410658307821,0.1333187222480774,0.12474501878023148,-0.1453724354505539,0.1989912736415863,0.22410194026306274,-9.123057410717012
24.41,3.799999952316284,355.0,21.14087677001953,32.109264373779304,-79.78280435049305,40.458993452421325,282.56407651519777,0.014125768095254896,-0.01843767799437046,-0.7134611010551453,0.7003098130226135,0.11839678176366313,0.1341759115396772,2.446584078556375,-0.0534404031932354,0.09151957184076308,-0.015493500046432018,0.3799296344071627,0.2718869762867689,-10.020748854875565
24.5,3.9000000953674316,350.0,21.281105041503906,29.413612365722656,-79.7828043020753,40.45899335698547,282.811864944458,0.014948757365345957,-0.025349048897624016,-0.714687168598175,0.6988248825073242,0.13615773646834708,0.15576540560444596,2.5034238624791567,-0.17291243374347687,0.07109475135803223,-0.1601346880197525,0.5020371850579978,0.5287420036643744,-10.295486129522326
24.71,4.0,348.0,21.162160873413086,31.695770263671875,-79.7828044870008,40.458993496014436,283.2884674987793,-0.0015966532519087195,-0.03783062472939491,-0.7130982875823975,0.7000408768653871,0.19577965972761813,0.1366789101559368,2.565547791231963,-0.21802203357219696,-0.05540496855974197,0.0344204381108284,0.40868594862520696,0.4683668708056212,-10.29348404288292
24.8,4.099999904632568,341.0,21.169673919677734,30.431438446044922,-79.78280450137012,40.458993397695615,283.54909143066413,-0.009900731034576893,-0.041146453469991684,-0.7112585306167603,0.701655387878418,0.2530460683958244,0.12043838032848035,2.632568899060606,-0.09907083958387376,-0.04751734435558319,0.04849537834525108,0.3627378702163697,0.3881056864187122,-10.407232267856598
25.0,4.099999904632568,338.0,21.173429489135746,30.821075439453125,-79.7828047086732,40.45899331800319,284.029038520813,-0.01560670044273138,-0.038717899471521385,-0.7079534530639648,0.7050243616104126,0.2815261303630649,0.08322330569971917,2.7444311934051355,0.06938794255256653,-0.04898805543780327,-0.0817110612988472,0.3957757715508342,0.4942407635226846,-10.581871057748797
25.1,4.099999904632568,332.0,21.19095802307129,30.685895919799805,-79.7828047428228,40.458993282732116,284.30827912902834,-0.014257026836276053,-0.036595925688743584,-0.7069920897483826,0.7061300873756409,0.2254945646115122,0.06244798657810585,2.8133911307687445,-0.049803420901298516,0.014147427864372732,0.007552166469395161,0.2778520864248276,0.3786441240459681,-10.515185902118684
25.3,4.199999809265137,328.0,21.29237365722656,28.538917541503906,-79.78280483473075,40.458993460030015,284.82300958251955,-0.010160405188798904,-0.03564249724149704,-0.7067747712135315,0.7064671516418457,0.1771724130141371,0.07283645479962589,2.8840008112616107,0.09043543040752412,0.008577768690884113,0.0496797189116478,0.38863098565489057,0.4604980168864131,-10.2655483853817
25.4,4.400000095367432,327.0,21.232275009155273,29.37385368347168,-79.78280500942881,40.45899373396717,285.0483609161377,-0.009163221344351768,-0.03195079043507576,-0.7073881030082703,0.7060434818267822,0.13866425085360656,0.05387431843292483,2.85181444919065,0.08415434509515762,0.04968404397368431,0.07466915994882584,0.3510569605976344,0.5045867172628642,-10.007886149883273
25.6,4.300000190734863,329.0,21.125850677490234,31.520832061767567,-79.78280511028807,40.45899383125863,285.62233361816413,-0.0068896375596523285,-0.02995126321911812,-0.7095391154289246,0.7039955258369446,0.08518873245641426,0.03750412733700515,2.8853614449375296,-0.008848742581903934,0.07279939204454422,0.06671211123466493,0.2642229393683374,0.3085659753531217,-9.983870465755462
25.7,4.400000095367432,334.0,21.229772567749023,29.42156410217285,-79.78280532568793,40.45899428222638,285.82117852783205,-0.00686421152204275,-0.03221934661269188,-0.7107222676277161,0.7027009725570679,0.0592393351404969,0.02622780285075428,2.85064218320464,0.007081456016749144,0.0654325932264328,0.10275250673294067,0.3693931710720063,0.3841003436967731,-10.086919455528259
25.9,4.400000095367432,336.0,21.268585205078125,29.23072052001953,-79.78280570043061,40.45899478348235,286.30787286376955,-0.004092078190296888,-0.03083680756390095,-0.7131871581077576,0.7002831697463989,0.045827399823448495,-0.004465120559585535,2.7997201271058687,-0.020239885896444317,-0.04122956097126007,0.01619815081357956,0.29153462586924433,0.5038445594161749,-9.791601151227953
26.1,4.400000095367432,339.0,21.183446884155273,30.240596771240234,-79.78280597293319,40.458994975952,286.867248626709,-0.013519816100597382,-0.030682217329740524,-0.7149355411529541,0.698386013507843,0.03934882445329317,-0.03423281019889038,2.8172055029179845,-0.07602211833000183,-0.0036021275445818897,-0.015364626422524454,0.2409839299321175,0.6047817541658879,-9.806510966420174
26.2,4.300000190734863,340.0,21.27985382080078,27.823257446289066,-79.78280649846229,40.45899500398206,287.0747223815918,-0.018437229096889496,-0.030326824635267258,-0.7156498432159424,0.6975569128990173,0.06953158015195746,-0.07972723606220719,2.7661281998013942,0.0620473250746727,-0.1135336309671402,0.09858496487140657,0.271748506911099,0.4655310808494688,-9.85564453482628
26.3,4.300000190734863,341.0,21.21975517272949,28.66614532470703,-79.78280665680866,40.458995104863426,287.35041055297853,-0.021085256710648537,-0.026483630761504173,-0.7165600657463074,0.6967035531997681,0.07490141990268312,-0.07717692085048697,2.7476340839976032,-0.007155241910368205,-0.13634175062179565,-0.015180612914264204,0.3473935338109732,0.4803470482304693,-9.608696152567864
26.5,4.5,342.0,21.16090965270996,29.771442413330078,-79.78280721528431,40.45899536024343,287.8643303833008,-0.015945110470056534,-0.01666547916829586,-0.7181206941604614,0.6955362558364868,0.04470942856338445,-0.10328018449810857,2.7213072280047435,0.04093431681394577,0.021904511377215385,0.11470023542642592,0.18480583710595969,0.3840135856345296,-9.762919973731039
26.7,4.599999904632568,344.0,21.19721794128418,29.453371047973643,-79.78280757233591,40.458995517648134,288.40213975524904,-0.009011771529912949,-0.024626843631267548,-0.7183346152305603,0.6952033638954163,0.060024633570127,-0.033531008392391135,2.6772414792183388,-0.016869125887751583,0.1636844426393509,0.07780367136001587,0.3464564809575677,0.5152911418676377,-9.468649490475656
26.8,4.699999809265137,346.0,21.341203689575195,26.43964767456055,-79.78280763735094,40.45899557483976,288.66968927001955,-0.009901227429509165,-0.03108715824782848,-0.7190312147140503,0.6942116022109985,0.07217070705163313,0.008283845961117338,2.6674939256095875,-0.04316559806466103,0.091177336871624,0.11010155826807022,0.4084989839047194,0.5674094945937396,-9.677757031917572
26.9,4.900000095367432,346.0,21.258569717407227,28.530963897705078,-79.78280778098505,40.458995794231036,288.9352723083496,-0.010485388338565826,-0.034411821514368064,-0.7210575938224792,0.6919406652450562,0.1009519189192142,0.05471651455895664,2.6589242014736145,0.014164970256388187,0.12006288021802902,-0.014199363999068737,0.5282413723692299,0.7824839003384114,-9.522646188139916
27.1,4.900000095367432,348.0,21.256065368652344,28.093616485595703,-79.78280777492438,40.458995899112395,289.46706018066413,-0.009641739539802073,-0.04261287674307823,-0.7217064499855042,0.6908190846443176,0.1258666314334954,0.14548051456061076,2.6656706223094737,0.04921445623040199,-0.006572606042027474,-0.009541265666484831,0.6361927042901516,0.7264267169684172,-9.793061785697935
27.2,5.0,348.0,21.20347785949707,29.206865310668945,-79.78280774341175,40.45899600030293,289.7259083709717,-0.0076773278415203094,-0.04397497698664665,-0.7203565239906311,0.6921659708023071,0.14018080838425326,0.14236544290518727,2.6746310893238108,0.04565800726413727,0.1643230766057968,0.053917042911052704,0.4743693665787578,0.5387465165555477,-9.780931152105333
27.4,4.900000095367432,348.0,21.143381118774414,30.08951187133789,-79.78280774583088,40.45899625956055,290.2514573059082,-0.0009595334413461387,-0.0497753955423832,-0.7155979871749878,0.6967359781265259,0.08503519803657476,0.16245291551610955,2.6935473481413603,-0.09232234209775923,0.03175317496061325,-0.10646133869886397,0.3679099882766605,0.4320750305056572,-9.853721970319748
27.5,4.900000095367432,353.0,21.026939392089844,31.91046905517578,-79.7828077780912,40.458996361776855,290.5229245147705,-0.0033033548388630147,-0.05035031959414482,-0.7131849527359009,0.6991574764251709,0.056443205783990036,0.14752798215353227,2.7406446322466964,-0.12315355986356735,-0.07790187001228333,0.015926837921142578,0.3276407257094979,0.33643351279199124,-10.167758381366733
27.71,5.0,354.0,21.13211250305176,29.98613929748535,-79.78280790447414,40.45899648341668,291.0776444396973,-0.009840914979577065,-0.0262890849262476,-0.713621973991394,0.6999684572219849,0.1048309004258664,0.09067932845282188,2.9183405800319533,0.3215402364730835,-0.2612094283103943,0.08420645445585251,0.30910918168723583,0.6741749746352435,-10.730614868402482
27.91,4.900000095367432,355.0,21.229772567749023,28.30036354064941,-79.78280805440993,40.458996941541145,291.6490612945557,-0.00573114724829793,-0.008848208002746105,-0.7220358848571777,0.6917752623558044,-0.026662886192534548,-0.02889424600817597,3.0930320113256484,0.0199849046766758,0.18825119733810425,0.09217549115419388,0.1801655415818096,0.7068223185092211,-10.90149039030075
28.0,4.900000095367432,359.0,21.49270248413086,23.64062309265137,-79.78280808623035,40.45899705431784,291.96351060485836,-0.004241565242409706,-0.023906007409095764,-0.7235161662101746,0.68988037109375,-0.07135662903142248,-0.01441914437615048,3.198835830170008,-0.3707022666931152,0.2632077634334564,0.03250575065612793,0.22382763275876644,0.20544928578659893,-10.769350333213806
28.1,4.300000190734863,351.0,21.48268699645996,23.91893577575684,-79.78280812682816,40.458997186001135,292.2833615264893,-0.005614492110908032,-0.045309845358133316,-0.72174072265625,0.6906561851501465,-0.038105442682946064,0.04123505526642866,3.179578960400263,-0.3034279942512512,0.20965176820755005,-0.06810276955366135,0.3074342102184892,0.2310823280364275,-9.783377042412758
28.3,4.099999904632568,0.0,21.301137924194336,26.58278083801269,-79.78280815224923,40.45899740183525,292.87409410095216,-0.004703623708337545,-0.0413452573120594,-0.7160849571228027,0.6967717409133911,0.009839093446178363,0.10498970420178118,3.0080073270727854,0.3439503610134125,-0.1683340072631836,-0.05373028665781021,0.3418511773645878,0.15574064372107388,-9.182837589383126
28.4,3.799999952316284,3.0,21.17718505859375,28.451446533203125,-79.78280837773355,40.45899761992164,293.1601315460205,0.0011021164245903492,-0.02072809264063835,-0.7144778370857239,0.699350118637085,-0.06871112994163657,0.04452596330059128,2.9775537992158787,0.4015958309173584,-0.20194652676582334,-0.050020266324281686,0.2592671500146389,0.2994088519178331,-9.509219811558724
28.6,3.5999999046325684,7.0,21.37375831604004,25.60471153259277,-79.7828086255993,40.45899805756759,293.75923738098146,0.007597032003104688,0.014647792093455791,-0.7148409485816956,0.6990924477577211,-0.24742574558418745,-0.0929043989104774,3.042206984469524,0.017386268824338913,-0.026211170479655262,-0.04289537668228149,0.058765819226391625,0.2397341972216964,-10.254052759408953
28.8,3.5,8.0,21.30364227294922,26.67820167541504,-79.78280881073702,40.4589982848695,294.35940942382814,-0.0021987627260386944,0.0003379884292371571,-0.713771402835846,0.7003753185272217,-0.17926519321958526,-0.12158660858136584,3.0041605553736903,-0.2652460336685181,0.1099858358502388,-0.03643188625574112,0.02171866941265762,0.2076892444677651,-9.95578511953354
28.9,3.299999952316284,9.0,21.17718505859375,28.66614532470703,-79.78280902457824,40.45899844912686,294.6635590515137,-0.0010142795508727431,-0.010874265804886818,-0.7122417688369751,0.7018492817878723,-0.09711067793374688,-0.10762693105946357,2.9698793108888797,-0.0731988251209259,0.15299585461616516,-0.03923064470291138,0.14048725892789662,0.20432130306959154,-9.514296364188192
29.0,3.4000000953674316,14.0,21.189706802368164,28.18903923034668,-79.78280915494841,40.45899853419475,294.9613533935547,0.0064454274252057076,-0.015310886316001415,-0.7117284536361694,0.7022583484649658,-0.02818133234474088,-0.07043305374632554,2.993975065934916,0.1800697147846222,0.015183450654149055,0.08638492226600647,0.08708314002491534,0.2990311583317816,-9.920296028852462
29.2,3.299999952316284,17.0,21.431352615356445,24.141586303710927,-79.78280955026406,40.45899849588933,295.5576611480713,-0.009133256040513515,-0.013828355818986893,-0.7128453850746155,0.70112544298172,0.002441665109100405,-0.0729739804004015,3.0460515013651217,-0.2215462028980255,-0.22490543127059934,-0.015327972359955309,-0.10690841705538333,0.5178015708178282,-9.90559028148651
29.4,3.0999999046325684,29.0,21.4138240814209,24.435800552368164,-79.7828098834887,40.45899855610645,296.1577473602295,-0.02600536309182644,0.0026025488041341305,-0.7163664698600769,0.6972346305847168,0.10521087663069063,-0.21898940413773094,2.959872288480257,-0.06999170035123825,-0.18180564045906067,0.07645925879478455,-0.2228561178781092,0.5886134719848634,-9.60359562635422
29.5,3.0999999046325684,26.0,21.40756225585937,24.594837188720703,-79.78281007321138,40.45899855771837,296.45044526672365,-0.031709354370832436,0.0012008161284029484,-0.7184721231460571,0.6948316097259521,0.09930250725334794,-0.2630795849356187,2.880071083198494,-0.08878080546855928,0.027582263574004173,-0.0241280235350132,-0.2490708849951625,0.3435115673393011,-9.086219367384912
29.6,3.299999952316284,24.0,21.26482963562012,26.876995086669922,-79.78281023832109,40.458998551665495,296.7359772644043,-0.02825938537716865,-0.0018799443496391173,-0.7211949229240417,0.6921530961990356,0.14411898202297055,-0.2501580269448982,2.815621631886461,0.1130099520087242,0.07527978718280792,0.07346779108047485,-0.055883447974920265,0.3095366496965289,-9.1995518553257
29.81,3.4000000953674316,25.0,21.262325286865234,27.3063907623291,-79.78281068034616,40.45899854749589,297.32446870422365,-0.02010810375213623,-0.0045112911611795425,-0.7237738966941833,0.6897293925285339,0.12459694897300375,-0.12888785776315434,2.8172002578086177,0.05032603442668915,-0.0260953102260828,-0.11224374175071716,0.06986956297885627,0.2781421083211899,-9.456523534655572
29.9,3.9000000953674316,27.0,21.178438186645508,28.90469741821289,-79.78281092389645,40.45899860585336,297.609737487793,-0.017443347722291946,-0.007393502630293368,-0.7220872640609741,0.6915425062179565,0.08528932087597071,-0.10661224661502204,2.7930521566857642,0.005153794772922993,0.1156328096985817,-0.15910962224006653,-0.04445736275520176,0.3879385656863451,-9.190011538267138
30.11,4.0,32.0,21.09705352783203,29.071685791015625,-79.78281107686135,40.458998631470365,298.1564217529297,-0.0018688213312998414,-0.010752066969871521,-0.7164732217788696,0.6975293159484863,0.0757012157336383,-0.06809358560093215,2.689555275965424,0.12716853618621826,0.021568065509200096,0.04521777853369713,-0.0709799126861617,0.22137492679059506,-9.374687658548355
30.3,4.199999809265137,36.0,21.19596672058105,27.632413864135746,-79.78281141655317,40.45899859032169,298.6979123077393,-0.002008252777159214,-0.0005372005398385227,-0.7136882543563843,0.7004604339599609,0.050313814383542516,-0.08136217082186017,2.6554035302790475,-0.0030465808231383558,0.02996858023107052,-0.05291518941521645,0.08833939603529871,0.1575665647163987,-9.363182677030565
30.4,4.099999904632568,40.0,21.17092514038086,28.530963897705078,-79.7828115380084,40.45899856537591,298.97425279235836,-0.0009496555430814623,-0.008313538506627083,-0.7147573828697205,0.6993224620819092,0.041624731129032096,-0.13343069367003454,2.7027438858005484,-0.2482241094112396,0.08380593359470367,0.06617740541696547,-0.3574148574471474,0.0884656684845686,-9.762429977059362
30.51,4.400000095367432,44.0,21.02443504333496,31.79914474487305,-79.78281170240786,40.45899854328064,299.245328994751,-0.007859512232244016,-0.02054508775472641,-0.7172983288764954,0.6964189410209656,0.05436483430438373,-0.12600618185318813,2.723922343105496,-0.26997488737106323,-0.016974179074168202,0.15897777676582334,-0.26740548748523,0.2063848951086402,-10.005254902839662
30.7,4.400000095367432,49.0,21.202226638793945,27.902774810791016,-79.78281199261399,40.45899840685125,299.8049984893799,-0.031315933912992484,0.003929716069251299,-0.7180880308151245,0.6952362656593323,0.16250234181947024,-0.15825542546543092,2.9338889748303045,0.18637782335281367,-0.4935673177242279,-0.0710265040397644,-0.39047114096581936,0.15330789137631656,-10.7153173828125
30.9,4.599999904632568,53.0,21.13211250305176,28.284460067749023,-79.78281248310545,40.45899849350286,300.36927995300294,-0.028361521661281582,0.026248527690768242,-0.7177749276161194,0.6952020525932312,0.06771497464849227,-0.3443399615431323,2.9435913515252285,0.2106146067380905,0.05079273134469986,0.04476732015609741,-0.5554552641883492,0.01505719471955672,-10.339445496797564
31.01,4.699999809265137,56.0,21.165916442871094,28.149280548095703,-79.78281260886746,40.458998501426905,300.66712579345705,-0.016190020367503166,0.024990323930978768,-0.7181722521781921,0.6952280998229979,0.01064478629466082,-0.3192800210516783,2.975134832253418,0.05755087360739707,0.1781424582004547,0.12355097383260727,-0.4077554007992149,-0.2092978500388563,-10.019570056200028
31.1,4.900000095367432,53.0,21.188453674316406,27.84711265563965,-79.78281270736494,40.45899850261048,300.9663525543213,-0.012521874159574509,0.015635255724191666,-0.7193095088005066,0.6944009065628052,-0.02179108404307176,-0.2374538949585332,2.9686300127876644,-0.11989326030015945,0.1094408854842186,0.00028119899798184633,-0.2444519135355949,0.04927262707147748,-9.684473728537561
31.31,5.0,57.0,21.21099090576172,27.083742141723643,-79.78281276243118,40.45899845543094,301.50539407348634,-0.021970318630337715,0.006906501017510891,-0.7225400805473328,0.6909453868865967,0.09607384030199946,-0.17091980233492166,2.9233836551328234,0.08618583530187607,-0.04287004843354225,0.10129790753126144,-0.3053236211836338,0.2425088472291828,-9.951806674003599
31.4,5.199999809265137,61.0,21.205982208251953,26.9167537689209,-79.7828129627658,40.458998495544726,301.77129754638673,-0.02545361593365669,0.007509601302444934,-0.722787082195282,0.6905611157417297,0.10849815106403073,-0.20461107621862865,2.9111724245154686,-0.004439868498593569,0.03940165415406227,-0.022546203806996342,-0.38487436886876825,0.2506765304133296,-9.903105214834213
31.6,5.300000190734863,61.0,21.302391052246094,25.30254554748535,-79.78281318032474,40.4589984467726,302.35536965942384,-0.0234962310642004,0.0073571535758674145,-0.7198809981346129,0.6936607360839844,0.09994918527589283,-0.23476991648409484,2.900477755484283,-0.05044789984822273,-0.04228579998016357,0.03764057904481888,-0.6391943724453449,0.14020479273051026,-9.645835327506068
31.7,5.400000095367432,64.0,21.173429489135746,27.131452560424805,-79.78281319771159,40.45899844467383,302.61699685668947,-0.02739248797297477,0.007299587596207856,-0.7185755968093872,0.6948709487915039,0.09813984932186698,-0.2220693977801198,2.8469948740567554,-0.04175756499171257,-0.05421239510178566,-0.007769197691231966,-0.3230562893673778,0.3613015016913414,-9.591180818080902
31.91,5.5,63.0,21.113330841064453,28.56277275085449,-79.78281336539129,40.45899829791888,303.1777840576172,-0.03821433708071709,0.02186044119298458,-0.7193398475646973,0.6932619214057922,0.13496981932212915,-0.2563595871554201,2.812939791489413,-0.048546873033046715,-0.22058351337909696,0.10409180074930192,-0.5519554863497615,0.19329246763139965,-9.615792333483695
32.0,5.599999904632568,65.0,21.039459228515625,29.69192314147949,-79.78281345034351,40.458998247403045,303.4599572143555,-0.042392827570438385,0.02137528918683529,-0.7219810485839844,0.6902821660041809,0.12987710716436432,-0.29822965836963794,2.7996333717231012,-0.09197962284088136,0.07719182223081589,0.029058771207928658,-0.6551158290356398,0.40336542092263705,-9.705690935254095
32.2,5.599999904632568,65.0,21.113330841064453,27.7039794921875,-79.78281375457743,40.458998195418616,304.025020690918,-0.035189297050237656,0.0060316426679492,-0.7261263728141785,0.6866337060928345,0.15241588913944054,-0.2786529166521331,2.8510479058008684,-0.045826602727174766,0.13536979258060455,0.06817597895860672,-0.6248097833991051,0.22515809359028932,-9.831713050603868
32.3,5.699999809265138,66.0,21.07827377319336,29.49312973022461,-79.7828138169238,40.45899817378819,304.3110314331055,-0.03265737369656563,0.0035163287539035078,-0.7270980477333069,0.6857475638389587,0.1353605080445963,-0.2083293598188453,2.830950250034048,0.01869876682758332,0.029660500586032867,-0.018417548388242718,-0.26723094809800385,0.21418215718120331,-9.647242752313613
32.5,5.599999904632568,67.0,20.851652145385746,32.84082794189453,-79.78281404262316,40.458998130111866,304.8669777832032,-0.033800624310970306,0.023521563038229942,-0.7255738973617554,0.6869111657142639,0.08818449494383203,-0.18016691540850588,2.7891544661581276,0.1799992322921753,-0.08062763512134552,-0.060163531452417374,-0.41936793453991417,0.05313973339274526,-9.674987205863
32.6,5.300000190734863,69.0,20.93804359436035,31.50492858886719,-79.78281404737129,40.458998123081,305.4370423278809,-0.01926322840154171,0.02352846227586269,-0.7171555757522583,0.6962494850158691,-0.0182721046416646,-0.12471254981495945,2.9433384845208552,0.04362054914236069,0.17736384272575378,-0.17918121814727786,-0.27702399278059603,-0.0912771742232144,-10.217885391712187
32.8,5.199999809265137,71.0,20.841636657714844,31.958179473876953,-79.78281390235537,40.45899814487783,305.7358513793945,-0.01337700616568327,0.01845059543848037,-0.7119170427322388,0.70189368724823,-0.04737927557393737,-0.03404598570863133,3.0397047231740486,-0.08583122491836548,0.09435368329286577,-0.08564887940883636,-0.05040971865411848,-0.07528709050733598,-10.759903571605685
32.9,4.900000095367432,69.0,21.129608154296875,27.640365600585927,-79.78281382367125,40.45899826793365,306.03204736328127,-0.01309406291693449,0.010086108930408956,-0.7076612114906311,0.7063586115837097,-0.07180802271849232,0.036754461157603335,3.1613024230855293,-0.017657939344644547,0.12617391347885132,-0.06147500872612,-0.027034496502019462,-0.12524188664741814,-11.043421025276183
33.1,4.699999809265137,67.0,21.32617950439453,24.28471755981445,-79.78281335002492,40.458998348030526,306.68401345825197,-0.007918333634734155,0.0016320209251716733,-0.7055337429046631,0.7086302042007446,0.012494728527694014,0.1643090219670621,3.3491884156832463,0.13210245966911316,-0.027253594249486927,0.11997588723897935,0.10359764132648706,0.1676681231148541,-10.672953135967257
33.2,4.300000190734863,61.0,21.244796752929688,25.652421951293945,-79.78281319084994,40.458998491552784,306.9938584289551,-0.006384860724210739,0.00422539608553052,-0.7095385193824768,0.704625129699707,0.00906279874582507,0.21261515885484755,3.3581649861823406,0.03401944041252136,-0.018819516524672508,0.051779791712760925,0.1728830172121525,0.4029550194740296,-10.159948840141297
33.4,4.099999904632568,56.0,21.34496116638184,24.252910614013672,-79.7828126338482,40.45899875158227,307.6251603088379,0.005624777637422085,-0.006648414768278599,-0.7172104716300964,0.6968022584915161,-0.027582308414637373,0.2219026994739136,3.292087107586072,-0.09614366292953493,0.2784446179866791,0.07200682908296585,0.044753218162804836,0.07489844709634781,-9.681795703768733
33.5,3.700000047683716,51.0,21.378765106201172,23.15556526184082,-79.78281234694681,40.458998755282494,307.9519196472168,0.012093286029994488,-0.022199613973498344,-0.718837559223175,0.6947183609008789,-0.005373861417139029,0.3013352395698998,3.242832107078564,-0.20448708534240725,0.19329047203063965,0.013680560514330864,0.10905958942137656,0.24580875992774964,-9.453880008459093
33.7,3.5999999046325684,58.0,21.26608085632324,25.07194328308105,-79.78281181924075,40.45899895660533,308.5475693664551,0.02404586598277092,-0.03643379360437393,-0.7201493978500366,0.6924444437026978,0.053160168891068435,0.3609210981361523,3.098433945923143,-0.010142015293240549,0.027065658941864967,-0.02724353224039077,0.1050761646218598,0.2724903906695545,-9.451756299734116
33.81,3.4000000953674316,52.0,21.451385498046875,21.930992126464844,-79.78281168626854,40.45899896125804,308.8582039794922,0.012579280883073808,-0.03591343387961388,-0.7212182283401489,0.6916619539260864,0.03787711834329008,0.3552395750225153,3.0746679695274306,-0.19041313230991366,-0.27300918102264404,-0.029580166563391682,0.17139935933053493,0.2090100756660104,-9.489160353541372
34.01,3.4000000953674316,47.0,21.38627815246582,22.92496490478516,-79.78281135746333,40.45899902234337,309.4822579345703,-0.020663414150476456,-0.025833673775196075,-0.7220370173454285,0.6910631656646729,0.15078766874792432,0.12992667016005227,3.0325967673537497,0.17174556851387024,-0.18924400210380554,0.021844854578375816,-0.1971785819716752,0.4688391431048513,-9.452267346382142
34.2,3.5999999046325684,41.0,21.40631103515625,22.43195343017578,-79.78281119329877,40.458998894587616,310.10956582641603,-0.003555371891707182,-0.0023648599162697788,-0.7217811346054077,0.6921082139015198,0.09482116731706687,-0.01941287563775576,3.0072529105127686,0.18420584499835968,-0.00859682634472847,0.057756610214710236,-0.2975440834835172,0.4486408868059516,-9.28831609725952
34.3,3.700000047683716,34.0,21.456392288208008,21.85147476196289,-79.78281123186449,40.45899889411072,310.41023263549806,0.004240280948579311,0.0014179158024489882,-0.7218260765075684,0.692060112953186,0.051106108998199465,-0.049484406588136375,2.9956042010739417,0.04063957929611206,0.10629525035619736,-0.00642207358032465,-0.13825061671435834,0.3178505863621831,-9.623152223825457
34.4,3.9000000953674316,27.0,21.48894691467285,21.946895599365234,-79.78281127486456,40.45899880416278,310.7288437805176,0.001907990546897053,-0.005523476749658586,-0.7220137715339661,0.6918540596961975,0.027524966192402498,-0.04191183255718954,2.9961341734836964,-0.296358585357666,0.03834303095936775,0.0266873836517334,-0.24518747499212626,0.3017220287024975,-9.39875421345234
34.6,4.0,25.0,21.463905334472656,22.535327911376953,-79.78281144119966,40.4589986506475,311.3152352294922,-0.02554561197757721,-0.023406950756907463,-0.7218034863471985,0.6912302374839783,0.22182967839936088,-0.04951086781360276,2.8554415876245693,-0.13347414135932922,-0.2059543877840042,0.0505109578371048,-0.18701730888336893,0.7274317071586848,-9.118069735765458
34.7,4.199999809265137,33.0,21.433856964111328,22.344484329223643,-79.78281138260559,40.45899861829431,311.62048348999025,-0.031028727069497112,-0.017927553504705433,-0.7218840718269348,0.6910856366157532,0.3581431579867526,-0.07796789502050028,2.8530455937962045,0.1054140329360962,-0.13771668076515198,0.0300766546279192,-0.2301706557534635,0.7675993743538857,-9.34230460882187
34.9,4.400000095367432,32.0,21.55154800415039,20.777984619140625,-79.78281162678131,40.458998367166316,312.1969262084961,-0.0367794893682003,-0.02128354087471962,-0.7212259769439697,0.6913952827453613,0.3733344625461888,-0.12665169602668466,2.7691026418192486,-0.07147636264562607,0.08759396523237227,-0.08890220522880554,-0.17892706476151946,0.8073778362572194,-9.047852277159693
35.1,4.699999809265137,35.0,21.417579650878906,22.88520622253418,-79.78281180148342,40.458998075034046,312.73437890625,-0.03698670119047165,-0.03197545558214188,-0.717931866645813,0.6943942904472351,0.3929480906330504,-0.11112004246885616,2.568694873019719,0.05651052296161652,0.11415041238069536,0.06422819942235948,-0.3063592361658812,0.7746472426503898,-8.794970725178718
35.2,4.800000190734863,33.0,21.448881149291992,22.47171401977539,-79.78281194468141,40.4589979067222,312.9986649475098,-0.035100650042295456,-0.03611016646027565,-0.7172762751579285,0.6949667930603027,0.4091817600240307,-0.07621665782310992,2.51393966569195,0.036960866302251816,0.060100272297859185,-0.0019285469315946106,-0.10724182711914182,0.791264517903328,-8.90722264766693
35.3,5.099999904632568,28.0,21.41883087158203,22.89315795898437,-79.7828120268307,40.45899776827589,313.24924859619136,-0.03195597603917122,-0.03660434857010842,-0.7174499034881592,0.694913387298584,0.3928489995245318,-0.062033564226288126,2.4423268437408536,-0.022462703287601467,0.02059289813041687,0.024028316140174862,-0.06429271252825856,0.9383962512016296,-9.026359666585922
35.5,5.199999809265137,27.0,21.670494079589844,18.48787498474121,-79.78281220579719,40.458997448519625,313.7426720581055,-0.035017810761928565,-0.03769806027412415,-0.7195044159889221,0.6925793290138245,0.3540702035811785,-0.04491764083917035,2.3379762271552424,-0.11949168890714645,-0.1640532612800598,0.04862496256828308,-0.15781525410711764,0.7185549759864808,-8.880158225297928
35.6,5.199999809265137,23.0,21.67174530029297,18.519681930541992,-79.78281228624361,40.45899733870375,313.97263345336916,-0.041188064962625504,-0.03778936341404915,-0.719966471195221,0.6917541027069092,0.34399778530572755,-0.04448852053086511,2.2116150882442183,-0.10755178332328796,-0.09481319785118104,-0.02521902695298195,0.05677020563744009,0.8028775998204947,-8.630561054348947
35.8,5.199999809265137,21.0,21.644201278686523,18.615102767944336,-79.78281237070708,40.45899708337903,314.4125901184082,-0.041635096073150635,-0.03884384036064148,-0.7178969383239746,0.6938167214393616,0.31434097990441884,-0.0557714267124516,1.9584905565431392,-0.04409557580947876,0.07434748858213425,-0.10718883574008944,-0.02082863182760776,0.8610734023153782,-8.348487862944603
36.0,5.199999809265137,16.0,21.70805549621582,17.891490936279297,-79.78281250777538,40.4589969103871,314.78791055297853,-0.03622656688094138,-0.04363975673913957,-0.7130240201950073,0.6988418698310852,0.2590504152889824,-0.02677564875468766,1.7213987924811045,-0.0009572780691087246,0.0686282217502594,-0.01967861503362656,0.057434170679189274,0.6604499515146017,-8.411637207269669
36.1,5.199999809265137,14.0,21.884593963623047,15.25150203704834,-79.7828125577419,40.45899686715469,314.95555505371095,-0.033641770482063287,-0.0470636710524559,-0.7112151384353638,0.7005900144577026,0.22477581172227665,-0.030578946880019275,1.6021754553769745,-0.027707738801836967,0.1450706422328949,-0.12637388706207275,-0.0075289479643106455,0.8123742089420557,-8.530124600529671
36.2,5.300000190734863,13.0,21.905879974365234,13.971266746520994,-79.78281269746891,40.45899676575856,315.1092263183594,-0.03414546698331833,-0.04858188331127167,-0.7104885578155518,0.7011989951133728,0.20656743634041733,-0.04427044238849278,1.4697927635048509,0.056942969560623176,-0.08456576615571976,-0.0018677341286093,-0.12739763628691436,0.7939460510015488,-8.26073869764805
36.4,5.400000095367432,12.0,21.95345687866211,13.42259407043457,-79.78281291379648,40.45899669365283,315.3554535827637,-0.04761465638875961,-0.04073889181017877,-0.7130629420280457,0.6982940435409546,0.14307315238817636,-0.09632451791817813,1.11629917975008,-0.09364720433950424,-0.10223883390426636,-0.13299134373664856,-0.0737810624577105,0.6786453171819449,-7.867231609225272
36.6,5.400000095367432,13.0,21.634183883666992,19.17172622680664,-79.78281323908342,40.45899671364746,315.5390015563965,-0.05629773810505868,-0.03295278176665306,-0.7166913151741028,0.6943329572677612,0.05448024449837621,-0.18476105323351946,0.7218496209735624,0.009063764475286009,-0.041587166488170624,0.01123327761888504,-0.4952803253754974,0.6522889926284552,-7.726813648939133
36.7,5.400000095367432,12.0,21.85204124450684,15.23559856414795,-79.78281337345781,40.458996731355455,315.5817261657715,-0.05414575338363648,-0.02783316001296044,-0.7184371352195741,0.6929225921630859,0.03131251724966155,-0.1877631148750032,0.6355404199610892,0.1255698949098587,0.02273571491241455,0.04638565704226494,-0.4493213930726052,0.8636643035709859,-8.602938222885133
36.8,5.5,12.0,21.775665283203125,16.802099227905273,-79.78281353927652,40.45899679681385,315.64158258056636,-0.05322067812085152,-0.02253725565969944,-0.7193222641944885,0.6922681927680969,-0.025523858007593804,-0.15740711236939192,0.5514722432104345,-0.03813314065337181,-0.10886968672275543,-0.033310800790786736,-0.40058382734656334,0.7811919580399991,-8.78422061920166
37.0,5.599999904632568,12.0,21.72933959960937,18.122093200683594,-79.78281372400996,40.45899693801083,315.71406564331056,-0.060077771544456475,-0.010865768417716026,-0.7181490659713745,0.6932059526443481,-0.08826320059145548,-0.08677318557304532,0.3888201812825925,-0.049705326557159424,-0.15461315214633942,-0.015500993467867374,-0.32748529940843585,0.6629042471945286,-8.978871504664422
37.1,5.699999809265138,13.0,21.67424964904785,18.60715103149414,-79.78281376682324,40.45899705447404,315.74841317749025,-0.059206057339906686,-0.006131427828222513,-0.7168472409248352,0.6946849822998047,-0.10369811642989096,-0.04418186666792752,0.32174824352201536,0.01046199444681406,0.1355591118335724,-0.13083629310131073,-0.13112134421244265,0.8332149280607701,-9.103552268743517
37.31,5.699999809265138,13.0,21.473920822143555,22.11388397216797,-79.78281397400949,40.458997460859926,315.76502618408205,-0.046834088861942284,-0.01728046126663685,-0.7161892056465149,0.6961185336112976,-0.16204652295947253,-0.012192548569294321,0.3161225128372346,0.09772255271673204,0.17627102136611938,0.08673397451639175,-0.6387659177184105,0.4317912943661213,-9.778305752277372
37.4,5.800000190734862,17.0,21.56782531738281,20.300878524780273,-79.78281426259214,40.45899796381747,315.7891465148926,-0.03670865297317505,-0.025729594752192497,-0.7134328484535217,0.6992882490158081,-0.21155349293630887,0.02429120865323174,0.4049303805808889,0.09763730317354202,-0.1983459144830704,-0.034673072397708886,-0.0671499727293849,0.8532318475842476,-10.069360266923905
37.6,5.800000190734862,19.0,22.2714786529541,10.305499076843262,-79.7828142055411,40.4589981840147,315.8340645751953,-0.03169872611761093,-0.005785341374576092,-0.7133014798164368,0.7001162171363831,-0.1981993754744512,0.020121758897482942,0.5226742928234118,0.6045465469360352,-0.07636016607284546,-0.051678866147995,-0.417780342400074,0.9059265895932912,-10.60642702460289
37.7,6.0,24.0,21.885847091674805,14.337048530578613,-79.78281436664933,40.45899811392857,315.91350564575197,-0.006619003135710955,0.020516453310847282,-0.7083224654197693,0.7055597305297852,-0.15488844415724512,0.0121373980201092,0.5299890088789964,0.6629303097724915,0.02430691383779049,-0.3147771954536438,-0.2662339247390628,0.3574489540234208,-9.904073513746262
37.91,6.099999904632568,17.0,21.8282527923584,15.672945976257324,-79.78281457157131,40.45899838106782,315.9767571411133,-0.0031211671885102987,0.020777657628059387,-0.6824167966842651,0.7306613326072693,-0.11184638136409904,0.042212772109762035,0.5610222403033202,-0.7044630646705627,0.1350214183330536,-0.43864551186561584,-0.015044694012030959,0.27211523696780204,-9.919587346315383
38.1,6.099999904632568,20.0,21.746868133544922,17.517757415771484,-79.7828144168929,40.458998420124715,316.0666466674805,-0.02550524100661277,-0.03271020948886871,-0.6452875137329102,0.7628130316734314,0.05328317225535674,0.04129421686294208,0.3144627160230443,-0.3033599853515625,0.23384499549865725,-0.6007619500160217,-0.1591554176621139,0.898887492120266,-8.918561568260193
38.2,6.199999809265138,20.0,21.64545249938965,19.561363220214844,-79.78281482496186,40.45899900695584,316.0878830871582,-0.02621191740036011,-0.04264304786920548,-0.6258292198181152,0.7783523797988892,0.03951226797347155,0.04044082360803389,0.21871750829789505,0.0018921003211289644,-0.03504730761051178,-0.3804701268672943,0.25527214955538513,0.956440173983574,-8.705047565102577
38.3,6.199999809265138,21.0,21.600378036499023,25.22302627563477,-79.78281478311233,40.45899897175374,316.10624322509767,-0.024583516642451286,-0.027893930673599243,-0.6136516928672789,0.788701057434082,0.057164907897945365,0.02046827003691109,0.14972498908901158,0.2914419174194336,-0.3763623535633087,-0.1244487687945366,-0.4052225697040558,0.9000757925212384,-8.800295199751854
38.5,6.199999809265138,17.0,21.882089614868164,16.038728713989258,-79.78281456892749,40.45899884311232,316.12361154174806,-0.041401717811822884,0.0007761771557852626,-0.5947597026824951,0.8028364777565002,0.07981704836123114,0.05939601375569376,0.29667652464138605,-0.20140428841114044,-0.3374645411968231,-0.1994702965021133,0.016215096451342108,0.6653371274471284,-10.416182016134263
38.6,6.4000000953674325,19.0,21.55906105041504,21.024490356445312,-79.78281444265394,40.458998794639704,316.15439614868166,-0.06112540513277054,0.008755326271057129,-0.5893046259880066,0.8055477142333984,0.10687178594934356,0.08847476957232106,0.33243902017386423,-0.06486006826162337,-0.32815030217170715,-0.15159228444099426,-0.532251794859767,0.7362771557271481,-10.193523552417757
38.8,6.5,19.0,21.832008361816406,15.593428611755373,-79.78281402664929,40.4589987404615,316.12785348510744,-0.10687136650085448,0.03366035968065262,-0.5850403308868408,0.803226888179779,0.17748136500383715,0.32653966830986425,0.4491819135087885,0.1919496953487396,-0.8235498070716858,0.09288238734006883,-0.05271411091089249,1.1533068618178368,-10.384995306730273
38.9,6.599999904632568,4.0,21.67800521850586,19.291004180908203,-79.78281417421591,40.458999076105314,316.05689630126955,-0.12694264948368073,0.0550469234585762,-0.5884803533554077,0.7965841293334961,0.18303058875818248,0.4449780137027831,0.4761560726724198,0.11135831475257874,-0.42900899052619934,-0.027375062927603718,-0.4471258001402021,1.1446597069501878,-10.064936263561247
39.1,6.5,356.0,21.461400985717773,22.78183174133301,-79.7828123572723,40.45899920714234,316.1235199890137,-0.1528237760066986,0.060289006680250175,-0.5936094522476196,0.7878057956695557,0.21263967510471224,0.87405460538304,0.5625015042293302,-0.1073167771100998,-0.024534145370125767,0.21788835525512693,-0.3265369175747037,1.071861798986793,-9.677668154239656
39.2,6.599999904632568,356.0,21.343708038330078,24.626644134521484,-79.78281135588571,40.458999744162405,316.07164392089845,-0.15408135950565338,0.05363933742046356,-0.5982332825660706,0.7845372557640076,0.19297624287288065,1.1029317079325152,0.5872828136079518,-0.0819024071097374,0.02433815784752369,0.15592822432518005,-0.4791278672218323,1.1298003239929677,-9.678470392227174
39.41,6.699999809265138,357.0,21.71932411193848,18.02667236328125,-79.78280809092105,40.45900073191297,316.0548821411133,-0.14572322368621826,0.03496106341481209,-0.6075357794761658,0.7800275087356567,0.1511341135762109,1.5546798293705295,0.7491346543610591,0.004405751824378967,0.3032461404800415,-0.05901136249303818,-0.5185381372645498,1.3274015682935716,-10.36884763598442
39.51,6.800000190734862,358.0,21.75062561035156,17.032699584960938,-79.78280597968214,40.459001070199825,316.08129891967775,-0.1463853418827057,0.030201559886336327,-0.6088016629219055,0.7791147828102112,0.13954637028582378,1.799357622466128,0.7442082166330414,-0.07467401772737503,0.11725952476263045,0.02134682424366474,-0.4054427173733711,1.2939899933338166,-9.91668244957924
39.7,6.9000000953674325,0.0,21.546541213989254,21.28689956665039,-79.7828012379899,40.45900245279914,316.04957971191413,-0.16840295493602753,0.038958936929702766,-0.6031094193458557,0.7787051796913147,0.07991442205397896,2.2342245272692147,0.7386337380933512,-0.02533576264977455,-0.2270402014255524,0.02547196671366692,-0.7037871750444175,1.1907250951230526,-9.380792736411095
39.8,7.099999904632568,1.0,21.68802261352539,18.010766983032227,-79.78279839464227,40.45900297593183,316.0550576171875,-0.174237459897995,0.04356139525771141,-0.6000754237174988,0.7795211672782898,0.1004924497874184,2.459737358674796,0.8373599604727306,-0.06439658254384995,-0.0749867632985115,-0.03674741834402085,-0.6343604792654515,1.3452876162528993,-9.612686292529107
40.0,7.300000190734862,3.0,21.68927383422852,18.495826721191406,-79.78279213910969,40.459004859849685,316.0102044067383,-0.1762385219335556,0.04300272092223168,-0.5904704332351685,0.7864066362380981,0.062341979958475985,2.9376293704547343,0.976484352442506,-0.12415643036365508,0.06912406533956528,-0.22886976599693296,-0.5024587327614427,1.2019897560775281,-9.633033433556557
40.2,7.5,1.0,21.18094253540039,27.84711265563965,-79.7827850536424,40.45900731945461,315.9445191345215,-0.18453818559646606,0.05294495075941087,-0.57900071144104,0.7924018502235413,0.025236416369310344,3.4037826600837118,0.9918049139848104,-0.07008534669876099,-0.14974576234817505,-0.1407831311225891,-0.6174174410104752,1.1217663227766752,-9.43649506688118
40.3,7.699999809265138,0.0,21.34996795654297,23.855321884155273,-79.7827809408733,40.45900827969121,315.9203377685547,-0.1856696754693985,0.06518873572349547,-0.5773677825927734,0.7924163341522217,0.1214622883905373,3.622173449717708,1.1023044776951765,0.2401706874370575,-0.06867288053035736,-0.095196895301342,-0.8567283363640309,1.5523296287655832,-9.700924285054207
40.4,8.100000381469728,1.0,21.513986587524414,21.795812606811523,-79.7827770086763,40.459010285346366,315.86677560424806,-0.18238119781017306,0.07889382541179657,-0.5770996809005737,0.792129397392273,0.07815338802532777,3.8345751309159315,1.2847134649571048,0.23284271359443665,-0.1819746196269989,0.11657825112342834,-1.1564701323956252,1.5514214099943642,-10.016984417438508
40.6,8.5,2.0,21.41883087158203,23.4179744720459,-79.78276725249414,40.45901251197951,315.8146897277832,-0.1962852478027344,0.07553312927484512,-0.5790737867355347,0.787680447101593,0.15717711409021934,4.351830654000528,1.4405817197324693,-0.4141197204589844,-0.22134992480278007,0.2342024743556977,-1.2341954889893532,1.606632574349642,-9.004716782569886
40.8,9.199999809265137,358.0,21.2773494720459,26.30446815490723,-79.78275711453854,40.459016395812654,315.72180184936525,-0.2084410339593888,0.05372268706560135,-0.5809523463249207,0.7849590182304382,0.15085214454255064,4.879086960694933,1.5643604991349769,-0.23875358700752256,-0.11058533936738968,0.3350693881511688,-1.1245194111764432,1.7572881321609022,-9.422410878539086
40.9,9.399999618530273,2.0,21.12835502624512,28.44349479675293,-79.78275185417789,40.459018995635226,315.66872033691413,-0.21193861961364746,0.043636713176965714,-0.579224169254303,0.7859244346618652,0.008633020686355582,5.11082506166662,1.594583285505501,-0.08176217973232269,0.1337064504623413,0.044135283678770065,-1.1606996427476406,1.9644658000767232,-9.176902665495872
41.0,9.699999809265137,3.0,20.99188232421875,30.57457160949707,-79.78274573363167,40.45902049759533,315.612854095459,-0.20604270696640006,0.04196979105472565,-0.5807706117630005,0.7864416837692261,0.03459517342908448,5.361841592356384,1.64119158670179,0.10554557293653488,0.1598193347454071,0.09012994170188904,-1.1373380427807571,1.5423751826584342,-9.73557371556759
41.2,9.899999618530273,4.0,21.02443504333496,29.723730087280273,-79.7827334315821,40.459025384285056,315.53196343994136,-0.17447803914546967,0.04428408667445183,-0.5811210870742798,0.7936590313911438,-0.14102746402039562,5.789966499964503,1.9864897310533984,0.3194999396800995,0.4032579958438873,0.2125231772661209,-1.6376118537783624,1.3039613963663579,-11.632903393507005
41.3,10.399999618530273,9.0,21.27985382080078,25.57290458679199,-79.78272650448788,40.45902730482375,315.52013024902345,-0.1545807719230652,0.04332920536398888,-0.5837889313697815,0.7958756089210509,-0.1171111743900142,5.996966952485927,2.1588458830884187,0.1266075223684311,0.34096020460128784,0.2177154123783112,-1.9242781792581083,1.3147176419198514,-12.481687556505205
41.5,10.800000190734863,11.0,21.51899528503418,21.692440032958984,-79.78271244023536,40.45903305917413,315.537357421875,-0.15637585520744324,0.04026435315608978,-0.5726182460784912,0.8037622570991516,-0.08335988418437038,6.4560461073876425,2.2736477627612635,0.05135829001665115,-0.2745987474918365,-0.16820380091667175,-1.0074077946692706,2.017879530340433,-11.153505384922028
41.7,11.399999618530273,12.0,21.05198097229004,29.668067932128906,-79.78269758751453,40.45903908414392,315.56972131347663,-0.16631245613098145,0.04580014944076538,-0.5591573119163513,0.8109164834022522,0.022209344174484176,6.577236619103749,2.687105603699841,-0.22457706928253174,0.050672583281993866,-0.09949927031993866,-1.6863032265007496,1.8054798603057864,-10.361442722082137
41.8,11.699999809265135,13.0,21.168420791625977,27.640365600585927,-79.78268969406147,40.45904135653442,315.61393746948244,-0.16670182347297668,0.0400848351418972,-0.5550148487091064,0.8139793276786804,0.2279607231385048,6.684691610211459,2.7352020570987143,-0.0962873250246048,-0.07433871179819107,-0.0988367795944214,-2.0063513061404232,1.6486437955498696,-9.802298632264137
41.9,11.899999618530273,14.0,20.989377975463867,30.53481101989746,-79.7826824564248,40.45904553621402,315.58175286865236,-0.16851654648780826,0.03803672268986702,-0.5471799969673157,0.8189929723739624,0.2073871042287529,6.826743564363468,2.698634588591407,0.047787245362997055,0.020975124090909958,-0.37391120195388794,-1.7973069146275522,2.0076242449879653,-9.713754245638848
42.1,12.0,13.0,20.90048217773437,31.592397689819336,-79.78266605667531,40.45905040632404,315.6600647888184,-0.1853467971086502,0.045519113540649414,-0.5433462858200073,0.8175264596939087,0.4218611452129424,7.041562575848621,2.8271419638581503,-0.025775838643312454,-0.1723068803548813,0.13717269897460938,-1.9391070105135442,1.4188257086277007,-9.413833013176918
42.3,12.100000381469727,16.0,20.831619262695312,32.816970825195305,-79.7826502811702,40.459058685412714,315.5823479614258,-0.1857930570840836,0.04733274132013321,-0.5405949354171753,0.8191445469856262,0.3753917724108684,7.288290785300707,3.060000778597688,0.16589237749576569,0.060997650027275085,0.15379232168197632,-2.330805116593838,1.3359459583461286,-9.325995554924011
42.4,12.199999809265135,17.0,20.946807861328125,31.17095375061035,-79.78264242545066,40.459064933888655,315.48186502075197,-0.17949169874191284,0.046938113868236535,-0.5387948155403137,0.8217541575431824,0.11478593354373448,7.516386170296498,3.09174838950224,0.07383102178573607,0.13810795545578006,0.2804900109767914,-2.1268782082200053,1.4920670548081398,-9.763981243371962
42.5,12.5,18.0,20.854156494140625,31.822999954223643,-79.78263358850262,40.459067910339186,315.5038453063965,-0.1778784692287445,0.04554733261466026,-0.5423651337623596,0.8198321461677551,0.1670924870352138,7.675434081356803,3.073092740950745,0.029552994295954708,0.038305770605802536,0.20349590480327606,-1.9470067450404167,1.4281587418913841,-9.8201706469059
42.7,12.699999809265135,20.0,20.787797927856445,33.05552291870117,-79.78261603180975,40.459077697185094,315.4319230041504,-0.18727175891399386,0.051716573536396034,-0.5439544916152954,0.8163138628005981,-0.10916544979591723,7.974458578936804,3.256636806375892,0.11598175019025805,-0.06022477522492409,0.12377277761697768,-2.1885786125063897,1.2737209126353264,-9.865973056554797
42.8,12.899999618530273,21.0,20.820350646972656,33.564437866210945,-79.78260671716636,40.45908095135111,315.4544983825684,-0.18588298559188848,0.05484332516789436,-0.5500820875167847,0.8123112320899963,-0.0550349375814435,8.078852067468747,3.423707370523172,-0.022683130577206608,0.021784286946058273,0.13802456855773926,-2.1353550629317763,1.1815409465879203,-9.730624047517775
43.0,13.0,22.0,20.876693725585934,31.870710372924805,-79.78258707046919,40.45908962410589,315.4273758850098,-0.19517827033996585,0.05034475401043892,-0.5537444949150085,0.8079220056533813,-0.3541025378624929,8.396025424571192,3.3626198004334085,-0.22447265684604645,-0.3763325214385986,0.3221499919891357,-2.134088556021452,1.4314473621547223,-8.40722957611084
43.1,13.300000190734865,23.0,20.887962341308594,31.26637458801269,-79.78257731622374,40.45909301893104,315.427494140625,-0.20744788646698,0.049437526613473885,-0.5527310967445374,0.8056114315986633,-0.2651801291025321,8.483580189010908,3.4512218486119037,-0.1676255315542221,-0.08751294016838074,-0.06786107271909714,-1.8229615733027456,2.1104975259304046,-9.051800901889802
43.3,13.300000190734865,24.0,20.89797782897949,31.99793815612793,-79.78255659832682,40.45910076682065,315.4581795654297,-0.2206670045852661,0.05079013481736183,-0.5523243546485901,0.8022868633270264,-0.14801401543732634,8.581941517141942,4.002678987129279,0.04614266753196716,0.1778717339038849,0.24507392942905426,-3.2311924195289614,1.3325218288600444,-9.769760631322859
43.4,13.399999618530273,24.0,20.923019409179688,31.870710372924805,-79.78254547600578,40.45910490855286,315.498352142334,-0.20800799131393435,0.03881780058145523,-0.5555947422981262,0.8040773272514343,-0.18925292854495865,8.70781187154032,4.221630758034364,0.15255433320999146,0.4719919860363007,0.2745524346828461,-2.983998746573925,1.3507037459313869,-10.41021902561188
43.6,13.5,24.0,20.814090728759766,32.10131072998047,-79.78252439977554,40.45911225205389,315.5624085388184,-0.16862967610359192,0.0018880980787798762,-0.5623508095741272,0.8095197081565857,-0.34173727242284024,9.186627235273132,3.7724442001625933,0.08380855619907379,0.6261811256408691,0.28457120060920715,-2.4894117182493205,1.5436105531454087,-10.706350092887881
43.7,13.800000190734865,29.0,21.139623641967773,25.747844696044922,-79.78251277239221,40.45911661341463,315.5851746520996,-0.1401803493499756,-0.00796452537178993,-0.5661845803260803,0.8122321963310242,-0.39096719941014896,9.385567416344378,3.528113652894083,0.2568111717700958,0.8284936547279358,0.21414589881896973,-2.755166792571545,2.029886495321989,-11.759391531944274
43.91,14.0,36.0,21.142127990722656,26.853139877319336,-79.78249139948845,40.45912424480397,315.75913247680666,-0.1076800301671028,-0.040675241500139236,-0.577415406703949,0.8082958459854126,-0.6597357935682134,9.61109102340648,2.663392344701863,-0.2368520796298981,0.04905954375863075,0.20816005766391754,-2.3001876336336142,1.5138270293176177,-10.221799517869947
44.11,14.300000190734865,36.0,21.119590759277344,26.05796241760254,-79.78246962125314,40.45913220492759,315.91702661132814,-0.13209880888462067,-0.05613429099321365,-0.5702597498893738,0.8088279366493225,-0.7277709772355803,9.513448698808775,2.22645746426344,-0.2278472036123276,-0.1775084286928177,-0.2933713495731354,-2.1951406502723696,1.7106786605715754,-9.444893422722817
44.2,14.399999618530273,36.0,21.172178268432614,25.80350685119629,-79.78245879459365,40.45913614782353,315.9650307617188,-0.1496870219707489,-0.05063095316290856,-0.5620677471160889,0.8118559718132019,-0.6008829840034019,9.388269601394033,2.3815238421329816,-0.03706179559230805,-0.3041764795780182,-0.4670288860797882,-2.286478690356016,2.192738467901945,-8.53915387094021
44.3,14.699999809265135,41.0,21.043216705322266,28.26060485839844,-79.78244854866581,40.45913988247045,316.03345880126955,-0.15642935037612915,-0.0409938171505928,-0.5540737509727478,0.8166099190711975,-0.4185426340691352,9.251317895825064,2.5851228604423016,0.12576879560947418,-0.2591671347618103,-0.17268863320350647,-2.4372294116020203,1.9857853330671789,-8.152365233302117
44.5,14.800000190734865,36.0,20.99563789367676,28.578676223754893,-79.78242787120088,40.459147754237655,316.16257485961916,-0.15121711790561676,-0.028381088748574257,-0.5383208394050598,0.8285763263702393,-0.14969722893385062,9.139479940733297,2.683262470368473,-0.028786495327949524,0.04965274408459664,-0.15876483917236328,-2.4542684903740883,1.6229438209533693,-8.764696766138076
44.6,14.699999809265135,36.0,20.85916519165039,31.04372596740723,-79.78241782077666,40.459151502668796,316.2110863647461,-0.14652526378631592,-0.02646782249212265,-0.5317937731742859,0.8336817622184753,-0.013812783791451452,9.114117944288976,2.6119849487944213,0.021639764308929443,0.22686222195625305,-0.21457906067371368,-2.671051087081433,1.9256262548267842,-9.064164254665377
44.8,14.600000381469727,36.0,21.056989669799805,27.81530570983887,-79.78239732685216,40.45915910307157,316.3988953552246,-0.1321438103914261,-0.030828665941953663,-0.5237253904342651,0.8410109281539917,0.22764816665169665,9.05783376376278,2.5261494855462097,0.12181991338729856,0.146955668926239,-0.09065990895032884,-2.452589462399483,1.9495032137632369,-9.672927231788636
44.9,14.600000381469727,32.0,20.95181655883789,29.59650230407715,-79.78238742803657,40.459162833827975,316.45876321411134,-0.12634818255901334,-0.03282066062092781,-0.5227654576301575,0.8424223065376282,0.2702371326759362,9.039917642542076,2.3536254466732887,-0.04854460060596466,0.11883099377155305,0.1250198930501938,-2.481251928806305,1.5663459894061091,-9.555025144815446
45.1,14.600000381469727,33.0,21.053232192993164,27.52108955383301,-79.78236734175981,40.45917044458824,316.6426735839844,-0.12483476102352142,-0.03455246984958649,-0.5235222578048706,0.8421086668968201,0.25266320921130125,8.958423487804655,2.276926511671563,-0.11870831251144408,0.032493311911821365,0.10636566579341887,-2.2284579388797283,1.8413792793452743,-9.533196319341661
45.2,14.699999809265135,33.0,21.039459228515625,28.332170486450195,-79.78235718784956,40.459174322170185,316.7370911560059,-0.12378424406051634,-0.03518505394458772,-0.5252126455307007,0.8411844372749329,0.2374417726695086,8.931149930620151,2.2281904738550082,-0.07976087182760239,0.10256420820951463,-0.03026318922638893,-2.0746260273456576,2.076153466254473,-9.19166571557522
45.41,14.699999809265135,33.0,21.07576942443848,27.370006561279297,-79.782337585722,40.45918166808453,316.90079888916017,-0.12678289413452148,-0.036246385425329215,-0.5303224325180054,0.8374786376953125,0.14136917322957254,8.830023460744602,2.0572994485690086,-0.18351905047893524,-0.0599430650472641,-0.04643141105771065,-2.2712021085619933,1.7702778679132465,-8.159177824258805
45.5,14.5,34.0,21.10707092285156,26.75771903991699,-79.78232806810924,40.459185258783,316.94334039306636,-0.13001477718353271,-0.03822975233197212,-0.5326651930809021,0.8354056477546692,0.07144717848883482,8.777171856921496,1.9476164378380043,-0.14440873265266418,-0.021050760522484783,-0.02340978942811489,-2.1606297987699508,2.0263489298522472,-8.197052578926087
45.7,14.399999618530273,35.0,20.95181655883789,29.206865310668945,-79.78230893124163,40.459192342427905,317.06278619384767,-0.1318933516740799,-0.03243374451994896,-0.5369830131530762,0.8325873017311096,-0.01927564930415997,8.643856128350265,1.9528543262046023,-0.014592231251299381,-0.006309532094746828,0.31290149688720703,-2.5324141886830334,1.4642540426552295,-9.056072292923927
45.91,14.199999809265135,35.0,20.881702423095703,31.00396728515625,-79.78229031841545,40.45919941844641,317.1304551086426,-0.13123846054077148,-0.03052174113690853,-0.5400685667991638,0.8307651877403259,-0.14594098654010487,8.545122623719775,2.07982523726236,0.07776758074760437,0.026955459266901016,0.4206267297267914,-2.3185104686021805,2.1551930576562883,-9.680177194476126
46.0,14.100000381469727,35.0,20.88670921325684,30.78131675720215,-79.78228081438493,40.45920277344764,317.23369607543947,-0.1397821307182312,-0.03016086108982563,-0.5408533811569214,0.8288721442222595,-0.17404379654812224,8.504006506476607,2.1163213695846723,-0.035572253167629235,-0.11135385930538176,0.07985831797122955,-2.3076806943118573,1.3581343875825411,-9.482916696667672
46.1,14.100000381469727,34.0,20.974353790283203,28.80927658081055,-79.78227158780138,40.459206333932464,317.27383813476564,-0.1502966284751892,-0.027344992384314537,-0.5430953502655029,0.8256577849388123,-0.1975957225382151,8.479706240088559,2.1993439795185132,0.13083013892173767,-0.08045127987861632,-0.04754981771111488,-2.1410584370791907,1.9778000830113889,-9.118446296453477
46.3,14.100000381469727,32.0,21.07201385498047,27.71988296508789,-79.78225286361864,40.459213294472725,317.38700494384767,-0.15850980579853058,-0.015809515491127968,-0.5463818907737732,0.8222479224205017,-0.2856548068705925,8.44852179803026,2.4570557235894683,-0.17131754755973816,-0.054820574820041656,0.2726406157016754,-2.144218418598175,1.801935862898827,-8.800912665724756
46.4,14.100000381469727,32.0,20.973100662231445,29.29433441162109,-79.78224357002325,40.459216610998375,317.44230279541017,-0.166671484708786,-0.017638813704252243,-0.545687198638916,0.8210572004318237,-0.29136660384739804,8.456778423753956,2.432890714612687,-0.2876452207565308,-0.12179476767778395,0.14673341810703278,-2.2160054160654545,1.6243000826239586,-7.906954084038737
46.6,14.100000381469727,31.0,20.8629207611084,30.526859283447266,-79.7822249652475,40.4592236376857,317.4584504089356,-0.1573738306760788,-0.024952029809355736,-0.546847403049469,0.821929931640625,-0.2973133219264297,8.500193990484918,2.2847566941982644,0.09180449694395064,0.0801965668797493,0.1901024878025055,-2.307823512554169,1.7270189970731735,-8.378806260824204
