time,wind_speed,wind_angle,battery_voltage,battery_current,position_x,position_y,position_z,orientation_x,orientation_y,orientation_z,orientation_w,velocity_x,velocity_y,velocity_z,angular_x,angular_y,angular_z,linear_acceleration_x,linear_acceleration_y,linear_acceleration_z
0.0,1.7999999523162842,36.0,25.3577823638916,-0.08746951073408127,-79.78279026912354,40.45899650649138,269.1805548584461,0.0002372992312302813,0.01525892410427332,-0.7949486970901489,0.6064847707748413,-0.034404598804442924,-0.016226027268591063,0.011519923822523344,0.004379440564662218,0.0032416167668998237,0.0028930511325597767,-0.2490393100306392,-0.2383509104512632,-9.806397530436517
0.2,1.8999999761581416,39.0,25.360286712646484,-0.08746951073408127,-79.78279027624706,40.45899653968596,269.1818218743801,0.00024875745293684304,0.0152611518278718,-0.7949538230895996,0.6064780354499817,-0.03916920507261862,-0.017178691595567258,0.01171430880512744,-0.004991785157471895,-0.002631217008456588,-0.0036996973212808366,-0.2509754144959152,-0.2306016686372459,-9.804538700580595
0.31,2.0,39.0,25.347766876220703,-0.07156596332788467,-79.78279031386673,40.45899665738428,269.1729095494747,0.000253494072239846,0.015299900434911253,-0.7949645519256592,0.6064628958702087,-0.04056845336479613,-0.012324353904112037,0.013875785415869786,-0.005657351110130549,-0.0020291886758059268,-0.006922532804310322,-0.24489840326830745,-0.2338442420773208,-9.807590947151184
0.5,2.0,40.0,25.34025382995605,-0.09542128443717957,-79.78279037654694,40.458996727637626,269.1606118893623,0.0002660055470187217,0.015333099290728569,-0.7949631810188293,0.6064637899398804,-0.03049727519754268,-0.010097510817010873,0.010894293978975341,0.006592028308659792,0.0010510877473279834,0.005867753177881241,-0.2467007892206312,-0.2422703356482089,-9.806441969275477
0.6,2.0999999046325684,40.0,25.337749481201172,-0.09542128443717957,-79.7827903779327,40.45899675882898,269.16179770886896,0.0002565499162301421,0.015327086672186853,-0.7949733734130859,0.6064507961273193,-0.035819428855430636,-0.01117153781903206,0.011012333066672876,-0.00206817826256156,-0.00086470932001248,-0.004582025576382875,-0.25055339170619845,-0.21694164097309115,-9.804687804579736
0.8,2.200000047683716,41.0,25.3577823638916,-0.07951773703098297,-79.78279040844781,40.458996878012,269.1518717473745,0.0002580901200417429,0.015353990718722343,-0.7949814200401306,0.6064394116401672,-0.03723586838016569,-0.0066800613921998,0.01006095814413221,0.005824929568916559,0.00479446817189455,0.0002259855245938525,-0.2479975920170545,-0.2294643486477435,-9.805820994973184
0.9,2.200000047683716,42.0,25.33900260925293,-0.07156596332788467,-79.78279050096643,40.45899695071892,269.1412236756086,0.0003258282667957247,0.015380749478936197,-0.7949779629707336,0.6064433455467224,-0.02158371635067487,-0.012091426364696357,0.00919340531626851,0.0068009784445166605,0.0016488250112161038,0.005225461442023516,-0.2512909631431103,-0.22472256738692525,-9.804667339324954
1.1,2.299999952316284,43.0,25.34526252746582,-0.08746951073408127,-79.78279050759173,40.45899697474119,269.14223501741884,0.0003167544782627373,0.015370972454547882,-0.7949764728546143,0.6064454913139343,-0.027236191840621888,-0.013423917710914734,0.009363960927199823,-0.007263963110744953,-0.003543371334671974,-0.0070102633908391,-0.25227384354919197,-0.21784169191494585,-9.803525378108024
1.2,2.4000000953674316,39.0,25.35277557373047,-0.09542128443717957,-79.78279059492705,40.45899706594085,269.13177502810953,0.0003651957667898386,0.015402852557599545,-0.7949805259704591,0.6064394116401672,-0.023030432189225184,-0.015135435874809191,0.00855158279510883,0.0017145235324278474,0.0046326364390552035,-0.001805791980586946,-0.2490816292539239,-0.2418166648037732,-9.806898636817932
1.4,2.4000000953674316,36.0,25.347766876220703,-0.07156596332788467,-79.78279060468437,40.458997089944354,269.1327267950773,0.00035942444810643787,0.015406867489218712,-0.7949903607368469,0.6064264178276062,-0.027938120624575208,-0.016161966719057314,0.008719088926214943,-0.006334163248538971,-0.004618608858436346,-0.004385299049317837,-0.2514676769636571,-0.22669925518333914,-9.804484321475028
1.5,2.4000000953674316,36.0,25.349018096923828,-0.07156596332788467,-79.78279069830344,40.45899715901332,269.1194747751951,0.00040036698919720953,0.015403758734464644,-0.7949920296669006,0.6064242124557495,-0.020646223743308025,-0.016045343380674596,0.003947830711648665,-0.0017418705392628908,-0.0022291422355920076,-0.005014522932469846,-0.24534489300102,-0.2398296530172229,-9.806312161087993
1.7,2.5,34.0,25.35653114318848,-0.06361418962478638,-79.78279071027437,40.45899718052405,269.1199575281143,0.0004016126040369272,0.015408869832754137,-0.7949961423873901,0.6064186096191406,-0.02432507828033464,-0.017138922394355327,0.003974205809915983,-0.00296469940803945,-0.0033261135686188928,-0.002257713349536061,-0.24776737617328765,-0.23925255110487345,-9.804568521380423
1.8,2.5,34.0,25.34526252746582,-0.06361418962478638,-79.78279075293958,40.458997292115825,269.1093608653545,0.0004228890174999833,0.015432260930538176,-0.795007586479187,0.6064029932022095,-0.02975802984853409,-0.012915555638854027,0.004502649643312336,-0.008935275487601757,-0.0033943040762096643,-0.006364005617797375,-0.24530376149341465,-0.2316154479235411,-9.80635133743286
2.0,2.5999999046325684,35.0,25.3577823638916,-0.07951773703098297,-79.78279081720655,40.458997362806365,269.0995898610353,0.00042267676326446235,0.015434312634170055,-0.7949981689453125,0.606415331363678,-0.02193403805900931,-0.010443400881087878,0.008091371171378797,0.0011778903426602485,-0.0038118420634418726,0.003159909741953016,-0.2470177083089948,-0.2438871455937624,-9.807336593270303
2.11,2.5999999046325684,36.0,25.35903549194336,-0.07951773703098297,-79.78279082222892,40.45899738630985,269.10047433435915,0.00042732444126158953,0.015425580553710459,-0.79499751329422,0.6064164042472839,-0.02615432198616124,-0.011893549225374484,0.008047506639519962,0.002992257010191679,-0.0006936997524462639,0.0016394152771681547,-0.24780245946720245,-0.22371426986530424,-9.805510507822037
2.3,2.5,39.0,25.350271224975586,-0.03180709481239319,-79.78279087071762,40.45899747264478,269.089310131073,0.00043827539775520563,0.015455835498869419,-0.7950006127357483,0.6064115166664124,-0.022497956044268932,-0.007286571477428669,0.007310234658737638,0.007798848208039998,0.003330042352899909,0.003321882104501128,-0.2457300966046751,-0.2401856753602624,-9.806030910015107
2.4,2.5,39.0,25.34150695800781,-0.07156596332788467,-79.78279098678381,40.4589975704094,269.0779667711258,0.00047305616317316884,0.01545676216483116,-0.7949968576431274,0.6064164638519287,-0.020066808399195654,-0.014838970818809276,0.006690697095935629,0.000666457402985543,-0.0017612818628549574,0.0012821805430576205,-0.2514102280698717,-0.21765821725130088,-9.80369553208351
2.6,2.4000000953674316,41.0,25.3577823638916,-0.07951773703098297,-79.78279099750529,40.45899759303849,269.0787140345573,0.0004761790623888373,0.015446653589606285,-0.795008659362793,0.6064013242721558,-0.02344063987404804,-0.016438594803450578,0.006626048659343212,0.005392507649958135,0.0050704595632851115,0.005774253513664007,-0.2463093546777964,-0.2309896131232381,-9.807651758193972
2.71,2.4000000953674316,42.0,25.350271224975586,-0.07156596332788467,-79.78279107212761,40.45899769006103,269.06742929577825,0.0004933044547215103,0.015462818555533888,-0.7950034737586975,0.6064075231552124,-0.0221587401748122,-0.014383649388517059,0.0065506006249528926,0.00853927992284298,0.0007576901698485018,0.00615541310980916,-0.2517942805029452,-0.2209717064537108,-9.803506667017935
2.9,2.299999952316284,45.0,25.3577823638916,-0.06361418962478638,-79.78279108122648,40.458997712989095,269.0681762611866,0.0005136537365615368,0.015483164228498937,-0.7950097322463989,0.60639888048172,-0.026591352160925005,-0.015659432528530526,0.00666303062958041,-0.00034622932435013354,0.0005665806238539518,0.0021775118075311184,-0.2492891505919397,-0.2185183792188764,-9.805065534710883
3.0,2.200000047683716,45.0,25.34025382995605,-0.07951773703098297,-79.78279114679702,40.45899780356316,269.0572197949886,0.0005243886262178421,0.015488477423787115,-0.7950061559677124,0.6064035296440125,-0.0229182149459524,-0.012305805945183032,0.007075140522040742,0.00668858177959919,0.0019001790788024664,0.0060238223522901535,-0.2499208874255419,-0.2348246191442013,-9.805248552560807
3.2,2.0999999046325684,47.0,25.350271224975586,-0.07156596332788467,-79.78279115298662,40.45899782646305,269.05801802039144,0.0005267478991299868,0.0154938492923975,-0.7950090765953064,0.6063995361328125,-0.027829116251465863,-0.013303241887454378,0.00732298420204624,-0.006948685739189386,0.0006192389992065728,-0.006273329257965088,-0.25186828432604674,-0.21634394589811565,-9.804542793631557
3.31,2.0999999046325684,47.0,25.36153984069824,-0.06361418962478638,-79.78279122626252,40.45899791054624,269.0462233638763,0.0005532526411116123,0.01549838948994875,-0.7950152158737183,0.6063913702964783,-0.0229275107719392,-0.011495546668137764,0.007128408202946911,0.0022468951065093283,0.0046929162926971895,0.0007060233619995415,-0.248666440397501,-0.2435600304231048,-9.806756549477578
3.5,1.8999999761581416,48.0,25.35653114318848,-0.07156596332788467,-79.78279129955037,40.45899798420726,269.0332223689556,0.0005741316708736122,0.01551823504269123,-0.795005202293396,0.6064038872718811,-0.01770843623924859,-0.008974501797470493,0.006850679007285107,-0.006301991175860167,-0.0044075995683670035,-0.00522896321490407,-0.2492708780430257,-0.2317678775265813,-9.805031036138537
3.6,1.8999999761581416,46.0,25.3577823638916,-0.07951773703098297,-79.7827913047449,40.45899800300168,269.03396176457403,0.0005948886391706765,0.015501328743994238,-0.7950074076652527,0.6064014434814453,-0.020200890138932302,-0.010776419038101887,0.006741431087904775,0.009072177112102509,0.0057477205991745,0.007082608528435229,-0.24561419382691385,-0.2335866539552808,-9.807399158477784
3.8,1.7999999523162842,45.0,25.35653114318848,-0.06361418962478638,-79.78279137663715,40.4589981082628,269.0205511367321,0.0005997316911816598,0.015507826581597328,-0.7950049638748169,0.6064044237136841,-0.02077055802500613,-0.010383792488102244,0.003367061898459991,0.009761830791831015,0.00034243098343722517,0.0031086960807442665,-0.2456496973894537,-0.2427779836021364,-9.806806250810624
3.9,1.7000000476837158,44.0,25.35527801513672,-0.06361418962478638,-79.78279147438683,40.45899821841389,269.0086724078655,0.0006204975652508438,0.015530592761933804,-0.7950181365013123,0.6063865423202515,-0.01960460329011925,-0.013154746853518726,0.004736893557283771,-0.0006471169181168079,-0.003309932071715593,-0.00032448870479129255,-0.25030064580962064,-0.2185993448831141,-9.80435509800911
4.1,1.7000000476837158,45.0,25.35152244567871,-0.09542128443717957,-79.7827914835567,40.45899824009988,269.0092095649242,0.0006260232767090201,0.01552254892885685,-0.7950330376625061,0.6063671708106995,-0.02267654096812268,-0.014901830061411572,0.004513838751365478,0.004148479551076889,0.0027026168536394835,0.0023360762279480696,-0.24845161003991964,-0.22816401924937965,-9.806048451662065
4.2,1.600000023841858,46.0,25.346513748168945,-0.07951773703098297,-79.7827915621673,40.45899833288865,268.9950039899349,0.0006448458298109473,0.015537789091467856,-0.795022189617157,0.6063810586929321,-0.017482930763702737,-0.011954614766863363,0.00160809585599655,0.00857558287680149,0.004795780871063471,0.005824546795338392,-0.2514337082952261,-0.2256774359755218,-9.804007773399354
4.4,1.7000000476837158,47.0,25.347766876220703,-0.07951773703098297,-79.78279156997705,40.45899835177835,268.99523126244543,0.0006464586476795375,0.015548619441688059,-0.7950258851051331,0.6063759326934814,-0.022242192698587814,-0.013044610097988069,0.001640194479094568,-0.007897776551544666,-0.002011760137975216,-0.007901187986135483,-0.25034901324659586,-0.21641023870557544,-9.803959241509435
4.5,1.7000000476837158,46.0,25.35277557373047,-0.07951773703098297,-79.7827916308091,40.458998461415476,268.9821687555313,0.0006533790146932006,0.015552113763988018,-0.7950228452682495,0.6063798069953918,-0.02175966361931861,-0.009887067832684409,0.002378922916821952,-0.0016685123555362225,-0.0016191094182431698,-0.0009614710579626262,-0.2460761604085565,-0.2420584654435516,-9.80679923415184
4.7,1.7000000476837158,43.0,25.35653114318848,-0.06361418962478638,-79.78279163518215,40.45899848235589,268.98247023582456,0.0006390003254637122,0.015567166730761528,-0.7950373291969299,0.6063604354858398,-0.024911473504031133,-0.011013508157881359,0.0023962902304684327,-0.0017709612147882579,-0.002867573639377952,0.0031449091620743275,-0.24982508445158605,-0.23938636098057034,-9.806040265560153
4.8,1.7000000476837158,44.0,25.35277557373047,-0.06361418962478638,-79.78279170999457,40.45899859489533,268.9700649893284,0.000673371076118201,0.015579318627715109,-0.7950395345687866,0.6063571572303772,-0.024965451192507333,-0.010913981655110832,0.003879381130184632,-0.004234814550727606,-0.001672885729931295,-0.004883535671979189,-0.2483861943148077,-0.2287065677717328,-9.80629754304886
5.0,2.0,43.0,25.347766876220703,-0.07951773703098297,-79.78279175445911,40.45899871005957,268.95513924121855,0.0006469992222264409,0.015586908906698229,-0.7950514554977417,0.6063414812088013,-0.025005094424455813,-0.0045868778379078035,0.0011986455169227224,0.0027654264122247696,0.0023436597548425198,0.005537113640457393,-0.2464687278494239,-0.23905866108834745,-9.80629111111164
5.1,2.0999999046325684,41.0,25.3577823638916,-0.07951773703098297,-79.78279175166156,40.45899873520234,268.9553275322914,0.0006430278881452978,0.015572681091725825,-0.7950508594512941,0.606342613697052,-0.02997966642133337,-0.005749168482450207,0.0012241818090427045,-0.00427217036485672,-0.001006704638712108,-0.008269374258816242,-0.25107962284237145,-0.21684892605990166,-9.80382241666317
5.3,2.0999999046325684,39.0,25.335247039794922,-0.039758868515491486,-79.78279185953191,40.458998850645706,268.94246538639067,0.0006840017158538102,0.015572839416563513,-0.7950578927993774,0.6063332557678223,-0.02367703996547152,-0.011053008654993686,0.003123072633115944,0.0028182060923427343,0.0003143079811707138,-0.004232975654304028,-0.2481892345100641,-0.2202397812344134,-9.804517650604248
5.4,2.200000047683716,41.0,25.342758178710927,-0.06361418962478638,-79.78279198947516,40.45899897445889,268.92884915232656,0.0007324182661250234,0.015572513453662397,-0.7950690984725952,0.6063185930252075,-0.018507901721618147,-0.01819813113527806,0.003949954670561418,0.008817717432975769,0.005847464315593243,0.004217209760099649,-0.25014876438304784,-0.2352365006692708,-9.806243748664857
5.6,2.299999952316284,39.0,25.346513748168945,-0.07156596332788467,-79.78279200430894,40.45899899705203,268.92933743357656,0.0007290438516065477,0.015551350079476832,-0.7950616478919983,0.6063288450241089,-0.023482370280536503,-0.019398617190674768,0.004054797599685714,-0.008454777300357819,-0.0010013678111135964,-0.009368235245347023,-0.2496678674407304,-0.21747362796217204,-9.803899599909784
5.71,2.4000000953674316,38.0,25.335247039794922,-0.07156596332788467,-79.78279208772202,40.45899909780295,268.91762175321577,0.0007709309575147928,0.015600644052028656,-0.7950555682182312,0.606335461139679,-0.018184010829694067,-0.014769260224609185,0.006628158190450825,0.000580572581384331,0.004700653720647097,0.00017612744704820216,-0.2475113777630031,-0.2449511561170221,-9.807368168234824
5.9,2.5,36.0,25.342758178710927,0.02385532110929489,-79.78279209832226,40.45899911698169,268.91836159586904,0.0007649168255738914,0.015603262931108475,-0.7950519919395447,0.6063401103019714,-0.0222155503047356,-0.015690218041339254,0.006626447228091926,-0.008786461316049099,-0.0022307864855974913,-0.006528566591441631,-0.2517320259287953,-0.22643260387703776,-9.803963334560397
6.01,2.5999999046325684,34.0,25.33900260925293,-0.07951773703098297,-79.78279218386844,40.45899926154528,268.905126503706,0.0007675170782022178,0.01561135333031416,-0.7950503826141357,0.6063420176506042,-0.024500189068175613,-0.014781140136283562,0.0064692193058764,-0.001173857133835554,0.0005988822085782888,-0.004809579811990261,-0.2454735134728253,-0.2448675957508385,-9.80697523534298
6.2,2.700000047683716,34.0,25.34526252746582,0.007951773703098297,-79.7827921927414,40.45899928583085,268.9058590149879,0.0007649283506907523,0.01561474706977606,-0.7950472831726074,0.6063460111618042,-0.027793019231112968,-0.01590127040622797,0.006443109989939781,-0.005307965911924839,-0.0011886616703122856,-0.00046976178418844944,-0.25039937239140275,-0.2318049159832299,-9.804645119905473
6.31,2.700000047683716,34.0,25.34150695800781,0.0,-79.78279228502353,40.458999413666035,268.8921077466011,0.0007898126496002077,0.015636945143342018,-0.7950405478477478,0.6063541769981384,-0.02612880336410264,-0.01473714419735746,0.006137074659977928,-0.0038309816736727953,-0.0018923443276435137,-0.005191449075937271,-0.24589405618607998,-0.2376439638063312,-9.80712492406368
6.5,2.5999999046325684,33.0,25.320220947265625,0.007951773703098297,-79.7827923597344,40.458999517466886,268.87711890697483,0.0007918479386717081,0.015656659379601482,-0.7950392961502075,0.6063553094863892,-0.02019500327207249,-0.009119078992106164,0.0055800760957055075,-0.0013168547302484512,-0.003436923492699861,0.002082287799566984,-0.25022600244730714,-0.24169325200840835,-9.805086584687233
6.6,2.5999999046325684,36.0,25.31270980834961,0.015903547406196594,-79.78279236409901,40.458999538573714,268.8777379608154,0.0007948430720716715,0.015658564865589142,-0.7950531840324402,0.6063370704650879,-0.022765955156285083,-0.010862221509940529,0.005364359842622763,0.0059157200157642365,0.005367349833250046,0.004667897243052721,-0.24714550651609896,-0.2312310483120382,-9.806485238671305
6.8,2.5999999046325684,38.0,25.31521415710449,-0.015903547406196594,-79.78279251071687,40.45899967764561,268.86259009599684,0.0008133212686516345,0.0156808253377676,-0.7950441241264343,0.6063483357429504,-0.019993789987118808,-0.01784739414735689,0.004730574422079686,0.0051031517796218395,0.0019204235868528485,0.006226846016943455,-0.2452752928622067,-0.2445566700585187,-9.806871154904366
6.9,2.5999999046325684,40.0,25.33148956298828,0.015903547406196594,-79.78279261431993,40.4589998011201,268.8481292045116,0.0008225171477533878,0.0156903825700283,-0.7950435280799866,0.6063488125801086,-0.01850810967439489,-0.014916349136057022,0.005074626462257485,-0.006050149910151959,-0.0045570367947220785,-0.003184293862432241,-0.24823730958625675,-0.22007932998239998,-9.804850357174876
7.1,2.4000000953674316,40.0,25.32522964477539,-0.03180709481239319,-79.78279262616256,40.45899982175778,268.8486996805668,0.0008191356319002807,0.01570044457912445,-0.7950445413589478,0.6063472628593445,-0.02038175354575801,-0.016769329398861367,0.004754256053906053,0.006836689542979002,0.004100491758435965,0.006892745848745108,-0.2451468368433416,-0.2367089026607573,-9.806165395975112
7.2,2.4000000953674316,39.0,25.321474075317386,0.02385532110929489,-79.78279263826384,40.45899984370839,268.84925811648367,0.0008248504600487647,0.015713999047875404,-0.7950494885444641,0.6063404679298401,-0.02481701004543241,-0.017887102323841757,0.004697486182861584,-0.00868810061365366,-0.00183821830432862,-0.008770330809056759,-0.25232984891161325,-0.21740070221945645,-9.802712030410769
7.41,2.200000047683716,40.0,25.33649826049805,-0.007951773703098297,-79.78279275720173,40.45899999845985,268.83409794330595,0.0008273212588392197,0.015731610357761383,-0.795053243637085,0.6063351035118103,-0.02561524855949027,-0.020271881312172488,0.004554591216801187,0.0018255076138302684,0.0016757112462073565,-0.001883801887743175,-0.2501454205065966,-0.2207209705375135,-9.803020178675652
7.51,2.0999999046325684,40.0,25.327733993530273,-0.007951773703098297,-79.78279285318864,40.45900009457149,268.8189007258415,0.0008614310063421726,0.015740353614091873,-0.7950356602668762,0.6063579320907593,-0.015796576294722125,-0.014792115228315809,0.0048156440245796656,0.009296750649809836,0.004896551370620728,0.006073472090065479,-0.24975049590691925,-0.23426940774545074,-9.804380241036416
7.7,1.8999999761581416,40.0,25.327733993530273,0.007951773703098297,-79.78279286474844,40.45900011245393,268.8194591617584,0.0008923703571781516,0.015743426978588104,-0.7950454950332642,0.6063448786735535,-0.020119165774391937,-0.01601131998512341,0.0049529230598752685,-0.007865957915782928,-0.0014023114927113054,-0.009720273315906523,-0.25233381405472755,-0.2209384138695896,-9.804304811954498
7.8,1.7999999523162842,40.0,25.34025382995605,0.007951773703098297,-79.78279291700447,40.45900026211038,268.80322363138197,0.0008971506613306701,0.015745667740702633,-0.7950497269630432,0.6063392758369446,-0.023544488300361942,-0.010026106913873564,0.004244940931492672,-0.004603596869856119,-0.001703843125142157,-0.004307139199227096,-0.2455201450176537,-0.2410327907279134,-9.806995115876198
8.0,1.7000000476837158,42.0,25.32272529602051,0.02385532110929489,-79.78279299470086,40.45900038218928,268.78723158597944,0.0009004638995975256,0.015737259760498997,-0.795043408870697,0.6063477993011475,-0.020187262064487742,-0.007534929742536766,0.003994656636845457,0.0021561344619840392,-0.0012144458014518025,0.0016801576130092144,-0.2486321610957385,-0.2413172029517591,-9.80589408516884
8.1,1.600000023841858,43.0,25.335247039794922,0.0,-79.78279299723945,40.45900040310124,268.7876848196983,0.0009296180796809494,0.01573963835835457,-0.7950411438941956,0.6063505411148071,-0.023442862121295715,-0.009160947659792602,0.0037709795953198436,-0.00033225878723897034,0.0001573431072756648,0.0001246142783202231,-0.2497275821305812,-0.22244449216872456,-9.805135701298717
8.3,1.5,45.0,25.327733993530273,0.07156596332788467,-79.78279308871556,40.45900052325473,268.772043428421,0.0009634991874918342,0.015760522335767746,-0.7950299978256226,0.6063647270202637,-0.01699179877862209,-0.008870957976122106,0.004264451990334207,0.00499874632805586,0.005915706977248192,0.003098283661529422,-0.24629464527592065,-0.2304075045324862,-9.80670217037201
8.4,1.5,43.0,25.323978424072266,0.0,-79.78279317787445,40.45900064310175,268.7565325117111,0.001013308996334672,0.01576756127178669,-0.7950140833854675,0.6063852310180664,-0.012042509848873612,-0.008249298863801297,0.004557008955286671,0.006696715950965881,0.006178981624543667,0.006749083288013935,-0.2505167735181749,-0.22613847065716985,-9.80462816298008
8.6,1.399999976158142,42.0,25.33649826049805,-0.03180709481239319,-79.78279318352928,40.45900065738624,268.7570418930053,0.0010076010366901755,0.015754152089357376,-0.795008659362793,0.6063926815986633,-0.016219090315174864,-0.00962783350319948,0.004601292135509788,-0.00950339250266552,-0.0025200382806360717,-0.005188395269215107,-0.2508651213906706,-0.21752773297950626,-9.804034670591356
8.7,1.399999976158142,42.0,25.33649826049805,0.02385532110929489,-79.78279327573341,40.45900079871365,268.7413358902931,0.0010311396326869726,0.015765322372317314,-0.7950054407119751,0.6063965559005737,-0.016254377599932247,-0.010155369297961334,0.004484219387010756,-0.0014562782598659394,-6.6537999373395e-05,-0.004966323729604483,-0.2463613948971033,-0.2427485282532871,-9.806388174891474
8.9,1.399999976158142,41.0,25.316465377807607,-0.039758868515491486,-79.78279328225048,40.459000815043225,268.7418388938904,0.001037666224874556,0.015786103904247284,-0.7950009703636169,0.606401801109314,-0.018500299868825124,-0.01147563700265013,0.004370815241253732,-0.0021248944103717804,-0.0036467530298978095,0.0029550953768193717,-0.24897027634084226,-0.2399907620809973,-9.805087169408797
9.0,1.5,41.0,25.33148956298828,-0.11132483184337616,-79.78279339292187,40.45900092800778,268.7269746875763,0.0010721752187237144,0.015808116644620895,-0.7949894070625305,0.6064164042472839,-0.01384739780899801,-0.01366192524427756,0.004451221248254203,-0.005201598163694143,-0.0045144190080463895,-0.003634166438132525,-0.2489466499350965,-0.22681985400617125,-9.8051696151495
9.2,1.5,39.0,25.321474075317386,-0.14313192665576935,-79.78279340436785,40.45900094273134,268.72746666431425,0.0010817830916494133,0.015811631456017494,-0.7949943542480469,0.6064098477363586,-0.0151635571613993,-0.015463534721730359,0.004055565593891042,0.0040194150060415285,0.00378735875710845,0.0053566223941743365,-0.2452032076567412,-0.23520569315180184,-9.805513431429864
9.3,1.600000023841858,37.0,25.317716598510746,-0.15108370780944824,-79.78279347838756,40.45900109230836,268.71270295143125,0.0010812757536768911,0.015829719603061676,-0.794978141784668,0.6064306497573853,-0.018573650531362583,-0.013219746325816949,0.0037674208682646295,0.003922884352505207,0.00280593428760767,0.004845106042921543,-0.252544167637825,-0.22108410090208053,-9.803437669873238
9.5,1.600000023841858,36.0,25.35152244567871,-0.07156596332788467,-79.78279354430525,40.45900120668677,268.6978023266792,0.0010976972989737988,0.015833169221878052,-0.7949779629707336,0.6064307689666748,-0.0162008286449773,-0.008464163567843401,0.003793936821005425,-0.007502357941120862,-6.782517448300496e-05,-0.00676373578608036,-0.25053027693182234,-0.21780057867988944,-9.802833652496338
9.61,1.7000000476837158,35.0,25.33900260925293,-0.06361418962478638,-79.78279354945376,40.459001223575655,268.69823183774946,0.0010841962648555636,0.015829227864742286,-0.7949699163436891,0.6064414381980896,-0.01810565659328973,-0.010026930530013974,0.003704299716463928,0.0010912230936810372,-0.0006259159417822957,0.00497235544025898,-0.2486823375150561,-0.24315503764897586,-9.806675857901574
9.8,1.7000000476837158,31.0,25.346513748168945,-0.06361418962478638,-79.78279366573746,40.45900135781772,268.6842457270622,0.001108247903175652,0.01581175997853279,-0.7949670553207397,0.6064456105232239,-0.01588132191017645,-0.013942336166913821,0.0044261392251804905,-0.006128387991338968,-0.0018961657769978046,-0.002427974017336965,-0.2491199650615453,-0.23370798368006945,-9.804041102528572
9.9,1.7000000476837158,30.0,25.34150695800781,-0.06361418962478638,-79.78279374238153,40.45900149667385,268.6705758786201,0.0011196096893399954,0.015847045928239822,-0.7949674129486084,0.606444239616394,-0.017081562192238647,-0.011861818444222677,0.004347804964370744,-0.006645333953201771,-0.0028340269345790148,-0.007904081605374813,-0.2454586944356561,-0.2329115563631058,-9.806530846953391
10.1,1.7000000476837158,26.0,25.350271224975586,-0.06361418962478638,-79.782793751362,40.459001514853675,268.6710590338707,0.0011170187499374153,0.015852270647883415,-0.7949777841567993,0.6064303517341614,-0.018141060005163225,-0.013580194596766152,0.004002575929129834,0.007490422111004591,0.0041428389959037295,0.005020772572606802,-0.2461010841652751,-0.2421481836587191,-9.806584056615831
10.2,1.7000000476837158,25.0,25.350271224975586,-0.07951773703098297,-79.78279383298275,40.45900164202005,268.65732868671415,0.0011166250333189962,0.01590254344046116,-0.7949832081794739,0.6064220070838928,-0.01440604434319914,-0.011523754617636595,0.0045208794941364394,0.0017076331423595548,-0.0011993621010333302,0.004209375008940697,-0.2507617901265621,-0.2168143909424544,-9.803665711283683
10.4,1.600000023841858,23.0,25.346513748168945,-0.06361418962478638,-79.78279384169338,40.45900165752192,268.65782483577726,0.0011306015076115727,0.015905700623989102,-0.7950024604797363,0.6063966751098633,-0.016646951167237915,-0.013189904910786109,0.004245655452651789,0.002853731391951441,0.00034209148725494737,0.001774190575815737,-0.2482696519978345,-0.22446581980213529,-9.804892457127572
10.5,1.7000000476837158,21.0,25.350271224975586,-0.07156596332788467,-79.78279395153871,40.459001801671135,268.64427753448484,0.0011453527258709073,0.015908358618617058,-0.7949974536895752,0.6064031720161438,-0.014800270547453382,-0.01603134422766126,0.004538218087156917,0.006122565828263761,0.005871327128261328,0.00437042023986578,-0.2506669190526009,-0.2297155048325658,-9.804031162261962
10.7,1.600000023841858,20.0,25.34401130676269,-0.07951773703098297,-79.78279396473657,40.45900181896259,268.6447963929176,0.0011553042568266392,0.015909314155578613,-0.7950049638748169,0.6063932180404663,-0.018535126222123208,-0.01711440087080042,0.004406957446205342,-0.008009578101336956,-0.0041306298226118105,-0.006913022603839636,-0.25012806158512835,-0.21988741340115667,-9.802604441642762
10.82,1.5,21.0,25.360286712646484,-0.05566241592168808,-79.78279403274486,40.45900194165822,268.63044454813,0.0011360457865521312,0.015929823741316795,-0.7949950098991394,0.6064056754112244,-0.014300675221801609,-0.011683673606759634,0.004138328967174505,-0.003420610912144184,0.0010072526056319477,-0.0101601742208004,-0.24538964247331024,-0.2406218959204853,-9.805529803633693
11.0,1.5,22.0,25.354026794433594,-0.07951773703098297,-79.78279409634776,40.459002074924456,268.61677189826963,0.0011154316598549485,0.015943752601742744,-0.7949976325035095,0.6064019799232483,-0.013047196030823074,-0.00668357877167932,0.004908678176877361,0.002730717882514,0.0015440966235473752,0.00181912980042398,-0.2464158105477691,-0.24161957709118725,-9.8058408755064
11.1,1.399999976158142,21.0,25.354026794433594,-0.07951773703098297,-79.78279410008133,40.45900208926262,268.61729629993437,0.0011189962970092893,0.015946289524435997,-0.7949995994567871,0.6063992977142334,-0.016245189304521568,-0.008208775558743935,0.004604375121716538,-0.004574472084641457,0.0019036473240703344,-0.004814975894987583,-0.2515864850766957,-0.21883778337389231,-9.80269565820694
11.3,1.399999976158142,21.0,25.33900260925293,0.039758868515491486,-79.78279418786674,40.459002245418795,268.60382767677305,0.0011383608216419814,0.015934539958834648,-0.7950057983398438,0.6063914299011229,-0.016968650943785354,-0.009490976667720523,0.004482473780691782,-0.001820353791117668,0.000441131618572399,-0.0037013059481978408,-0.251118378918618,-0.22061155451461675,-9.803048245310784
11.4,1.2999999523162842,18.0,25.33023834228516,-0.07156596332788467,-79.7827942590032,40.459002398282976,268.5906539773941,0.0011160816065967083,0.01593409664928913,-0.7949961423873901,0.606404185295105,-0.017625755336806426,-0.006638384618071165,0.004523926746810431,0.0010790140368044376,-0.00101161515340209,-0.0030760138761252165,-0.2493233019858599,-0.2414462985098362,-9.805032205581666
11.6,1.2999999523162842,19.0,25.34025382995605,-0.07951773703098297,-79.782794261358,40.45900241625453,268.5911480402946,0.0010949099669232962,0.015927603468298912,-0.7949838042259216,0.606420636177063,-0.019927553086789646,-0.007856347795267605,0.0042754159440901605,0.0008015868370421233,-0.0005571303190663457,0.0006088779773563148,-0.2484098389931023,-0.23961147878319025,-9.804714701771736
11.7,1.2999999523162842,19.0,25.34526252746582,-0.08746951073408127,-79.78279435920538,40.45900252083154,268.5786996102333,0.0011157140834257009,0.015958644449710846,-0.7949835062026978,0.60642009973526,-0.010389044766849093,-0.006511338328278407,0.00477190853989133,-0.0018651694990694523,-0.0031003819312900305,0.0037232495378702883,-0.24939995532855394,-0.22142437230795625,-9.80309034526348
11.9,1.2999999523162842,19.0,25.35527801513672,-0.06361418962478638,-79.78279436347691,40.459002531452576,268.57919665336607,0.0011459996458142994,0.015974104404449463,-0.7949895262718201,0.606411874294281,-0.01260256936980253,-0.008140460703265942,0.004338225419222378,-0.0018239414785057304,0.00270697521045804,-0.00011393359454814343,-0.24992401203140616,-0.2219372279383242,-9.803271608948707
12.0,1.2999999523162842,21.0,25.350271224975586,-0.04771064221858978,-79.78279444883441,40.45900267423571,268.5674221730232,0.0011345709208399055,0.0159587599337101,-0.7949842810630798,0.6064190864562988,-0.014106230958589941,-0.0075511520001491925,0.0039856934786687065,0.00045195617713034153,0.0019013072596862914,-0.00044645505840890115,-0.24913392528891565,-0.23987995734438305,-9.804816443324091
12.2,1.2999999523162842,24.0,25.342758178710927,-0.07156596332788467,-79.78279445277826,40.459002687841725,268.56786366462705,0.0011218613944947722,0.015961408615112305,-0.7949909567832947,0.6064102649688721,-0.01640717128974521,-0.008671186561502717,0.0038321653597821258,0.0013334853574633598,0.0006372966454364357,0.0007786806090734898,-0.2507943883538246,-0.2380789601057768,-9.8041668176651
12.3,1.2999999523162842,25.0,25.335247039794922,-0.06361418962478638,-79.78279458062212,40.45900280860875,268.5564351892471,0.0011323810322210193,0.01595847867429256,-0.7950099110603333,0.6063855290412903,-0.011609774085665832,-0.01224046726378927,0.004508966202426036,-0.0002120658900821581,-0.0032429476268589497,-0.002306759357452393,-0.2487429841049016,-0.22425818882882595,-9.804009527564052
12.5,1.2999999523162842,27.0,25.337749481201172,-0.07156596332788467,-79.7827946970311,40.45900294378856,268.54459347486494,0.0011470254976302385,0.015948664397001266,-0.7950183153152466,0.6063746809959412,-0.009197569002377944,-0.014307468555132425,0.005105585469498278,0.0032258289866149426,0.004347226116806269,0.004132924135774374,-0.2490142035484314,-0.2276219092682004,-9.804454500675202
12.61,1.399999976158142,26.0,25.34526252746582,-0.07951773703098297,-79.78279471055659,40.459002956507824,268.54515310287474,0.0011372902663424613,0.015932969748973846,-0.7950100898742676,0.6063859462738037,-0.012128539798227202,-0.01541523164777364,0.004930295397762114,-0.005711039062589407,-0.0023896330967545514,-0.0015813146019354465,-0.2495755179785192,-0.23348259178921585,-9.804414739608763
12.8,1.399999976158142,28.0,25.346513748168945,-0.07156596332788467,-79.78279480692422,40.45900307977458,268.5357915973663,0.001137703424319625,0.015926836058497432,-0.7950134873390198,0.6063816547393799,-0.00889304250662783,-0.009614401354431005,0.008265165785888073,-0.004422062076628208,-0.002896881429478526,-0.0034836537670344114,-0.25121668523177504,-0.2289216356724501,-9.803486201763151
12.9,1.2999999523162842,30.0,25.33274269104004,-0.07156596332788467,-79.78279492273305,40.45900321681805,268.52559407711027,0.0011579704005271196,0.015931535512208942,-0.7950224280357361,0.60636967420578,-0.00961481940452962,-0.010002353117947352,0.007569419945280626,-0.005602545104920864,-0.0014580980641767385,-0.006875310558825731,-0.2465569294430316,-0.2321598785184324,-9.806457172036172
13.1,1.5,30.0,25.350271224975586,-0.08746951073408127,-79.78279493178695,40.45900322799357,268.52637811660765,0.0011341962963342669,0.015925480052828792,-0.7950254678726196,0.606365978717804,-0.010601482162688592,-0.011788196846998077,0.007101435275937706,0.008491481654345991,0.0020593914669007067,0.004193703178316355,-0.2470823748596013,-0.23821244107559325,-9.805047408342364
13.2,1.5,31.0,25.35152244567871,-0.07156596332788467,-79.78279502941295,40.45900337015673,268.5175824379921,0.001153281657025218,0.01595431566238403,-0.7950301766395569,0.6063589453697205,-0.0111347699034468,-0.008892784321539005,0.009293898190216358,0.006192282773554325,0.0035409072879701853,0.008567036129534245,-0.25217979473993185,-0.21821527417749167,-9.802963460683824
13.4,1.600000023841858,31.0,25.347766876220703,-0.07951773703098297,-79.78279503564244,40.4590033821052,268.51855137109754,0.0011617973214015365,0.015961434692144394,-0.7950351238250732,0.6063522696495056,-0.014437762822349315,-0.010146820863885951,0.009175232313894477,-0.004335031379014254,0.00019081011123489588,-0.005513051524758339,-0.2494032078422606,-0.21607903048396115,-9.803077481389048
13.5,1.600000023841858,31.0,25.33900260925293,-0.08746951073408127,-79.78279515116122,40.459003514096594,268.5082406616211,0.0011850472074002028,0.01594860665500164,-0.7950267791748047,0.6063635349273682,-0.011833635239532077,-0.0101642285971817,0.0077625404927129625,-0.0042081396095454675,0.001984260976314545,-0.003834798466414213,-0.2447838526591659,-0.2404473565332592,-9.805411105155946
13.7,1.600000023841858,30.0,25.349018096923828,-0.10337305814027786,-79.78279515893423,40.45900352626836,268.5090512251854,0.001177759957499802,0.015940098091959953,-0.7950301170349121,0.6063593029975891,-0.01358647271397186,-0.011342488035967392,0.007455307121131282,-0.0014384833630174398,-0.002505146898329258,0.002194856759160757,-0.24861059948801995,-0.2412649617344141,-9.80439076602459
13.8,1.600000023841858,29.0,25.34526252746582,-0.07951773703098297,-79.78279525798591,40.45900366709819,268.49856629133217,0.001174058299511671,0.01595205068588257,-0.7950243949890137,0.6063665747642517,-0.013903512826657057,-0.008701996319193585,0.006535403408783743,0.0007801727624610066,-5.763423177995719e-05,0.0035406874958425756,-0.2492143062315881,-0.223450158443302,-9.804220027327538
14.0,1.600000023841858,27.0,25.33649826049805,-0.07951773703098297,-79.78279537029147,40.459003803337566,268.4900036072731,0.001196265802718699,0.015938811004161838,-0.7950214147567749,0.606370747089386,-0.012379054579797457,-0.009182886257539142,0.009253372298791637,0.0055364156141877174,0.0046008876524865645,0.004167958628386259,-0.2464132158458233,-0.2308034706674517,-9.80505617916584
14.1,1.600000023841858,27.0,25.34526252746582,-0.08746951073408127,-79.78279538409035,40.45900383333864,268.4919362282753,0.0011721651535481215,0.015936197713017464,-0.7950257062911987,0.6063652038574219,-0.016811264373918812,-0.012198464534549943,0.008750410072662432,0.008720455691218376,0.001555039780214429,0.006592475343495607,-0.2509262430667877,-0.2243694321066141,-9.803616594672203
14.3,1.600000023841858,29.0,25.34401130676269,-0.02385532110929489,-79.7827955005,40.459003938541,268.4817632651329,0.0012003725860267878,0.015935951843857758,-0.7950225472450256,0.6063693761825562,-0.010438918912749465,-0.009903757008658058,0.008095648856520136,-0.004509830381721258,0.0009161296184174716,-0.0021491339430212975,-0.2502485873177648,-0.21756899239495398,-9.804104837179183
14.4,1.7000000476837158,27.0,25.342758178710927,-0.09542128443717957,-79.7827956166486,40.45900407574764,268.4749655342102,0.0011986447498202324,0.015951722860336304,-0.795017659664154,0.6063753366470337,-0.009322756504696123,-0.009307976031047488,0.012145211594730742,0.003978997934609652,0.0040066102519631394,0.005458487197756767,-0.24924589946866035,-0.2398327228054405,-9.804605943560599
14.6,1.7000000476837158,29.0,25.346513748168945,-0.09542128443717957,-79.78279562419954,40.45900408744274,268.47621824502943,0.0011862555984407663,0.015934104099869728,-0.7950167655944824,0.6063770651817322,-0.012979625985525713,-0.010610391095976793,0.0119977447154597,-0.011095975525677204,-0.0008799689821898937,-0.008136470802128315,-0.2519664444588125,-0.2221287607960403,-9.802759977579116
14.7,1.7000000476837158,31.0,25.337749481201172,-0.07951773703098297,-79.78279577549317,40.45900421523017,268.4668516731262,0.0011963732540607452,0.015955694019794464,-0.7950105667114258,0.6063845157623291,-0.008908387274740987,-0.01382878277193573,0.009725300466341954,-0.0010120182996615767,-0.00024903923622332513,-0.0035629353951662783,-0.2468089627102017,-0.24280541069805625,-9.806077687740329
14.9,1.600000023841858,32.0,25.33900260925293,-0.06361418962478638,-79.78279578837446,40.45900422599024,268.46786197185514,0.001207493944093585,0.015957379713654518,-0.7950087189674377,0.6063868999481201,-0.010614099789714284,-0.015066742512102497,0.00943312405836126,-0.0016748766647651796,-0.0025943184737116107,0.004958448465913534,-0.2486845850385725,-0.2401704543270171,-9.80521990120411
15.0,1.600000023841858,32.0,25.33148956298828,-0.07951773703098297,-79.78279590982687,40.45900435329564,268.4599603629112,0.0012075923150405288,0.01596519723534584,-0.7949904799461365,0.6064106225967407,-0.010941670522087795,-0.012823194105522255,0.010483180357868651,-0.008160170167684555,-0.002465936588123441,-0.00569000281393528,-0.2475716771744192,-0.2258210947550833,-9.80520528316498
15.21,1.600000023841858,34.0,25.346513748168945,-0.07156596332788467,-79.7827959211903,40.459004365228,268.4610415315628,0.001209615496918559,0.015963535755872726,-0.7949962615966797,0.6064030528068542,-0.011849987577533822,-0.01454954950206024,0.010010248720200687,0.007252098061144352,0.003965405747294426,0.004688109271228314,-0.24515200797468426,-0.2343579565174877,-9.805622774362565
15.3,1.600000023841858,32.0,25.33148956298828,-0.05566241592168808,-79.78279603333529,40.459004480012744,268.4537289357185,0.001208036090247333,0.01596774160861969,-0.794986367225647,0.6064159274101257,-0.009671727453893384,-0.010947884171154802,0.011392911152198792,0.007043190300464629,0.0011265730718150735,0.008382680825889109,-0.2505031421966851,-0.22122616996988656,-9.802937148213386
15.5,1.600000023841858,31.0,25.255115509033203,0.2385532110929489,-79.78279615211972,40.459004595580105,268.4452159619331,0.0012143077328801155,0.016000445932149887,-0.7950396537780762,0.6063452363014221,-0.009011086965943202,-0.008740312752334195,0.013170004536635764,-0.0062023079954087726,-0.0023134439252316947,-0.017625002190470695,-0.2429902558028698,-0.2328422120399773,-9.800696495175362
15.6,1.600000023841858,30.0,25.277650833129893,0.22264966368675232,-79.78279616094392,40.459004605119546,268.44655200004576,0.001214174902997911,0.01600070483982563,-0.7949395179748535,0.6064764857292175,-0.008835548454562265,-0.01089031942503992,0.012737983216363208,0.008007011376321316,-0.003664483781903982,0.011915233917534351,-0.2462330485135317,-0.23901572059839965,-9.805606402158736
15.8,1.600000023841858,27.0,25.27013969421387,0.2306014448404312,-79.78279628207106,40.459004736968176,268.43706073522566,0.00122152513358742,0.016020849347114563,-0.7949750423431396,0.6064294576644897,-0.011332800903294778,-0.009184460929854551,0.009548422995226713,-0.00429897103458643,-0.00041391910053789616,-0.003069914178922773,-0.24630250247195365,-0.2434288152493537,-9.796301727890967
15.9,1.600000023841858,25.0,25.281408309936523,0.2306014448404312,-79.78279645482341,40.459004865420106,268.4285426354408,0.001235682750120759,0.01603266224265099,-0.7950032949447632,0.6063920259475708,-0.007713708494026763,-0.018137830605481242,0.00877874487214258,-0.0007996842614375055,0.00039471490890718997,-0.004227070603519678,-0.2493626427836716,-0.21762123361229896,-9.805961328148845
16.1,1.600000023841858,24.0,25.273895263671875,0.2465049922466278,-79.78279647265022,40.45900487716997,268.4294800376892,0.0012617631582543256,0.01604393869638443,-0.7949858903884888,0.6064143776893616,-0.010045025797555824,-0.01923782570859487,0.00841558780820727,0.0024271679576486353,0.0030149971134960647,0.003463048720732332,-0.2480437119305134,-0.2251794541999698,-9.809644489288333
16.2,1.600000023841858,23.0,25.25887107849121,0.2862638533115387,-79.78279658361386,40.45900501210501,268.4203676795959,0.0012570209801197052,0.016081184148788452,-0.795009970664978,0.606381893157959,-0.010392465787442677,-0.012660776190504212,0.007796436448599424,0.004330776166170836,0.0009169263066723944,0.0027282717637717733,-0.2481438637711108,-0.2306022716313601,-9.806067747473717
16.4,1.600000023841858,18.0,25.24635124206543,0.3657816052436829,-79.78279659442299,40.459005024633186,268.42117776632307,0.0012742173857986927,0.016087152063846588,-0.795013964176178,0.606376588344574,-0.013853247452955773,-0.013707011711033857,0.007540755539110261,-0.006330041214823723,-0.004549112170934677,-0.004248177632689476,-0.2416862901672721,-0.2174353469721973,-9.806600428819657
16.5,1.600000023841858,17.0,25.240089416503906,9.39104461669922,-79.78279668954437,40.45900516248717,268.41167672634117,0.0013439167523756625,0.016193188726902008,-0.7950900793075562,0.6062737107276917,-0.011055022582716043,-0.007014165692825525,0.01125099881483997,0.01543617621064186,-0.0027385298162698746,-0.007350297179073095,-0.2444454998709261,-0.2391210801154375,-9.80212730884552
16.7,1.600000023841858,15.0,24.892019271850586,0.6361418962478638,-79.78279669412893,40.459005173518854,268.41257943868635,0.001558834919705987,0.016682008281350136,-0.7951234579086304,0.6062161326408386,-0.015354851028611385,-0.010615949922894032,0.004733690706241026,0.0070921522565186015,-0.01108013466000557,0.02210972644388676,-0.2600119391083717,-0.3034280817769468,-9.793085759282114
16.8,1.600000023841858,14.0,25.14994239807129,0.20674611628055573,-79.782796831406,40.459005304836055,268.40249165058134,0.001554636750370264,0.016972070559859276,-0.7951102256774902,0.6062254309654236,-0.013205038536851087,-0.008797912307837089,0.004819008345943091,0.020735694095492363,-0.020449619740247726,0.005258820950984955,-0.27940371818840504,-0.32503966491669417,-9.78725550055504
17.0,1.5,14.0,24.392452239990234,2.6240854263305664,-79.78279694754077,40.45900543270079,268.3946076250076,0.0016989349387586115,0.01718556135892868,-0.7951758503913879,0.6061330437660217,-0.014823159998254547,-0.004136789753015071,0.01332671233896935,-0.005217567551881075,-0.01641971245408058,-0.017104074358940125,-0.25867862775921824,-0.16248666778206827,-9.806998039484023
17.1,1.5,13.0,24.95587539672852,0.5407206416130066,-79.78279695240037,40.45900544684892,268.3954582428932,0.0016583453398197891,0.017518877983093258,-0.7951373457908629,0.606174111366272,-0.016059659366912563,-0.008692229672597713,0.007184966387672276,0.02048617601394653,0.01970182731747628,0.0015505246119573712,-0.2349686068296433,-0.29846792528405786,-9.819904013872149
17.3,1.399999976158142,12.0,25.2363338470459,0.198794350028038,-79.7827970906458,40.45900556440339,268.3857495999336,0.0016339004505425696,0.017441246658563614,-0.7951247692108154,0.6061928868293762,-0.011014709119212646,-0.007180557979718789,0.0062198332920213465,-0.007887543179094791,-0.035672713071107864,0.006528629455715418,-0.29327863102778795,-0.22274891283363105,-9.79896221101284
17.4,1.399999976158142,11.0,25.17873954772949,1.1212000846862793,-79.78279725576324,40.45900570927938,268.37620343923567,0.0016292232321575286,0.017448386177420616,-0.7950543761253357,0.6062850952148438,-0.008252981293445203,-0.013977723713172352,0.006660174187299043,0.009885247796773907,0.011038240976631641,-0.002952186157926917,-0.2854463952966035,-0.2942525944299996,-9.80094266295433
17.6,1.399999976158142,9.0,24.552715301513672,4.198536396026611,-79.78279726801105,40.45900572129012,268.37694462299345,0.0016444725915789606,0.017448121681809425,-0.7950821518898009,0.6062484979629517,-0.014318056141823243,-0.014659006128415709,0.0064521707931644535,-0.0263324435800314,-0.008544735610485077,-0.004201512783765793,-0.2675367757491768,-0.2305343160219491,-9.809296579957008
17.7,1.399999976158142,8.0,24.38994789123535,5.160701274871826,-79.78279740883251,40.4590058701135,268.3657908654213,0.0017041172832250595,0.017518986016511917,-0.7951669692993164,0.6061350703239441,-0.00948598786736086,-0.014894706113129513,0.006587489200516728,0.006897528190165758,0.03790052607655525,0.01578710973262787,-0.2655407373234629,-0.22435338880866768,-9.790552745461463
17.9,1.399999976158142,7.0,24.06191062927246,8.158519744873049,-79.78279741947367,40.45900588335881,268.3664605236053,0.0018027338664978747,0.017609275877475742,-0.7952333092689514,0.606045126914978,-0.004916610483678774,-0.01475730319857944,0.005754683914240039,0.08873062580823897,0.04555801302194595,-0.013420372270047665,-0.2833065336383879,-0.31713039211928845,-9.812257025241852
18.0,1.5,6.0,23.88286781311035,8.84237289428711,-79.78279756991559,40.45900602348654,268.35843904972074,0.0020090658217668533,0.017472557723522186,-0.7953253388404846,0.6059277057647705,-0.017756072001272594,-0.017011707659925632,0.010795974921172909,-0.02704228833317757,0.04350715130567552,0.02037070505321026,-0.2555793841928244,-0.15705606624484064,-9.81421818137169
18.2,1.600000023841858,3.0,23.499740600585927,11.498265266418455,-79.78279758442687,40.45900603677907,268.3595652794838,0.002250950084999204,0.017080768942832947,-0.7953795194625854,0.6058669090270996,-0.006932695389790453,-0.016412097193808144,0.016188438230582868,0.04346558824181557,0.03087850846350193,0.06208768114447594,-0.29230766432359817,-0.19241620754823088,-9.840662798881533
18.3,1.600000023841858,3.0,23.344486236572266,13.772472381591795,-79.78279774416161,40.45900616406516,268.3488424038887,0.003931695129722357,0.01644904911518097,-0.7954365015029907,0.605800986289978,-0.009927991427418126,-0.016679613400779558,0.01989588943054733,-0.05803723633289337,0.053007028996944434,-0.03886052966117859,-0.24396664945408705,-0.23131532130762936,-9.872640051841735
18.5,1.7000000476837158,3.0,22.95635032653809,17.151975631713867,-79.78279787939017,40.45900626879515,268.33777245044706,0.005263809114694595,0.015492991544306278,-0.7952800989151001,0.6060214638710022,-0.007282490537166447,-0.01404276188831622,0.02197802006048584,-0.08299659937620163,-0.0009633466834202408,0.06070135533809664,-0.20079234397038812,-0.2458885013312101,-9.832966693639756
18.61,1.7000000476837158,4.0,22.77605438232422,18.32088661193848,-79.78279790032913,40.459006266322795,268.3399349069595,0.006776671390980482,0.01477428898215294,-0.7948164343833923,0.6066322326660156,0.007191493476680266,-0.0201045980238435,0.0219897596544993,-0.013988735154271126,0.014475372619926931,0.07914566993713379,-0.19349942252039912,-0.1361498948559165,-9.835714884996417
18.8,1.7999999523162842,5.0,22.432992935180664,21.056297302246094,-79.78279802748617,40.45900638542209,268.334347448349,0.009681863710284231,0.01556646078824997,-0.7936990261077881,0.6080344915390015,0.028867464830494374,0.01283269317631615,0.037915470158769116,0.03341526538133621,0.037246163934469216,-0.06944871693849564,-0.08738870272412896,-0.2900623152405024,-9.922963528633119
18.9,1.7999999523162842,6.0,22.28274726867676,23.49749183654785,-79.7827981816335,40.45900641486492,268.33466251850126,0.0097558768466115,0.009230448864400387,-0.7886549234390259,0.6146894097328186,0.0958093746176814,0.04467517398914191,0.1491768662296064,-0.1544753462076187,-0.054600119590759284,-0.05131367594003677,0.15474714696407318,0.0357349592470564,-10.3089195227623
19.1,2.0,11.0,22.5106201171875,19.89533805847168,-79.78279816242505,40.45900628537164,268.3550689435005,0.008531330153346062,0.008949858136475086,-0.7873265147209167,0.6164124011993408,0.14458233080157565,0.06861687094717284,0.2645037610600273,-0.14530889689922333,-0.1286647468805313,0.005242233630269766,0.08639608304947616,0.2249927452951669,-10.812195221185684
19.2,2.0999999046325684,14.0,22.51813125610352,19.43413543701172,-79.78279827717408,40.459006065173064,268.39124032020567,0.0010187216103076935,-2.079542900901288e-05,-0.7873464226722717,0.6165101528167725,0.2137865039349024,0.060842846854665435,0.3470597823587848,-0.1604195088148117,0.0577789843082428,0.00912169460207224,0.04347038929816335,0.1871888515725732,-10.641667023897172
19.4,2.0999999046325684,20.0,22.59951591491699,18.72642707824707,-79.7827982615937,40.459005870151074,268.42557015180586,-0.0027948201168328524,-0.006457129493355751,-0.7880456447601318,0.6155767440795898,0.23741743663150505,0.05769658867274161,0.3446055150238583,-0.16217567026615146,0.15308162569999695,0.01447455398738384,-0.08153494549915195,0.354291311390698,-9.912436201572419
19.5,2.200000047683716,24.0,22.51688003540039,19.680641174316406,-79.78279840569205,40.459005594941225,268.45244821071617,-0.010726138018071651,-0.02039295993745327,-0.7892586588859558,0.6136285066604614,0.2123249114205128,0.05592435825580573,0.2132591444314894,-0.062320247292518616,0.08931149542331696,0.030416371300816536,0.017485888274386525,0.2941659277305007,-9.665126461386679
19.7,2.200000047683716,28.0,22.391674041748047,21.239187240600586,-79.782798394563,40.459005410568736,268.4725796794891,-0.012460955418646336,-0.024004144594073296,-0.7898125648498535,0.612751841545105,0.19321336823635546,0.055713114330679006,0.17316319759804166,-0.015594998374581337,-0.00919132586568594,0.07015721499919891,0.09508243253454568,0.007517253533005716,-9.461398358345033
19.8,2.299999952316284,33.0,22.325315475463867,21.84352302551269,-79.7827986506788,40.45900532828533,268.48997094392774,-0.010293864645063877,-0.0184294655919075,-0.7913697957992554,0.6109732389450073,0.15498480844313836,0.012149198415453684,0.13691522190412428,0.1509600579738617,-0.02721069380640984,0.0482189916074276,0.08763059472665191,0.2485277882963419,-9.475921087861062
20.0,2.4000000953674316,39.0,22.190093994140625,22.718217849731445,-79.78279867255064,40.45900510471153,268.5269042468071,-0.009400061331689358,-0.014286030083894731,-0.7916516661643982,0.6107333898544312,0.15688478624040414,0.026392323585711613,0.18335070024854416,0.07772466540336609,-0.06761320680379868,0.006945276167243719,-0.09345651372335853,0.3678522835671902,-9.97240758419037
20.1,2.4000000953674316,42.0,22.306535720825195,21.398223876953125,-79.78279868706261,40.45900497362085,268.5480570411682,-0.009700379334390163,-0.009760644286870956,-0.7913621068000793,0.6111928224563599,0.15068937725394033,0.022430788159222947,0.23381452424175725,0.047444868832826614,-0.022825079038739204,-0.014550291001796722,-0.050715158013626936,0.21135597858577967,-10.21188731789589
20.3,2.5,46.0,22.310291290283203,21.310754776000977,-79.78279873240626,40.4590047755264,268.59379544019697,-0.007559381891041994,-0.007291129790246486,-0.790155827999115,0.6128160357475281,0.15637357448095954,0.038583298505699054,0.2815082963725023,0.038375113159418106,0.015006689354777338,0.015064752660691738,0.03954128878656775,0.14172676814720034,-10.015310944318774
20.4,2.5,47.0,22.386667251586914,20.030517578125,-79.78279875185319,40.45900461279856,268.6349193668365,-0.010527463629841805,-0.012393866665661337,-0.7888200879096985,0.6144090890884399,0.13258738838434406,0.051972007323131744,0.2873746513739969,-0.03728012368083,-0.006820479873567821,-0.05261847749352455,0.08906028463505207,0.08309251584112645,-9.913024431467056
20.6,2.5,51.0,22.48056983947754,19.195581436157227,-79.78279873859744,40.45900449967243,268.66465117692945,-0.0111533235758543,-0.015226463787257671,-0.7882817387580872,0.6150251030921936,0.1183949303063537,0.04476268997816344,0.2941823853908553,-0.06337166577577591,0.04302306845784186,-0.07322356849908829,0.10660098141990602,0.3704409921169281,-9.856468992233275
20.7,2.5999999046325684,54.0,22.362876892089844,21.41412734985352,-79.78279892624712,40.45900441498539,268.7189818239212,-0.010695085860788822,-0.018167249858379364,-0.7878826856613159,0.6154645085334778,0.10117850241463776,0.011618847279954785,0.2720834392724525,-0.02362864278256893,0.06639979779720306,-0.06264801323413849,0.0007653251546435059,0.2680561364069581,-9.729070442318918
20.9,2.700000047683716,57.0,22.292762756347656,20.952924728393555,-79.78279895028996,40.459004344685866,268.7464871025085,-0.010545907542109493,-0.018790679052472115,-0.7874424457550049,0.616011381149292,0.08454773481866767,-0.0051808993351350465,0.27492091745573605,0.03641090542078018,0.05081212148070336,-0.07834553718566895,-0.04528677659109235,0.3073348806425929,-9.743794900774956
21.0,2.700000047683716,56.0,23.427120208740234,10.210077285766602,-79.78279892445869,40.45900431751142,268.7847128129005,-0.011167827993631365,-0.017007524147629738,-0.7873713374137878,0.6161431670188904,0.07881026223924018,0.003930652690062549,0.2967191032425295,-0.0626220703125,-0.08785329759120941,0.035136718302965164,-0.10243148725479842,0.29565477501600984,-9.824108161926267
21.2,2.799999952316284,56.0,22.14251708984375,23.410022735595703,-79.78279897962047,40.45900420559732,268.82533725261686,-0.014774863608181475,-0.009592375718057156,-0.7886319756507874,0.6146132349967957,0.07243393114941099,-0.017650234692876108,0.07188039151242231,0.17049968242645264,-0.14407214522361755,0.002044704044237733,-0.09658503904938698,0.2854901763238013,-8.689038473367692
21.3,2.799999952316284,57.0,21.959716796875,24.626644134521484,-79.78279909362121,40.4590040623735,268.84753658533094,-0.014311408624053001,-0.003657678840681911,-0.7892521619796753,0.6138915419578552,0.08568567595235559,-0.03791134070577834,0.06307945338366946,0.1163828819990158,-0.021047988906502724,0.07709313929080963,-0.19411175390705468,0.14849727742373944,-9.366330817937852
21.5,2.799999952316284,52.0,21.769405364990234,26.23290252685547,-79.78279917481609,40.459004086082565,268.87595074534414,-0.01581624336540699,-0.005281214136630297,-0.7896853685379028,0.6132854819297789,0.09770096401589656,-0.0052104899194338255,0.2329156789106715,-0.04491656273603439,0.09390120953321457,0.0037405663169920453,-0.06811787421349437,0.19866326311603189,-10.631310435533523
21.6,2.9000000953674316,50.0,21.56782531738281,28.817228317260746,-79.78279919530472,40.45900400330749,268.90533282518385,-0.01693817600607872,-0.008572347462177277,-0.7894651889801025,0.613501787185669,0.10703089755257544,-0.0014567571885845468,0.35081578742058983,0.02154914662241936,0.09442882239818573,0.06137479469180108,0.016981776058673858,0.17567091481760144,-10.966757011413577
21.7,2.9000000953674316,47.0,21.473920822143555,28.149280548095703,-79.78279920444137,40.45900392179488,268.9473107373714,-0.01847716607153416,-0.01226185727864504,-0.7890275120735168,0.6139576435089111,0.10015261212821906,0.011061757283125856,0.4898422082176003,-0.14212734997272491,0.0071120280772447595,0.0934831276535988,0.07143228161148728,0.2871088866144419,-11.418183109760285
21.9,3.0999999046325684,45.0,20.988126754760746,32.952152252197266,-79.78279915853783,40.459003799208745,269.0488824164867,-0.018727080896496773,-0.016596535220742226,-0.7889226078987122,0.6139829754829407,0.11134634216828168,0.04685502788316948,0.8218202118629324,-0.024470323696732518,0.034690916538238525,0.08488378673791885,0.04362738247029484,0.3849007909744978,-11.828891537189484
22.1,3.2000000476837163,48.0,20.92552375793457,35.17069625854492,-79.78279912373874,40.459003884185655,269.2444068035483,-0.018324365839362144,-0.016079775989055634,-0.7895146608352661,0.613247275352478,0.08365640382679301,0.06126024996676424,1.2901367300900397,0.003048512386158109,-0.013887567445635796,0.011565797962248324,0.01727347446139902,0.2728897737711668,-12.231705054044724
22.2,3.299999952316284,47.0,20.777782440185547,35.40129852294922,-79.78279906504648,40.459003857556574,269.38641530185936,-0.016634464263916016,-0.016397949308156967,-0.7902554869651794,0.6123321056365967,0.08810933613963869,0.06058532016902238,1.546107627207489,0.04422912374138832,0.029293062165379524,0.04705936834216118,0.09203778734430673,0.3552570156008005,-12.367849284410472
22.4,3.4000000953674316,44.0,20.78404235839844,35.289974212646484,-79.78279900931284,40.45900404727097,269.7279206430912,-0.012013871222734451,-0.01488460320979357,-0.7928558588027954,0.6091090440750122,0.06058423985159704,0.07076160177472654,2.037299000941569,0.017558040097355843,-0.08103649318218231,-0.006847227457910776,0.07085660952609033,0.5523491866886616,-12.231700376272205
22.5,3.299999952316284,43.0,20.787797927856445,35.67165756225586,-79.7827990049753,40.459004379846355,270.14133533000944,-0.014417406171560287,-0.009318646043539049,-0.7937880158424377,0.6079521775245667,0.03971350104474973,0.047689538214435126,2.4876386491269886,0.024515226483345032,-0.06580821424722673,0.002192933112382889,0.0608441160991788,0.2972628689557314,-12.27003823041916
22.7,3.299999952316284,43.0,21.192211151123047,30.892641067504893,-79.78279894214855,40.45900442038421,270.4012351846695,-0.018397890031337738,-0.0059951934963464746,-0.7930358052253723,0.6088677048683167,0.03779266232129499,0.03676717444500975,2.7012071556167316,0.0600135549902916,-0.04348300024867058,-0.06784367561340332,0.08256815764121711,0.33165443725883964,-12.01334663271904
22.8,3.299999952316284,40.0,21.17092514038086,30.868785858154297,-79.78279905482833,40.45900483678136,270.6029373025894,-0.018872512504458427,-0.003134319093078375,-0.791713297367096,0.610593318939209,0.024141641391324457,0.003144858250078839,2.8180600406946006,0.044919632375240326,0.001501897000707686,-0.056865248829126365,-0.00518987440969795,0.4130891943722964,-11.629734202623368
23.0,3.4000000953674316,38.0,21.58159828186035,26.23290252685547,-79.78279903855059,40.45900530020481,271.1140468931198,-0.010225794278085232,-0.003968561999499798,-0.788263738155365,0.6152399182319641,-0.02341093416726877,0.0213166296973942,2.999566594787783,0.07861487567424774,0.08819800615310669,-0.004312632605433464,0.16597824124619365,0.14288680091500286,-11.002294049263003
23.1,3.4000000953674316,38.0,21.53026390075684,27.05988693237305,-79.7827989261505,40.45900537223057,271.4176904773712,-0.009843701496720314,-0.0049808090552687645,-0.7863427996635437,0.6176919937133789,-0.03830048877807799,0.0657413731513283,3.067626286199442,-0.09824518114328384,-0.08438581228256226,-0.021526217460632324,0.17109820945188406,0.2095013879612088,-10.606320605278015
23.2,3.5,38.0,21.55655670166016,25.946638107299805,-79.78279878957211,40.459005436351866,271.7264225101471,-0.012185405008494854,-0.004507589153945446,-0.7847223877906799,0.6197113394737244,-0.032235347779840384,0.0940982523796678,3.1146512734776253,-0.08425089716911316,-0.034683387726545334,-0.053482986986637115,0.07574534319341182,0.28808950122445826,-10.379633409976961
23.41,3.5,38.0,21.696786880493164,25.286640167236328,-79.7827983905342,40.45900608339206,272.6006137943268,-0.0069184978492558,-0.00900706835091114,-0.7838712930679321,0.6208194494247437,-0.04110273613052448,0.11334195235865654,3.1510690656356286,-0.07271890342235565,0.06924479454755783,-0.02020161040127277,0.024925780403427786,0.2985882134735585,-10.23517210006714
23.6,3.5,38.0,21.735599517822266,24.03821182250977,-79.78279823205952,40.45900614988373,272.9152972316742,-0.00750761479139328,-0.007385915145277977,-0.7845229506492615,0.6200104355812073,-0.024792873566350643,0.12961450794290566,3.1414898363981423,0.08362052589654922,-0.06318166106939316,0.10899151116609572,0.11378762058913708,-0.030532405972480775,-9.870999323129654
23.7,3.5,35.0,21.870820999145508,23.56905746459961,-79.78279806687287,40.459006214643786,273.2277431106567,-0.007897179573774338,-0.005083986558020115,-0.785653829574585,0.6185951828956604,-0.04342941246349825,0.13027115217686794,3.1090810310296457,0.004893774166703224,-0.024479065090417862,-0.008046487346291542,0.028787226802669468,0.22673983851447704,-9.530458652973175
23.9,3.4000000953674316,36.0,21.859554290771484,23.07604789733887,-79.78279802702444,40.459006569402746,273.81044002532957,-0.004781744908541441,-0.005046555772423743,-0.7879019975662231,0.6157614588737488,-0.07432199400786735,0.1082399352809049,2.9649738765555416,-0.06545799970626831,0.027004703879356384,0.01823804900050164,-0.0031457197945564987,0.2527744565717876,-9.258399403095245
24.02,3.299999952316284,34.0,21.79820251464844,24.165441513061523,-79.78279721838295,40.45900663687026,274.44802947998045,0.005135486368089914,-0.006158648990094662,-0.7890359163284302,0.6142947673797607,-0.07904454690852378,0.158871025164801,2.868214274385496,0.10279122740030287,0.16407927870750427,0.04716644436120987,0.10088362877257168,0.0769854828156531,-9.330973289608957
24.2,3.2000000476837163,29.0,21.67174530029297,24.332427978515625,-79.78279703073272,40.459006690079065,274.7332248306274,0.008984996937215328,-0.0097562987357378,-0.7889312505722046,0.6143383979797363,-0.0939751902150278,0.18410559979698984,2.8345335989659066,-0.05429885908961296,0.11962176114320755,0.006531246937811375,0.10461257178336382,0.22138409961014988,-9.425090657472607
24.3,3.2000000476837163,27.0,21.78192710876465,23.664478302001953,-79.7827961226095,40.459006391798894,275.1629480934143,0.008935435675084591,-0.013036121614277365,-0.7885961532592773,0.6147084236145021,-0.07127723866791948,0.2578445648356081,2.8704273434187786,-0.18835096061229706,-0.025091761723160744,-0.0490027442574501,0.15461973248049618,0.20612867742776872,-9.518004668354989
24.5,3.0999999046325684,25.0,21.81447982788086,23.50544357299805,-79.7827950561302,40.45900610223156,275.8601245498657,0.0030196085572242732,-0.018990613520145416,-0.7878701686859131,0.6155411005020142,-0.013957412935979885,0.2871974606508481,2.8857108950444674,-0.1923427432775497,-0.025131275877356533,0.00290788640268147,0.1434763829782605,0.2799562800675631,-9.655152865648267
24.6,3.0,22.0,21.7205753326416,23.91098403930664,-79.78279483794653,40.45900609212636,276.1486301040649,0.0002615285338833928,-0.02148570865392685,-0.7875363230705261,0.6158936619758606,0.012213639009846074,0.2771488768061694,2.8707258596070586,-0.15553024411201474,-0.0023789219558238983,-0.0677986666560173,0.21004298631101848,0.27975475212559103,-9.628846827149392
24.7,2.9000000953674316,10.0,21.72433280944824,25.040136337280273,-79.78279463513933,40.459006092065174,276.43529554367063,-0.00019558383792173117,-0.02361951768398285,-0.787143886089325,0.6163170337677002,0.02986179883036805,0.260201943662704,2.84819337739758,-0.02022844739258289,0.0267658568918705,-0.0017978863324970007,0.20844516154378653,0.08640123590826987,-9.601224580407145
24.9,2.9000000953674316,4.0,21.669240951538086,24.483510971069336,-79.78279221121286,40.45900507413615,277.6288137054443,0.00774103868752718,-0.02248846739530564,-0.7867924571037292,0.6167593002319336,0.062473481550591875,0.3634172026393647,2.8862640422681887,0.17836016416549685,0.0011102402349933982,0.02373739518225193,0.31739198192954066,0.05029036693274975,-9.441275165677071
25.1,2.799999952316284,354.0,21.57158088684082,25.382062911987305,-79.7827919445201,40.45900503671263,277.9171886062622,0.009524070657789707,-0.02172379568219185,-0.7869614362716675,0.616546094417572,0.028629897330834576,0.3520916456102093,2.852588459391148,-0.0033562085591256623,0.034317366778850555,-0.04115550965070725,0.3665561385825277,0.2275155447609723,-9.433728749155998
25.2,2.700000047683716,348.0,21.495206832885746,25.64447021484375,-79.78279169751276,40.45900500055053,278.2026242828369,0.011400832794606686,-0.023202920332551003,-0.7869846820831299,0.6164307594299316,0.014031264914282186,0.33606538464872776,2.8337804012514414,-0.09620179235935213,0.051033779978752136,-0.028301611542701718,0.2518255631066859,0.2797334646061063,-9.546733793020248
25.4,2.700000047683716,339.0,21.749372482299805,24.29266929626465,-79.78279056956148,40.45900448960587,278.9525231933593,0.012198241427540779,-0.026957571506500244,-0.7867864370346069,0.6165157556533813,0.05018301913946481,0.3613234596330809,2.9042402880903286,-0.119245707988739,-0.007750467862933873,0.025430547073483467,0.3120840988308192,0.08539744256995617,-9.725717648863792
25.5,2.700000047683716,334.0,21.54904556274414,25.54109764099121,-79.78278953183266,40.45900389038748,279.7187394714355,0.00646757148206234,-0.030653599649667736,-0.7874113917350769,0.6156312823295593,0.1278270672515589,0.364748175040252,2.9652949337435737,0.04160676896572113,0.018941877409815792,0.003852701280266047,0.41463527128100397,0.08176241132430732,-9.592947261929512
25.7,2.799999952316284,325.0,21.500215530395508,26.28061294555664,-79.78278933532276,40.4590038037745,280.01663871765135,0.006425931118428707,-0.03082561492919922,-0.7877365946769714,0.6152069568634033,0.12036731234067775,0.3436279647454935,2.9572706689861787,-0.1171177253127098,0.016254132613539696,0.02012762799859047,0.3254376410320401,0.1765140467695892,-9.64949042201042
25.8,2.799999952316284,322.0,21.45889663696289,26.20109558105469,-79.78278913757606,40.45900357650453,280.3867873764038,0.006416096352040768,-0.031823236495256424,-0.7878721356391907,0.6149827241897583,0.13273673041237832,0.31957747690378946,3.0031711633465696,-0.027459746226668358,0.01377724576741457,0.02798118069767952,0.3760325017198921,0.08631387485191226,-9.763692975640296
26.0,2.9000000953674316,314.0,21.41632652282715,26.638442993164066,-79.78278894641744,40.45900331611272,281.0001620864868,0.00417330814525485,-0.03363107517361641,-0.7876030802726746,0.6152504086494446,0.1359903172499185,0.2676774961890153,3.018051717763268,0.02984688989818096,0.009649238549172878,-0.008093127049505709,0.3375465302914381,0.018797784196212888,-9.82579332947731
26.1,2.9000000953674316,313.0,21.47892951965332,26.38398551940918,-79.7827888626899,40.45900327815137,281.3031167602539,0.004207179881632328,-0.032801877707242966,-0.7873093485832214,0.6156707406044006,0.13120598005957146,0.2397041125271053,3.0145108927952764,0.18942485749721527,0.010608822107315063,0.06649328023195268,0.3520864725485444,0.0072869554627686735,-9.81915557026863
26.2,2.9000000953674316,315.0,21.435108184814453,26.58278083801269,-79.78278879046317,40.459003250821254,281.6057052230835,0.00585511839017272,-0.029243413358926777,-0.7874650955200195,0.6156374216079712,0.10028449915842258,0.21045210286619925,3.0124441494440903,0.016875039786100388,-0.0010234980145469306,0.03077685087919235,0.2485092964768409,0.25758563697338105,-9.705843547582628
26.4,3.0,316.0,21.38126945495605,27.298439025878906,-79.78278951366231,40.459003323190544,282.471754989624,0.0051437849178910255,-0.020687682554125786,-0.7893353700637817,0.6135920286178589,0.04205817862526135,0.056695561186345014,2.9743639110907965,-0.0863489881157875,-0.021554261445999142,0.03188544511795044,0.3636910394579173,-0.10085116758942604,-9.763170819282532
26.6,2.9000000953674316,318.0,21.40756225585937,26.33627510070801,-79.7827896065611,40.459003343987106,282.76888938903807,0.005237190052866936,-0.021310722455382347,-0.7889324426651001,0.6140880584716797,0.053053169616149184,0.022749876010923358,2.9656741102707325,0.017534244805574417,0.02946739457547665,0.022059304639697075,0.0929442793596536,0.040904964543879034,-9.69982793211937
26.7,3.0999999046325684,317.0,21.39253807067871,26.36808204650879,-79.78278970923195,40.45900336916585,283.0637664413452,0.0044000232592225075,-0.021648962050676342,-0.7886175513267517,0.6144871711730957,0.05365089129455797,0.011266185758768452,2.9343021406714667,0.05428339913487434,-0.010524742305278778,0.07485833764076233,0.3057570277713239,0.03809311162680388,-9.579288166165352
26.9,3.0999999046325684,317.0,21.34746551513672,27.560848236083984,-79.78279002519942,40.45900336927858,283.62922378540037,-0.0035187858156859875,-0.01861457154154777,-0.7884225249290466,0.6148423552513123,0.07917372650930732,-0.01736139374180783,2.9009674420522544,0.1235363706946373,-0.03008206933736801,0.05188510194420815,0.3305333432927728,0.03248240214306861,-9.757294367551804
27.0,3.0999999046325684,317.0,21.334943771362305,26.773622512817386,-79.78279045551422,40.4590034902909,284.19009014129637,-0.01109618041664362,-0.014885801821947096,-0.7880576848983765,0.6153214573860168,0.07781623829091176,-0.03568724181461628,2.8905401559584645,0.02452576719224453,-0.06304150819778442,0.041706927120685584,0.2763518553413451,0.3050843604281545,-9.6958079713583
27.2,3.0999999046325684,321.0,21.258569717407227,27.28253555297852,-79.78279055030332,40.45900352675896,284.4798993682861,-0.008900505490601063,-0.01361167524009943,-0.7877293825149536,0.6158067584037781,0.0849681697156855,-0.05729337154872113,2.9082525618351656,0.0818861722946167,0.06702497601509094,-0.01257570181041956,0.2409249461442232,0.17346755605190994,-9.999090768098833
27.3,3.0999999046325684,325.0,21.31991958618164,26.95651435852051,-79.78279088258243,40.45900358014704,284.76122756958006,-0.003085280768573284,-0.016127515584230426,-0.7869290709495544,0.6168249845504761,0.07595463376543041,-0.07487644471445443,2.9363350183744283,0.03937073424458504,0.12787796556949615,0.022802384570240967,0.17677532594650985,0.2228496493957937,-10.03382439851761
27.5,3.0999999046325684,332.0,21.3599853515625,26.344226837158203,-79.78279110463845,40.4590037313204,285.3222951507568,0.0021241935901343822,-0.022876234725117683,-0.7859843969345093,0.6178193092346191,0.06291989947492123,-0.024604512872789242,2.9451889921389918,0.019860072061419487,0.005348520819097757,-0.0014753160066902635,0.2399602286517621,0.12371308643370868,-9.966617671251297
27.6,3.2000000476837163,339.0,21.46640968322754,25.024232864379893,-79.78279124952411,40.45900377010622,285.61724182128904,0.0027572235558182,-0.02327222190797329,-0.7857130765914917,0.618147075176239,0.06741824743526834,-0.025170814499319787,2.95627012442314,0.05110396817326546,-0.03280358389019966,0.0035658017732203007,0.2497840443067253,0.31099264293909074,-9.921776543855668
27.7,3.4000000953674316,348.0,21.395042419433594,25.906879425048828,-79.78279141543806,40.45900380609871,285.91342445373533,-0.0011187769705429669,-0.02093909308314324,-0.7857663631439209,0.6181678771972656,0.060471992786325424,-0.02941080407445185,2.9690270687057527,-0.16960002481937408,-0.11884535849094392,-0.1106274202466011,0.23025149350985885,0.5571984288096428,-9.839549489021305
27.9,3.5,352.0,21.405059814453125,25.723989486694336,-79.7827926983475,40.459004105905436,286.6959237670898,-0.016830965876579285,-0.01373980287462473,-0.7888470888137817,0.6142054200172424,0.1259695185467342,-0.20471265807858896,2.8945669607715714,-0.042938735336065285,-0.0815824568271637,0.008974255062639713,0.12179747463203967,0.5326240432262421,-9.800779525637626
28.1,3.5999999046325684,357.0,21.427595138549805,25.533145904541016,-79.78279297546378,40.459004149161466,286.9859552001953,-0.018815498799085617,-0.011935799382627009,-0.7908252477645874,0.6116362810134888,0.14289376596750158,-0.23506429476177385,2.9027719638922433,0.009113570675253868,-0.060824111104011536,0.13201965391635895,0.06844788101501763,0.3443625930324197,-9.90440212726593
28.21,3.700000047683716,359.0,21.301137924194336,26.86109161376953,-79.78279324679556,40.459004189493186,287.277081451416,-0.018560152500867844,-0.011229958385229107,-0.7934508919715881,0.6082476377487183,0.14528141707158476,-0.2347807712307345,2.9117492949210657,0.006912713870406151,0.004716209601610899,0.04652884230017662,0.10494648434221747,0.5579827231541277,-9.848378784656523
28.4,3.9000000953674316,7.0,21.47642517089844,25.10375022888184,-79.78279369225513,40.459004268075034,287.8290147399902,-0.022526711225509644,-0.007911239750683308,-0.7979763746261597,0.6022157073020935,0.15084189444276105,-0.18316251586878315,2.894301008346792,0.007107715588063002,-0.09352223575115204,0.04270943626761437,0.2082574659213424,0.4716419693827629,-9.736013426184657
28.5,4.0,9.0,21.37125396728516,25.07194328308105,-79.78279435333658,40.45900431295211,288.3698377227783,-0.01883084513247013,-0.014387677423655987,-0.7982226014137268,0.6018962264060974,0.1891809528596936,-0.20279902448921852,2.824331694072366,-0.057993490248918526,0.14353439211845398,-0.004043432883918285,0.18754653671756388,0.6440542126446963,-9.51559093773365
28.7,4.099999904632568,16.0,21.59161376953125,23.1953239440918,-79.78279454944013,40.45900429767675,288.65272994995115,-0.009725213050842285,-0.018913362175226208,-0.7972142100334167,0.6033217906951904,0.20571827458471825,-0.14873666322174045,2.8183511644834662,0.014677126891911032,0.17484453320503235,-0.13606733083724976,0.1373720177449286,0.7560289040207864,-9.623244609832764
28.8,4.199999809265137,19.0,21.665485382080078,23.147613525390625,-79.78279479890841,40.45900422914321,288.91600128173826,-0.011889225803315641,-0.02409942261874676,-0.7960100173950195,0.6046866178512573,0.20854635234289395,-0.07693542708559156,2.8048535280683304,-0.09917444735765456,0.05779559165239333,-0.05886832624673844,0.28934124391525984,0.5052680640667677,-9.563631076812744
29.0,4.5,22.0,21.665485382080078,22.376291275024414,-79.78279492658433,40.45900421248299,289.4618558502197,-0.03227723389863968,-0.03426641598343848,-0.7905532121658325,0.6105813980102539,0.30479186448653184,-0.06692943583641166,2.6981070154083966,-0.15519991517066956,0.01509867236018181,-0.0768657699227333,-0.032775429873727266,0.9909690787643196,-9.272320454120637
29.1,4.599999904632568,22.0,21.72182846069336,21.445934295654297,-79.78279510285032,40.459004131076654,289.73056884765623,-0.03463321551680565,-0.034938246011734016,-0.7884132266044617,0.6131756901741028,0.38734081906430995,-0.09681031977015983,2.642773651462319,0.13623139262199402,0.024759488180279732,0.0921301245689392,-0.07040194739587605,0.7251015917211772,-9.33891673207283
29.2,4.699999809265137,19.0,21.706802368164066,21.92304039001465,-79.78279528546645,40.45900405210728,289.9948281860352,-0.03556917980313301,-0.03335050493478775,-0.7873443365097046,0.6145824790000916,0.3775502456530477,-0.1028842795729136,2.5942059954456007,0.0987752228975296,-0.006972611881792545,-0.028452038764953613,0.11640260506421328,0.8134097508341075,-9.334304448366163
29.4,4.699999809265137,17.0,21.76690101623535,21.676536560058594,-79.78279558991116,40.459003832127685,290.7669858551025,-0.04042563587427138,-0.029751390218734738,-0.7851635217666626,0.6172512173652649,0.3163133174266906,-0.11443189811314924,2.5238112071406658,-0.1255299597978592,0.05128150805830956,0.01596764288842678,0.024513830356299882,0.9669124641269444,-9.32180485546589
29.6,4.800000190734863,15.0,21.815731048583984,21.23123550415039,-79.78279572883683,40.45900378520231,291.019175491333,-0.039308175444602966,-0.03182718902826308,-0.7855734825134277,0.6166977882385254,0.3276425909317237,-0.1047319034378187,2.478326864966345,0.07904854416847229,0.01978941261768341,0.07330616563558577,0.10426258851774037,0.9126028673350812,-9.32864025056362
29.7,4.900000095367432,15.0,21.848285675048828,21.223283767700195,-79.78279585017786,40.45900374072888,291.26695915222166,-0.03574656695127487,-0.029427438974380493,-0.7867897152900696,0.6154821515083313,0.3171014052420304,-0.07263307493937204,2.446026651587942,0.0600992739200592,0.06150912120938301,-0.14486795663833618,0.2824675861001015,0.9966796157509088,-9.422617285251619
29.9,4.900000095367432,12.0,21.679258346557614,22.551231384277344,-79.78279605919907,40.459003471266755,291.76164527893064,-0.03660741448402405,-0.029374884441494938,-0.7900007367134094,0.6113067269325256,0.2943662721993027,-0.031565783571075784,2.3857837007192098,0.042626414448022835,0.009758209809660913,0.13671842217445376,0.2890415010228753,0.8042196819931269,-9.355121705532074
30.0,4.900000095367432,11.0,21.63167953491211,22.55918312072754,-79.78279592019733,40.45900320462911,292.2497777557373,-0.03496353328227997,-0.028826609253883362,-0.7916094660758972,0.6093448400497437,0.27721025985308945,0.05721870577923122,2.3848991618490323,-0.083536796271801,0.06576860696077348,-0.07280623912811279,0.2373619087412953,0.8569394939392806,-9.425541477799415
30.2,4.800000190734863,10.0,21.540281295776367,23.306650161743164,-79.78279587403799,40.45900314194528,292.49030586242674,-0.03171788901090622,-0.034709252417087555,-0.7902317047119141,0.6110018491744995,0.2701127798432517,0.06961437648624408,2.395756483960234,-0.007805699482560158,0.14058881998062134,0.007131553720682859,0.31949646793305875,0.7422039666026831,-9.880467134714127
30.3,4.800000190734863,9.0,21.496458053588867,24.85724449157715,-79.78279585536184,40.459003027391326,292.7471913909912,-0.02985159493982792,-0.04190538078546524,-0.7887426018714905,0.6125666499137878,0.2712130683203786,0.13511938882013888,2.443492320316227,-0.09878763556480408,0.07453048974275589,-0.022510560229420662,0.3397886451333761,0.9980522496253252,-9.688167999386787
30.5,4.800000190734863,12.0,21.281105041503906,26.01025199890137,-79.78279560322885,40.45900288990558,293.22375198364256,-0.02462671510875225,-0.04486944153904915,-0.7851492762565613,0.6171878576278687,0.2693104758233395,0.1879522938436904,2.4579082813818482,0.04579101502895355,0.0016738193808123474,-0.1215830147266388,0.2735674295201897,0.7882079590111971,-9.88953148841858
30.61,4.800000190734863,11.0,21.289871215820312,25.175315856933594,-79.78279550834206,40.4590028532899,293.47343727111814,-0.02163835242390633,-0.04347025975584984,-0.7844824194908142,0.6182471513748169,0.2567504581549669,0.17825555948276228,2.4941614563211507,0.09766368567943573,-0.038937941193580634,0.05512293428182602,0.3068970338255167,0.8703269134461881,-10.109007897377015
30.7,4.900000095367432,10.0,21.362489700317386,24.63459587097168,-79.78279543323819,40.45900281205535,293.7258882141113,-0.02176602743566036,-0.03946618735790253,-0.7849324345588684,0.6179400682449341,0.2576544268539708,0.17674542121886522,2.5129276736013906,-0.039389699697494514,-0.1224147006869316,-0.08668308705091476,0.2832019050233066,0.9977946797758341,-9.772633953094482
30.9,4.900000095367432,10.0,21.14087677001953,27.34615135192871,-79.78279527354806,40.459002521578725,294.1968412017822,-0.02939007431268692,-0.03539513051509857,-0.7874417901039124,0.6146698594093323,0.2824848696599187,0.14126668135521098,2.4717172637029563,-0.2089310139417649,-0.09779240936040877,-0.041654057800769806,0.17369709581136705,0.8994474361091853,-9.71447579205036
31.1,5.0,9.0,21.147136688232425,28.80132484436035,-79.78279520750357,40.459002592580326,294.6588658905029,-0.03653377667069435,-0.03873448818922043,-0.7880115509033203,0.6133537888526917,0.27669813825107153,0.10651765123731156,2.4977785549656724,-0.06250359117984773,-0.05738884210586547,-0.0033310044091194872,0.2349933661334217,0.8014429854601622,-10.079371869564056
31.2,5.0,8.0,21.089542388916016,27.664220809936523,-79.78279513970419,40.4590025609346,294.91262145996086,-0.03563687950372696,-0.03852495923638344,-0.7874430418014526,0.6141493320465088,0.2775812758568337,0.10792539669029877,2.546180278118903,0.05472934246063232,0.017022907733917236,-0.050816088914871216,0.1338802981004119,0.9316031753271818,-10.18383588552475
31.4,5.0,8.0,21.04572105407715,28.061809539794922,-79.7827951340541,40.45900274836936,295.4042100524902,-0.02651078999042511,-0.03682050481438637,-0.7867428660392761,0.6156113147735596,0.2120521016431829,0.09867524581532973,2.6724917546682985,-0.07101965695619583,-0.0969310775399208,0.0392005518078804,0.12530631565488876,0.809251576513052,-10.436460160017011
31.5,5.0,10.0,20.92552375793457,29.381805419921875,-79.78279522655794,40.45900296071824,295.61881156921385,-0.02465672791004181,-0.03619260340929032,-0.7867336869239807,0.6157371401786804,0.18552909665684653,0.07988688560660008,2.6973901285151776,0.05112828314304352,0.047532133758068085,-0.05552377551794052,0.24733696628361945,0.8468241032212973,-10.52150908112526
31.7,5.099999904632568,12.0,20.986873626708984,28.554821014404297,-79.78279518071975,40.4590030679442,296.1763982391357,-0.028913995251059525,-0.029600860550999638,-0.7884048223495483,0.6137635707855225,0.16146541342522536,0.06878591995751092,2.8781283284472434,-0.10343268513679504,-0.2041143923997879,0.12644776701927185,0.16839208150282506,0.8221395707130432,-10.687497500181196
31.8,5.099999904632568,13.0,21.11082649230957,27.457475662231445,-79.78279532212251,40.4590033083124,296.7098664855957,-0.031068649142980576,-0.021116020157933242,-0.7908098101615906,0.6109080910682678,0.15428454308557452,0.015452723649082178,3.015619407977713,0.0364571325480938,-0.0018606680678203704,-0.05689488351345062,0.2083011921308935,0.71625014975667,-10.773333456516266
32.0,5.099999904632568,15.0,21.035703659057614,28.149280548095703,-79.78279541684346,40.45900354228337,296.9529313659668,-0.029612025246024125,-0.02338501997292041,-0.7917061448097229,0.6097357869148254,0.1261648787452012,-0.004216975453089506,3.0235701539026407,-0.08153034746646881,0.06147177889943122,-0.015705524012446404,0.03404060745611786,0.8684932997077703,-10.317680990695953
32.11,5.0,15.0,21.06324958801269,27.56879997253418,-79.78279537310816,40.45900363016099,297.25691314697264,-0.029173010960221287,-0.029616935178637505,-0.7918212413787842,0.6093366146087646,0.119143209240054,0.01172936407161188,3.0514217888456647,-0.03756946697831154,0.1221478208899498,-0.07214628905057907,0.040896860668435696,0.7044045679271221,-10.055495349168778
32.3,5.0,14.0,20.815343856811523,30.336017608642567,-79.7827954956974,40.45900391393873,297.7995290374756,-0.026793042197823524,-0.02549056336283684,-0.7910765409469604,0.6105982661247253,0.12194462654291745,0.0343535102128955,2.9856855319849145,0.04717039689421654,-0.04451946169137955,-0.043471794575452805,0.05413621771149338,0.7111765207350255,-9.836874972581864
32.4,5.0,17.0,20.686382293701172,32.07745742797852,-79.78279547101175,40.45900402830373,298.0991620635986,-0.02535049431025982,-0.02067122422158718,-0.7905648946762085,0.6115040779113771,0.09277030892614624,0.004879825663159525,3.0129889417891658,0.035589084029197686,0.09103221446275712,0.017070740461349487,-0.0001462671859189868,0.6489690897613765,-9.973421491384508
32.6,4.900000095367432,20.0,20.627534866333008,32.13311767578125,-79.78279596387183,40.45900466907338,298.61730476379387,-0.018226150423288345,-0.02654290944337845,-0.7892227172851562,0.613262414932251,0.0307335290691936,-0.05382130039301988,3.0679990632110394,0.013739306479692459,0.0873015746474266,0.00836600549519062,0.014904461335390806,0.5742417833581567,-10.496457270383836
32.7,4.900000095367432,22.0,20.592477798461914,32.920345306396484,-79.78279601261616,40.45900483424996,298.9280233001709,-0.01574856974184513,-0.028409259393811226,-0.7896406650543213,0.6127091646194458,0.016754036046034378,-0.035221888181319945,3.162333072951562,-0.08587199449539185,0.03396419808268547,-0.0186885204166174,0.055214663548395035,0.6474896711111069,-10.649074276685717
32.9,4.900000095367432,24.0,20.588722229003906,32.46709442138672,-79.78279634684267,40.459005229828016,299.46272560119627,-0.021195556968450543,-0.018968621268868446,-0.7899911403656006,0.6124582290649414,-0.0038924038272402576,-0.06944292717730015,3.2770792971437728,0.07277922332286835,-0.1950112730264664,0.09865359216928482,0.06485694142989815,0.4076117420196533,-10.896379923820495
33.0,4.900000095367432,24.0,20.5949821472168,32.061553955078125,-79.78279668895934,40.459005699289044,299.7672299957275,-0.02644419483840465,-0.011158431880176069,-0.7909489870071411,0.6112086176872253,-0.020181855784812304,-0.14437952450387848,3.3490490762206813,-0.11557017266750336,-0.12928271293640134,-0.12835748493671414,-0.05155620689503849,0.8322138116508723,-10.660476347208023
33.2,4.900000095367432,26.0,20.841636657714844,29.771442413330078,-79.78279689384874,40.45900611795996,300.4500817871093,-0.024773260578513145,-0.009637593291699886,-0.7928258776664734,0.6088682413101196,-0.001454246486055088,-0.19661726934670468,3.4788740183431783,0.1624467968940735,0.1334480047225952,0.01037009246647358,-0.012909860730869695,0.587704851217568,-10.464233264923095
33.32,4.900000095367432,28.0,20.59748649597168,31.838903427124023,-79.78279726898829,40.45900655342529,300.7540444946289,-0.017366722226142883,-0.012259937822818756,-0.7932606339454651,0.6085110902786255,-0.0252992790004002,-0.2023407670225008,3.483277188486268,0.09583175927400588,0.2040846347808838,-0.014806343242526053,-0.009162883856333792,0.4883213713020086,-10.319762599468232
33.5,4.900000095367432,28.0,20.95181655883789,27.48928260803223,-79.78279770387819,40.45900704796093,301.39748092651365,-0.012226109392940998,-0.021104423329234127,-0.7924732565879822,0.6094189286231995,-0.05913058539265144,-0.13494449652251242,3.5286485392484543,0.01448499131947756,0.01871210336685181,-0.12769612669944766,0.14496287310495973,0.5518224256485701,-10.334416891336444
33.61,4.900000095367432,30.0,21.13837242126465,25.49338722229004,-79.78279784900094,40.4590072693726,301.7517022705078,-0.010565095581114292,-0.01764935441315174,-0.7912071347236633,0.6112022399902344,-0.04276407945820478,-0.11451080357569975,3.5631420645083938,0.11006996780633926,-0.0787898451089859,-0.0470832958817482,0.17901490090414882,0.3676882326230407,-10.178691505193713
33.7,4.800000190734863,32.0,21.095802307128906,26.25675773620605,-79.78279798848872,40.459007493903975,302.10697647094725,-0.014936450868844988,-0.013549049384891987,-0.7904489636421204,0.6121959090232849,-0.07970035406724346,-0.12482377367970725,3.5455685554832987,-0.1420433074235916,-0.1505882740020752,0.01555484440177679,0.10333418771624564,0.40766268588602544,-9.697260419726373
33.9,4.699999809265137,33.0,21.08453369140625,27.028079986572266,-79.78279819085607,40.45900795945626,302.78469177246086,-0.020924555137753487,-0.008133690804243088,-0.7894133925437927,0.6134514212608337,-0.050332653248266884,-0.1807547905439867,3.4346058075334325,-0.015537247061729431,0.08083480596542357,0.001814064569771289,-0.06114583242684603,0.4280392091721297,-9.510495089292524
34.1,4.599999904632568,29.0,21.04822540283203,25.994348526000977,-79.78279849872874,40.45900881357103,303.5199517822265,-0.013049527071416378,-0.016147153452038758,-0.7885482311248779,0.6146223545074463,-0.08454730799017758,-0.1813743226259302,3.420067246387056,-0.021386418491601944,0.118622824549675,0.0342915803194046,-0.03599406170658767,0.6480784126371145,-9.46227953374386
34.2,4.699999809265137,30.0,21.04446792602539,27.11554908752441,-79.78279862718442,40.45900904685281,303.8599557495117,-0.006574215367436409,-0.016685787588357925,-0.7881851196289062,0.6151770353317261,-0.07715886419347498,-0.14167940368303014,3.3953758841802584,0.05890798196196556,0.10872134566307068,-0.03264981508255005,0.10798389360308648,0.6009607449173927,-9.562116647958755
34.4,4.800000190734863,28.0,21.2385368347168,24.539175033569336,-79.78279892740767,40.45900923345933,304.5956735229492,-0.006044474896043539,-0.016361761838197708,-0.7888869047164917,0.6142908334732056,-0.03311923274881155,-0.10655616913490938,3.3837211547222825,-0.06818289309740068,-0.044475007802248,0.11355682462453842,-0.07858517138287427,0.6041222978755832,-9.475075580477712
34.5,4.900000095367432,26.0,21.42884826660156,21.71629524230957,-79.78279904761345,40.45900930746145,305.30857940673826,-0.023162737488746643,-0.022978758439421654,-0.7893211841583252,0.6131129860877991,0.10538734521316777,-0.07884671244288664,3.2558270379903362,-0.2229159474372864,-0.2170875817537308,0.027055591344833367,0.21912919398397207,0.8064977572113275,-9.349792553186415
34.7,4.900000095367432,25.0,21.61164665222168,21.278947830200195,-79.78279919795013,40.45900936212492,305.62650390625,-0.0363352857530117,-0.027574555948376656,-0.7883298993110657,0.6135597229003906,0.19162345283368293,-0.11657394336319607,3.094372832464416,-0.09172964841127396,0.07532575726509094,0.035818394273519516,0.17685503080487253,0.6324507786333561,-8.470525685548782
34.8,5.0,21.0,21.594118118286133,21.15966987609864,-79.78279905036429,40.459009336652024,305.9893846130371,-0.03838988021016121,-0.039129309356212616,-0.7867149114608765,0.6148779988288879,0.2716600263968344,-0.12726230989509366,2.962338369780848,-0.09314339607954024,0.17999863624572754,0.0036518604028970003,0.10951432920992377,0.8812693928182126,-8.246617087125781
35.0,5.099999904632568,18.0,21.301137924194336,24.793630599975586,-79.78279911351497,40.459009185602106,306.6100358581543,-0.02945656701922417,-0.05079974606633186,-0.7868292331695557,0.6143708229064941,0.31627868078024,-0.023244536959041686,2.6256520196814552,0.013529927469789982,0.07130289077758789,0.014488663524389269,0.16952218383550646,0.8476343811303377,-7.927654981613159
35.1,5.199999809265137,16.0,21.2134952545166,24.69025802612305,-79.7827992583544,40.45900919735413,306.8661508178712,-0.027878725901246067,-0.049448587000370026,-0.7877591252326965,0.6133622527122498,0.29443875631783684,-0.024300963946357217,2.4733685824146487,0.12142286449670793,0.0047924164682626716,0.010437093675136566,0.2801561452075839,0.8271284881979227,-8.226184576749803
35.2,5.300000190734863,16.0,21.35247230529785,23.46568489074707,-79.78279940615882,40.45900921123605,307.1094140625,-0.028354045003652576,-0.04284068197011948,-0.7886914610862732,0.6126390695571899,0.2688787293154539,-0.0336134156839549,2.368963107763339,0.10103271901607512,-0.11403284966945648,-0.009674915112555029,0.21925297223031529,1.0405827766656877,-8.591243206858636
35.4,5.400000095367432,13.0,21.39754676818848,23.34640884399414,-79.78279889298192,40.45900863398436,308.03212829589836,-0.037980809807777405,-0.04350980743765831,-0.787611722946167,0.6134591102600098,0.2786719860741869,-0.03076550566172833,2.3369033336545524,0.02265211194753647,0.14152148365974426,0.01188579201698303,0.1848304502293468,0.7029752891510725,-9.141268563866618
35.6,5.5,9.0,21.24730110168457,24.87314796447754,-79.78279897512549,40.4590086272565,308.2639283752441,-0.03706039860844612,-0.04851565137505531,-0.7864580154418945,0.6146190166473389,0.26909405615489745,-0.014314896530365953,2.2639400329690966,-0.004835436120629311,0.10098838806152344,0.0011583564337342978,0.3769000092521311,0.8910213790833951,-9.083589289784431
35.7,5.5,8.0,21.229772567749023,24.88905143737793,-79.78279905226601,40.45900863831394,308.4885148620605,-0.033686943352222436,-0.05081533268094063,-0.785586953163147,0.6157402992248535,0.2460540669086029,0.0036823344380922094,2.205152277971292,-0.05544028058648109,0.050517227500677116,-0.01283005066215992,0.3162416884303093,0.9492492681741715,-9.098024311065677
35.9,5.300000190734863,6.0,21.04947662353516,27.21096992492676,-79.78279837656191,40.45900812709983,309.1242265319824,-0.0281367376446724,-0.050738364458084106,-0.7840102910995483,0.6180307269096375,0.2221867602033648,0.05917801289133676,2.2136034671797358,0.10130561143159866,0.0022001483011990786,0.06373904645442963,0.3165214046090841,0.6750353924185037,-9.267080179452897
36.0,5.300000190734863,4.0,20.89923095703125,28.1572322845459,-79.7827976952251,40.45900760679713,309.5122232055664,-0.02570723555982113,-0.04799284413456917,-0.7842751741409302,0.618019700050354,0.23191676845404924,0.11049707950744207,2.280773126668721,0.06603281944990158,-0.0181264728307724,0.009490892291069027,0.3898855788633228,0.7020156879723073,-9.405867351293566
36.2,5.199999809265137,5.0,20.74648094177246,30.359872817993164,-79.78279767139254,40.45900768167851,309.9710168457031,-0.02453039214015007,-0.041138339787721634,-0.7857123613357544,0.6167349219322205,0.15776155981353115,0.07181942692944221,2.296718220399261,0.16786205768585205,0.017190314829349518,0.1387062668800354,0.2544275923445821,0.4213511639088393,-9.931618577241897
36.3,5.099999904632568,5.0,20.648820877075195,30.43939018249512,-79.78279704274887,40.45900729256422,310.5733499145508,-0.01840977370738983,-0.03665689378976822,-0.7872464060783386,0.6152728199958801,0.12865142545661648,0.107930775109415,2.480283158563622,0.022824516519904137,-0.06606880575418472,0.023061519488692284,0.2652439363114536,0.7917097102850676,-10.07617578148842
36.5,5.0,3.0,20.54239654541016,33.03166961669922,-79.78279641706436,40.45900661851921,310.9327096557617,-0.01804404705762863,-0.033926498144865036,-0.7887517213821411,0.6135097146034241,0.1730074148880706,0.16552387859598844,2.606931000123255,-0.05798039585351944,-0.08551891893148422,0.10826150327920914,0.2985984461009503,0.5992581818997861,-10.26768612742424
36.6,4.900000095367432,2.0,20.503582000732425,31.34589195251465,-79.78279632768175,40.459006626850936,311.19673248291014,-0.020632926374673843,-0.03262934461236,-0.7900611758232117,0.6118111610412598,0.1533667885383106,0.1526221518741343,2.6671239305565173,-0.0810927078127861,0.019565211609005928,0.12538424134254456,0.1948383435420692,0.570870680809021,-10.390911519527435
36.7,4.900000095367432,1.0,20.582462310791016,30.31216239929199,-79.78279623584258,40.459006645847175,311.4677629089355,-0.022688060998916626,-0.03303435817360878,-0.7907518148422241,0.6108238101005554,0.16053922278738195,0.1433854687548659,2.7427138826735216,0.043847087770700455,0.026606803759932518,0.029496237635612488,0.17516706755384806,0.7185397732257843,-10.435277853012083
36.9,4.900000095367432,1.0,20.761505126953125,29.56469535827637,-79.78279650402337,40.45900732907845,312.0937661743164,-0.020599648356437683,-0.03301455453038216,-0.7919695377349854,0.6093192100524902,0.1129656532908534,0.10753717873516797,2.750647626157462,-0.0343470498919487,0.015852376818656918,-0.1406620889902115,0.2033869180083275,0.5516671089828015,-10.225897246599198
37.1,4.900000095367432,0.0,20.695146560668945,29.278430938720703,-79.7827964378651,40.459007390003826,312.37070175170896,-0.018937796354293827,-0.03390548378229141,-0.7917463183403015,0.6096142530441284,0.1133733776508159,0.1150705339150076,2.7821818144650408,-0.12480635195970535,-0.03760407119989395,-0.08489495515823364,0.3466152328625321,0.8668176338821652,-10.055115280151368
37.2,4.900000095367432,1.0,20.622528076171875,31.083484649658203,-79.78279637295381,40.45900745432481,312.6499833679199,-0.01984236389398575,-0.0364239439368248,-0.7911896109580994,0.6101629137992859,0.11433719115167686,0.1192145144803166,2.7888605940669797,-0.09784738719463347,0.002301789587363601,0.10970068722963333,0.21603716807439924,0.6526325165480376,-9.88277444601059
37.4,4.900000095367432,1.0,20.413434982299805,33.03961944580078,-79.78279659047244,40.45900764660821,313.11222549438475,-0.01886836625635624,-0.03754699230194092,-0.7899869084358215,0.6116820573806763,0.12281030026075715,0.10603658328857808,2.726504222566384,0.1212494820356369,-0.05414733663201332,-0.017132367938756943,0.3381053048372269,0.6229646214097738,-9.854431822299958
37.5,5.0,2.0,20.47102928161621,32.053600311279304,-79.78279662559656,40.45900800393935,313.32934280395506,-0.01979799941182136,-0.03628678247332573,-0.7895182967185974,0.6123334169387817,0.08358195880277589,0.07856263370329059,2.7191992176104014,0.013605872169137,-0.08375519514083862,0.10279019922018053,0.29575419595465063,0.5441484667360783,-10.028552548885346
37.7,5.0,1.0,20.310766220092773,34.256240844726555,-79.78279659692801,40.45900823501071,313.8808717346191,-0.024336300790309903,-0.035720013082027435,-0.7886208891868591,0.613358736038208,0.08397031356510665,0.06214024618202929,2.7839116005575466,0.020064894109964367,-0.14864319562911987,-0.08637146651744843,0.35800009064376354,0.8894514747709036,-9.960617258548737
37.8,5.099999904632568,2.0,20.2481632232666,34.057449340820305,-79.7827968185293,40.45900845635261,314.3837785339355,-0.02607698366045952,-0.03389313817024231,-0.7891239523887634,0.6127435564994812,0.07129335579111619,0.037734875314225216,2.8178897607566724,-0.00936366245150566,-0.06132325157523155,-0.00708363950252533,0.3884315590560437,0.6783175076544286,-10.117562373876574
38.0,5.099999904632568,2.0,20.313270568847656,32.522754669189446,-79.78279700203451,40.459008560952704,314.6209725952148,-0.02643360570073128,-0.03316481038928032,-0.789612889289856,0.6121380925178528,0.08683652191418846,0.012596497487247723,2.8166851346894037,0.10947852581739426,0.08429254591464996,0.11016348004341124,0.3071524840593338,0.6645517732948065,-10.186175941228868
38.1,5.199999809265137,3.0,20.174293518066406,35.218406677246094,-79.78279700615055,40.45900870882064,314.9046105957031,-0.02216341532766819,-0.03174440935254097,-0.79010009765625,0.6117540597915649,0.08184261776152839,0.017617634667597522,2.8612333414232247,0.1803969144821167,0.05403535440564156,0.05162067711353302,0.2385394283384085,0.5549797759205103,-10.25141917347908
38.2,5.199999809265137,3.0,20.188066482543945,34.192626953125,-79.78279700768469,40.45900886167087,315.1929521179199,-0.016295980662107468,-0.029758490622043613,-0.7906668782234192,0.611305832862854,0.055235751900225234,0.023629765044883108,2.9176965099656345,0.12638424336910248,0.03465821593999864,0.1825823187828064,0.1924601530283689,0.5099292451143265,-10.292781207561491
38.4,5.199999809265137,5.0,20.293237686157227,33.65985870361328,-79.78279719766337,40.45900937148079,316.0370492553712,-0.017517605796456337,-0.027130207046866417,-0.7918655276298523,0.6098411679267883,0.007196797054189061,0.015287220847278632,3.012872218678692,-0.13736234605312347,-0.12144865840673448,0.021792415529489517,0.37975637409836055,0.7939850080758334,-10.309815316200256
38.61,5.199999809265137,3.0,20.14173889160156,35.266117095947266,-79.78279724406416,40.45900950720272,316.34061904907225,-0.02438653260469437,-0.0270608551800251,-0.7908769249916077,0.6108902096748352,0.04976041720294157,-0.007613353544797288,3.0596177302180885,-0.05895577743649483,-0.06305091828107834,-0.07616991549730301,0.3771252366900445,0.7504013974964621,-10.290534707307817
38.7,5.300000190734863,3.0,20.24941635131836,32.578418731689446,-79.78279727627934,40.459009636581136,316.64809127807615,-0.025679146870970733,-0.02691593021154404,-0.7893016934394836,0.6128776669502258,0.09096402772806933,-0.01887134539590313,3.0980072426223773,0.05814967304468155,0.07298135757446289,-0.08723009377717973,0.2969417837262154,0.799516474083066,-10.223257813453674
38.91,5.300000190734863,358.0,20.692642211914066,28.30036354064941,-79.78279748955971,40.45900994922307,317.24322601318363,-0.016640882939100266,-0.03106959536671638,-0.7868416905403137,0.6161476373672485,0.07314037730545599,0.011535673546772929,3.1200418109802937,0.003543026046827435,0.1288764923810959,-0.14361149072647095,0.28060568645596506,0.77446283608675,-9.9607692861557
39.0,5.300000190734863,358.0,20.70015525817871,29.636260986328125,-79.78279746118403,40.45901000636853,317.5531015014648,-0.011341976001858713,-0.0333419181406498,-0.7857846021652222,0.6174967288970947,0.0726810935130311,0.04456371093683331,3.0708086528836454,0.0049779918044805535,0.08204340189695357,-0.12987346947193146,0.4499959424883128,0.7347152182459832,-9.610907569527628
39.2,5.400000095367432,357.0,20.94305229187012,25.60471153259277,-79.78279751466626,40.45901022044365,318.1583642578125,-0.009071999229490757,-0.0370718277990818,-0.7848109602928162,0.6185588836669922,0.0768424576913932,0.07352053377117747,2.985360019338492,-0.12942054867744446,0.014867731370031834,-0.1199432983994484,0.39191003110259776,0.7775443918257953,-9.341315259933474
39.31,5.400000095367432,357.0,20.983118057250977,26.376033782958984,-79.78279759491433,40.45901038737225,318.7623681640625,-0.01818295940756797,-0.04211623594164848,-0.7857179641723633,0.6168816089630127,0.1262024951775258,0.045950550718674266,2.7974790881698217,0.04152744635939598,-0.002983295824378729,0.12236259877681732,0.2402906328812241,0.5931663333624602,-8.976256629824638
39.5,5.400000095367432,359.0,20.74648094177246,28.825180053710927,-79.78279754645774,40.4590104792316,319.0815591430664,-0.024765748530626297,-0.04609392210841179,-0.7866538763046265,0.6151729822158813,0.13475881841277246,0.042381033161528935,2.7115848566863625,-0.2425453066825867,-0.07201428711414337,-0.021527651697397232,0.25836870705708864,0.9014632637053728,-8.468251118659973
39.6,5.5,357.0,20.529874801635746,31.0914363861084,-79.78279761889074,40.4590105593776,319.3460816955566,-0.027367426082491875,-0.045021902769804,-0.7880042791366577,0.6134111881256104,0.1881213475321148,0.0261605606847236,2.5796812947335583,0.2038444876670837,-0.06332020461559296,0.10968060046434402,0.4064321758970618,0.7242185159772635,-8.618260266780856
39.8,5.5,355.0,20.41719055175781,30.72565460205078,-79.78279759694362,40.4590105924887,319.89027877807615,-0.020833645015954968,-0.03509088605642319,-0.7904863953590393,0.6111186146736145,0.12453803998272815,0.012512212645303729,2.4965753440515632,-0.07264214754104614,-0.024140788242220882,-0.17151442170143127,0.35470949694514275,0.8429930075258018,-9.352496890425682
39.9,5.400000095367432,354.0,20.529874801635746,29.42951583862305,-79.78279751176744,40.459010561603044,320.44650741577146,-0.01796966791152954,-0.035257983952760696,-0.790347695350647,0.6113792657852173,0.1128418233638406,0.0283593907318789,2.5360244096588613,-0.07656963914632797,-0.046875663101673126,-0.003227206878364086,0.34493602216243746,0.9332239504158496,-9.609464476704597
40.1,5.5,354.0,20.61125946044922,29.365901947021484,-79.78279755372503,40.45901062980486,320.7005776977539,-0.018169967457652092,-0.03699762374162674,-0.789372444152832,0.6125293970108032,0.12031001878063985,0.029255597361905725,2.5438357064256443,-0.11618543416261673,0.04559238255023956,0.010592347010970116,0.2444495198316872,0.8414413026720285,-9.761435950398443
40.2,5.5,354.0,20.638803482055664,28.284460067749023,-79.7827975999465,40.459010697110266,320.955189666748,-0.018847519531846046,-0.04112591594457626,-0.7883231043815613,0.6135960221290588,0.12827768637804116,0.03571859269476297,2.5499886330200545,-0.1006784439086914,0.02410975284874439,0.049088187515735626,0.3124812344089151,0.8229464133828879,-9.803387968540193
40.4,5.599999904632568,355.0,20.748985290527344,27.94253349304199,-79.78279740243464,40.459010573593375,321.5579995727539,-0.023092295974493027,-0.044746994972229004,-0.7868900895118713,0.6150354743003845,0.19505332776987166,0.06965721721542414,2.632291401066467,0.04442085325717926,-0.03312626853585243,0.1455506980419159,0.34580294497311115,0.6948236127197743,-9.840513110160828
40.5,5.599999904632568,355.0,20.8917179107666,25.668325424194336,-79.78279707055903,40.459010370016365,321.9033288574218,-0.02547875232994556,-0.0455058291554451,-0.7865672707557678,0.615298330783844,0.22362385548861213,0.11754967363566575,2.6861775111943835,-0.18747901916503906,-0.09291299432516098,-0.03042781352996826,0.3561903043091297,0.9852660700678826,-9.61094908475876
40.7,5.699999809265138,353.0,20.728952407836914,28.499156951904297,-79.78279702236559,40.45901038145062,322.43078323364256,-0.029479891061782837,-0.04552357271313666,-0.7871780991554259,0.6143364906311035,0.24780706279004056,0.13035865384187742,2.555682028122924,0.02239343710243702,-0.03914840146899223,0.057003825902938836,0.3395494940131903,0.7490922059118749,-9.075243558883669
40.8,5.699999809265138,352.0,20.54740333557129,30.4711971282959,-79.78279678932475,40.45901016014307,322.7523469543457,-0.02742999978363514,-0.04630303382873535,-0.787211000919342,0.6143309473991394,0.2592570805881005,0.15402414786887614,2.554484624036049,0.041999507695436485,0.011382077820599079,-0.1028374210000038,0.570314720235765,0.9239923663437368,-9.245970561504363
41.0,5.800000190734862,349.0,20.345823287963867,32.029747009277344,-79.78279647520533,40.45900998993053,323.30800720214836,-0.01897523552179336,-0.04586969316005707,-0.7877510786056519,0.6139903664588928,0.2473514111236992,0.20939091225883352,2.543559760682582,0.11851859837770462,-0.002636113669723273,0.1282671093940735,0.4798454667627812,0.7510378669202328,-9.620342636704443
41.1,5.800000190734862,348.0,20.375873565673828,31.457218170166016,-79.78279636086327,40.45900997326494,323.56489654541014,-0.017372502014040947,-0.04643092676997185,-0.7873003482818604,0.61457359790802,0.21595803650682505,0.22960839491743976,2.564561932100127,-0.0632607564330101,0.06934132426977158,-0.0697232112288475,0.6452303800731898,0.9493471359461546,-9.801710402369501
41.2,5.800000190734862,348.0,20.512346267700195,30.495052337646484,-79.78279624088044,40.45900996003145,323.82440277099613,-0.017131103202700615,-0.04947412759065628,-0.7869561314582825,0.6147837042808533,0.2082925344860556,0.23819791536454696,2.595070359583619,-0.025941189378499985,0.030953293666243564,-0.06664527207612991,0.6517913214862346,0.8440050143748522,-10.053406723737716
41.4,5.800000190734862,349.0,20.586217880249023,29.548791885375977,-79.78279597616715,40.459009868587536,324.3636178588867,-0.012309545651078224,-0.056090157479047775,-0.7854838967323303,0.6162123084068298,0.2227229978576417,0.2493588846529069,2.634498761571665,0.03851427137851715,-0.016372831538319588,0.08422171324491501,0.5591523124650121,0.5584775803238153,-9.894459521770477
41.6,5.800000190734862,348.0,20.19557762145996,34.02564239501953,-79.78279574987306,40.45900985608943,324.87711807250975,-0.01589687541127205,-0.05616813898086548,-0.7861642241477966,0.6152545809745789,0.1924847331096456,0.23928980989332674,2.5160354150557187,-0.022646665573120117,-0.1466543674468994,0.039701662957668304,0.5822655519470573,0.7290939974784851,-9.173774405121804
41.71,5.800000190734862,346.0,20.012779235839844,35.647804260253906,-79.78279568343748,40.45900987697939,325.12815185546873,-0.020195601508021355,-0.05139147862792015,-0.7878150939941406,0.6134317517280579,0.17529035134282173,0.20697157898262072,2.4696348739039897,0.023711415007710457,-0.1685332953929901,-0.00604669749736786,0.5631990607827903,0.8139939607679845,-9.345037012696267
41.9,5.699999809265138,342.0,20.042827606201172,35.7670783996582,-79.78279545724327,40.459009906492,325.63754745483396,-0.01531211659312248,-0.03386033698916435,-0.7908430099487305,0.6108899116516113,0.11662310580292175,0.14988732369785662,2.5033459211824773,0.14423418045043945,-0.028024306520819664,-0.0836215615272522,0.4001940007880329,0.7071378488838673,-9.871386408805847
42.0,5.699999809265138,342.0,20.042827606201172,35.10708236694336,-79.78279540385762,40.45900978604542,325.89603515625,-0.008569760248064995,-0.028152033686637882,-0.7907803058624268,0.6113923788070679,0.0985124648991125,0.14092073355854384,2.5550855461727147,0.2248196601867676,0.07902786880731583,-0.020757876336574558,0.5675105052441359,0.5964417243003846,-10.192148287296297
42.2,5.699999809265138,343.0,20.23063468933105,33.0078125,-79.78279525396051,40.45900985328857,326.42631240844725,0.00045520535786636174,-0.033386088907718665,-0.7864629626274109,0.6167344450950623,0.059259601214464525,0.15435436938527713,2.718797179149014,-0.2200860530138016,0.1183215230703354,-0.08166466653347015,0.4137164544314145,0.5743022654950619,-10.438190935850145
42.3,5.699999809265138,344.0,20.36210060119629,31.66396331787109,-79.78279515642198,40.45900982987687,326.67184158325193,-0.005069254897534847,-0.050009507685899734,-0.7852193117141724,0.6171743869781494,0.08755006206609257,0.15657762717883705,2.7305789204644784,-0.3711303174495697,0.27847975492477417,-0.0724329799413681,0.3118289409577847,0.5808872170373798,-10.184445165395736
42.5,5.5,347.0,20.065364837646484,34.74129867553711,-79.78279534712213,40.459009724249405,327.17863174438475,-0.01750905252993107,-0.06253001838922499,-0.7860932350158691,0.6146876215934753,0.21363936657574728,0.17526852269351034,2.602061715888658,-0.03121170029044152,-0.3047962486743927,-0.1577889770269394,0.4724704832956195,0.9675189665704966,-9.381549366116523
42.61,5.400000095367432,349.0,20.054096221923828,34.26419448852539,-79.78279540969234,40.45900979051563,327.438946685791,-0.022831490263342857,-0.04730352759361267,-0.7881838083267212,0.6131944060325623,0.19643465528189646,0.11515707310433015,2.5919274579588483,0.13396722078323364,-0.2716078460216522,0.0379796177148819,0.3062061852961779,0.7414342537522316,-9.606357851028443
42.7,5.400000095367432,350.0,20.21561050415039,32.888538360595696,-79.7827954718724,40.45900987233419,327.7003984069824,-0.021923067048192024,-0.03029890544712544,-0.7896365523338318,0.6124342083930969,0.15851071560484384,0.04156337098044778,2.6330017906210568,0.2660581469535828,-0.18872672319412231,0.05125666782259941,0.2850873214378953,0.5618625334650278,-10.031920545101164
42.9,5.5,349.0,20.503582000732425,29.02397537231445,-79.7827956816473,40.45900994033311,328.23276229858396,-0.013777150772511959,-0.015741312876343727,-0.7916149497032166,0.6106622219085693,0.11129508517213124,0.0014354976283567045,2.762783231111092,0.18818753957748413,0.03584049642086029,0.15832194685935974,0.6336199294030667,0.8430025823414327,-10.49525625228882
43.1,5.699999809265138,342.0,20.533632278442386,28.77746963500977,-79.7827956341742,40.45900983064338,328.7672814941406,-0.016430636867880818,-0.03799406439065933,-0.7929967045783997,0.6078179478645325,0.13966027758778365,0.14361079729565696,2.8270611106292574,-0.3891432583332062,0.2361107766628265,-0.1362900286912918,0.8458609937131405,0.9338121803104878,-10.210703841447833
43.2,5.800000190734862,343.0,20.562429428100586,28.682048797607425,-79.78279554304609,40.45900977918123,329.0516481018066,-0.01952578313648701,-0.05277785658836365,-0.7908740043640137,0.6093863248825073,0.2514291691980361,0.20972056390507726,2.8385181991329658,-0.19719858467578888,0.16347967088222504,-0.12176698446273805,0.7390093403309584,1.1511869537830353,-10.067151188850405
43.4,5.800000190734862,344.0,20.78654670715332,26.455551147460927,-79.78279542060356,40.45900938407982,329.6037721252441,-0.020655618980526924,-0.06734156608581543,-0.7877684235572815,0.6119308471679688,0.32859967394098266,0.27552922110605466,2.759503626932724,-0.08583515137434006,0.0722413882613182,-0.032367002218961716,0.7290657846629621,1.061821033358574,-9.402283592820167
43.5,5.9000000953674325,345.0,20.80657958984375,26.43964767456055,-79.78279538069724,40.459009388041174,330.1296472167968,-0.01919708400964737,-0.06030187383294105,-0.7867880463600159,0.6139704585075378,0.3239728601647501,0.22460863087370786,2.542158744463627,0.18557219207286835,-0.14297981560230255,0.09828295558691023,0.5374483250454068,1.0608291263133287,-8.990284684896471
43.7,5.800000190734862,347.0,20.642560958862305,28.42759132385254,-79.78279534423882,40.45900936278621,330.3814744567871,-0.00932025909423828,-0.050657108426094055,-0.7884784936904907,0.6129018664360046,0.2804002692568229,0.19664576293552724,2.448281724353773,0.31184372305870056,0.0467282310128212,0.0532478541135788,0.5746633310616017,0.9081309898942712,-8.795460721850395
43.8,5.9000000953674325,344.0,20.61626625061035,28.97626495361328,-79.78279529103996,40.45900917178355,330.662880859375,-0.0018710473086684944,-0.04335691034793854,-0.7917129993438721,0.6093499064445496,0.19997418162009384,0.2027367972580965,2.4587061086863744,0.1551576405763626,-0.05407603085041046,0.1883680075407028,0.6656096076965332,0.459320278018713,-9.32019219338894
44.0,6.099999904632568,341.0,20.63003921508789,28.18903923034668,-79.78279516617951,40.45900884200688,331.1952180480957,-0.006243669893592596,-0.0403577946126461,-0.7977352738380432,0.6016233563423157,0.15343210983969513,0.26710169666628697,2.5666887905685667,-0.2857518196105957,-0.024836156517267227,-0.1031959354877472,0.7933224454522133,0.5313525296375156,-10.124415310621265
44.1,6.099999904632568,339.0,20.5699405670166,29.365901947021484,-79.78279506454497,40.45900879740571,331.4567994689941,-0.012915759347379208,-0.048947062343358994,-0.7976892590522766,0.600940465927124,0.17884277994964498,0.2427644100730716,2.635137275653981,-0.19707418978214264,0.046665392816066735,0.03329532220959664,0.5621866153925658,0.7306209978461266,-10.403457305431367
44.2,6.300000190734862,338.0,20.63629913330078,28.26060485839844,-79.78279497324542,40.45900874011425,331.72456069946287,-0.007657332345843316,-0.05746648460626602,-0.7963558435440063,0.6020435094833374,0.2604305387304052,0.2674389216195611,2.6781390008946686,0.042508300393819816,0.18625043332576752,-0.13939476013183594,0.9094545802474022,1.072905453890562,-10.204487081766127
44.4,6.300000190734862,341.0,20.695146560668945,26.646394729614247,-79.78279476589933,40.45900853106972,332.5487641906738,0.0037404631730169054,-0.06408406049013138,-0.784626841545105,0.6166361570358276,0.2769752232204664,0.3418509591595352,2.7700819209986984,-0.1075151264667511,-0.03223787620663643,-0.2191464900970459,0.7124572071433067,0.6906196108460426,-10.285115507841107
44.6,6.300000190734862,340.0,20.70391082763672,27.71988296508789,-79.78279472009555,40.45900844862099,332.8293695068358,-0.0019392633112147448,-0.06379927694797516,-0.7808375358581543,0.6214649081230164,0.2975532640139853,0.3455145662309335,2.771407763936777,-0.06502022594213486,-0.07703247666358948,-0.2518357634544373,0.874986559599638,1.069215495362878,-9.760057176947594
44.7,6.199999809265138,340.0,20.748985290527344,26.95651435852051,-79.7827946965926,40.45900835590496,333.1104211425781,-0.00730945449322462,-0.06519826501607895,-0.7779989242553711,0.6248308420181274,0.32239081459081137,0.3076185571737517,2.7834285064759205,-0.20225881040096289,-0.03364596143364906,-0.16883543133735654,0.7232411538809538,1.0232349649071697,-9.815785235166553
44.9,6.199999809265138,338.0,20.89797782897949,26.01820373535156,-79.7827947627843,40.459008148871156,333.66304870605467,-0.00847662054002285,-0.062124885618686676,-0.7763938307762146,0.6271213889122009,0.3636709311064951,0.27671183301297564,2.788931277798827,-0.05525873973965645,-0.11026091128587724,-0.26117148995399475,0.8385494159907103,1.2313323998451229,-9.947608373165133
45.0,6.300000190734862,336.0,20.83287239074707,26.16133689880371,-79.78279471515752,40.459007921311326,333.9457406616212,-0.008733557537198067,-0.056494247168302536,-0.7770873308181763,0.6267913579940796,0.3747549574262679,0.2495165583509833,2.8056875892292865,-0.054714925587177284,-0.06284140050411224,-0.1275220364332199,0.6869306755810977,0.9383271078765392,-9.967638595104216
45.2,6.4000000953674325,335.0,20.817846298217773,27.05193519592285,-79.78279479867598,40.45900769266617,334.51790710449217,-0.010365627706050871,-0.05967803671956062,-0.7801671624183655,0.622631847858429,0.3845697496681193,0.20940564606635267,2.8412365164228466,-0.09627090394496918,-0.01917901262640953,0.049160614609718316,0.8222219433635474,0.8430392005294561,-9.879376044273377
45.3,6.4000000953674325,334.0,20.81033515930176,26.51916694641113,-79.78279481816445,40.459007447368286,335.0914163208008,-0.01860177330672741,-0.06662137061357498,-0.7849992513656616,0.6156231760978699,0.39841901535409696,0.25684992126928563,2.832130526047456,-0.16150043904781342,-0.1451025903224945,0.00938359834253788,1.0359764863550665,1.0120576467365028,-9.779595648050307
45.5,6.300000190734862,334.0,20.8917179107666,25.708086013793945,-79.7827949253094,40.459007297987725,335.38481994628904,-0.019631685689091682,-0.06551003456115723,-0.7873062491416931,0.6127576231956482,0.4147384883883661,0.2503885837386521,2.8349785562329832,-0.05941765382885932,-0.07251682877540587,0.11187480390071868,0.8375151166319847,0.9850916037708521,-9.750330333709718
45.6,6.300000190734862,334.0,20.800317764282227,26.28856468200684,-79.78279493090257,40.45900721117293,335.67215057373045,-0.014851263724267484,-0.06503403186798096,-0.7888420224189758,0.6109651327133179,0.40085219350424495,0.251026240827578,2.8337193524890973,0.03182772919535637,0.07443463057279588,0.05402317643165589,0.8136999920010567,0.9056707739084959,-9.655676191449167
45.7,6.4000000953674325,333.0,20.81283950805664,25.88302421569824,-79.7827949272967,40.459007141018354,335.9585122680664,-0.008057349361479279,-0.0672614574432373,-0.7892023324966431,0.6103857755661011,0.35613461305549443,0.26342538756480594,2.826339752346924,-0.019548995420336723,0.18595562875270846,0.002429127693176269,0.9088549482822421,0.8823507622629404,-9.640061202049255
45.9,6.4000000953674325,332.0,20.90048217773437,24.952667236328125,-79.78279511744186,40.459006982116605,336.8431787109375,0.0041401316411793215,-0.07417633384466171,-0.7883329987525941,0.6107470989227295,0.2912762255427228,0.29570129200598005,2.823344870749297,0.06718029081821443,0.09393926709890366,-0.0408545695245266,0.9480003029108048,0.7307222277671099,-9.807030783891678
46.1,6.300000190734862,336.0,21.046972274780273,23.88712882995605,-79.78279518562387,40.45900695457392,337.1272134399414,0.0040602730587124825,-0.0753554180264473,-0.7879445552825928,0.6111043691635132,0.290042625165478,0.2833247264640306,2.792657211636708,0.1015247106552124,0.042540311813354485,0.042836546897888184,0.9388488256931306,0.7040454027056694,-9.486246685981751
46.2,6.300000190734862,336.0,21.37250518798828,20.56328773498535,-79.78279528279593,40.459006928460134,337.40804382324217,0.002529005520045757,-0.07588371634483337,-0.7878878712654114,0.6111204028129578,0.2868351456003844,0.2612894512635717,2.768527867667389,-0.04450395703315735,-0.02862858958542347,-0.1947787404060364,0.8884859532862902,1.0011563171446325,-9.384748962521554
46.4,6.4000000953674325,337.0,21.44011688232422,20.6507568359375,-79.78279553153847,40.45900690072101,337.9722146606445,-0.007356329821050167,-0.08033787459135057,-0.787553608417511,0.6109427809715271,0.30492644399268154,0.18424473763824545,2.601351754907728,-0.0273680966347456,-0.003852838184684515,-0.020368121564388275,0.7744974808394909,0.938953856304288,-8.699058262109757
46.5,6.4000000953674325,336.0,21.343708038330078,21.54930686950684,-79.78279557525742,40.45900688040968,338.2708749389648,-0.011550085619091988,-0.08160161226987839,-0.7876911163330078,0.6105329990386963,0.313866540323115,0.16531225392173407,2.519396225983596,-0.044617250561714165,-0.11686384677886966,0.15837499499320984,0.8344934948533774,0.6885358093678952,-8.554839611649513
46.7,6.300000190734862,333.0,21.731843948364254,17.923297882080078,-79.78279591161514,40.45900689614774,338.7579736328125,-0.018600905314087868,-0.0762137621641159,-0.788199245929718,0.6103995442390442,0.2899607819856547,0.10847507856510057,2.3158091375698424,-0.06583767384290695,-0.10516224801540376,-0.0658443421125412,0.8366264129430057,0.8410734397172929,-8.592752373218536
