time,wind_speed,wind_angle,battery_voltage,battery_current,position_x,position_y,position_z,orientation_x,orientation_y,orientation_z,orientation_w,velocity_x,velocity_y,velocity_z,angular_x,angular_y,angular_z,linear_acceleration_x,linear_acceleration_y,linear_acceleration_z
0.0,0.5,173.0,25.038509368896484,-0.10337305814027786,-79.78277534250905,40.458992419636324,266.2568777052164,0.006987139116972685,0.015362752601504326,-0.7454121112823486,0.6663903594017029,0.0017052700490097536,0.00553104390660601,0.015843452926368736,0.0014224484330043195,-0.0004726182669401169,0.008880281820893288,-0.13098961740732193,-0.3100326032191515,-9.806378819346428
0.2,0.5,169.0,25.03475379943848,-0.09542128443717957,-79.78277528540883,40.45899236401663,266.27289836084844,0.006980793550610542,0.015376291237771513,-0.7454085350036621,0.666394054889679,0.00757734866570355,0.007963199611444337,0.016208135122618945,0.003515245392918587,0.0015198353212326765,0.0036619319580495358,-0.13563524851575495,-0.29646978551521896,-9.804148106575012
0.29,0.4000000059604645,165.0,25.038509368896484,-0.07156596332788467,-79.78277527664515,40.45899235626018,266.2745165077448,0.0069623892195522785,0.015378985553979875,-0.7454006671905518,0.6664029359817505,0.00689535996253425,0.008270062119247645,0.01681472590750984,-0.005775275640189648,-0.0009828538168221712,-0.0065735536627471464,-0.1343011149019003,-0.3010504211671651,-9.806908577084542
0.49,0.4000000059604645,158.0,25.036006927490234,-0.08746951073408127,-79.78277522088186,40.458992312734146,266.29133653616907,0.006988198962062597,0.015385980717837809,-0.7453942894935608,0.6664096117019653,0.007902844742635926,0.009596877027511828,0.017100198511750396,0.00021837677923031149,3.266765997977927e-05,0.0030666501261293892,-0.1349466109648347,-0.30266370451077823,-9.805695279836655
0.59,0.4000000059604645,155.0,25.038509368896484,-0.09542128443717957,-79.78277521042567,40.458992304177926,266.29303044056894,0.006987597327679396,0.015385694801807404,-0.7453959584236145,0.6664078235626221,0.007841232805183514,0.009689108816654156,0.017564308350342058,-0.002535721752792597,0.0007723632734268904,-0.0047437334433197975,-0.13573856150731445,-0.2973535921610892,-9.803984969258307
0.79,0.4000000059604645,152.0,25.04351806640625,-0.06361418962478638,-79.78277523001974,40.45899226679898,266.3064062741995,0.006997847929596901,0.015378160402178763,-0.7453944683074951,0.6664095520973206,0.0092230143824538,0.0011118309328088504,0.0118833549321516,-0.005841806065291165,-0.0009348820312879981,-0.0076354476623237124,-0.13280666708014907,-0.3094158316031099,-9.807485112547877
0.89,0.4000000059604645,150.0,25.028493881225586,-0.07951773703098297,-79.78277517522655,40.45899224286769,266.32158240652086,0.006993373390287161,0.015384727157652378,-0.7453965544700623,0.6664071083068848,0.00940345568178964,0.006095306754677768,0.01294466529595275,0.003413316793739796,0.0021825539879500857,0.0023336352314800024,-0.13396415082737806,-0.3051164652965963,-9.80579819083214
1.1,0.4000000059604645,149.0,25.038509368896484,-0.07156596332788467,-79.78277516268959,40.45899222456093,266.32420040643217,0.00699299480766058,0.015384742990136147,-0.7453988194465637,0.6664046049118042,0.008920958211756673,0.0062715887769379895,0.013950460621703324,-0.0012133731506764887,0.0005257324082776903,-0.005111984442919493,-0.13359817908145488,-0.30662908516824244,-9.806877586841585
1.2,0.4000000059604645,149.0,25.03475379943848,-0.08746951073408127,-79.78277514549181,40.45899222046162,266.3380373043418,0.006991491187363863,0.015379998832941057,-0.7453985214233398,0.6664050817489624,0.006490544595589689,0.004094973530265229,0.01098936147257428,0.0021726677659899,-0.0005589540232904255,0.006434132345020771,-0.13310386095196008,-0.3090867795422673,-9.80650161087513
1.39,0.4000000059604645,150.0,25.03350257873535,-0.08746951073408127,-79.78277510111334,40.45899220118485,266.3534371403456,0.006990622263401747,0.015385111793875694,-0.7454003095626831,0.6664029359817505,0.007330457404079502,0.006805444410178292,0.009376403178180392,0.003174664918333292,0.00048639471060596406,-0.0014777190517634153,-0.1355030009429902,-0.3000356551632285,-9.80584964632988
1.49,0.5,150.0,25.036006927490234,-0.10337305814027786,-79.78277509385245,40.45899219390535,266.354370616138,0.006990622263401747,0.015385111793875694,-0.7454003095626831,0.6664029359817505,0.007044024397083927,0.006886322283960003,0.009827641137337927,0.0010091986041516066,-0.0008875008788891137,0.00292867049574852,-0.13206063545309008,-0.3093094853684306,-9.806583471894264
1.69,0.5,152.0,25.04101371765137,-0.09542128443717957,-79.782775049026,40.458992158821,266.3702946228385,0.006992402486503124,0.0153915761038661,-0.745401918888092,0.6664009094238281,0.011466001471494715,0.0088202931004252,0.009139685729988722,0.0014711745316162705,-0.004561577457934618,0.0074853869155049315,-0.13562835062853992,-0.2961668814718724,-9.804994198679925
1.79,0.5,155.0,25.03350257873535,-0.08746951073408127,-79.78277503983962,40.458992147731024,266.3711958227158,0.006992402486503124,0.0153915761038661,-0.745401918888092,0.6664009094238281,0.010786869447561815,0.009078795696563752,0.00976568923263726,-0.003634735243394971,-0.0008322031935676932,-0.002934671938419342,-0.1345088006928563,-0.3034207910299301,-9.80657411634922
1.99,0.6000000238418579,164.0,25.036006927490234,-0.10337305814027786,-79.78277504336695,40.45899215781174,266.3861357418299,0.006996117066591978,0.015381309203803541,-0.7454044818878174,0.666398286819458,0.00757240991084898,0.0022326542409679307,0.007994329680357837,0.0025244415737688537,8.60610234667547e-05,0.005204135552048683,-0.13560736460611225,-0.2986478185281158,-9.804583139419558
2.09,0.6000000238418579,164.0,25.03725814819336,-0.08746951073408127,-79.78277504147944,40.45899215078752,266.3869288114309,0.00699539901688695,0.015381094999611378,-0.7454067468643188,0.6663958430290222,0.006998890534984977,0.002469435191692375,0.008457154626075575,-0.0050718169659376144,-0.0021391117479652166,-0.0046771434135735035,-0.1354785157274455,-0.2980099603906274,-9.804671432375908
2.3,0.699999988079071,167.0,25.03976249694824,-0.07951773703098297,-79.78277500262193,40.45899216371365,266.40426678931715,0.006989513523876667,0.015380916185677053,-0.7454078197479248,0.6663947105407715,0.004279242377845265,0.0047261636630266295,0.011226822799927821,-9.865171887213364e-05,-0.0013392980908975005,0.0019007869996130464,-0.13443941068835558,-0.304551861807704,-9.80574147284031
2.4,0.699999988079071,166.0,25.042266845703125,-0.07951773703098297,-79.78277499300094,40.458992167851065,266.41889245039226,0.006993449293076992,0.015381879173219204,-0.745408833026886,0.6663934588432312,0.005904071002724378,0.0036471592137875455,0.009580631922152355,-0.0009181795176118613,0.0006076216814108193,-0.005199422128498554,-0.13633829397149386,-0.29766241651028397,-9.804723472595217
2.59,0.699999988079071,167.0,25.04101371765137,-0.08746951073408127,-79.78277498575163,40.45899215588428,266.42084374627467,0.006992904935032129,0.01538178790360689,-0.7454110383987427,0.6663910150527954,0.0055882946684064965,0.003828510183039773,0.010578980802980772,-0.0023465303238481283,0.002945225453004241,-0.005794338416308165,-0.1310328411217779,-0.3094071338698268,-9.806058391928671
2.7,0.699999988079071,165.0,25.03725814819336,-0.09542128443717957,-79.78277497864111,40.4589921479148,266.4353793503195,0.006998358760029078,0.015385800041258337,-0.7454110383987427,0.6663908958435059,0.011280925400164944,0.0030800617832400967,0.009020397069777164,0.002060238039121032,0.002145178616046905,0.00036019113031215966,-0.13518956277519464,-0.3026155928894877,-9.805820994973184
2.89,0.8000000119209291,163.0,25.032249450683594,-0.09542128443717957,-79.78277495496141,40.4589921686169,266.45001540867986,0.0069919247180223465,0.015384392812848091,-0.7454131245613098,0.6663886308670044,0.0062424058404654615,0.0056549610159666785,0.007677508114222006,-0.002915148390457034,0.0013369098305702214,-0.007219221442937852,-0.1325316743552685,-0.30834177117794753,-9.80774765253067
2.99,0.8000000119209291,164.0,25.03725814819336,-0.09542128443717957,-79.78277494918044,40.458992162091604,266.450772722479,0.0069919247180223465,0.015384392812848091,-0.7454131245613098,0.6663886308670044,0.006735460620232401,0.005415931519556256,0.008023338542882149,0.0011156407417729497,0.0007162073161453009,0.0034721489064395428,-0.13290445262566208,-0.3084819947183132,-9.806411563754082
3.19,0.8000000119209291,165.0,25.036006927490234,-0.09542128443717957,-79.78277497124178,40.458992169590594,266.4649947488159,0.006998410914093256,0.015378843992948532,-0.7454158663749695,0.6663855910301208,0.00836281189628913,-0.000620503332828236,0.0067706150558780025,0.0011626918567344544,0.0016924254596233368,0.0016186407301574945,-0.13470469155348838,-0.3003974699042737,-9.805581843852996
3.31,0.8000000119209291,164.0,25.02974510192871,-0.08746951073408127,-79.78277497282326,40.45899216222197,266.46567377889903,0.006998410914093256,0.015378843992948532,-0.7454158663749695,0.6663855910301208,0.007908194230164924,-0.0004980174129370664,0.007236940220595869,-0.0016119349747896194,-0.002380290534347296,0.0026229505892843012,-0.13314392351545395,-0.3067520594224334,-9.806573531627656
3.5,0.8000000119209291,159.0,25.036006927490234,-0.09542128443717957,-79.78277494982486,40.45899214118513,266.4820717943311,0.007001930847764015,0.01539016515016556,-0.7454175353050232,0.6663834452629089,0.014563165971366962,0.0036211779171063775,0.010717666957871758,0.0035491136368364096,0.0018653966253623366,0.00647391052916646,-0.13686182990670204,-0.2977766016684473,-9.80431592166424
3.59,0.8000000119209291,159.0,25.03725814819336,-0.08746951073408127,-79.78277494714746,40.45899212771875,266.48312420187887,0.007000827696174383,0.015390045940876009,-0.7454192638397217,0.6663814783096313,0.01399074697740626,0.003890814621056644,0.011391813204546124,-0.00376860867254436,-0.0011788519332185388,-0.009892662055790423,-0.13568882362917067,-0.2969368135929108,-9.805138040184977
3.79,0.699999988079071,160.0,25.036006927490234,-0.08746951073408127,-79.78277492493119,40.45899214179558,266.49799297353627,0.0069953915663063535,0.015389757230877875,-0.7454195022583008,0.666381299495697,0.011628241013562598,0.0063481081748725,0.010306799932111038,-0.002206020522862673,0.0019924365915358067,0.00022330100182443857,-0.1325649486668408,-0.3069111036881805,-9.806906822919846
3.9,0.699999988079071,160.0,25.036006927490234,-0.09542128443717957,-79.78277493173003,40.45899217168479,266.5137645860613,0.006997028831392528,0.01538651343435049,-0.7454224824905396,0.6663780212402344,0.010528929305307686,0.004126682389332942,0.012489948737952427,0.0016664938302710652,0.000817806925624609,-0.0017998485127463935,-0.13647437877953053,-0.3004888874664903,-9.805640900731088
4.09,0.699999988079071,160.0,25.02974510192871,0.07156596332788467,-79.782774924564,40.4589921515402,266.5162975226939,0.006996144540607929,0.015386602841317654,-0.7454233765602112,0.6663770079612732,0.010106221221066622,0.0041714096078496535,0.013655346431599694,-0.003495838725939393,-0.0003705343697220087,-0.004657851532101631,-0.1320649386383593,-0.31016266722232105,-9.807538906931876
4.2,0.699999988079071,162.0,25.01472091674805,-0.007951773703098297,-79.78277491192901,40.45899218280382,266.52939578121897,0.006992782931774855,0.015387001447379587,-0.745423436164856,0.6663769483566284,0.009884263104424978,0.005790506427287913,0.011564082569722285,0.002817221917212009,0.0006032094825059173,0.004893830511718988,-0.1326827883347869,-0.3071867633610964,-9.806637850999833
4.39,0.699999988079071,161.0,25.027240753173828,-0.04771064221858978,-79.78277491714394,40.45899220365346,266.54527459269764,0.006995037663728001,0.015384819358587263,-0.7454264163970947,0.6663737297058105,0.009035550040185324,0.0041529502814111755,0.013540451042636249,0.0018262731609866023,0.0007087701233103871,-0.009269429370760921,-0.13421129618771374,-0.3044367447495461,-9.807088671326637
4.49,0.6000000238418579,158.0,25.025989532470703,-0.02385532110929489,-79.78277491322308,40.458992194809724,266.5466132757664,0.006995037663728001,0.015384819358587263,-0.7454264163970947,0.6663737297058105,0.009152733172040113,0.0041325368732214145,0.013925159754755084,0.0006945805507712066,-0.0008279103203676642,0.0038395063020288944,-0.13140132534317672,-0.309804634898901,-9.80718924343586
4.7,0.6000000238418579,154.0,25.01847648620605,0.0,-79.7827749008207,40.45899220044331,266.5628643704057,0.006994208786636591,0.015389065258204937,-0.7454275488853455,0.6663723587989807,0.012025785407228012,0.0066826344707607505,0.015486908048440173,0.0047697685658931715,0.005541249178349972,0.0016445370856672525,-0.13633566272445025,-0.2980613976158202,-9.80571691453457
4.79,0.6000000238418579,152.0,25.015974044799805,0.007951773703098297,-79.78277489421966,40.45899218886159,266.56439901119467,0.006994208786636591,0.015389065258204937,-0.7454275488853455,0.6663723587989807,0.011486937961546154,0.006788649540839133,0.01612535293423294,-0.004482351243495939,-0.00022908253595232964,-0.0006072084652259946,-0.13388969019055366,-0.3069675293192268,-9.808288519978523
4.99,0.6000000238418579,152.0,25.015974044799805,-0.02385532110929489,-79.7827749431507,40.45899224037292,266.58031081384416,0.006996744778007269,0.015375687740743159,-0.7454290986061096,0.6663709282875061,0.006486652804536963,-0.0011162092962435917,0.01581042218648637,0.0034658261574804787,-0.00011654216359602287,0.005468444433063269,-0.13752049134112895,-0.297770937178284,-9.804736921191216
5.09,0.5,152.0,25.02223396301269,-0.007951773703098297,-79.782774944904,40.45899223453288,266.5819068846703,0.006996066775172949,0.015375428833067415,-0.7454302310943604,0.666369616985321,0.0057526183308606715,-0.0008413366113977903,0.01643648587530271,-0.0004987901193089783,-0.0016629521269351244,-0.005748736672103405,-0.1348454815428704,-0.3010101119242609,-9.805670136809347
5.3,0.6000000238418579,153.0,25.01096534729004,-0.039758868515491486,-79.78277494643595,40.458992250619566,266.5973901746273,0.006995454896241426,0.015379863791167738,-0.7454306483268738,0.6663690209388733,0.00866065977374492,0.0019472439711772727,0.017234662542585464,-0.00036664807703346014,-0.00125448452308774,0.008525590412318707,-0.13562427585013212,-0.3010888848826289,-9.8059098726511
5.39,0.6000000238418579,151.0,25.015974044799805,-0.03180709481239319,-79.78277496423175,40.45899228640069,266.6108184156418,0.006996590178459883,0.015378748066723347,-0.7454322576522827,0.66636723279953,0.008228760964818687,0.0015339336194129592,0.016493006548629143,-0.00471191992983222,-0.002033381722867489,-0.005036026705056429,-0.13546459204517305,-0.2978574576973915,-9.806133236289023
5.59,0.5,151.0,25.012216567993164,-0.04771064221858978,-79.78277496278555,40.4589922700781,266.61415822780134,0.00699622044339776,0.01537888590246439,-0.7454332709312439,0.6663661599159241,0.00816338038040869,0.001365620227603765,0.017567584169364037,-0.0044764154590666285,-0.002238436136394739,-0.0016760834259912376,-0.13313351729884745,-0.30726511605083945,-9.806497517824171
5.71,0.5,152.0,25.00846099853516,-0.015903547406196594,-79.78277495984321,40.458992310466044,266.6272042540312,0.006991914473474026,0.015380584634840487,-0.7454336285591125,0.6663657426834106,0.007731320104992527,0.0044958228164002296,0.016944147705003725,0.0011615832336246967,0.0017299519386142492,-0.002065944718196988,-0.1367796765267849,-0.2988875909149647,-9.805256153941155
5.9,0.5,153.0,25.01722526550293,-0.02385532110929489,-79.7827749811407,40.458992348068826,266.63942489004137,0.006993545684963465,0.015377984382212162,-0.7454349994659424,0.666364312171936,0.0075288412157744405,0.00306190651095065,0.012619120568704921,-0.006403228733688593,0.00020921094983350488,-0.0072386679239571095,-0.13493296137079594,-0.29787501761689783,-9.807087501883506
6.0,0.5,153.0,25.012216567993164,-0.039758868515491486,-79.78277497862777,40.45899234034594,266.6406809387207,0.006993545684963465,0.015377984382212162,-0.7454349994659424,0.666364312171936,0.008134664293190229,0.002796362969127884,0.0131012611380746,0.003225276246666909,0.00147039454896003,0.0016327676130458713,-0.13449970096349714,-0.3041580701060593,-9.806261875033377
6.19,0.5,156.0,25.015974044799805,-0.05566241592168808,-79.78277498836822,40.45899236343504,266.6525822130442,0.006993860471993685,0.015381043776869776,-0.7454361319541931,0.6663629412651062,0.009726858569479704,0.004965384075175368,0.012037968205824305,-0.0003041713498532772,0.007168609183281659,-0.003667752258479595,-0.13321441900916398,-0.30674007263034586,-9.807560541629792
6.3,0.6000000238418579,157.0,25.00971221923828,-0.02385532110929489,-79.78277498375343,40.45899235375362,266.6537697312832,0.006993860471993685,0.015381043776869776,-0.7454361319541931,0.6663629412651062,0.010189496432300752,0.0047553378717993785,0.012490549388919523,0.0018979609012603762,0.0007414292194880545,0.00623549334704876,-0.1331189814861864,-0.30943677194416525,-9.80723719060421
6.49,0.6000000238418579,156.0,25.015974044799805,-0.05566241592168808,-79.78277501381598,40.45899240786781,266.66659922873976,0.006990802474319935,0.01537377294152975,-0.7454385757446289,0.6663603782653809,0.005697170446342778,0.0026089384563066807,0.013713967716014932,0.0017179116839542985,0.0009138185414485632,0.00013886242231819781,-0.1361992946919054,-0.29907727824524044,-9.806577624678614
6.59,0.6000000238418579,156.0,25.02223396301269,-0.007951773703098297,-79.78277501126334,40.458992402272116,266.6679827270508,0.006991390138864517,0.015374281443655491,-0.7454405426979065,0.6663581728935242,0.0053577284454973785,0.0027168053112394297,0.014373959249221609,0.00023965197033248842,-0.0005386861739680171,0.0025627287104725838,-0.13219491127878427,-0.3088661933317781,-9.808259868621828
6.79,0.699999988079071,156.0,25.020980834960927,0.015903547406196594,-79.78277504608229,40.458992463683146,266.67820928967,0.006989189423620701,0.015368699096143247,-0.7454400658607483,0.6663588881492615,0.0028395367807765807,0.0011484427666563525,0.011280216501784051,0.0017822800436988473,-0.0004991588066332042,0.006889552809298039,-0.1362408738769591,-0.2963515621237457,-9.804701253175736
6.89,0.699999988079071,155.0,25.01972961425781,-0.015903547406196594,-79.78277506730703,40.45899250888323,266.6891494987011,0.006987681146711111,0.015371755696833134,-0.7454431056976318,0.6663554310798645,0.003420275767271878,0.004364202840463428,0.012719193594661385,-0.0041788783855736256,-0.0016607861034572124,-0.004548237193375826,-0.1347648904658854,-0.30100545242428783,-9.806010444760323
7.1,0.699999988079071,156.0,25.02223396301269,-0.05566241592168808,-79.78277505806868,40.45899250066503,266.6917796728611,0.006988557521253824,0.01537248305976391,-0.7454435229301453,0.6663549542427063,0.003620469631268007,0.004145029448909968,0.01396937563165134,0.003042659955099225,-0.00023870721634011718,0.004880018997937441,-0.13519372891634704,-0.3005709860287607,-9.806246672272684
7.19,0.8000000119209291,155.0,25.02348518371582,-0.08746951073408127,-79.78277508501887,40.458992547826064,266.7001600561142,0.0069875712506473064,0.01537328865379095,-0.7454432249069214,0.6663551926612854,0.004192267277599695,0.00587590169802171,0.01165301270604525,-0.0020976036321371802,-0.0006505881901830435,-0.0070102899335324756,-0.13676123952493072,-0.29573665430769325,-9.805675984025005
7.39,1.0,154.0,25.03099822998047,-0.08746951073408127,-79.78277512664333,40.458992587870064,266.7091639635563,0.0069902571849524975,0.015370922163128853,-0.7454462647438049,0.6663517951965332,0.0051763399018835065,0.0038710564088461617,0.009656815208849971,-0.004822228103876114,0.00207865284755826,-0.0014699369203299286,-0.13218060387298464,-0.3077594250440598,-9.808030073046686
7.5,1.0,154.0,25.024738311767567,-0.10337305814027786,-79.78277512294981,40.4589925822819,266.71012994623186,0.0069902571849524975,0.015370922163128853,-0.7454462647438049,0.6663517951965332,0.005674868010052386,0.003526424617911189,0.010178518874479856,0.0015734368935227394,0.001496784621849656,-0.0009344095014967023,-0.13616084011271595,-0.3024629988335073,-9.806540202498436
7.69,1.100000023841858,156.0,25.03475379943848,-0.06361418962478638,-79.78277517167216,40.458992642371136,266.7185572085381,0.0069895004853606215,0.015365369617938997,-0.7454454898834229,0.6663528680801392,0.0021552257489165505,0.0016700992903163536,0.008231283837003672,-0.005118452478200197,0.0008054398931562903,-0.007703684736043216,-0.13251433370634913,-0.3078394588083029,-9.809421125650406
7.8,1.2000000476837158,157.0,25.03350257873535,-0.07156596332788467,-79.78277517000214,40.45899263992602,266.7193980512619,0.0069895004853606215,0.015365369617938997,-0.7454454898834229,0.6663528680801392,0.002561586652267625,0.0014734632758633547,0.008778475265000711,0.0022496283054351807,0.0023701288737356663,0.00809604674577713,-0.13237962847575546,-0.30859320145100355,-9.807969846725463
7.99,1.2999999523162842,160.0,25.02974510192871,-0.10337305814027786,-79.78277522497031,40.45899270436589,266.72739776945116,0.0069885579869151115,0.015360936522483826,-0.7454473972320557,0.6663508415222168,0.0005661291170321336,0.00031616927177737804,0.007643402422132474,-0.001201653270982206,0.0003394197265151888,-0.0015519768930971622,-0.13475474920123814,-0.3016059066541493,-9.806985760331154
8.09,1.399999976158142,161.0,25.024738311767567,-0.07951773703098297,-79.78277522457431,40.458992703717605,266.7281908390522,0.006989652756601572,0.01536166574805975,-0.7454483509063721,0.6663497090339661,0.00041828704240451375,0.0002328508895788023,0.008225396754407322,0.004530344158411026,-0.002515140688046813,0.002208768390119076,-0.13237338840030136,-0.3091491254791617,-9.809081402421
8.29,1.399999976158142,167.0,25.028493881225586,-0.08746951073408127,-79.7827752615046,40.45899274810542,266.7359079716206,0.006988930981606245,0.015363715589046478,-0.7454482913017273,0.6663497090339661,0.0020715287810521,0.002313418507110697,0.008068289534565433,0.0039627389051020145,-0.00027072482043877244,0.002930436749011278,-0.13567756773903966,-0.2973037446476519,-9.806099907159807
8.41,1.5,168.0,25.032249450683594,-0.08746951073408127,-79.78277532008688,40.45899281017935,266.7421524820328,0.006987995002418757,0.0153593672439456,-0.7454505562782288,0.6663472652435303,0.000223477905697388,0.0010372948729924557,0.006549904719501449,0.00019463505304884168,-0.00041503447573632,0.0009224946843460203,-0.13370933099649848,-0.3058692029491067,-9.807446520924568
8.59,1.600000023841858,173.0,25.03350257873535,-0.07951773703098297,-79.78277531770219,40.45899280912528,266.74357306933405,0.006989465560764074,0.015360226854681969,-0.7454527020454407,0.6663450002670288,0.0004318774547841335,0.000850099781954983,0.007608217027905101,0.0008315287414006889,0.003929025027900934,0.0017512910999357698,-0.13628453613258898,-0.29774201173335313,-9.805357895493508
8.7,1.600000023841858,173.0,25.025989532470703,-0.07156596332788467,-79.782775357618,40.45899283750839,266.74930956935884,0.006992359645664692,0.01536757964640856,-0.7454525232315063,0.6663448810577393,0.005850094741136745,0.004569588640199089,0.006501980881467175,-0.0026654643006622787,-0.0025140836369246244,-0.004189237952232361,-0.13362662030383946,-0.3036988444067538,-9.807412607073783
8.89,1.600000023841858,177.0,25.03099822998047,-0.09542128443717957,-79.78277542333045,40.458992901171825,266.7535451946259,0.006990732625126839,0.01536010392010212,-0.7454527616500854,0.6663448214530945,0.0029019694429243594,0.0018596402760984035,0.0013635077576346721,0.005734564270824194,0.0009494919795542958,0.005941975861787796,-0.13523706226609647,-0.2996296208538115,-9.806314499974249
9.0,1.600000023841858,179.0,25.025989532470703,-0.08746951073408127,-79.78277542137725,40.45899289857132,266.75371396517755,0.006990732625126839,0.01536010392010212,-0.7454527616500854,0.6663448214530945,0.0021929478868046187,0.002072894608084873,0.0022038284783989464,-0.005164902191609143,-0.0011467611184343696,-0.0055668670684099215,-0.1349673777166754,-0.3002382977306843,-9.806815021634103
9.19,1.5,178.0,25.03350257873535,-0.09542128443717957,-79.78277546312927,40.458992948185646,266.75963297462465,0.0069908294826746,0.015361982397735119,-0.7454561591148376,0.6663409471511841,0.0035967582261028546,0.003681212324952529,0.0031909680525668365,0.0003980003239121288,-0.0006179476040415466,0.009390741586685179,-0.13603302363306286,-0.3014853261038661,-9.806090551614762
9.31,1.399999976158142,183.0,25.028493881225586,-0.07156596332788467,-79.78277545918769,40.458992944677185,266.75997319793703,0.0069908294826746,0.015361982397735119,-0.7454561591148376,0.6663409471511841,0.0029509536129423645,0.0038612607421248963,0.0039664345604006395,-0.003333013039082289,0.00013327716442290694,-0.0054661817848682395,-0.135148824127391,-0.2985070102661848,-9.806056637763977
9.49,1.2000000476837158,187.0,25.02974510192871,-0.10337305814027786,-79.78277552153973,40.458992994203356,266.7660094795227,0.006994461640715599,0.01536074746400118,-0.7454577088356018,0.6663392186164856,0.004913238932299782,0.002041409080424592,0.004293238117037023,-0.0021256441250443463,0.0005856295465491713,0.002890714909881353,-0.1342669909168035,-0.3059878283366561,-9.806805666089057
9.6,1.2000000476837158,187.0,25.03475379943848,-0.07951773703098297,-79.78277551970984,40.45899298954071,266.76645332551004,0.006993968039751053,0.015360914170742037,-0.7454594373703003,0.666337251663208,0.004574607790874007,0.0021284209018200273,0.0049802716262643655,-0.001490914379246533,-0.0008090608171187341,-0.005958204157650471,-0.13558740184642376,-0.2958861237578094,-9.80554091334343
9.8,1.100000023841858,186.0,25.03725814819336,-0.07156596332788467,-79.7827755618898,40.45899304072241,266.7699048814774,0.006992079317569733,0.015362579375505447,-0.7454588413238525,0.6663380265235901,0.005499271141905835,0.004758352214628165,0.0011236395660616718,-0.0012415619567036627,-0.0016656677471473813,-0.001270183827728033,-0.13324259527958932,-0.3070829752832651,-9.808059893846512
9.89,1.100000023841858,185.0,25.03350257873535,-0.08746951073408127,-79.78277563572229,40.458993087490505,266.7757269141674,0.006999791599810123,0.015363986603915691,-0.7454620599746704,0.666334331035614,0.010352140604584337,0.0029442468545177692,0.002122945862718732,-0.003697880776599049,0.004784294869750738,-0.007920576259493828,-0.13683920849114656,-0.2975408126972616,-9.806464773416518
10.09,0.8999999761581421,183.0,25.02974510192871,-0.07951773703098297,-79.78277563164718,40.458993068208855,266.7762009499073,0.00699927331879735,0.015364179387688637,-0.7454633712768555,0.6663328409194946,0.01002628754221734,0.002946771967220759,0.003457965201289168,-0.0013824228662997484,6.44874744466506e-05,-0.00237542693503201,-0.1326884345524013,-0.30880881752818823,-9.808323603272438
10.19,0.8999999761581421,183.0,25.032249450683594,-0.08746951073408127,-79.78277567349934,40.45899316518146,266.78161001181604,0.0069896290078759185,0.015356617979705334,-0.745463490486145,0.6663329005241394,0.002454945895391116,0.00441284595735546,0.0033727482852400235,0.002737205708399415,-0.000346314103808254,-0.0011069587199017406,-0.1362347982544452,-0.2992869740165769,-9.806823792457582
10.39,0.8999999761581421,184.0,25.02223396301269,-0.09542128443717957,-79.78277572262014,40.458993216430784,266.78881975984575,0.006992855574935675,0.015360585413873197,-0.7454665899276733,0.6663293838500977,0.006085028643577028,0.006254977746149868,0.007099715750070428,-0.003640500595793128,0.00033825539867393667,-0.00822674110531807,-0.1321297787781805,-0.3089547786489129,-9.807882138490678
10.5,0.8999999761581421,184.0,25.025989532470703,-0.11927660554647446,-79.78277571622289,40.45899320991858,266.78952288603784,0.006992855574935675,0.015360585413873197,-0.7454665899276733,0.6663293838500977,0.0064922740374375705,0.006009442846932014,0.007571029060879845,0.0028413974214345217,0.0009781270055100322,0.0021522538736462593,-0.13460570001974706,-0.3047397767007351,-9.806535524725914
10.7,0.8999999761581421,181.0,25.02974510192871,-0.07951773703098297,-79.7827758090521,40.45899327274841,266.7952997980118,0.007000334095209837,0.015352967195212841,-0.7454671263694763,0.6663287878036499,0.007102249201873481,-0.0008917954077273184,0.00600655290778505,-0.0012448367197066545,-0.0033005618024617434,-0.005670542363077402,-0.1366440393961966,-0.2965317477285862,-9.80511523604393
10.79,1.0,184.0,25.036006927490234,-0.06361418962478638,-79.78277581111425,40.45899326623902,266.7959089574814,0.007000334095209837,0.015352967195212841,-0.7454671263694763,0.6663287878036499,0.007451229096142359,-0.0011883063511174165,0.006586100963429999,0.0005956020322628317,-0.00256017385981977,0.006611797027289867,-0.13209567306563258,-0.30884704370051624,-9.808221861720083
11.0,1.100000023841858,179.0,25.024738311767567,-0.09542128443717957,-79.78277588411221,40.45899331387428,266.8016153571606,0.0070034516975283605,0.015354875475168228,-0.7454693913459778,0.6663262248039246,0.011071467272338695,-0.001013505527637912,0.00608659710232836,0.00456457119435072,0.002433201065286994,0.002905351808294654,-0.13621352900750935,-0.2977941981330514,-9.805999335050585
11.09,1.100000023841858,180.0,25.02974510192871,-0.09542128443717957,-79.78277588648041,40.45899330424224,266.80222776508333,0.007003366015851498,0.015355192124843597,-0.7454705238342285,0.6663249135017395,0.01031769852610045,-0.0008232409369692697,0.006761437135933874,-0.00703461654484272,-0.0016571796732023358,-0.0036006353329867125,-0.1341332815401256,-0.3017701768688858,-9.8060747641325
11.29,1.100000023841858,177.0,25.03099822998047,-0.08746951073408127,-79.78277593201273,40.45899338810736,266.80752062773706,0.006999091245234014,0.015344175510108473,-0.7454589009284973,0.6663382053375244,0.005556130110967803,0.0022295854823669303,0.00602276090538041,-0.002358123194426298,0.0004017253813799471,2.3686803615419194e-05,-0.13526548521593212,-0.3036345798522234,-9.80574907422066
11.39,1.2000000476837158,176.0,25.020980834960927,-0.09542128443717957,-79.7827759906003,40.45899344994606,266.81276774382593,0.006990545429289341,0.015347512438893318,-0.7454696893692017,0.6663262248039246,0.008722977938379499,0.004471158375095626,0.0054501964682280215,0.000714393041562289,-0.0004082765663042665,-0.004047022201120853,-0.13674598194658755,-0.29797442028298976,-9.80516201376915
11.59,1.2999999523162842,179.0,25.03099822998047,-0.09542128443717957,-79.78277598213245,40.45899343334301,266.813900172472,0.007003435865044594,0.015338070690631866,-0.7454740405082703,0.6663213968276978,0.008166701240808408,0.004561033614175666,0.006662254678095009,-0.004172762390226126,0.001727517694234848,-0.007615157868713139,-0.1315978922881186,-0.3099267686158419,-9.80875512778759
11.7,1.399999976158142,177.0,25.02223396301269,-0.07156596332788467,-79.78277606194615,40.45899351497315,266.8208287057877,0.006998396944254637,0.01534105744212866,-0.7454765439033508,0.6663185954093933,0.008139887984059044,0.0021302491413965233,0.008980355423212091,-0.0001372820552205667,-0.0027366490103304386,0.007008321583271028,-0.1324771125242114,-0.3075762610137463,-9.807002132534981
11.9,1.399999976158142,176.0,25.03099822998047,-0.09542128443717957,-79.78277614105677,40.45899357131373,266.82656475877764,0.006991763599216938,0.015355497598648071,-0.7454778552055359,0.66631680727005,0.01139377138490715,0.001133861659070712,0.007321166598114259,0.005733790341764689,0.002757262671366334,0.0016122863162308931,-0.13540591889061035,-0.30027506209909915,-9.806734914779664
11.99,1.399999976158142,174.0,25.03099822998047,-0.09542128443717957,-79.78277614104658,40.45899356107004,266.8272997436524,0.006991675589233637,0.01536411326378584,-0.7454639077186584,0.6663323044776917,0.01085814977017977,0.0011568209684311985,0.00805069274141389,-0.0013493432197719812,0.000400914897909388,0.00020705054339487106,-0.13313481464982033,-0.30736689414829016,-9.80823121726513
12.19,1.5,171.0,25.028493881225586,-0.13518016040325165,-79.78277619889627,40.45899366386283,266.83213955140116,0.006996111944317818,0.015370764769613745,-0.7454678416252136,0.666327714920044,0.0020355561955627613,0.003347255661773121,0.006268408415600714,0.002832293976098299,-0.0011215220438316462,0.005259677767753601,-0.13740867247805005,-0.2982214468717575,-9.80563680768013
12.29,1.5,170.0,25.024738311767567,-0.09542128443717957,-79.78277619493589,40.458993661918115,266.8327905533314,0.0069824298843741426,0.015378554351627828,-0.7454704046249391,0.66632479429245,0.00116349018635866,0.0036554846023652203,0.006893204534705772,-0.007052715867757797,-0.002182167721912265,-0.006344475317746401,-0.1349628735333681,-0.30070799360051753,-9.806295204162598
12.49,1.600000023841858,168.0,25.02348518371582,-0.18289080262184146,-79.78277628930934,40.458993753937705,266.8377927837372,0.006970818154513836,0.015366693027317526,-0.7454735040664673,0.6663216948509216,0.0005830784511172625,-0.0014429764192438643,0.006338085900320345,0.0016200667014345527,-3.445096081122756e-05,0.006897234823554754,-0.13618629377335312,-0.3015482567623258,-9.806075348854066
12.59,1.7999999523162842,164.0,25.025989532470703,-0.11927660554647446,-79.7827762908476,40.458993753603295,266.83846428966524,0.00696785654872656,0.015370934270322325,-0.7454729676246643,0.6663221716880798,-1.056487832238977e-05,-0.0012691387612779768,0.007116217562430837,-0.003715336555615068,-8.979817357612774e-05,-0.007002591621130705,-0.13586230320855974,-0.2964902873151005,-9.806320931911467
12.79,1.7999999523162842,167.0,25.02974510192871,-0.09542128443717957,-79.7827763741967,40.45899381066904,266.84498396492006,0.006944462191313504,0.015368408523499966,-0.7454724311828613,0.6663230657577515,0.005312011917754232,-0.0010201192947678435,0.010127842512395966,-0.001219221856445074,-0.0025751099456101656,0.0008385544060729442,-0.13284455521032215,-0.3061698229238391,-9.807830098271367
12.9,1.7999999523162842,168.0,25.02974510192871,-0.09542128443717957,-79.78277643835861,40.45899388020902,266.85007578110697,0.0069447741843760005,0.015378350391983988,-0.7454867362976074,0.6663069128990173,0.009054486305258985,0.0024296845845834052,0.011458549461533485,0.0007416142616420982,0.0027002706192433834,-0.002101982012391091,-0.13583135864697402,-0.300583027638495,-9.807001547813416
13.09,1.7999999523162842,170.0,25.02974510192871,-0.10337305814027786,-79.78277643447291,40.45899386341568,266.85244062519075,0.006933287717401981,0.015373872593045238,-0.7454826235771179,0.6663117408752441,0.008444605099152411,0.002613258338743927,0.012813948574055215,0.00015473438543267548,-0.0003034944529645145,-0.005738817621022464,-0.1329492386430502,-0.3082982825115323,-9.809497139453887
13.2,1.8999999761581416,169.0,25.020980834960927,-0.08746951073408127,-79.78277652163867,40.4589939686124,266.85544446086885,0.006925529800355434,0.015368573367595673,-0.7454801201820374,0.6663147211074829,0.002763820295717973,0.0007995183008718285,0.010290741539058377,0.0021819937974214554,-0.0002885935246013105,0.006444434169679879,-0.13047149928286672,-0.3101140256971121,-9.809100113511086
13.4,1.7999999523162842,170.0,25.025989532470703,-0.09542128443717957,-79.7827766274293,40.45899403312313,266.8590373096466,0.006935226731002332,0.015370776876807213,-0.745492160320282,0.6663011312484741,0.008474407521615867,-0.003338055913022885,0.007846793306321586,0.003234002972021699,0.0025363878812640905,0.006851289886981249,-0.13571700903587045,-0.2962885035574436,-9.806151362657546
13.49,1.7999999523162842,172.0,25.00094795227051,0.2385532110929489,-79.78277663217689,40.45899402605066,266.8598418531418,0.0069328229874372465,0.015375208109617232,-0.7454851269721985,0.6663088798522949,0.007468550981741431,-0.0030496172461934373,0.008655726870267283,-0.0031337672844529148,0.0004229876212775707,-0.0066885999403893965,-0.13588783909566698,-0.2976458615809679,-9.806446062326431
13.69,1.7000000476837158,172.0,24.979663848876953,0.22264966368675232,-79.78277668452354,40.45899409392398,266.86299177980425,0.006920538377016783,0.01540168933570385,-0.7455002069473267,0.6662915349006653,0.008628786710460629,0.004889766891676695,0.0075953608940494705,-0.0193041991442442,-0.001812790636904537,-0.005688617471605539,-0.12935714788734914,-0.31473577458411456,-9.81118581533432
13.79,1.7000000476837158,171.0,24.980915069580078,0.21469789743423465,-79.7827766804358,40.45899408467411,266.8637278375626,0.006931375246495009,0.015427726320922375,-0.7454997897148132,0.6662912964820862,0.009699454048192392,0.004797439573135141,0.008006404073181504,0.003530854824930429,0.004983215592801571,-0.0039073191583156594,-0.12904987670481205,-0.3035126471333206,-9.808668588995934
13.99,1.7000000476837158,174.0,24.98467254638672,0.20674611628055573,-79.78277680948642,40.45899419579219,266.8686822650433,0.0069341296330094355,0.015420517884194853,-0.7454946041107178,0.666297197341919,0.004207453785265024,-0.002211182189484592,0.010407083151385652,0.005016263108700514,0.005245757754892111,0.0021759963128715754,-0.12840832751244308,-0.2988568016700447,-9.80891007900238
14.09,1.600000023841858,173.0,24.97715950012207,0.22264966368675232,-79.7827768128804,40.45899419236089,266.86973798251154,0.00694211944937706,0.015435548499226568,-0.745509922504425,0.6662796139717102,0.003255464559483132,-0.002367892271760366,0.01093300906036628,0.0005156203405931592,-0.0024419152177870274,-0.0009395387023687364,-0.1279553327523172,-0.3161498140543699,-9.808301383852957
14.3,1.600000023841858,174.0,24.979663848876953,0.2624085247516632,-79.78277688648569,40.45899426000877,266.87239760136606,0.00694860378280282,0.015442355535924438,-0.7455171346664429,0.6662713885307312,0.006540433105867593,-0.00017451562281055322,0.0097175540965679,0.0007106927805580199,0.0007286568288691343,0.006137237884104253,-0.14178714064881207,-0.2997470950707793,-9.805238027572633
14.4,1.600000023841858,172.0,24.95712661743164,0.2942156493663788,-79.78277698169907,40.45899433116657,266.8734982607365,0.006937712896615267,0.015461745671927929,-0.7455323338508606,0.6662540435791016,0.009884750894799241,6.756303021169998e-05,0.007517306563139418,-0.0006095661083236338,0.0028412081301212306,-0.005829623434692621,-0.14662309862673284,-0.3015125887468457,-9.807542999982834
14.6,1.600000023841858,170.0,24.95462226867676,0.3657816052436829,-79.78277698314511,40.45899431271595,266.87504276609417,0.0069187581539154035,0.015445150434970856,-0.7455486059188843,0.6662363409996033,0.010477963864978028,0.0014457262786403474,0.008822661475081196,-0.0011708081001415849,-0.00571078434586525,-0.0032051780726760626,-0.13439263296313586,-0.30493949566036466,-9.808848683238027
14.7,1.600000023841858,170.0,23.221784591674805,10.138511657714844,-79.7827770571443,40.45899440163113,266.87505981302263,0.0069090216420590895,0.015423131175339222,-0.7455635070800781,0.6662203073501587,0.011037351373649442,0.005875456644312457,0.006852860511432446,0.008205221965909004,-0.005252317525446415,0.004163876175880432,-0.12792278934270146,-0.3037821306847036,-9.812453491687776
14.89,1.600000023841858,169.0,24.90829658508301,0.2544567584991455,-79.78277715914422,40.45899450112978,266.8749128279686,0.006923054810613394,0.015660086646676064,-0.7456323504447937,0.6661375761032104,0.003643345051594498,0.0016812702355422145,0.004382762059858009,0.007410208694636822,-0.014369409531354902,-0.003641506657004357,-0.11761965732090175,-0.336854256503284,-9.809078478813172
15.0,1.600000023841858,167.0,24.967144012451172,0.14313192665576935,-79.78277715798437,40.458994498057855,266.8753569123745,0.0069513628259301186,0.015630405396223068,-0.7456122040748596,0.6661605834960938,0.002667951155543434,0.0004504223807759418,0.005018663634463285,-0.003488622605800629,0.005956631153821945,0.011281829327344894,-0.15702229857444766,-0.3007489058375359,-9.811892158985136
15.19,1.7000000476837158,167.0,24.70546531677246,0.8826469182968141,-79.78277725769958,40.45899457492232,266.8728979227543,0.006920952815562487,0.015767177566885948,-0.7456157803535461,0.666153609752655,0.005954426839864125,-0.0003952075207590451,0.0008355523994282816,0.019207196310162544,0.023326657712459564,0.042965259402990334,-0.12080939568579198,-0.28866048183292153,-9.823392462730407
15.29,1.7999999523162842,169.0,24.905792236328125,0.2624085247516632,-79.78277725700724,40.45899457109113,266.87306946492197,0.006909716408699751,0.015696855261921886,-0.7456270456314087,0.6661427617073059,0.004131680365399775,0.00206577951098934,0.002837387306137216,-0.0007182277622632682,-0.027771024033427242,-0.00834620650857687,-0.16411714559420945,-0.31561274729669103,-9.793408525586127
15.49,1.7999999523162842,170.0,24.94084930419922,0.44529932737350464,-79.78277734629171,40.458994630595946,266.8710996208191,0.006927323061972857,0.015620564110577106,-0.74562007188797,0.6661521792411804,0.011206407256141032,0.000983789027154059,0.002490872038777721,0.021251492202281952,0.02716370671987534,-0.033262599259614944,-0.15293343203142287,-0.3198229618370533,-9.810583552122118
15.59,1.8999999761581416,170.0,24.699203491210927,3.021674156188965,-79.78277734709756,40.45899462236031,266.8713525233269,0.006939192768186332,0.015565069392323494,-0.7456511855125427,0.6661185026168823,0.00747422483254613,0.002521119950694725,0.0030392782745008807,-0.008847038261592388,-0.012146517634391785,0.007577842101454735,-0.10382945601828396,-0.2802698187343776,-9.798621318340302
15.8,1.8999999761581416,169.0,24.276010513305664,4.92214822769165,-79.78277744547005,40.45899470308279,266.8683102426529,0.006884045898914336,0.015587066300213337,-0.7456768751144409,0.6660898327827454,0.007084730566770205,0.002678166024365034,0.003342088261496071,-0.01383593399077654,-0.0056416820734739295,-0.015689726918935776,-0.15504175527021288,-0.29885294616222385,-9.799805379509928
15.89,1.8999999761581416,169.0,24.18085479736328,6.242142677307129,-79.78277754601059,40.458994810524274,266.86198142147066,0.006875094957649708,0.015699567273259163,-0.745716392993927,0.6660431027412415,0.002446873022937803,-0.001898266043794785,-0.002486120165737075,0.024730591103434563,0.02536412701010704,0.016442319378256798,-0.12199564042501153,-0.3708738322556019,-9.818075004816057
16.09,1.8999999761581416,169.0,23.885372161865234,8.651530265808105,-79.78277754794273,40.45899480525375,266.86172020411493,0.006910192780196668,0.01585296168923378,-0.7458059191703796,0.6659387946128845,0.0018989286454153245,0.00031196130727388166,0.0002041508988790151,0.03202766552567482,0.036429766565561295,-0.03563156723976135,-0.1877030410990119,-0.2966623233631253,-9.773652538061144
16.2,1.8999999761581416,170.0,23.69756317138672,9.868151664733887,-79.78277762312881,40.45899490564154,266.8584129509926,0.006930339615792036,0.01593579351902008,-0.7458270788192749,0.6659128665924072,-0.00747204687517747,0.006216958019092425,0.00038685156967874847,-0.08872488141059875,-0.09904565662145616,0.06418092548847197,-0.13706769757904114,-0.3089506855979562,-9.797601563930511
16.4,1.8999999761581416,168.0,23.34573745727539,12.651272773742676,-79.78277768081381,40.45899495782404,266.8554244337082,0.007458286825567485,0.016614815220236778,-0.7458192110061646,0.665899395942688,-0.004365654034934337,0.005914024976487372,0.004259577098938655,-0.07609984278678894,0.009534728713333608,0.022585857659578323,-0.11491147371008993,-0.2673920937068761,-9.858338931798936
16.5,1.8999999761581416,167.0,23.185474395751953,14.543794631958008,-79.78277767581946,40.45899494627546,266.855832457304,0.008169731125235558,0.01701946370303631,-0.7458947896957397,0.6657962799072266,0.011915401047102871,0.005179741755551271,0.005607803965518914,0.022798739373683933,-0.04031510651111603,0.04908888787031174,-0.2328866874240339,-0.25641166225075723,-9.774957051873207
16.7,2.0,167.0,22.847421646118164,17.366674423217773,-79.78277780042025,40.458995017415816,266.8496651647091,0.01005873829126358,0.017529482021927834,-0.7460711598396301,0.6655594706535339,0.012428783858750552,-0.0034133645930691115,0.007345809219131653,0.051031891256570816,0.03386954590678215,0.045396964997053146,-0.09348322818987073,-0.34495772995054724,-9.833292968273165
16.79,1.8999999761581416,168.0,22.72096443176269,19.23534202575684,-79.78277780912462,40.458995009225,266.8507887122631,0.01140862237662077,0.017209332436323166,-0.7460606694221497,0.665557861328125,0.0008549175497702447,-0.008716049588471051,0.014822760939052156,-0.0601881593465805,0.05043535307049751,-0.0012464047176763413,-0.12160065187141303,-0.21132290527224545,-9.849088636636736
17.0,1.8999999761581416,167.0,22.32155990600586,22.2331600189209,-79.78277790416179,40.45899505178055,266.84216499304773,0.013338719494640829,0.01615169085562229,-0.746116042137146,0.6654863953590393,-0.000374728512933365,0.005364431972749172,0.012484756573859451,-0.2057118117809296,-0.02744725905358792,-0.026926787570118904,-0.09393485250882803,-0.6479107437282801,-9.844230769872668
17.1,2.0,164.0,22.17882537841797,24.157489776611328,-79.78277790263759,40.45899503869681,266.84325218176843,0.01286597829312086,0.015149010345339775,-0.7460882067680359,0.6655504703521729,-0.009153975872809595,0.014824379590698104,0.014468539219023175,-0.2237090021371841,-0.013839124701917171,-0.052948400378227234,-0.09388507808558644,-0.2703319823741913,-9.797864688634874
17.29,1.8999999761581416,163.0,21.868318557739254,27.25868034362793,-79.78277789621363,40.45899513141795,266.84232276654245,0.0029809139668941498,0.01295890286564827,-0.7459585666656494,0.6658596992492676,-0.0005778039774211065,0.04367964281052393,0.08459551275856207,-0.16077785193920135,-0.12435731291770935,0.0020813175942748785,0.08395665208809078,-0.22586313989013435,-9.93954038500786
17.4,2.0,162.0,21.68927383422852,29.33409309387207,-79.78277797501953,40.458995152780815,266.83766812062265,-0.003942309413105249,0.010026155039668085,-0.7461421489715576,0.6656995415687561,0.003189963454957517,0.04047755870864285,0.15643535496758718,-0.006296335719525814,0.037784703075885766,0.08857081085443498,-0.031037251374218613,-0.1935785243846476,-10.673815015554428
17.59,1.8999999761581416,160.0,22.071149826049805,23.855321884155273,-79.78277780708436,40.45899514492305,266.89239102578165,-0.00974909495562315,0.0036039571277797218,-0.7470842599868774,0.664648175239563,-0.00650814577511551,0.07110776310249023,0.3684745756381996,0.14730863273143768,0.1469535529613495,0.04548145830631256,-0.2384009406901896,-0.1347051575034857,-10.961414995193485
17.7,1.8999999761581416,162.0,22.13249969482422,23.12375831604004,-79.7827774142167,40.45899532395524,266.9534295794964,-0.0035689917858690023,-0.009582209400832651,-0.7482993006706238,0.663282573223114,-0.07684718997517892,0.10619302864974883,0.39906130208647306,-0.05334305763244629,0.14966179430484772,-0.05052997171878815,-0.10617514880374077,0.06092782264575361,-10.363568769693376
17.9,2.0,161.0,22.099946975708008,23.5849609375,-79.78277707254449,40.458995574702655,266.95803263759615,0.0008466456783935428,-0.010131184011697773,-0.7485973238945007,0.6629470586776733,-0.09104421608970592,0.11869278380240995,0.3377402256450662,0.19392918050289154,-0.07817872613668443,0.024459287524223328,-0.03095088845584542,0.15859708165749908,-9.994712373018263
17.99,2.0,161.0,22.16254997253418,22.948820114135746,-79.78277692714727,40.4589956693092,266.99078407859804,0.0045477706007659435,-0.005893021821975708,-0.7486278414726257,0.6629487872123718,-0.09548388177531976,0.11737706747016033,0.3124117398219681,0.3530590832233429,-0.08279779553413391,0.1036866158246994,0.18367191581055525,-0.20469453815370806,-9.633695923089979
18.2,2.0999999046325684,162.0,21.940937042236328,24.952667236328125,-79.78277678108492,40.45899619814971,267.0123598275185,0.010362015105783941,0.002231433521956205,-0.7477524876594543,0.6638929843902588,-0.1782409330083856,0.10525946896178348,0.19313913582282413,-0.0013811781536787748,0.055447109043598175,-0.06575080752372743,0.10458865301683544,-0.26714373322203755,-9.457360855937004
18.3,2.0999999046325684,164.0,21.85329246520996,27.10759735107422,-79.7827766380752,40.458996344707934,267.0314247903824,0.011001916602253914,0.0025857649743556976,-0.7471710443496704,0.6645358204841614,-0.19118248124697848,0.1018653383681127,0.18725672212578176,-0.11786703020334245,0.0636511966586113,-0.15873701870441434,-0.03520387446507812,-0.05797238403931261,-9.653823793530464
18.49,2.200000047683716,162.0,21.885847091674805,25.30254554748535,-79.7827764723754,40.45899668688879,267.0727904138565,0.009804612956941128,-0.0002225099306087941,-0.7447060346603394,0.6673206090927124,-0.1680194255098231,0.08134423753398831,0.2327059437500961,0.10091806203126907,-0.015161264687776566,-0.04862738028168678,0.012765362556092442,-0.2935313951969147,-9.805857247710227
18.6,2.200000047683716,163.0,21.71932411193848,27.51313781738281,-79.78277636907579,40.45899682801815,267.096988111496,0.015614987351000309,7.578926306450741e-05,-0.7430463433265686,0.6690577864646912,-0.15259346356487713,0.06204263571543923,0.2406466875672863,0.2418270260095597,0.09820584952831267,0.05056948959827423,0.05377158442977816,-0.1341771356575191,-9.926234461069107
18.8,2.299999952316284,160.0,21.80696678161621,25.859169006347656,-79.78277625738156,40.458997058887135,267.1464898285866,0.0286394227296114,0.00394557835534215,-0.7420400977134705,0.669731855392456,-0.14532372421712164,0.06446312862888848,0.2901490859025244,-0.10602271556854248,-0.021588923409581184,-0.12305034697055815,0.13508593001402916,-0.2766483457200229,-10.060960156917572
18.89,2.299999952316284,160.0,21.716819763183594,26.73386383056641,-79.78277625998517,40.45899728314798,267.1698864994049,0.025510476902127262,0.006474857218563557,-0.7429425716400146,0.6688376069068909,-0.10708200564178287,0.04272660606826272,0.28936879714219305,0.1068098172545433,-0.15301984548568726,0.10869485139846803,0.18033306431025267,-0.4977507739886642,-9.934784259796142
19.09,2.299999952316284,160.0,21.791942596435547,25.7876033782959,-79.78277620799356,40.45899743117911,267.23164144134523,0.019664468243718147,0.0076909465715289125,-0.7449797987937927,0.6667528748512268,-0.08990471301868176,0.01111348025162505,0.3233216617018577,-0.19162946939468384,-0.0467524528503418,-0.0861734002828598,0.13142990360967816,-0.07057335304096342,-9.891075153350833
19.21,2.4000000953674316,161.0,22.52439308166504,15.05270767211914,-79.78277611347131,40.45899742986617,267.248021214962,0.017432508990168568,0.0067691621370613575,-0.7460827827453613,0.6655906438827515,-0.018059850119377784,0.008196349262997716,0.3311653649686871,0.1633555144071579,-0.10793447494506836,0.16241374611854553,0.1688563321530819,-0.5939306375384331,-10.021976770162583
19.4,2.4000000953674316,158.0,21.73810386657715,26.360130310058594,-79.78277616046637,40.458997676007314,267.3173403439522,0.01156431157141924,0.005639296490699053,-0.7473379969596863,0.6643195748329163,-0.020112920860752444,0.0001820893852337406,0.21108905036358147,-0.06483929604291916,-0.04843796044588089,0.05205753818154335,0.08040838804095984,-0.14398154586553574,-9.445254195928577
19.5,2.5,158.0,21.41883087158203,30.176982879638672,-79.7827761500513,40.45899770662943,267.33518132543566,-0.001174725010059774,0.0012649019481614232,-0.7478747367858887,0.663837730884552,-0.03720905036900852,-0.0010700896875096638,0.1568496724373044,-0.1579383760690689,-0.01872376725077629,0.011113878339529036,0.008249893665779379,-0.22966240480542185,-9.27570423781872
19.69,2.5,158.0,21.14463233947754,32.20468521118164,-79.78277607971137,40.45899811324075,267.3957124052048,-0.007561743259429932,-0.0020372495055198674,-0.7474304437637329,0.6642940044403076,-0.08229893844016233,0.005493747066108633,0.3140594029969977,0.0795268565416336,0.029943205416202545,0.03084342181682587,-0.07879624673165381,0.07015863927081227,-9.828959012031556
19.8,2.5,159.0,21.04446792602539,34.48684310913086,-79.78277604895067,40.45899820275443,267.4326842722893,0.0010783614125102758,0.0011527487076818945,-0.7471134662628174,0.6646946668624878,-0.10378583820949812,0.008333583841535472,0.4328856489704068,0.2754025459289551,0.2165791243314743,0.011547350324690342,-0.09748014726676048,-0.1271264625247568,-10.84988403439522
19.99,2.5,159.0,20.8917179107666,36.36346054077149,-79.78277607461102,40.458998492797335,267.5452324447632,0.017782595008611686,0.01098222564905882,-0.746444046497345,0.6651198863983154,-0.1274303323625028,0.017597176310754505,0.7071099181707383,0.09435785561800004,0.02424522861838341,-0.10735639929771423,0.11606903968378902,-0.21953880971297626,-11.128715529441834
20.1,2.5999999046325684,159.0,20.514850616455078,40.20417022705078,-79.78277603370717,40.45899858723264,267.62439170455934,0.01924853213131428,0.013269135728478432,-0.7467138171195984,0.6647345423698425,-0.1386182643266345,0.029962238380309886,0.8715595072975241,-0.05130992829799652,-0.07148808240890503,-0.08671487867832184,0.13398251473903658,-0.28948831966146826,-11.382400488853454
20.29,2.700000047683716,160.0,20.572444915771484,38.93983840942383,-79.7827759883252,40.458998829560045,267.82998099899294,0.007285226602107286,0.006232640240341425,-0.7484911680221558,0.6630754470825195,-0.13547914732493746,0.03935256820471784,1.2776697684465828,-0.1499897837638855,0.007571986410766841,0.02622335217893124,0.14438100205734372,-0.39359187304973603,-11.756021196842196
20.4,2.700000047683716,160.0,20.526119232177734,39.84634017944336,-79.7827760033298,40.45899890468617,267.960065990448,0.002490086480975151,0.0031738015823066235,-0.7495335936546326,0.6619540452957153,-0.12178060341963726,0.036814042827208585,1.4781270532015496,-0.03601476922631264,-0.007429715711623429,0.1805848628282547,0.10174145185388624,-0.3586688293889165,-12.007367269992828
20.49,2.799999952316284,161.0,20.370864868164066,40.84826278686523,-79.78277594310207,40.45899899427178,268.1192803678513,0.0004292141238693148,0.0011326506501063704,-0.7500935196876526,0.6613307595252991,-0.13099443478848247,0.03873701208893154,1.7019989471084656,-0.06349880993366241,-0.04031280800700189,0.02391649037599564,0.03162642002105713,-0.2518498473241925,-12.005202630758285
20.69,2.799999952316284,162.0,20.453500747680664,39.48851013183594,-79.78277578763552,40.45899926701517,268.4870382843018,-0.00219457782804966,-0.003372801700606942,-0.7511083483695984,0.6601667404174805,-0.17293153099615702,0.05495029966412408,2.1331417405417548,0.10548834502696992,-0.03299138695001602,0.051804911345243454,0.12794025789946314,-0.30236432706937194,-12.074671061038973
20.89,2.9000000953674316,163.0,20.35083198547364,40.47452926635742,-79.78277545464422,40.45899956945583,268.9222976264954,0.01248997449874878,0.013936848379671574,-0.7509862184524536,0.6600526571273804,-0.20485633994067048,0.08830981924873499,2.503898523673338,0.3121522665023804,-0.007340230513364077,0.04017874598503113,0.09738893983885646,-0.04425464252941312,-11.870421971082687
21.0,3.0,165.0,20.320783615112305,40.99934768676758,-79.78277531967227,40.458999705057,269.1824175415039,0.025504987686872482,0.02780195139348507,-0.7504585385322571,0.659839928150177,-0.2362267560507867,0.08926683981149862,2.6913315408814347,0.4182662963867188,-0.009661304764449595,0.005990470293909311,0.0493480744259432,-0.2887374092638493,-11.779638100862506
21.09,3.0999999046325684,165.0,20.31577491760254,40.59380722045898,-79.78277518011751,40.45899978709402,269.46173587417604,0.03812742978334427,0.03778889775276184,-0.7496378421783447,0.6596676707267761,-0.28848554063971205,0.08676380794419687,2.8744237565062503,0.19918915629386905,0.02931128814816475,-0.030468426644802094,-0.04257542269304395,-0.275276059024036,-11.682083154916766
21.29,3.0999999046325684,165.0,20.52737045288086,36.4429817199707,-79.78277462810138,40.45899969293836,270.01602640724184,0.04517444968223572,0.031167075037956238,-0.7485811710357666,0.6607679128646851,-0.279722396383551,0.14771042857654249,3.15794231774962,-0.3263235092163086,0.08870366215705873,0.03993383049964905,0.05347629547119141,-0.4611579482629896,-11.431913541555405
21.4,3.2000000476837163,166.0,20.787797927856445,34.23238754272461,-79.7827741066218,40.45899948723039,270.27288404083254,0.035113275051116936,0.014877674169838428,-0.7482292056083679,0.6623435020446777,-0.1903640346284257,0.20092495483137413,3.2334979796505863,-0.3827202618122101,0.0736379399895668,-0.0191927831619978,0.17054148143157366,-0.5562997848540545,-11.172377858161926
21.59,3.299999952316284,166.0,21.09705352783203,29.83505630493164,-79.78277381937157,40.458999110796725,270.9379135665894,0.011681551113724709,-0.008245997130870819,-0.7457714676856995,0.6660484671592712,0.11028146270967616,0.23387030156030936,3.3850995482442587,-0.13557232916355133,-0.16412919759750366,-0.05626486986875534,0.21285973627120253,-0.2108691978827119,-10.486044548749923
21.69,3.4000000953674316,171.0,21.07827377319336,30.495052337646484,-79.78277324935725,40.4589988051521,271.2259718475342,0.00778158800676465,-0.009481050074100494,-0.7447440028190613,0.6672375798225403,0.15914718616594867,0.2405553971125791,3.3648091757839595,-0.16885417699813846,-0.043405458331108086,-0.16667982935905454,0.09765698899514974,0.04897423177957535,-10.054800699949263
21.9,3.4000000953674316,171.0,21.37375831604004,29.039878845214844,-79.78277257455898,40.45899846434431,271.8818832931519,0.01012349035590887,-0.0034943954087793827,-0.7437639236450195,0.6683565974235535,0.14184753152481058,0.21117083422107166,3.3120884219827014,0.03515427187085152,-0.07578665763139725,-0.06795886904001236,0.05874085435643792,-0.2940937328897417,-9.613268675208092
22.0,3.4000000953674316,172.0,21.284862518310547,28.05385780334473,-79.78277243614265,40.458998319930465,272.2107497749329,0.013289588503539562,0.00044593476923182607,-0.7435170412063599,0.6685847640037537,0.11568636657249412,0.18762711515872665,3.2585062392589816,0.18446311354637146,-0.06891234219074249,0.15525297820568085,0.15931563137099147,-0.4495239990949631,-9.436571665406227
22.2,3.4000000953674316,172.0,21.336196899414066,26.25675773620605,-79.78277194345333,40.458998052907965,272.8139182624817,0.0161213930696249,0.002089631510898471,-0.7435889840126038,0.6684393286705017,0.05861529251749294,0.178745663208808,3.1392654983938786,0.03904116898775101,-0.07387307286262512,0.0317939966917038,0.1595781896263361,-0.4527346686646342,-9.505956480503082
22.29,3.4000000953674316,173.0,21.29112243652344,28.41168785095215,-79.78277181823834,40.45899792527137,273.1267186698914,0.01694292202591896,0.0010901878122240305,-0.7441710829734802,0.6677733659744263,0.04610551620468863,0.1720569147549286,3.107937882969632,-0.005626691970974207,0.13471581041812894,0.004521436057984829,0.1507652296498418,-0.08024395337328315,-9.405149313211444
22.49,3.4000000953674316,175.0,21.22225952148437,28.96831321716309,-79.78277166812163,40.45899776996704,273.7066642341614,0.013997796922922134,-0.0060809901915490645,-0.7452217936515808,0.6666420102119446,0.0586741419201676,0.1502108122538431,2.9451119437308164,0.05836503952741622,-0.05260865390300752,0.09868571907281876,0.247441960349679,-0.41955617833882575,-9.364288385510443
22.69,3.299999952316284,176.0,21.23728370666504,28.32421875,-79.7827714615347,40.458997637444774,274.47773137664797,0.009666590951383114,-0.010121208615601065,-0.7469221949577332,0.6647642254829407,0.07098558004712309,0.15121741149958884,2.9673439100676267,-0.08964969217777252,-0.08323990553617477,-0.05378444865345955,0.2212728380598128,-0.035862727761268615,-9.335873841047286
22.79,3.299999952316284,177.0,21.24855232238769,28.419639587402344,-79.78277140608267,40.45899755153711,274.77252927398683,0.00846429169178009,-0.007817092351615429,-0.7481312751770021,0.6634507179260254,0.09583760165963,0.13145437206451194,2.923750376074357,0.17028653621673584,-0.059938520193099976,0.1423662006855011,0.22843662740662696,-0.3409158786758781,-9.441234235167503
22.89,3.2000000476837163,180.0,21.08077812194824,30.0736083984375,-79.78277084158195,40.45899719669496,275.1764122543335,0.008233658038079739,-0.006105648353695869,-0.7495301961898804,0.6618908047676086,0.06290531953232363,0.1392670418083026,2.9580047732592787,-0.09198257327079773,0.1124868467450142,-0.053526278585195534,0.031798364706337456,0.08428987942636014,-9.455303805470466
23.09,3.2000000476837163,180.0,21.239788055419922,29.1193962097168,-79.78277070942055,40.458997076016495,275.76520696258547,0.008649143390357494,-0.009431061334908009,-0.7512488961219788,0.6598950028419495,0.026047614333553026,0.12175808083327096,2.9273436785952454,-0.07054074853658676,0.13454154133796692,-0.04479168727993965,0.1001853798609227,0.05370302125811577,-9.575838893651964
23.2,3.0999999046325684,180.0,21.158405303955078,28.90469741821289,-79.78277063422341,40.458996846575296,276.15301099395754,0.009840347804129124,-0.011245512403547764,-0.7513447403907776,0.6597407460212708,0.043952039585533065,0.12078422254270332,2.9580294297519187,0.04123508557677269,-0.02587856911122799,0.03626253828406334,0.20516463601961726,-0.4125597289949656,-9.665830466151238
23.4,3.0999999046325684,181.0,21.13837242126465,28.992168426513672,-79.78277033982961,40.45899659853507,276.8218094406128,0.015194216743111609,-0.010116556659340858,-0.7512845396995544,0.6597259640693665,0.01917994229718288,0.11828330619156385,2.9560258794768624,0.18306244909763336,-0.10883091390132904,0.14006344974040985,0.2519363678433001,-0.4335892400890589,-9.543004438877107
23.6,3.0999999046325684,184.0,21.108322143554688,29.397708892822266,-79.78277030999544,40.45899657363008,277.40531888580324,0.014968317002058031,-0.0011607382912188768,-0.7497282028198242,0.6615755558013916,-0.038250216736515325,0.09589665610685937,2.854564001165388,0.12259374558925627,-0.11094579100608826,0.08993630111217499,0.16398600351065398,-0.07091261945664883,-9.344999005794524
23.69,3.0999999046325684,185.0,20.948060989379886,31.767335891723643,-79.7827700594896,40.458996409388014,277.7593885955811,0.009638144634664059,0.0014901587273925545,-0.7486175894737244,0.6629303097724915,-0.07048168466846129,0.06756675499958201,2.844995057854811,-0.14254717528820038,-0.14711639285087585,-0.12358050048351288,0.11918755165301265,-0.2851055939868093,-9.17709503889084
23.79,3.2000000476837163,188.0,20.91175079345703,31.194808959960927,-79.78277005573986,40.45899641824254,278.04111829376217,0.003824497340247035,0.0009515198180451988,-0.7478041648864746,0.6639077663421631,-0.052153057615249916,0.029007580615656232,2.7922913674564374,-0.01252705417573452,-0.005783208180218935,0.01319438684731722,0.17835780177265406,-0.2403517180122436,-9.302835903167725
24.0,3.2000000476837163,190.0,20.732707977294922,33.34178924560547,-79.78276991557654,40.45899651482011,278.6631571350098,0.0055487449280917645,-0.004646471235901117,-0.7467793226242065,0.6650325655937195,-0.011699471973353942,0.0277578754044905,2.7941653502053287,0.24104757606983185,0.15631525218486786,0.18749263882637024,0.18548278022557504,-0.24779767205938705,-9.559118195772172
24.09,3.299999952316284,190.0,20.941801071166992,31.29022979736328,-79.78276989033678,40.458996539731004,278.94241109466554,0.011800190433859823,-0.0063700550235807896,-0.7463945150375366,0.6653686165809631,-0.0486034596789911,0.06503637687081935,2.7909886967570987,-0.027177568525075912,0.041500858962535865,-0.02544994466006756,0.278199429307133,-0.1536769055016339,-9.710810172557832
24.29,3.299999952316284,194.0,20.797813415527344,32.31600952148437,-79.78276997278533,40.458996677878055,279.5735985336304,0.013237337581813335,-0.010444038547575474,-0.7468584775924683,0.6647692322731018,-0.06750052860173306,0.09819313963380552,2.8200652054790245,0.17366600036621094,-0.08430910110473633,0.15041354298591614,0.4489056560397148,-0.4802066785097122,-9.697353975176812
24.5,3.299999952316284,198.0,20.774024963378906,32.363719940185554,-79.78276995283498,40.45899696655704,280.2013203201294,0.011592556722462177,-0.006781888660043478,-0.7485424876213074,0.6629508137702942,-0.10309648047581307,0.06482754535291219,2.8883060325554126,0.0316043347120285,0.04150249436497688,0.01891294680535793,0.3214215905964375,-0.030369529039599007,-9.717290056943892
24.6,3.299999952316284,201.0,20.77652931213379,33.03961944580078,-79.78276995647089,40.458997049990735,280.4910399017334,0.01359576266258955,-0.007741230074316262,-0.7491276264190674,0.6622409224510193,-0.1221392725157992,0.06312095170770002,2.905660948751508,0.015469576232135298,-0.019473537802696228,0.07783914357423782,0.3046087077073753,-0.29841433189809324,-9.96382153272629
24.69,3.299999952316284,204.0,20.78404235839844,30.94830322265625,-79.78277001325594,40.458996971400296,280.8181816635132,0.017275702208280563,-0.0070240432396531105,-0.7492581009864807,0.6620156168937683,-0.11067842135181197,0.06826158455201581,2.9596682534301983,0.07248713076114655,0.10383167862892152,-0.0300421342253685,0.31789396539330483,-0.08154885090887548,-9.96278423666954
24.9,3.299999952316284,210.0,20.747732162475586,31.98998641967773,-79.78277016495097,40.45899731472393,281.4050833282471,0.019365672022104263,-0.002844664268195629,-0.7486964464187622,0.6626240015029907,-0.16046349021621592,0.05261372315584988,2.959486692055331,0.09342943876981737,-0.04667392000555992,0.008789986371994019,0.3084691308438778,-0.4270619201660156,-9.864933421611788
25.09,3.2000000476837163,215.0,20.880449295043945,29.66011619567871,-79.78277023435065,40.45899749780067,282.0001818237305,0.017179014161229134,-0.008217478170990944,-0.7472966909408569,0.6642176508903503,-0.16973649669360152,0.05328485173065085,2.992457583276809,-0.1211160123348236,0.06940153986215591,-0.039363641291856766,0.2269210473820568,-0.08099199498072268,-9.896659244298936
25.19,3.2000000476837163,216.0,20.74648094177246,31.91046905517578,-79.78277007642455,40.45899788340342,282.28107610321047,0.014411387965083122,-0.012027664110064508,-0.7464567422866821,0.6651691794395447,-0.1694716045386371,0.056239502986414634,2.982236101330652,0.05031689628958702,0.03161870688199997,0.04230677336454392,0.4083548500388861,-0.3199847104400397,-9.894425607919693
25.29,3.2000000476837163,216.0,20.71017074584961,32.896488189697266,-79.78277011234502,40.45899801509261,282.5795103607178,0.014572299085557459,-0.013704809360206129,-0.7456910014152527,0.6659915447235107,-0.17424925383755122,0.0651755955230374,2.981258860632692,-0.1611528843641281,-0.04113413020968437,-0.07473534345626831,0.2601323734782636,-0.04465655637905002,-9.753286685943603
25.49,3.2000000476837163,216.0,20.824108123779297,30.868785858154297,-79.78277020505196,40.45899842430888,283.1614195404053,0.02192101068794728,-0.007242874242365359,-0.7453203201293945,0.6663068532943726,-0.1853528742916,0.05939532906056087,2.9568735219095297,0.15703466534614566,-0.1355425864458084,0.03658090159296989,0.4041847985610366,-0.3522152209281921,-9.776882539987565
25.59,3.0999999046325684,217.0,20.72394371032715,32.244441986083984,-79.78277026894297,40.45899856572003,283.45673432922365,0.022595670074224472,-0.0012084225891157985,-0.7460234761238098,0.6655350923538208,-0.22425044217190115,0.050602736244675664,2.9395376272083737,-0.0389009602367878,-0.10776327550411224,-0.05431707575917244,0.2639570372365415,-0.14707119634374974,-9.60863768041134
25.8,3.2000000476837163,218.0,20.562429428100586,33.278175354003906,-79.7827704369883,40.45899901005439,284.0237700042725,0.017597170546650887,0.003010009648278356,-0.7479942440986633,0.663465142250061,-0.24036444827181305,-0.0020755772809220733,2.9180554827564618,-0.05672016367316246,-0.07650594413280487,0.030929494649171836,0.3292775075510144,-0.2801012179255485,-9.943659163713457
25.89,3.2000000476837163,217.0,20.54364776611328,33.818893432617195,-79.78277050202756,40.45899915637375,284.3023745117188,0.012711097486317158,0.0001230033376486972,-0.7493929862976074,0.6620034575462341,-0.21567890709744672,-0.0030157986623240147,2.945670565028118,-0.09203866124153136,-0.09973651170730592,-0.040750205516815186,0.3618627978488803,-0.09348982458002866,-10.077261024713515
26.09,3.2000000476837163,218.0,20.47102928161621,35.06732177734375,-79.78277058678809,40.45899937598833,284.8990675506592,0.015123176388442516,-0.0018543995684012766,-0.750092089176178,0.6611578464508057,-0.14758547660216198,0.014746013378673622,3.0053910218445403,0.05026638880372048,0.03372364863753319,-0.08619774878025055,0.2402431607991457,0.03137251610169186,-10.007399661540983
26.19,3.2000000476837163,222.0,20.74272346496582,30.67794418334961,-79.78277064264203,40.45899946052671,285.1911474761963,0.020287176594138145,-0.001783460145816207,-0.7497782707214355,0.6613757610321045,-0.15195454424527147,0.022143964474477786,3.0218050224375563,-0.04568615555763245,0.0912785455584526,-0.021444732323288918,0.2352189407497645,-0.16795081771910192,-10.049416583776477
26.4,3.299999952316284,224.0,20.78529357910156,31.36179542541504,-79.78277070993494,40.45899971555243,285.78117242431637,0.02213211171329021,-0.003456729231402278,-0.7485278248786926,0.6627249717712402,-0.13303233677469106,0.06333946819842781,3.0284419725495293,0.10290602594614028,-0.02276169881224633,0.08862612396478653,0.3887808571010829,-0.2403790537454188,-10.007068709135057
26.5,3.0999999046325684,228.0,20.73020362854004,31.457218170166016,-79.78277074062574,40.458999763195465,286.08476319885256,0.02234230749309063,-0.0021239714697003365,-0.7475638389587402,0.6638107299804688,-0.12757145814002624,0.07449129637675182,3.034528175443726,0.009305906482040882,-0.02025444805622101,-0.013027627021074295,0.3470907211303711,-0.10308518769219516,-9.864473830461504
26.7,3.0999999046325684,228.0,20.532379150390625,33.214561462402344,-79.78277078902238,40.45899994517399,286.67464700317385,0.019127996638417244,-0.0022396566346287727,-0.7463384866714478,0.6652879118919373,-0.10719369699324864,0.05636964468344021,3.026057017432452,0.09911443293094636,-0.0022973616141825914,0.04470689222216606,0.34997274063527584,-0.3721404122561217,-10.008629915714264
26.9,3.0999999046325684,231.0,20.671358108520508,30.924448013305664,-79.78277078431412,40.45900004575905,287.27087274169924,0.018403423950076103,-0.005166095215827228,-0.7458769679069519,0.6658095121383667,-0.0810071925382217,0.07725849804297806,3.082770699541518,-0.06574125587940216,0.0683121457695961,-0.06712021678686142,0.2923569088429213,-0.057981995400041335,-10.080157735347747
26.99,3.0999999046325684,232.0,20.902986526489254,28.56277275085449,-79.78277080868811,40.4590000535583,287.5812021789551,0.02115998975932598,-0.005648762919008732,-0.7464312314987183,0.6651020646095276,-0.060294415506994214,0.07411773710201919,3.1160154629258354,0.09262359142303468,0.0556030422449112,0.06345020234584807,0.3792574969679117,-0.1335963700991124,-10.117485190629962
27.1,3.0999999046325684,234.0,20.9555721282959,27.87891960144043,-79.78277083630309,40.459000054082715,287.8927961883545,0.02342516183853149,-0.005170687101781368,-0.7478275895118713,0.6634594798088074,-0.0678029815815086,0.09046442577713516,3.101059464671665,0.05558190494775772,-0.06620614230632782,0.09807469695806503,0.3946486841887236,-0.3004565085098148,-9.753391351103783
27.29,3.0,235.0,20.698902130126953,31.051677703857425,-79.78277087653055,40.459000060596935,288.48025193786617,0.019831018522381786,-0.0012586480006575589,-0.7495743036270142,0.6616219878196716,-0.04362097727046217,0.07685628786819408,2.9893436655750034,0.15615791082382202,-0.034323293715715415,0.14337916672229767,0.37168491415679455,-0.3436166710406542,-9.52612937450409
27.4,3.0,236.0,20.47854232788086,34.04154586791992,-79.78277082729205,40.459000118859954,288.7822557983398,0.018897052854299545,-2.292658791702707e-05,-0.7492873072624207,0.6619755029678345,-0.049914258038359034,0.06883467391261137,2.992957338291094,-0.045452672988176346,-0.07476527243852615,-0.04822234064340592,0.32512686152011155,-0.2567231543920934,-9.69070569097996
27.6,2.9000000953674316,236.0,20.861669540405273,29.453371047973643,-79.78277086422024,40.459000035333396,289.3834139404297,0.018901694566011432,0.0009209344279952347,-0.7477609515190125,0.6636983752250671,-0.026259876847681208,0.07251067402666506,3.0160183724356373,0.007055556401610375,0.06307584792375565,-0.017811235040426254,0.3791829815134407,-0.16276475770398974,-9.829861822128297
27.79,2.9000000953674316,232.0,20.73646354675293,30.20878982543945,-79.78277082931449,40.458999877464926,289.9950625,0.01448795385658741,-0.004471499472856522,-0.7458740472793579,0.6659144759178162,0.002410263868828589,0.08543349679923777,3.0125518551895882,-0.12603722512722015,0.15493780374526978,-0.05008644238114357,0.3823923354595901,-0.3181516814231873,-9.742150079011918
27.89,2.9000000953674316,233.0,20.866676330566406,28.14132881164551,-79.7827708524285,40.458999961336076,290.30237832641603,0.015441441908478737,-0.009148860350251198,-0.7449755668640137,0.6668503284454346,0.033518951744317224,0.0953858268230944,3.0082464873263346,0.128702774643898,0.07460442185401918,0.11697259545326233,0.3745029797405005,-0.3402652297541499,-9.679904129505156
27.99,2.9000000953674316,233.0,20.87418937683105,29.75553894042969,-79.78277083261591,40.458999899539,290.60199800109865,0.015983127057552338,-0.012068401090800762,-0.7449550628662109,0.6668139696121216,0.024103406660739856,0.1321069302808648,2.977036982780431,-0.1057874634861946,0.09086362272500992,-0.13816644251346588,0.2833404292166233,0.06334347188472747,-9.423696681261065
28.19,3.0,233.0,20.554916381835934,32.522754669189446,-79.78277067586404,40.45899972592763,291.2042070922852,0.017215294763445854,-0.012275871820747852,-0.7459014058113098,0.6657207012176514,0.05070079967564867,0.16085004784907742,2.9125737090602204,0.05724063143134118,0.13340647518634796,0.050859659910202026,0.3883886185660959,0.041235387045890096,-9.3461485683918
28.3,3.0,234.0,20.546152114868164,32.880584716796875,-79.78277064092879,40.45899966382672,291.4950968322754,0.019073281437158585,-0.012798818759620191,-0.7463341951370239,0.6651749610900879,0.037467865548746516,0.15475595510624174,2.898871220669444,0.049270860850811005,-0.0369485579431057,-0.07336870580911636,0.37592747110873465,-0.2390756180137396,-9.654886232614516
28.5,2.9000000953674316,234.0,20.63755226135254,30.542762756347656,-79.78277061173833,40.45899963871508,292.08613458251955,0.02374470420181752,-0.011900695972144605,-0.7474291324615479,0.6638104319572449,0.0185223811487948,0.16797890092954204,2.9216135703123665,0.11141835153102876,-0.025538483634591103,0.032689031213521964,0.5100897146388889,-0.22455537356436253,-9.73767228126526
28.69,3.0,234.0,20.635047912597656,30.868785858154297,-79.78277043329479,40.458999599368866,292.67580285644533,0.021184960380196568,-0.006715306546539068,-0.747776448726654,0.6635786294937134,-0.01123301311059715,0.15330665779412234,2.9224325897917165,-0.029791807755827907,0.05022136867046356,-0.02957551181316376,0.4164960014820099,-0.2962740316987037,-9.692877346873283
28.8,3.0,234.0,20.499826431274414,32.17287826538086,-79.78277042044476,40.4589995408203,292.96764436340334,0.02006269432604313,-0.004712422844022512,-0.747645378112793,0.6637784242630005,0.009968816596793596,0.12234176881816995,2.9080522274795197,0.18628348410129547,-0.005183691158890724,0.07592994719743729,0.4180301281437278,-0.4233290211483837,-9.749745027422906
28.89,3.0999999046325684,234.0,20.75023651123047,29.25457572937012,-79.7827703823086,40.45899953642793,293.26066461181637,0.02127992920577526,-0.0031760004349052906,-0.7473296523094177,0.6641049981117249,0.00015657188235698553,0.1160023305806124,2.9285637532815287,-0.09647342562675476,-0.1329575777053833,-0.16632473468780518,0.2960147807747126,-0.0860901640355587,-9.730609429478646
29.1,3.0999999046325684,233.0,20.75649642944336,30.09746360778809,-79.78277035701825,40.45899939124865,293.84083810424806,0.01789141073822975,-0.00545078981667757,-0.747266948223114,0.6642608046531677,0.014833761185927571,0.11032891304594496,2.8516949342439126,0.04106267541646957,-0.04254018515348434,0.11028353124856947,0.3380625470727682,-0.3475528704375029,-9.393381791710857
29.29,3.0999999046325684,232.0,20.554916381835934,31.33794021606445,-79.78277035673365,40.45899927829698,294.41218247985836,0.017352938652038574,-0.013125923462212086,-0.7472379803657532,0.6642003059387207,0.05250053773956917,0.10905072525974736,2.798799496328685,0.0973762646317482,-0.01585281267762184,0.0451667457818985,0.1885755370371044,0.1516386940330267,-9.287848904728893
29.39,3.0999999046325684,231.0,20.566184997558594,31.94227600097656,-79.78277043440298,40.45899928837965,294.6944414672852,0.020000709220767014,-0.014484580606222153,-0.7473602890968323,0.6639600396156311,0.03430356345783896,0.13272466794654605,2.8107354014467143,-0.13312512636184692,0.03364929184317589,-0.08602377772331238,0.2886703490093351,0.04495576936751605,-9.513043890595435
29.5,3.2000000476837163,230.0,20.483549118041992,32.27624893188477,-79.78277043130888,40.45899923052618,294.97406259155275,0.019789494574069973,-0.014210055582225324,-0.7473270893096924,0.6640095710754395,0.03463531936935565,0.13492133919571042,2.78142631673509,0.09404148906469344,0.06422703713178635,0.11126334220170976,0.3997514761984349,-0.23767270652577285,-9.5588047850132
29.69,3.2000000476837163,229.0,20.343320846557614,34.16082000732422,-79.78277032472384,40.45899918041991,295.52417054748537,0.01864340901374817,-0.009975489228963852,-0.746570885181427,0.6649698615074158,0.01775708559489924,0.1242879425579458,2.798798981517412,-0.03836710005998612,-0.05253970250487328,-0.12527908384799954,0.3470118933543563,-0.1466914653684944,-9.812547047138217
29.79,3.0999999046325684,229.0,20.323287963867188,34.62997436523437,-79.78277033181784,40.45899913424976,295.80496087646486,0.0175798162817955,-0.006329031195491552,-0.7463686466217041,0.6652705073356628,0.0057859297230592605,0.11160241454991993,2.8188407782553018,0.06368321925401688,0.05352321267127992,-0.020331691950559616,0.2954260392487049,-0.28204020945355296,-9.943353939056397
29.99,3.0999999046325684,229.0,20.653827667236328,29.413612365722656,-79.78277035937028,40.45899920659597,296.3588148651123,0.01608576625585556,-0.004841725341975689,-0.7462601661682129,0.6654424667358398,-0.028987115370217045,0.08597541417263294,2.8665501795803148,-0.00985304918140173,-0.03889970481395722,-0.00366544583812356,0.3674298953264952,-0.3795874261111021,-10.056965339183806
30.09,3.2000000476837163,228.0,20.459760665893555,32.71359634399414,-79.78277035255525,40.45899918379994,296.6453882751465,0.017505349591374397,-0.005233932286500932,-0.7461833357810974,0.6654897928237915,-0.04155114339189752,0.0962058648364398,2.8578194777161063,-0.11317449063062668,0.046219531446695335,-0.1553758680820465,0.2375108665600419,-0.06188404340296984,-9.709531386494637
30.29,3.2000000476837163,228.0,20.52361488342285,31.75143241882324,-79.78277032727894,40.458999266856296,297.19076600646974,0.02108624204993248,-0.008311310783028603,-0.7464077472686768,0.6651028394699097,-0.04483415207472725,0.1102262683689494,2.8248930666929213,-0.0791526734828949,-0.003236810909584165,-0.06998573243618011,0.38937873490154745,-0.15196395453996958,-9.72788755059242
30.5,3.2000000476837163,228.0,20.171789169311523,34.86057662963867,-79.78277027454368,40.458999346098366,297.73331132507326,0.024580292403697968,-0.008559428155422209,-0.7457998394966125,0.6656614542007446,-0.040813338577609784,0.12497013662084812,2.7919216855949114,0.1505933254957199,-0.00022555082978215069,0.17229971289634705,0.3329409708827734,0.011934733595699071,-9.62010816335678
30.59,3.2000000476837163,228.0,20.225627899169922,34.90033721923828,-79.7827702700308,40.458999331619026,298.01417222595217,0.022727785632014275,-0.008120630867779255,-0.7461163401603699,0.6653780937194824,-0.052893213655303,0.13171853202206396,2.820411679954632,-0.050029590725898736,-0.08888904005289078,0.039146631956100464,0.4348622520267964,-0.2667409148812294,-9.99541286945343
30.69,3.2000000476837163,230.0,20.360849380493164,33.11118698120117,-79.78277032694585,40.45899942083051,298.27423348999025,0.01903495937585831,-0.007825665175914764,-0.7469511628150941,0.6645603179931641,-0.05684126028500984,0.1211406691383024,2.840369746526344,-0.11799918860197067,-0.04517336934804917,-0.04224174842238426,0.33133934542536736,-0.1403618635609746,-10.092712876796725
30.89,3.2000000476837163,231.0,20.22061920166016,35.059371948242195,-79.78277030153042,40.45899956801729,298.81312814331056,0.017139928415417668,-0.00664931396022439,-0.7476502656936646,0.6638381481170654,-0.03126399745069703,0.0988843860998059,2.8267866093534635,0.07957196235656737,0.018705083057284355,-0.011048299260437487,0.39317960780113936,-0.08458119867369532,-9.823022918701172
31.1,3.299999952316284,233.0,20.36836051940918,32.46709442138672,-79.78277027594629,40.45899956254655,299.3794275817871,0.019672028720378883,-0.006699375808238983,-0.7474818825721741,0.6639570593833923,-0.059897629831404085,0.12008868261543168,2.8238732458176563,-0.07938390225172043,-0.0189562663435936,-0.024906817823648453,0.4376397890970111,-0.27772450748831035,-9.881158275604248
31.19,3.299999952316284,234.0,20.67010498046875,29.381805419921875,-79.78277029006547,40.45899978810422,299.6363894042969,0.02041763067245484,-0.006917492486536503,-0.7473455667495728,0.6640857458114624,-0.07455214142680712,0.10654008581592812,2.793235182038257,0.07478155195713042,0.10069890320301056,0.0877147912979126,0.4063298861682415,-0.2024388102628291,-9.675202383399007
31.29,3.299999952316284,236.0,20.774024963378906,28.483253479003906,-79.78277027658089,40.458999809206745,299.91430154418947,0.019898315891623497,-0.007368794642388821,-0.7471508979797363,0.6643156409263611,-0.06895467906494555,0.11221585125244272,2.7506754928432997,0.14993256330490112,-0.0392405278980732,0.08001242578029633,0.4732932596281171,-0.4440003537386656,-9.486313928961756
31.5,3.299999952316284,234.0,20.324539184570312,33.34973907470703,-79.78277029488616,40.45899991359213,300.4354616699219,0.02187397517263889,-0.00760243134573102,-0.7469764947891235,0.6644470691680908,-0.0640567984086585,0.09957461636510838,2.6360686216040654,0.020564194768667214,-0.05859194323420525,0.053737666457891464,0.3599612833186984,-0.3248789030313492,-9.275063967704773
31.59,3.299999952316284,233.0,20.270700454711914,34.71744537353516,-79.78277029679757,40.45899992476175,300.69774118041994,0.02317204885184765,-0.008412284776568413,-0.7467548847198486,0.6646423935890198,-0.06910750212900107,0.0960460806988434,2.6113258820677574,0.05752900242805481,0.15639370679855347,-0.023111937567591667,0.34300490610301504,-0.17167697416618466,-9.490320441126824
31.79,3.299999952316284,234.0,20.41969490051269,32.419384002685554,-79.78277038127138,40.45900004669625,301.2273737487793,0.02102291025221348,-0.0071614026091992855,-0.7473632693290709,0.6640443801879883,-0.0846127364069358,0.11082895564004787,2.6826676553900093,-0.13184040784835815,-0.12992635369300842,-0.05928754061460495,0.3413263532146812,-0.12556170193478464,-9.973515046834946
31.99,3.299999952316284,233.0,20.2481632232666,35.36153793334961,-79.7827704213028,40.45900014432533,301.7543474731445,0.01972300186753273,-0.002377161057665944,-0.7481049895286559,0.6632829904556274,-0.054584695174073966,0.07148599112823806,2.7099508275815105,0.10333195328712463,-0.0017237361753359435,0.1331208199262619,0.2261266117729247,-0.015278500411659481,-9.892217699289322
32.09,3.299999952316284,231.0,20.397157669067386,31.31408500671387,-79.78277043596022,40.459000143280775,302.0260950622559,0.02065375633537769,-0.0015680785290896893,-0.7484743595123291,0.6628401279449463,-0.06792809145369562,0.07061909298860583,2.7221025988241467,0.016515884548425674,-0.05325063318014145,0.11276715248823165,0.34322932954877616,-0.378182047829032,-9.961848682165149
32.19,3.299999952316284,229.0,20.407175064086914,31.775287628173828,-79.78277046314862,40.45900023486315,302.280764251709,0.019966596737504,-0.003212585812434554,-0.748764157295227,0.6625279188156128,-0.06330584550664205,0.07334225853950596,2.7368710380178984,0.02153540030121804,0.031187137588858608,-0.006389506161212921,0.2959487072378397,-0.24864489706233145,-9.927893900871275
32.4,3.2000000476837163,229.0,20.46351623535156,31.329988479614247,-79.7827704970333,40.45900033008697,302.8031908569336,0.0208192877471447,-0.00697919726371765,-0.7476005554199219,0.6637855768203735,-0.04691576189731032,0.08752691876286926,2.6931938714108834,0.006325762253254652,0.003318018512800336,-0.004343043081462382,0.4581753931939602,-0.15966189617291093,-9.588341410160066
32.49,3.2000000476837163,229.0,20.50483512878418,31.14709854125977,-79.78277050709983,40.45900031649386,303.0712801513672,0.019806426018476486,-0.0066392654553055755,-0.7465183734893799,0.6650369167327881,-0.040306028799192116,0.09761563446203897,2.664724857736251,-0.01937425322830677,-0.0939621552824974,-0.0066884863190352925,0.4041594728082419,-0.1888992352411151,-9.559588896632196
32.69,3.2000000476837163,228.0,20.21686363220215,35.16274261474609,-79.78277059935141,40.459000364993045,303.5881563720704,0.018676262348890305,-0.0034995351452380427,-0.7450239658355713,0.6667670607566833,-0.03140495786304637,0.07633029399937423,2.633504422497176,0.09711101651191713,-0.07896295189857483,0.05287456884980202,0.3437892004474998,-0.5001656375080348,-9.65607555627823
32.9,3.0999999046325684,228.0,20.369613647460934,32.586368560791016,-79.78277067532295,40.459000406422994,304.10253396606447,0.01850018464028836,-0.006396913900971414,-0.7452254295349121,0.6665252447128296,-0.024506481439984608,0.08376550457600802,2.67046925679398,0.08153367787599564,0.017816539853811264,0.059173483401536935,0.2632599394954741,-0.09797047284431756,-9.84004533290863
32.99,3.0999999046325684,227.0,20.456005096435547,31.210712432861328,-79.78277067485915,40.459000382858854,304.37043634033205,0.02020699717104435,-0.0075591341592371455,-0.745339572429657,0.6663358807563782,-0.03274350266238542,0.09806837337920564,2.6824474263839804,-0.10200238972902298,-0.03883416578173637,-0.09896613657474518,0.3732405658811331,-0.11182253586128356,-9.90252634048462
33.09,3.0999999046325684,226.0,20.44473648071289,31.73552894592285,-79.78277067689494,40.45900035928504,304.6388079223633,0.023320240899920464,-0.008299335837364197,-0.7455191016197205,0.6660245656967163,-0.0307033415066716,0.10357192725953004,2.6814399185956983,-0.0060715321451425535,0.11511363089084625,-0.024166585877537727,0.35259317032992843,-0.04604353420436383,-9.750250226855279
33.29,3.0999999046325684,228.0,20.58371353149414,30.359872817993164,-79.78277069958592,40.45900037650996,305.15416207885744,0.024552896618843082,-0.006710369139909743,-0.7466881275177002,0.6646872162818909,-0.05376392369265691,0.12769754014160675,2.662579362461607,-0.11413373798131946,-0.012952869758009907,-0.08173881471157074,0.3350640217959881,-0.11455875869840385,-9.651754463911056
33.49,3.2000000476837163,227.0,20.423450469970703,30.646137237548828,-79.78277075343571,40.45900044969835,305.6639887390137,0.0214589312672615,-0.005508246831595898,-0.7481192350387573,0.6631944179534912,-0.05505108085213094,0.10614611073023987,2.621837359592428,-0.14317038655281067,-0.038145191967487335,-0.06473705172538757,0.4919572796300054,-0.5126951973885298,-9.653039097189904
33.59,3.2000000476837163,227.0,20.239398956298828,33.86660385131836,-79.7827707582585,40.45900042507677,305.92589822387697,0.02192305028438568,-0.003959730733186007,-0.7480729818344116,0.6632424592971802,-0.02082934733895958,0.09343273880404517,2.611780032719848,0.21654152870178225,-0.008640214800834656,0.16103000938892365,0.5071277710050345,-0.5922551909834147,-9.759154366850852
33.69,3.0999999046325684,226.0,20.339563369750977,32.29215240478516,-79.78277078022286,40.459000519771344,306.17210641479494,0.02152124419808388,-0.002898985520005226,-0.7476876378059387,0.6636955142021179,-0.06407611009145432,0.1047103382951388,2.645352019381831,-0.1790217012166977,-0.1479082852602005,-0.19295910000801086,0.4049447173252702,-0.06953917702194304,-9.969646528959275
33.9,3.0999999046325684,228.0,20.35333633422852,32.46709442138672,-79.78277082805802,40.45900057314761,306.6830965576172,0.02318013831973076,-0.0027220048941671853,-0.7466517686843872,0.66480553150177,-0.03587419314664925,0.09424233478284463,2.6755819979960265,0.08569017052650453,-0.060630574822425835,0.07535528391599655,0.4491862493008376,-0.3441570634022355,-10.024529664516448
33.99,3.2000000476837163,229.0,20.345823287963867,32.061553955078125,-79.78277081887694,40.45900053547075,306.9518305358887,0.024641256779432297,-0.002894521690905094,-0.7464436888694763,0.6649858951568604,-0.055669013531106884,0.11220463326947216,2.6963011218288,-0.17196916043758392,-0.03047779016196728,-0.05510463193058968,0.29623249819502234,0.006208454808220268,-9.966733446121218
34.2,3.2000000476837163,228.0,20.35083198547364,32.761306762695305,-79.78277079584934,40.45900060447772,307.4679934082032,0.019933689385652542,-0.002958850236609578,-0.7478201389312744,0.6635955572128296,-0.03903714445347442,0.12901938275491834,2.7051666414967106,-0.03317219391465187,-0.1425083726644516,-0.013849515467882156,0.3828513053432107,-0.4487934625893831,-9.992829569578172
34.3,3.2000000476837163,228.0,20.55241203308105,29.92252540588379,-79.78277076201245,40.45900056504455,307.739805847168,0.016644107177853584,-0.0035616313107311726,-0.7494130730628967,0.6618840098381042,-0.04019050879683272,0.12067669403205053,2.731337035843318,-0.13038308918476105,0.07530861347913742,-0.0038340445607900615,0.1893890674598515,-0.20472329914569856,-9.962825167179108
34.5,3.2000000476837163,227.0,20.70015525817871,28.92855262756348,-79.78277072600346,40.459000531165856,308.2659365234375,0.01870679296553135,-0.007069946266710758,-0.7501648664474487,0.6609483957290649,-0.02941690022164152,0.14067084687800754,2.742572644340853,-0.011152415536344051,0.04828181117773056,-0.09947410225868224,0.34986376315355305,-0.09480898384004832,-9.827366230487824
34.59,3.299999952316284,226.0,20.737716674804688,28.01409912109375,-79.78277066216162,40.4590005112174,308.5393778381348,0.020966799929738045,-0.006169889122247696,-0.7498298287391663,0.6612697243690491,-0.0317499188025483,0.16067441949303052,2.715799129582505,0.12602446973323822,-0.1364002674818039,0.12398532032966615,0.5439310599491001,-0.4679053427651525,-9.718819103837014
34.79,3.299999952316284,226.0,20.67260932922364,28.936504364013672,-79.78277063872083,40.45900060056039,309.0525461730957,0.026632228866219517,-0.005358321592211722,-0.7480663061141968,0.6630677580833435,-0.08278666430708964,0.16982451748394,2.6478724641091915,-0.05347950011491776,-0.01478655356913805,-0.20635008811950686,0.3789652823656798,-0.03434712032787502,-9.51318013072014
34.9,3.299999952316284,227.0,20.63755226135254,29.56469535827637,-79.7827706898595,40.4590007260236,309.3110643920898,0.029048122465610508,-0.004467722028493881,-0.7471812963485718,0.6639702320098877,-0.0908455136555062,0.16719812369323436,2.6368440841633043,0.053584542125463486,-0.09273640066385268,-0.021118884906172752,0.5277573325484991,-0.4190127892792225,-9.592263137698174
35.1,3.4000000953674316,227.0,20.70391082763672,28.212894439697266,-79.78277056848353,40.45900072444335,309.8388125,0.029717000201344487,-0.002853455953299999,-0.7456293106079102,0.6656920313835144,-0.12294137004974585,0.1685286423604321,2.6476685167561507,-0.2215244024991989,0.04440327361226082,-0.18850240111351013,0.30697301108390096,-0.051818052520975474,-9.853569942712783
35.29,3.5,226.0,20.60374641418457,28.729759216308594,-79.78277095395323,40.459000849122894,310.35552087402345,0.029633687809109688,-0.0035821038763970132,-0.7456291913986206,0.6656922101974487,-0.11509810196172772,0.09860527426627308,2.665807274134612,0.047688327729702,0.0664244070649147,0.1085284948348999,0.4695340115949512,-0.4794706602394581,-9.939526351690294
35.4,3.5999999046325684,225.0,20.68262481689453,28.284460067749023,-79.78277093850173,40.4590009125217,310.60193505859377,0.029987594112753868,-0.00506825838238001,-0.7456842660903931,0.6656050086021423,-0.1214911409802705,0.1166479519382915,2.6751108298823016,-0.1080283522605896,0.08547856658697127,-0.08298662304878235,0.26933503210544585,-0.1132462232373655,-9.898522167205813
35.49,3.5999999046325684,222.0,20.826610565185547,26.240854263305664,-79.78277094411087,40.45900091482873,310.87028375244137,0.030116835609078407,-0.004058488178998232,-0.7454460859298706,0.6658729314804077,-0.0919821670772526,0.1197565314144926,2.680285932357313,0.06779196858406067,-0.09190139919519424,0.05427563562989235,0.422460819259286,-0.4959002764150501,-9.928031895160677
35.69,3.5999999046325684,221.0,20.9555721282959,26.98832130432129,-79.78277094139274,40.4590010045174,311.38566079711916,0.03039862029254436,-0.0001949047291418537,-0.7454018592834473,0.6659219861030579,-0.10009961930542016,0.10796376702919352,2.6061657849477458,0.06241510063409805,0.055455680936574936,0.02690907940268516,0.34636712819337845,-0.3355262441933155,-9.333781707286835
35.79,3.5999999046325684,221.0,20.902986526489254,26.61458778381348,-79.78277093837102,40.459000997378375,311.64318338012697,0.03107545338571072,0.0008380066719837488,-0.7452101111412048,0.6661047339439392,-0.09370299741659233,0.1058155893824815,2.53801455873318,0.09261788427829742,0.007154004182666541,-0.02327875234186649,0.3496082032844424,-0.3818820197135209,-9.159936969280244
35.99,3.5999999046325684,221.0,20.648820877075195,28.61843490600586,-79.78277086213174,40.45900116438426,312.1554972229004,0.032082147896289825,-0.001536104129627347,-0.7453742027282715,0.6658722162246704,-0.0908123205693398,0.11889970584490922,2.4873719998692616,0.07376881688833238,0.025715693831443787,0.10494816303253174,0.4849779333919287,-0.4677050390839577,-9.390731248855593
36.2,3.5999999046325684,222.0,20.6776180267334,28.745662689208984,-79.78277087759518,40.4590012274288,312.6580645141602,0.03216112032532692,-0.0019663791172206397,-0.7462755441665649,0.6648569107055664,-0.07063290100075915,0.13317799878998796,2.4905869701161083,-0.030306829139590263,0.05729401111602784,0.005046029109507799,0.4077041280269623,-0.25526624752208593,-9.515419029593467
36.3,3.5999999046325684,221.0,20.775278091430664,27.457475662231445,-79.78277086089564,40.45900118660219,312.90674844360353,0.030946381390094764,-0.0037453670520335436,-0.7466964721679688,0.6644341349601746,-0.0851549746784044,0.13344290220413615,2.479383977394183,-0.23490965366363525,0.04134020954370499,-0.1000111997127533,0.3265107147395611,-0.2354918595403433,-9.60515157043934
36.4,3.5999999046325684,221.0,20.685129165649414,29.12734794616699,-79.78277080423987,40.459001164010665,313.1581636962892,0.02853933721780777,-0.00679842010140419,-0.7462838292121887,0.6649811267852783,-0.05869310506516216,0.14215609282319067,2.4924950227942704,-0.14217734336853027,-0.01236280519515276,-0.0641370341181755,0.3405772883445025,-0.31537761613726617,-9.600652137994764
36.59,3.5999999046325684,221.0,20.795310974121094,27.091693878173828,-79.78277075925988,40.45900105495002,313.6549974975586,0.027315940707921985,-0.0047011347487568855,-0.744343638420105,0.6672213077545166,-0.016035661258908318,0.1424027681495011,2.4698160960908235,0.025032982230186462,-0.1359313577413559,0.03077496588230133,0.4019860262051225,-0.21410694736987354,-9.654775135517117
36.69,3.5999999046325684,222.0,20.602495193481445,29.62035751342773,-79.78277074099115,40.459001016032154,313.89636102294924,0.029195340350270268,-0.002640981459990144,-0.7433767914772034,0.6682302355766296,-0.02200351403062701,0.14961288863973699,2.479073705807473,0.06746578216552734,-0.012505998834967613,0.059459280222654336,0.4048152745887637,-0.407655778862536,-9.617638884186745
36.9,3.5999999046325684,221.0,20.53863906860352,30.35192108154297,-79.78277072150038,40.45900093278042,314.3859659729004,0.029603516682982445,-0.0054004103876650325,-0.743773877620697,0.6677536964416504,-0.0178888646812746,0.15403281663175267,2.506217143379324,-0.033539626747369766,0.0009777707746252418,0.1776636391878128,0.4138359569013119,-0.5041763889044524,-9.948982468843461
37.1,3.5,222.0,20.588722229003906,30.510955810546875,-79.7827706685508,40.45900077056249,314.89275231933595,0.029664563015103337,-0.013546203263103962,-0.7465909123420715,0.6644836664199829,0.011002699214163416,0.15688481074030486,2.550010924982701,-0.0741850882768631,0.10979468375444412,-0.002423588884994388,0.4005434815585613,-0.4105151769518852,-10.004574286937713
37.19,3.5999999046325684,222.0,20.615015029907227,28.96036148071289,-79.7827706532082,40.45900065710036,315.1197077331543,0.029707178473472595,-0.013439830392599106,-0.7483475804328918,0.662505030632019,0.02911039439890845,0.16766138819253038,2.5527844107238096,-0.10319504886865616,-0.0859135240316391,0.06233326718211174,0.3848246675357223,-0.2396790323965252,-9.918261197805405
37.29,3.5999999046325684,224.0,20.58746910095215,29.6760196685791,-79.78277066369216,40.45900056394953,315.37554040527345,0.029226791113615036,-0.011275443248450756,-0.7501221895217896,0.6605568528175354,0.04569670654575392,0.14423545830932555,2.5531225305534324,0.17056173086166382,-0.09223134815692904,0.19590424001216888,0.4908158300444484,-0.6580788324773312,-9.86523046016693
37.5,3.5,227.0,20.498573303222656,31.083484649658203,-79.78277087599227,40.45900049130436,315.85994592285164,0.02570377662777901,-0.0063709383830428115,-0.7510859966278076,0.6596730947494507,0.018954241657235672,0.1080761630418755,2.5576121355937165,0.045450396835803986,-0.1730101853609085,0.1203913688659668,0.4461041088402272,-0.7659172035008669,-10.000321022272107
37.69,3.5999999046325684,230.0,20.602495193481445,29.65216445922852,-79.78277097959915,40.45900039950728,316.350157409668,0.023759279400110245,-0.005403423216193914,-0.7494033575057983,0.6616652607917786,0.019881508164196912,0.10140246954097076,2.5833983334408765,0.034380462020635605,-0.12726491689682007,-0.1237216740846634,0.4201562123000622,-0.2455725872330368,-9.971457996368411
37.79,3.5999999046325684,230.0,20.67636489868164,28.181087493896484,-79.7827710118233,40.459000318391865,316.60965982055666,0.02215700782835484,-0.004035492893308401,-0.7490970492362976,0.6620773673057556,0.018417418587221603,0.08933589642020802,2.6032554872308196,0.018643703311681747,-0.00041860551573336135,0.04007967561483383,0.5428591191396117,-0.3625617228448391,-10.000383002758024
37.89,3.5,229.0,20.70265769958496,29.27047920227051,-79.78277112016373,40.459000390642,316.84554544067385,0.0200172308832407,-0.006317900028079747,-0.7489145994186401,0.6623340249061584,-0.02177534745760855,0.08522561922713442,2.5876719988183083,-0.21261484920978546,0.07591112703084946,-0.060351837426424026,0.3582786373794079,-0.05752863518893719,-9.838129785060882
38.1,3.5,230.0,20.665096282958984,28.682048797607425,-79.7827711534525,40.4590002734697,317.36442056274416,0.02212623320519924,-0.010195447131991386,-0.7490578889846802,0.6620565056800842,0.0323160559788497,0.10004005378800998,2.604958860357664,0.2168836146593094,-0.02484692074358464,0.19963006675243372,0.4985618558898569,-0.4412143382057548,-9.993731210231779
38.19,3.5,232.0,20.681373596191406,29.69987487792969,-79.78277116593641,40.4590004905926,317.5961062011719,0.024055035784840584,-0.0117264399304986,-0.7493746280670166,0.6616052389144897,-0.031640269015883266,0.11582012297041926,2.611612230895185,-0.11305007338523865,0.08459891378879547,-0.03194241598248482,0.4014704845100641,-0.11356093134731055,-9.951985598802569
38.4,3.4000000953674316,234.0,20.35458755493164,32.60227203369141,-79.78277129279294,40.45900054969727,318.0980974731445,0.0279666930437088,-0.009667144156992435,-0.7479519248008728,0.6630930304527283,-0.014766547584661425,0.12619568283893584,2.595454481529316,0.10109972208738327,0.12509682774543762,-0.10236286371946336,0.526989885494113,-0.036324657797813416,-9.790472638607024
38.5,3.5999999046325684,238.0,20.51610374450684,30.51890754699707,-79.7827712992025,40.45900051261085,318.35807672119137,0.02839943207800388,-0.007531276904046535,-0.7464178204536438,0.6648287177085876,-0.03158950891534075,0.13914954947559302,2.602300496069102,-0.07831539213657379,-0.10613874346017838,-0.12903381884098053,0.5880136572942138,-0.3016412274912,-9.871193450689317
38.69,3.5999999046325684,239.0,20.410930633544922,31.86275863647461,-79.78277137354793,40.459000625574866,318.8607546386719,0.021800456568598747,-0.011084208264946938,-0.7450128793716431,0.6666015982627869,-0.046864306152734486,0.13999027296612493,2.602417999386748,-0.05342303216457367,-0.05116291716694832,0.12563282251358032,0.6653152734786273,-0.4328076135367155,-9.909454121589661
38.79,3.799999952316284,241.0,20.61000633239746,28.578676223754893,-79.78277135289697,40.45900060682661,319.12232461547853,0.01884700916707516,-0.013090485706925392,-0.7447697520256042,0.6669269204139711,-0.02868210107804605,0.14364770028083565,2.6207129859673093,0.05115925893187523,0.0772809311747551,-0.019212594255805016,0.7128533560037613,-0.1826189967244864,-9.985719355344774
39.0,3.9000000953674316,241.0,20.63629913330078,30.26445198059082,-79.78277141815619,40.45900077324099,319.6290194091797,0.0207605604082346,-0.01734975166618824,-0.7451664805412292,0.6663294434547424,-0.06127741891064465,0.16739263948634564,2.6078554836506487,-0.024013889953494072,-0.0718257799744606,0.050062932074069984,0.6625517331808806,-0.35934984728693964,-9.827655082941057
39.1,4.099999904632568,241.0,20.64381217956543,29.52493667602539,-79.78277135985255,40.45900081418784,319.8899179992676,0.025920774787664413,-0.017608419060707092,-0.7461757659912109,0.6650111675262451,-0.06349889395053637,0.18901140635150115,2.593406170407671,0.3240401148796081,0.1197848916053772,0.07933977991342545,0.8190390115231276,-0.4625524726510048,-9.729733516573909
39.29,4.199999809265137,243.0,20.64756774902344,28.91264915466309,-79.78277134213334,40.45900102277719,320.4006907043457,0.03560822829604149,-0.01193090248852968,-0.7479150295257568,0.662731409072876,-0.16855835307614284,0.2297675328694972,2.5787413903299656,-0.1083465740084648,-0.007905871607363224,-0.05319022387266159,0.6606277068704367,-0.2376348458044231,-9.71762627184391
39.49,4.300000190734863,244.0,20.489809036254886,31.62420463562012,-79.78277126355188,40.45900117915076,320.91505685424806,0.03778890147805214,-0.007587466388940811,-0.7483680844306946,0.6621628403663635,-0.1698940965386882,0.2107747600360245,2.5843612575738577,0.08698922395706178,0.07016857713460922,0.09271099418401718,0.7686131353676321,-0.6986399441957474,-9.849543550014495
39.6,4.400000095367432,243.0,20.620023727416992,29.461322784423828,-79.78277119349517,40.45900122394732,321.17534509277345,0.03853272646665573,-0.007552932482212781,-0.7480219006538391,0.6625115275382996,-0.1886306771715755,0.21892377722137532,2.598510652873863,-0.12489165365695952,0.05818005278706551,-0.15901030600070953,0.5231587532535196,-0.14277824370190506,-9.85436516404152
39.69,4.5,243.0,20.364604949951172,32.379623413085945,-79.78277115883117,40.459001467660656,321.43831506347664,0.03828748315572738,-0.009208688512444496,-0.7475782632827759,0.6630053520202637,-0.17365731096215312,0.22120284421783232,2.6241243858902683,0.006716315634548664,-0.09845279902219772,0.00839462596923113,0.6638759082555771,-0.6590412841737271,-9.962915214300157
39.89,4.699999809265137,242.0,20.760251998901367,26.43964767456055,-79.78277109347778,40.45900167982703,321.96499505615236,0.03957119211554527,-0.01188784558326006,-0.7463297247886658,0.6642926931381226,-0.17299629991181398,0.2386119923009417,2.675827075459903,-0.16533580422401428,-0.06899520754814148,-0.007077331189066172,0.538149515837431,-0.25931670516729355,-9.932761123180393
39.99,4.800000190734863,241.0,20.814090728759766,27.7039794921875,-79.78277102755027,40.45900170801382,322.2339121398926,0.0379219613969326,-0.012470973655581474,-0.7460021376609802,0.6647459864616394,-0.1358353926021827,0.23742225768762745,2.6635903644353034,0.12737062573432922,-0.001868049963377416,0.08080332726240158,0.7266703265905381,-0.7327656103670598,-9.795210052728654
40.19,4.900000095367432,242.0,20.72018814086914,28.41168785095215,-79.78277093369579,40.45900197356076,322.7659174499512,0.03665243089199066,-0.01613643765449524,-0.7464037537574768,0.6642873287200928,-0.12491098711935565,0.233190630363643,2.598206221459517,0.17973539233207705,0.049877770245075226,0.010980745777487757,0.7193023963272572,-0.3695644944906235,-9.32009396016598
40.4,4.800000190734863,244.0,20.513599395751953,30.908544540405273,-79.78277088155433,40.4590021022038,323.2864252624512,0.045420240610837936,-0.009725358337163923,-0.7457511425018309,0.6646034717559814,-0.12693103021269225,0.23966384155661435,2.5440327278430543,0.1804725080728531,0.011452252045273779,0.12188831716775896,0.7050131168961525,-0.3216949844732881,-9.21302500963211
40.5,4.800000190734863,244.0,20.456005096435547,31.679866790771484,-79.7827708262253,40.45900211081034,323.5413843688965,0.04785184934735298,-0.009578249417245388,-0.7447687387466431,0.6655359864234924,-0.15920177535343505,0.2368927855706035,2.531232224962556,-0.20268844068050385,0.09156040102243423,-0.26619815826416016,0.693259190171957,0.05529207520186901,-9.559462596774102
40.59,4.800000190734863,245.0,20.425954818725586,31.234567642211914,-79.78277078538649,40.45900209997728,323.795656829834,0.047311637550592416,-0.012225360609591007,-0.7435876727104187,0.6668504476547241,-0.1326764049355921,0.2331060053075449,2.5312726545895585,-0.12716491520404816,-0.04743856564164162,0.012852631509304048,0.67055364780128,-0.33551670592278243,-9.791792939901352
40.79,4.800000190734863,246.0,20.48855781555176,31.648059844970703,-79.78277077272338,40.459002101388975,324.3240534362793,0.036808520555496216,-0.01808314956724644,-0.7427492141723633,0.6683126091957092,-0.07402632134384192,0.2317479539634968,2.6047024031100667,-0.2852981984615326,0.04769299179315567,-0.09446494281291963,0.6308866484463215,0.10892072718590498,-9.816812006235123
40.89,4.800000190734863,249.0,20.588722229003906,29.02397537231445,-79.78277070212908,40.45900223280496,324.5869623718262,0.031085465103387836,-0.02168996073305607,-0.7426812648773193,0.6685715317726135,-0.03790960909545312,0.2293576068941613,2.621401590886376,-0.16481520235538485,-0.08847461640834807,0.024630654603242874,0.5653409324213863,-0.2100429680384696,-9.813546921014787
41.09,4.800000190734863,249.0,20.653827667236328,29.37385368347168,-79.78277066467669,40.4590021454083,325.1118532714844,0.030207045376300805,-0.02589208260178566,-0.7438538670539856,0.6671571731567383,0.03321938309567282,0.2053027195074565,2.5902696459545766,0.2015048712491989,0.0738898515701294,0.07357210665941237,0.7510440795868636,-0.31999439489096404,-9.622755782604216
41.29,4.800000190734863,250.0,20.59122657775879,29.85891151428223,-79.78277074153787,40.459002128026654,325.6238695678711,0.03678128868341446,-0.02195536345243454,-0.7456963658332825,0.6649075150489807,0.0077838141108385875,0.2166769305454448,2.551146082652552,0.1742853969335556,0.0057619684375822535,0.1315862089395523,0.7797153168171644,-0.24694406993687154,-9.534864529967306
41.4,4.800000190734863,250.0,20.743976593017575,28.499156951904297,-79.78277080351677,40.459002205561816,325.87806192016603,0.03786606341600418,-0.019995503127574917,-0.7460100650787354,0.6645565032958984,-0.0136905775688574,0.20997040119982985,2.571123274844501,0.08812567591667175,0.08416042476892471,0.007966273464262486,0.7153735790401697,-0.3708251176401973,-9.777686532139779
41.5,4.699999809265137,252.0,20.63129234313965,29.310237884521484,-79.78277081540898,40.45900216247539,326.1358362731934,0.03901423886418343,-0.02024360559880733,-0.7462100982666016,0.6642579436302185,-0.03918956255087868,0.20133377768010915,2.5658685463605915,-0.1452990621328354,0.04353977367281914,-0.17401368916034698,0.6857026872038842,-0.13094706064090136,-9.65753794491291
41.69,4.699999809265137,253.0,20.57870483398437,30.59047508239746,-79.78277093821502,40.459002153692786,326.6457201538086,0.03732321038842201,-0.02406927198171616,-0.746816098690033,0.663546085357666,0.0018548249221571052,0.19473932922519727,2.5208998286356117,0.07891824096441269,-0.04793012142181397,0.21313616633415225,0.8007989877462387,-0.4827911478281021,-9.463051950931547
41.9,4.699999809265137,253.0,20.403417587280273,32.300106048583984,-79.7827710646485,40.459002233172114,327.1484667358398,0.03482815623283386,-0.023829938843846318,-0.7471444606781006,0.6633206605911255,-0.008475159262912008,0.19272482075879804,2.5098594434194608,-0.20639002323150635,-0.048754315823316574,-0.18193519115448,0.7569865317642689,-0.3873922895640135,-9.413780388236047
41.99,4.800000190734863,254.0,20.46476936340332,31.186857223510746,-79.78277110387529,40.45900218429504,327.4004274902344,0.030195537954568863,-0.02472010627388954,-0.747674822807312,0.6629174947738647,0.013829371118610871,0.17615272997121795,2.517438013043489,0.04723336175084114,-0.09575678408145903,0.01295535545796156,0.8208661202341319,-0.5012322427332402,-9.896628838777543
42.09,4.800000190734863,253.0,20.42845916748047,31.68781852722168,-79.78277114488348,40.459002140407755,327.6536547241211,0.02740081399679184,-0.02429208904504776,-0.7485132217407227,0.6621080636978149,0.0021785307156304,0.1687310765360996,2.5333324120578364,-0.13063232600688934,-0.004787044133991003,-0.1724587380886078,0.6221496657282114,-0.0008014248590916393,-9.793388645052909
42.29,4.800000190734863,252.0,20.25692749023437,34.30395126342773,-79.78277126854401,40.459002192157634,328.1574198303223,0.02950556948781013,-0.020350491628050804,-0.7486598491668701,0.6619848012924194,-0.010739058159393536,0.15596619183311386,2.561309481171653,-0.11690592765808105,0.08960322290658951,-0.042905841022729874,0.6081587770208716,-0.1541595200635493,-9.850787837505342
42.39,4.800000190734863,252.0,20.22187042236328,34.83672332763672,-79.78277141861297,40.45900232291553,328.402346282959,0.028411040082573887,-0.02233810350298881,-0.7490434646606445,0.6615343689918518,-0.01963252399817267,0.13932500964707434,2.5715234856263502,0.031378764659166336,0.019864488393068317,0.08038683980703354,0.8191455039381982,-0.6087612960487604,-10.111947877407074
42.59,4.699999809265137,251.0,20.25692749023437,33.413352966308594,-79.78277148365854,40.45900232577972,328.9253183898926,0.02261472120881081,-0.021160325035452843,-0.7500674724578857,0.6606358885765076,-0.0272275863644729,0.15668374033553414,2.6475257849749445,0.06618516892194748,0.07901856303215027,-0.12604212760925293,0.5481486200541258,-0.08036493591964246,-10.0953160572052
42.7,4.800000190734863,251.0,20.270700454711914,34.097206115722656,-79.78277155846217,40.45900260837122,329.1602503356934,0.025286072865128517,-0.016690181568264958,-0.7497338652610779,0.6610456109046936,-0.03760720755573172,0.12727883039066118,2.6281170207392583,0.17089883983135226,-0.10371771454811096,-0.1054435968399048,0.5681599847227335,-0.2667385942675173,-10.14413913846016
42.9,4.800000190734863,251.0,20.2919864654541,32.13311767578125,-79.78277161293316,40.45900295936417,329.6589685974121,0.03909173607826233,-0.01390325091779232,-0.7489776611328125,0.6612949371337891,-0.12281961678215685,0.1240246239259995,2.6261136526497424,0.19584935903549194,0.03802311792969704,0.06433644145727158,0.7759825274348259,-0.5486835671961308,-10.13761481523514
42.99,4.900000095367432,251.0,20.320783615112305,32.379623413085945,-79.7827716493139,40.459003001449,329.9234949645996,0.04190228879451752,-0.014210250228643416,-0.748158872127533,0.6620427966117859,-0.14377581238597956,0.15789373570986776,2.6451005453852607,0.012719868682324886,-0.03198450431227684,-0.1878179907798767,0.7825773096084595,-0.13963901979848742,-10.00430414557457
43.2,4.900000095367432,251.0,20.41969490051269,31.49697685241699,-79.78277180845011,40.45900336508181,330.4261156616211,0.04250279814004898,-0.01292349211871624,-0.745739221572876,0.6647552251815796,-0.15598914930767854,0.142601263271671,2.617329971413484,0.09791561216115953,-0.03781474381685257,-0.03909175470471382,0.8387637164443732,-0.5176858324930073,-9.829926141500474
43.29,4.800000190734863,252.0,20.293237686157227,33.222511291503906,-79.78277186918798,40.45900339990199,330.68849816894533,0.039697565138339996,-0.014302634634077547,-0.7442023754119873,0.666620135307312,-0.15983432182638216,0.14931708467716567,2.6114851438823194,-0.1975080519914627,-0.07170326262712479,-0.14227132499217987,0.7177264986187221,-0.2645625346899033,-9.734851584434509
43.5,4.900000095367432,252.0,20.329547882080078,32.18878173828125,-79.78277212786652,40.45900359647632,331.1918093261719,0.029595173895359036,-0.020831367000937462,-0.7422755360603333,0.6691167950630188,-0.11367223603610167,0.13460121755698973,2.60302411581394,-0.1943231970071793,-0.058292634785175323,-0.19575458765029907,0.7111529856920242,-0.1036829193122685,-9.844987399578097
43.7,4.900000095367432,251.0,20.506086349487305,30.63023376464844,-79.78277241552891,40.45900379560779,331.69882836914064,0.02548641711473465,-0.01848749443888664,-0.7425630688667297,0.6690357327461243,-0.06715084587046442,0.11925951737452947,2.6202586564911736,-0.02096149325370789,-0.04909589141607285,-0.08236242830753326,0.8716290883719922,-0.2291471189260483,-9.926544363498687
43.79,4.900000095367432,251.0,20.302001953125,33.620101928710945,-79.78277247885353,40.45900383104525,331.96069207763674,0.029941830784082413,-0.015164859592914581,-0.7425228953361511,0.668979287147522,-0.048565734478485806,0.10320654830334608,2.604327592930386,0.3667572438716888,-0.0027408802416175604,0.10997429490089417,0.7556253730505705,-0.4975589487701655,-9.784745875597
43.9,4.800000190734863,249.0,20.253171920776367,33.564437866210945,-79.78277258790443,40.45900396264052,332.2138201293945,0.036785025149583817,-0.012158771045506,-0.7427688837051392,0.6684260964393616,-0.09130724529414376,0.11772417368478093,2.5944752492473837,0.08191997557878494,0.17475654184818268,-0.14458955824375153,0.7055004092305899,-0.03379484167322517,-9.618988421559337
44.11,4.800000190734863,251.0,20.357091903686523,32.54661178588867,-79.78277268896817,40.45900400251491,332.73078790283205,0.03855977952480316,-0.01318476814776659,-0.7445325255393982,0.666341245174408,-0.14597556141434348,0.14921359967925904,2.577694525046576,-0.2269023656845093,-0.04425361007452011,0.0733267068862915,0.6796459950506688,-0.3513610158115625,-9.729611309766767
44.19,4.900000095367432,251.0,20.380882263183594,31.84685516357422,-79.782772880644,40.45900418671349,332.99062219238283,0.03230159729719162,-0.01465729810297489,-0.7455922365188599,0.6654577851295471,-0.09966969959350384,0.13608648761242298,2.5927598871650983,0.07632559537887572,0.03510228171944618,0.26488709449768066,0.8465929189324379,-0.5422997598722578,-9.809277284145356
44.39,4.900000095367432,252.0,20.801570892333984,27.10759735107422,-79.78277300848647,40.459004381701114,333.5093905029297,0.028831392526626587,-0.015452872961759569,-0.7465544939041138,0.664519727230072,-0.06889468389345517,0.11587736180790027,2.572938043286018,0.17854484915733335,0.1439490020275116,0.08091235160827638,0.7670158222317696,-0.3859414126351476,-9.551402209997178
44.6,4.900000095367432,250.0,20.89923095703125,26.16133689880371,-79.7827730668379,40.45900443333182,334.01269403076174,0.032682523131370544,-0.01932336390018463,-0.74653160572052,0.6642658114433289,-0.09632738536361736,0.14590797712761894,2.4380963992419664,-0.041949216276407235,-0.055147789418697364,0.007377102505415678,0.5695187680050731,-0.10612519165500996,-9.172631274461748
44.7,4.900000095367432,252.0,20.902986526489254,26.19314384460449,-79.78277316444213,40.45900446213805,334.26826348876955,0.034984186291694634,-0.0199315994977951,-0.7463651299476624,0.6643177270889282,-0.08273985568055155,0.15625664698683084,2.383284003502125,0.10102298110723497,-0.05322127044200897,0.06275279074907303,0.6768215706199407,-0.4562345926836133,-8.943827387094498
44.79,4.900000095367432,251.0,20.771520614624023,27.71988296508789,-79.78277317946919,40.45900449610798,334.50237145996095,0.037719376385211945,-0.01921340450644493,-0.7457489371299744,0.6648809313774109,-0.0859732119083845,0.1583642943371475,2.2831006570198054,0.14795729517936707,-0.0042356038466095924,-0.024704013019800183,0.6839243296533823,-0.37138148020952944,-8.819163579940795
44.99,4.900000095367432,250.0,20.615015029907227,30.63023376464844,-79.78277330566445,40.45900467408757,334.95039239501955,0.037923723459243774,-0.017004681751132008,-0.744876503944397,0.6659066677093506,-0.09532350300401488,0.14677988070403736,2.1589980985887105,0.16742803156375885,0.032988633960485465,0.014535561203956602,0.778080435320735,-0.4371689055114985,-9.192962043285368
45.09,5.0,251.0,20.640056610107425,28.276508331298828,-79.78277332865655,40.45900471087446,335.165587097168,0.037916868925094604,-0.015591682866215706,-0.744549036026001,0.6663076877593994,-0.09973037877118016,0.13326249442364907,2.131226486147645,0.12890397012233734,-0.028616463765501976,0.0650467500090599,0.6782531151920558,-0.4330355453118682,-9.410580791831014
45.29,4.900000095367432,249.0,22.481822967529297,11.34718132019043,-79.78277343306384,40.45900493603493,335.59932580566414,0.03521721065044403,-0.014429926872253418,-0.7440091371536255,0.6670847535133362,-0.12260142827883225,0.12502721560587032,2.0001882881921897,-0.052278369665145874,0.02890233695507049,-0.03572097793221474,0.5325077567249537,-0.18370889944955707,-8.457848922014238
45.5,4.900000095367432,248.0,21.82449531555176,17.136072158813473,-79.7827735380386,40.45900510160335,335.956358581543,0.04522129148244858,-0.017056258395314217,-0.7422837018966675,0.6683405041694641,-0.0888604122291087,0.08632516284143472,1.3435686614037283,0.04955050349235535,0.1707618236541748,0.051063742488622665,0.4674034689366818,-0.23920948270708325,-6.9153177648782735
45.6,4.900000095367432,248.0,21.236032485961914,23.27484130859375,-79.78277354434871,40.459005143322074,336.07405725097664,0.04792545363306999,-0.018756074830889702,-0.7418733239173889,0.6685621738433838,-0.0908196731810267,0.08157929176408849,1.0108874460330657,-0.01987297460436821,-0.01261256355792284,0.008573809638619423,0.5705323462933303,-0.31744489923119545,-6.5111073482036605
45.69,4.800000190734863,249.0,21.14463233947754,25.81941032409668,-79.78277364216552,40.45900530457488,336.1706224975586,0.04705319181084633,-0.01806839928030968,-0.7419241666793823,0.6685866117477417,-0.07683445668333473,0.06670115519731773,0.7992090508852024,0.013754202052950859,-0.11926545202732085,0.021921981126070026,0.5756068158522248,-0.4209762842953205,-7.30182164311409
45.9,4.800000190734863,247.0,20.94305229187012,28.729759216308594,-79.78277374763744,40.4590055141916,336.3254763183594,0.0393851101398468,-0.012251738458871841,-0.7432377934455872,0.6677547097206116,-0.061144838960900436,0.03206241094158088,0.623093949084739,0.0488419383764267,-0.0964183583855629,0.09389684349298476,0.679691384062171,-0.4837915333360434,-8.964168680906297
46.09,4.699999809265137,246.0,20.79656219482422,29.453371047973643,-79.78277379234055,40.459005580079946,336.44924035644533,0.03812868520617485,-0.013150254264473915,-0.7436504364013672,0.6673510074615479,-0.05400127248883133,0.02243500861372081,0.6359523700781171,0.017006417736411098,0.1957696378231049,-0.2431580871343613,0.6515080969780683,-0.17881600420922042,-9.502660405039787
46.2,4.699999809265137,246.0,20.507339477539066,32.570465087890625,-79.78277395045146,40.45900573300426,336.5556246337892,0.04297791793942452,-0.014372946694493294,-0.7429905533790588,0.6677660346031189,-0.05965017591724483,0.027790672807720282,0.7135469369015749,-0.07404045760631561,0.01999349519610405,-0.10333766788244247,0.7400308489054441,-0.233960583396256,-10.056063698530195
46.29,4.599999904632568,245.0,20.55241203308105,32.18878173828125,-79.78277397881237,40.45900575219372,336.63008752441414,0.04629004374146462,-0.015161183662712576,-0.7423180937767029,0.6682748198509216,-0.05502046206204344,0.03604686304469319,0.7774600383394339,-0.11389803141355515,-0.02476709522306919,-0.02214230597019196,0.7854199334979057,-0.3917627178132535,-10.319231672286989
