time,wind_speed,wind_angle,battery_voltage,battery_current,position_x,position_y,position_z,orientation_x,orientation_y,orientation_z,orientation_w,velocity_x,velocity_y,velocity_z,angular_x,angular_y,angular_z,linear_acceleration_x,linear_acceleration_y,linear_acceleration_z
0.0,0.699999988079071,92.0,24.29980087280273,-0.015903547406196594,-79.78278383549303,40.459002927630216,262.7896179609299,0.01190680544823408,0.008900714106857777,-0.8738331198692322,0.4859986305236816,0.007475643957008219,0.011116181157956071,-0.005903352406963727,-1.601155418029521e-05,-0.00020338104513939467,-0.006522235460579395,-0.04039174803066999,-0.2863076718896628,-9.801922656297684
0.2,0.699999988079071,89.0,24.29353904724121,-0.007951773703098297,-79.78278382902165,40.459002916816075,262.7889848403931,0.01190680544823408,0.008900714106857777,-0.8738331198692322,0.4859986305236816,0.007590245642081601,0.010921917246269194,-0.006282954570604313,0.005342040676623583,0.0017666803905740378,0.005908122751861811,-0.03555869767209515,-0.3018166805058718,-9.803616594672203
0.3,0.699999988079071,81.0,24.30105209350586,-0.02385532110929489,-79.7827837939188,40.45900296970711,262.77242583560945,0.011905171908438206,0.008899058215320109,-0.8738334178924559,0.4859983921051026,0.004516598410216452,0.011473253727859577,-0.005575783988608362,0.008072273805737495,0.0006491684471257031,0.005150942131876946,-0.04027597772888839,-0.2864690733142197,-9.801206957101822
0.5,0.699999988079071,77.0,24.29729652404785,-0.015903547406196594,-79.78278378459399,40.4590029614814,262.77184266376497,0.011905011720955372,0.008899290114641191,-0.8738331794738771,0.485998660326004,0.003083410512995453,0.01163868282215774,-0.005799311167792885,-0.002791497157886625,0.000961745623499155,-0.005331347696483135,-0.0402826654817909,-0.29117783607915043,-9.801097029447556
0.6,0.699999988079071,70.0,24.29980087280273,-0.015903547406196594,-79.78278375424331,40.45900298716028,262.75772029685976,0.011906598694622515,0.008904426358640194,-0.8738333582878113,0.4859981536865234,0.006175319627639796,0.014784104262537531,-0.002465090891083598,-0.003983978647738695,-0.0048662512563169,-0.003000085940584541,-0.039050862709991634,-0.29807183124125003,-9.803162266016008
0.8,0.699999988079071,68.0,24.30105209350586,-0.015903547406196594,-79.7827837434224,40.45900297545496,262.7574289493561,0.011909292079508305,0.00890561379492283,-0.8738328218460083,0.4859991371631622,0.005794677131811335,0.014662663291039909,-0.002831927428779871,8.91926174517721e-05,-0.0009532807162031534,-0.0010774031979963183,-0.04046845162287355,-0.2899376964569092,-9.800815778374671
0.9,0.699999988079071,63.0,24.29729652404785,-0.039758868515491486,-79.78278375897159,40.45900305315959,262.74240929412844,0.011913987807929516,0.008892495185136795,-0.8738322257995605,0.48600026965141296,0.0031848331461351177,0.005358924768011157,-0.002997742235393747,-0.002288847463205457,-0.0018014840316027407,-0.004286513198167086,-0.04027787807397545,-0.2862673078291118,-9.801954231262208
1.1,0.699999988079071,60.0,24.288532257080078,-0.03180709481239319,-79.78278377331843,40.45900313057437,262.7262508325577,0.011917108669877052,0.008882992900907993,-0.8738315105438232,0.4860016405582428,0.0034158531558700234,-0.0013172407723736994,-0.007196038073547295,0.0048113525845110425,0.0044602593407034865,0.0043684630654752254,-0.03640457964269445,-0.3016828706301749,-9.80364290714264
1.21,0.699999988079071,56.0,24.29729652404785,-0.015903547406196594,-79.78278377868372,40.459003128274176,262.72475475597383,0.011918204836547376,0.008883620612323284,-0.8738312721252441,0.486001968383789,0.0024018475851165914,-0.0013891332902513619,-0.007738999840009099,0.003395898034796119,0.003435768885537982,0.001928778830915689,-0.03753185201436282,-0.29715266721323136,-9.802809678912164
1.4,0.699999988079071,54.0,24.29103660583496,-0.06361418962478638,-79.78278379031066,40.45900318620856,262.70960861968996,0.011922895908355713,0.008883274160325527,-0.8738308548927307,0.486002653837204,0.00531941898826575,-0.002453067673909601,-0.009500079379794309,-0.004329625982791185,-0.0017292725387960672,-0.004641358274966478,-0.037954783863388006,-0.2939147532731295,-9.803311370015145
1.5,0.8000000119209291,49.0,24.298547744750977,-0.02385532110929489,-79.78278378519165,40.45900323492353,262.6950165681839,0.011925274506211279,0.008888481184840202,-0.873830258846283,0.4860036075115204,0.007334344950407394,0.0008498321491935091,-0.010631760729658149,0.00039229396497830754,-0.001395209925249219,-0.0003427794727031141,-0.03738525820663199,-0.29923266800120474,-9.803773884773255
1.7,0.8000000119209291,48.0,24.29604339599609,-0.02385532110929489,-79.78278378864731,40.45900322929712,262.69391960430147,0.011925274506211279,0.008888481184840202,-0.873830258846283,0.4860036075115204,0.006848763850378331,0.0008333512881000001,-0.010879871246022823,-0.002968288725242019,0.0014522857964038847,-0.005976609420031309,-0.04032669318839908,-0.2879343672841788,-9.801148484945298
1.8,0.8999999761581421,46.0,24.29479217529297,-0.03180709481239319,-79.782783775155,40.459003285023634,262.6816725187302,0.011922931298613548,0.008888502605259418,-0.8738303184509277,0.4860035181045532,0.005273640231493964,0.0022322901943170785,-0.008076615683562981,-0.004310488700866699,-0.0012923863250762224,-0.009471130557358265,-0.03491195679176599,-0.30251723175868395,-9.803914217948916
2.0,0.8999999761581421,45.0,24.29729652404785,-0.06361418962478638,-79.78278377642515,40.45900328001935,262.68082517910005,0.011925794184207916,0.008889215998351574,-0.8738303780555725,0.4860033988952637,0.00548529386685115,0.0018704910529829199,-0.008569152065638255,0.007169071584939957,0.0022535896860063076,0.0039700441993772975,-0.036830444235820325,-0.3015651588700712,-9.80339440047741
2.1,0.8999999761581421,43.0,24.29604339599609,-0.02385532110929489,-79.78278376105553,40.45900332179161,262.66971213150026,0.0119271632283926,0.008893495425581932,-0.8738305568695068,0.4860030114650726,0.008010732181692773,0.0047443583414114926,-0.006484232370341418,0.003570882137864828,0.002042445819824934,0.0014654689002782106,-0.03827754103112966,-0.2953215202689171,-9.80310905635357
2.21,1.0,41.0,24.29980087280273,-0.02385532110929489,-79.78278376076459,40.459003314008605,262.66903132724764,0.011927780695259571,0.008893890306353569,-0.8738303780555725,0.4860032200813294,0.006954962547882136,0.004731788949632703,-0.006694534248064482,-0.002100917510688305,-0.0010643168352544308,-0.001309132087044418,-0.039108421239070594,-0.2985737598873675,-9.803433576822279
2.4,1.0,37.0,24.298547744750977,-0.039758868515491486,-79.78278374662119,40.45900337389693,262.65902263450624,0.011927622370421886,0.008892388083040714,-0.8738301396369934,0.4860037267208099,0.006011327959590149,0.0042461662376561396,-0.005356920898165185,0.0033539291471242905,0.001725669135339558,0.002808796474710107,-0.03587439478375018,-0.3010120670869947,-9.803768622279168
2.6,1.0,38.0,24.30105209350586,-0.007951773703098297,-79.78278375301073,40.45900343638378,262.6505991868973,0.011931320652365685,0.008888707496225834,-0.8738300204277039,0.4860039055347442,0.007192729840085255,0.0012879027958299333,-0.003929798653785299,-0.005824850406497717,4.055850877193734e-05,-0.006511423736810684,-0.04006907308939845,-0.28756946448236703,-9.801493470668794
2.7,1.0,38.0,24.298547744750977,-0.007951773703098297,-79.78278375960264,40.45900342449463,262.6497095279694,0.01193199213594198,0.008896445855498314,-0.8738296031951904,0.4860045313835144,0.006382087885125017,0.0010982047177369911,-0.0043824117342451015,-0.00243884208612144,-0.0011967368191108108,-0.0016422225162386894,-0.039689538544043904,-0.2926114637218416,-9.803012577295304
2.9,1.0,38.0,24.29103660583496,-0.04771064221858978,-79.78278374041405,40.459003486742354,262.6424203567505,0.01193307712674141,0.008876016363501549,-0.873833954334259,0.4859969317913056,0.006477598218248618,0.002036208589008289,-0.0035339170118459445,0.0005566169274970889,0.0005061380215920508,-0.00029307499062269926,-0.03887496201787144,-0.2915590928122401,-9.803174545168877
3.0,0.8999999761581421,38.0,24.29980087280273,-0.015903547406196594,-79.7827837465281,40.45900356261996,262.635736530304,0.011924422346055508,0.008847410790622234,-0.8738276958465576,0.4860090911388397,0.003937979675089358,-0.003477857597227709,-0.00252570835905348,-0.003925216849893332,0.003936932887881993,-0.005011186469346285,-0.04059744211379439,-0.2857318307831884,-9.801501072049142
3.2,0.8999999761581421,39.0,24.29353904724121,-0.007951773703098297,-79.78278375248298,40.459003561416246,262.63545388507845,0.011928792111575605,0.008846771903336048,-0.8738272786140442,0.4860096871852875,0.004002479015213304,-0.0037080735851544905,-0.0029346140721762037,0.002688333624973893,2.581282387836837e-05,0.007033430505543947,-0.03615273595321924,-0.30158118389546873,-9.803159927129746
3.3,0.8000000119209291,41.0,24.29729652404785,-0.015903547406196594,-79.78278373243357,40.45900360505257,262.6268270664215,0.011931903660297394,0.00886636320501566,-0.8738303780555725,0.4860036373138428,0.008241583241208512,0.0018287663360290203,-0.00673222815412368,0.004111827351152897,0.00102970318403095,0.0016246443847194314,-0.03982211502268911,-0.2893294763937593,-9.80258982360363
3.5,0.8000000119209291,41.0,24.30105209350586,-0.02385532110929489,-79.78278373510742,40.459003598511245,262.6261233739853,0.011904475279152392,0.00886900071054697,-0.8738316893577576,0.4860018491744995,0.007050879226732967,0.0019305636142161304,-0.006959254652730354,-0.0028956159949302678,-0.0060326922684907905,-0.002635996090248227,-0.03785890779923648,-0.29835357567295434,-9.802795060873033
3.61,0.8000000119209291,43.0,24.29729652404785,-0.015903547406196594,-79.78278371934391,40.459003661921074,262.6200162820816,0.011862578801810741,0.008870779536664486,-0.87382972240448,0.4860064983367921,0.0058512666746095105,0.002291900546977073,-0.005829006835542947,0.0004454442532733083,0.001184307737275958,0.006910922471433878,-0.03604118889430538,-0.3021115263551474,-9.804017128944398
3.8,0.699999988079071,42.0,24.30105209350586,-0.03180709481239319,-79.78278372050656,40.45900365673239,262.6194014005661,0.011856483295559885,0.008890974335372448,-0.8738309144973755,0.4860041737556458,0.0046753066935336296,0.002317941412564156,-0.006053068915084042,-0.0018615312874317167,-0.0017599895363673566,-0.008223917335271834,-0.04121414977591485,-0.2870119141973555,-9.801672395467758
3.91,0.699999988079071,41.0,24.29604339599609,-0.03180709481239319,-79.78278370120306,40.45900369177935,262.613671248436,0.011859858408570291,0.008898640051484108,-0.8738308548927307,0.4860039353370666,0.010143122468008392,0.007067488497562325,-0.004405351188545285,-0.0014664853224530814,-0.0007374708657152951,-0.005312202032655478,-0.03972784237470478,-0.2906429254822433,-9.801475929021837
4.1,0.699999988079071,41.0,24.29729652404785,-0.02385532110929489,-79.78278368444343,40.4590037712026,262.6089639120102,0.011856927536427976,0.008894196711480621,-0.873831033706665,0.4860038161277771,0.008467780105741523,0.005826258026984171,-0.0033304255352706643,0.0033093076199293137,0.0021684477105736732,-0.0008092597709037364,-0.03792132682632656,-0.2945142756029964,-9.801765366196632
4.2,0.699999988079071,40.0,24.29980087280273,-0.007951773703098297,-79.78278368330501,40.459003762534316,262.60859722423555,0.011856927536427976,0.008894196711480621,-0.873831033706665,0.4860038161277771,0.007271820588367708,0.005971577125069624,-0.003510944578313229,-0.003017436247318982,-0.00029477308271452785,0.0015529990196228027,-0.03846393016632647,-0.2989325048401952,-9.803845220804217
4.4,0.699999988079071,39.0,24.29980087280273,-0.03180709481239319,-79.78278366627521,40.45900383627451,262.6037961893082,0.01185828633606434,0.008891938254237175,-0.8738306164741516,0.4860045909881592,0.0058598828654490035,0.005209968539931513,-0.0027925232783027536,0.0005276110023260118,-0.0024441129062324762,0.005255626980215311,-0.03596644274890423,-0.3025976857915521,-9.803984384536744
4.5,0.699999988079071,37.0,24.29729652404785,-0.02385532110929489,-79.78278365115818,40.459003897208206,262.5993376426697,0.011860309168696405,0.008893603459000587,-0.8738306164741516,0.4860044717788696,0.00749602680071328,0.006423652534163039,-0.002615389403672666,0.004364718217402697,0.002405463252216577,0.00927578378468752,-0.037530289711430666,-0.30028432628139856,-9.802455922365187
4.7,0.699999988079071,36.0,24.298547744750977,-0.015903547406196594,-79.78278364867931,40.45900388901443,262.5990435533524,0.011860309168696405,0.008893603459000587,-0.8738306164741516,0.4860044717788696,0.005930158347936386,0.006732067207900656,-0.0028075385764039554,-0.0038069137372076507,-5.213317490415648e-05,-0.005867444444447757,-0.039426080365665264,-0.29025527335703377,-9.801969434022904
4.8,0.699999988079071,33.0,24.29729652404785,-0.02385532110929489,-79.78278361496189,40.459003934425056,262.59509879875185,0.011861557140946388,0.008902006782591343,-0.8738304376602173,0.4860046207904816,0.008960744300885901,0.01311837846042608,-0.002357611540972357,-0.005938046611845493,-0.0020729335956275463,-0.003471290459856391,-0.0383195907343179,-0.29671271905303004,-9.802347748875619
5.0,0.699999988079071,33.0,24.30105209350586,-0.02385532110929489,-79.78278360762965,40.45900392133328,262.59480566310884,0.011864352971315384,0.008902806788682938,-0.8738300204277039,0.4860052168369293,0.008803039238849586,0.012984342288451536,-0.0028319134205997696,0.003001806326210499,-0.0014712263364344835,-0.001868590246886015,-0.03995953372679651,-0.29111212799325586,-9.80113737523556
5.1,0.699999988079071,35.0,24.30105209350586,-0.015903547406196594,-79.78278362820298,40.45900400939768,262.59143072891237,0.011870265007019043,0.008891445584595203,-0.8738298416137695,0.4860058128833771,0.008890351508627672,0.004353636592245872,-0.0019272040931438933,-0.00046127746463753283,-0.0004958360223099589,-0.005895683076232672,-0.0411275059171021,-0.2869713856838644,-9.801306359767914
5.3,0.699999988079071,35.0,24.29604339599609,-0.02385532110929489,-79.78278362927145,40.45900400070927,262.59119242954256,0.01187034137547016,0.00889167282730341,-0.8738296031951904,0.4860061407089234,0.00868689215603108,0.004223088260526052,-0.002303176620171547,0.0009498961153440175,0.0022435295395553108,0.0043468899093568325,-0.035887034819461414,-0.3025833601132035,-9.803712489008905
5.4,0.699999988079071,35.0,24.286027908325195,-0.03180709481239319,-79.78278361391905,40.45900408959573,262.587885802269,0.011867170222103596,0.008891366422176361,-0.8738298416137695,0.4860058128833771,0.006307309379459492,0.004138513931181136,-0.002010196220123552,0.004519923590123653,-0.0008243700722232461,0.005774225108325481,-0.035782684860751035,-0.3005886921286583,-9.803232432603837
5.6,0.699999988079071,37.0,24.303556442260746,0.039758868515491486,-79.78278360153247,40.459004178839415,262.58524066734316,0.011849616654217243,0.008885764516890049,-0.8738315105438232,0.4860033988952637,0.004937980253703956,0.004369189482002118,-0.0016133444167205034,-0.00757226487621665,-0.000853427336551249,-0.005269671324640513,-0.040087098958902063,-0.289934553578496,-9.802175840735435
5.7,0.699999988079071,38.0,24.29103660583496,-0.015903547406196594,-79.78278360042884,40.459004173025946,262.5850418262482,0.011835889890789986,0.008875912055373192,-0.8738328814506531,0.4860013425350189,0.005132788902006013,0.0040956499613125285,-0.002043620331010377,0.0031607358250767,0.0009951698593795302,0.005912633147090674,-0.03708171919221059,-0.2976013131067157,-9.803117827177047
5.9,0.699999988079071,39.0,24.29604339599609,-0.04771064221858978,-79.78278356548515,40.45900423403881,262.5823982410431,0.011817010119557379,0.008869021199643612,-0.8738309741020203,0.4860054254531861,0.008390259521653037,0.0109906407610346,-0.0016283740919585002,0.0013543553650379179,0.0006195791647769513,0.003749128431081772,-0.038874491499736916,-0.2934099558368325,-9.80264771103859
6.0,0.699999988079071,40.0,24.29353904724121,-0.015903547406196594,-79.78278354705269,40.4590043064583,262.5798943691254,0.011834020726382729,0.008859330788254738,-0.8738271594047546,0.4860118925571442,0.009412915812166757,0.010350873528489587,-0.00137645743709107,0.0017436593770980835,0.0025439620949327946,-0.0014434048207476735,-0.040188379129394894,-0.2879885088466108,-9.801556035876272
6.11,0.699999988079071,40.0,24.302305221557607,-0.015903547406196594,-79.78278354227099,40.45900429469609,262.57970780658724,0.011832622811198236,0.008856210857629776,-0.87382572889328,0.4860145747661591,0.008769902941597464,0.010292723605075577,-0.001751626913117286,0.00017738174938131124,-0.0013509349664673214,0.003785649780184032,-0.036245930520817635,-0.3017984445020557,-9.803474507331849
6.3,0.699999988079071,42.0,24.29228782653809,0.11927660554647446,-79.78278355491864,40.459004427876685,262.5777172498703,0.011838302947580814,0.008863262832164764,-0.8738342523574829,0.4859991073608398,0.001221320736945109,-0.0013208941118167932,-0.0018467158480750907,0.0032377419993281364,0.0009077951544895767,0.006834153551608324,-0.04094231363385916,-0.2851247801631689,-9.800883021354675
6.5,0.699999988079071,42.0,24.29479217529297,0.02385532110929489,-79.78278355652928,40.45900442808442,262.57751972007753,0.01186119858175516,0.008862890303134918,-0.8738331794738771,0.4860003888607025,-0.00024278891248395723,-0.0012836877701031153,-0.0020448441482909968,-0.004955234471708536,-0.0014994894154369831,-0.004445523489266634,-0.041346438461914665,-0.2857013704441488,-9.801562467813492
6.6,0.699999988079071,39.0,24.29103660583496,0.02385532110929489,-79.78278352967115,40.4590044931601,262.57587904262544,0.011833962053060532,0.00887486431747675,-0.8738342523574829,0.4859988987445831,0.0029476245789836274,0.005521025182533106,-0.0020922967694215725,-0.004911388736218214,-0.0013649682514369488,-0.005022764205932617,-0.04031889994628728,-0.2877815905027092,-9.800999965667724
6.8,0.699999988079071,37.0,24.29103660583496,0.05566241592168808,-79.78278352618352,40.459004488266906,262.5756300144196,0.011831007897853851,0.008875876665115356,-0.8738379478454591,0.4859923124313354,0.003089122233976679,0.005191678461521106,-0.002610159055682125,0.004933920688927175,0.003378106281161309,0.00653398223221302,-0.0376340389600955,-0.3000956256687641,-9.802630754113196
6.9,0.699999988079071,34.0,24.289783477783203,0.039758868515491486,-79.78278348296527,40.45900460055542,262.5740096025467,0.011813664808869362,0.008881883695721626,-0.8738387823104858,0.4859910905361176,-0.002770282992497703,0.006040951493354042,-0.0025194540391172584,0.005206909030675888,-0.0014486454892903564,0.0040351119823753825,-0.03755682602059096,-0.2967532475665212,-9.802664667963985
7.0,0.8000000119209291,33.0,24.29479217529297,0.07951773703098297,-79.78278349574677,40.45900471218289,262.57307249832155,0.011829002760350704,0.008861231617629528,-0.8738307356834412,0.4860056340694428,-0.001349709778105902,-0.001113269065782289,-0.0016404896932535862,-0.006162442266941071,-0.0018561583710834386,-0.003430994227528572,-0.03805222908267752,-0.29554217956960205,-9.80242259323597
7.2,0.8000000119209291,31.0,24.29353904724121,0.06361418962478638,-79.78278349601169,40.45900471390914,262.57289583015444,0.011825446039438248,0.008878036402165891,-0.8738341927528381,0.4859990775585175,-0.0016405526481330429,-0.0012202722885745775,-0.001960277490081289,0.0015491923550143838,0.0011284048669040205,-0.001289671054109931,-0.03964458807371557,-0.29109325245022777,-9.801912131309509
7.4,0.8000000119209291,29.0,24.28477478027344,0.015903547406196594,-79.78278346013515,40.45900480322179,262.5719823293686,0.01183638907968998,0.008891003206372261,-0.8738405108451843,0.4859873354434967,0.00045229031868124334,0.005920825177297692,-0.0016095821725796134,0.001201105653308332,0.0018300659721717238,-0.007363396231085063,-0.040002547306939966,-0.2869749671034515,-9.801325070858002
7.51,0.699999988079071,25.0,24.29228782653809,0.03180709481239319,-79.78278343575445,40.45900489224996,262.5708280258179,0.011842316947877407,0.008872641250491142,-0.8738365173339844,0.4859947264194489,0.0028697529263027642,0.006919115299892602,-0.0016001184740338224,-0.003263995284214616,-0.0035977973602712154,-0.009134105406701565,-0.040336738522164524,-0.2862468608468771,-9.801758934259416
7.7,0.699999988079071,23.0,24.28477478027344,0.05566241592168808,-79.78278343072259,40.45900488679022,262.570635383606,0.011849432252347471,0.008862865157425405,-0.8738372921943665,0.4859932959079742,0.003020390511124084,0.006677861383656976,-0.002076701426336344,0.005932415369898081,0.0029677138663828373,0.00815976969897747,-0.03652316391700879,-0.3008453118056059,-9.80261087357998
7.81,0.699999988079071,21.0,24.28727912902832,0.05566241592168808,-79.78278342790993,40.45900500418419,262.56963068771364,0.011868629604578018,0.008840485475957394,-0.8738375902175903,0.4859926700592041,0.0017866515665690816,-0.00022983991581862682,-0.001993210617327873,0.001894100452773273,0.0007805307395756245,0.0021090281661599874,-0.039439812186174095,-0.29016047537326817,-9.800880097746848
8.0,0.699999988079071,18.0,24.29604339599609,0.03180709481239319,-79.78278342874405,40.45900500351055,262.5694199256897,0.011868612840771677,0.008848775178194046,-0.8738218545913696,0.4860208928585053,0.0003721024454658009,-0.00015170377567709232,-0.002271354207369397,-0.003730055410414934,-0.0005810084403492509,-0.001552335568703711,-0.037434539271052926,-0.29793613929301505,-9.801908038258553
8.11,0.699999988079071,17.0,24.288532257080078,0.06361418962478638,-79.78278338155506,40.45900509170271,262.56859583187105,0.011874603107571602,0.008872323669493198,-0.873830258846283,0.4860051870346069,0.0023905015090677807,0.006720894048988967,-0.002077797151904551,-0.0025828254874795675,0.0006884221802465618,0.002217351691797376,-0.03741225589765236,-0.3005237880349159,-9.803331250548363
8.31,0.699999988079071,16.0,24.28727912902832,0.06361418962478638,-79.78278337616588,40.45900508683126,262.56837231445314,0.011877751909196377,0.008873471058905125,-0.8738301396369934,0.4860052466392517,0.0015340780253991966,0.0068209941661406615,-0.0022333067367191163,-0.005208970513194799,0.002960413927212357,-0.0036125909537076963,-0.04098215692676604,-0.2859516312740744,-9.801370679140092
8.4,0.699999988079071,15.0,24.29103660583496,0.04771064221858978,-79.78278334899818,40.45900517377006,262.56495434570314,0.0118877487257123,0.008881832472980022,-0.8738268613815308,0.4860107004642487,0.005032764219334593,0.007729257827426195,-0.005959940176814724,-0.00486471364274621,0.00017617904813960195,-0.004245049320161343,-0.040235686758533125,-0.2868093264475465,-9.801568315029144
8.6,0.699999988079071,15.0,24.29479217529297,0.07156596332788467,-79.78278333788916,40.459005296274334,262.56437224674227,0.011884004808962343,0.008880711160600184,-0.8738292455673218,0.4860065877437592,0.004189522292654386,0.001385100467122883,-0.004275714801091089,0.004613822791725397,-0.00043274546624161287,0.003387364093214273,-0.037369258305989216,-0.29866157775744795,-9.80366980433464
8.7,0.8000000119209291,14.0,24.29479217529297,0.06361418962478638,-79.78278333846117,40.459005293164566,262.56392390060427,0.011877302080392838,0.00889059342443943,-0.8738313913345337,0.4860028624534607,0.0025794670339578745,0.0015086076696411092,-0.0044367570872886715,-0.005980648566037417,-0.003158949548378587,-0.003542684949934483,-0.039102784157730636,-0.2933645485527814,-9.802682794332505
8.8,0.699999988079071,16.0,24.29228782653809,0.07156596332788467,-79.78278329366283,40.45900538385752,262.56308109092714,0.011846043169498444,0.008900187909603119,-0.8738263249397278,0.4860125184059143,0.0037829293794580734,0.007483020015048769,-0.003345165805978223,-0.002262861467897892,-0.00200521107763052,0.0015734891640022395,-0.037102871951647104,-0.3013267021067441,-9.80380136668682
9.0,0.8000000119209291,19.0,24.29228782653809,0.07156596332788467,-79.78278324201081,40.45900547173352,262.56282777118685,0.011834798380732536,0.008904748596251011,-0.8738307952880859,0.4860046207904816,0.00456728185854131,0.01131617977316,-0.002620589940940682,0.007265981286764145,0.001216644304804504,0.00705503998324275,-0.035682976129464805,-0.3011210993863642,-9.802520241737367
9.2,0.8000000119209291,19.0,24.29228782653809,0.06361418962478638,-79.78278323284131,40.459005463463534,262.5625397615433,0.011839462444186207,0.008899983018636703,-0.8738178014755249,0.4860279560089111,0.0030291078311827572,0.01165551903385257,-0.0028116308085389826,-0.006255387794226408,0.0010178579250350597,-0.005195494741201401,-0.03777849487960338,-0.2926321482472122,-9.801815652251243
9.3,0.8000000119209291,19.0,24.279767990112305,-0.05566241592168808,-79.78278319630877,40.459005569346225,262.56254262256624,0.011845467612147331,0.008886825293302536,-0.8738083839416504,0.4860448837280274,0.0024022474317718107,0.008614885874873822,-0.002289657647688873,-0.0012755623320117593,0.0003932002582587302,0.0026457610074430704,-0.03918382748030126,-0.2913435132801533,-9.80162678718567
9.5,0.8000000119209291,18.0,24.288532257080078,-0.02385532110929489,-79.78278318888272,40.459005563800346,262.562291806221,0.011832310818135737,0.008888788521289825,-0.8738122582435608,0.4860382080078125,0.0010310242370996433,0.008790293389555792,-0.0025248080579112053,-0.0031823604367673397,-0.002154147019609809,-0.0015841302229091525,-0.039113697437569504,-0.2878890330903232,-9.801292326450348
9.61,0.8000000119209291,17.0,24.29729652404785,-0.007951773703098297,-79.7827831706133,40.459005664155136,262.5621733121872,0.011831767857074738,0.008884643204510212,-0.8737960457801819,0.4860674738883972,0.002601389155354932,0.004356594721761954,-0.002360946138968141,-0.00452586915344,-0.0017576353857293725,-0.004311103839427233,-0.03844808329828084,-0.2975259936600924,-9.801883479952812
9.8,0.8000000119209291,17.0,24.29729652404785,-0.015903547406196594,-79.78278316791166,40.459005660201285,262.56191188621517,0.011834703385829927,0.008889222517609595,-0.8738002777099609,0.4860596656799317,0.001992097094151593,0.004339417782183039,-0.0026700451842412943,-0.0012446106411516664,0.0006389433983713387,-0.0020270070526748896,-0.04046706290915609,-0.28886687027290464,-9.800546806454658
9.9,0.8000000119209291,15.0,24.29228782653809,-0.039758868515491486,-79.78278313153828,40.45900577525765,262.55968004989626,0.01183745265007019,0.008890206925570965,-0.8737883567810059,0.486081063747406,-0.002043569965924922,0.00243120551141669,-0.006100127431219142,-0.005695261061191561,0.0019893511198461056,-0.003882130607962608,-0.04064393661450595,-0.28944835759699344,-9.801888157725335
10.1,0.699999988079071,14.0,24.298547744750977,-0.015903547406196594,-79.78278309008141,40.4590058753564,262.5603824310303,0.011825909838080406,0.008895616978406906,-0.8737848997116089,0.4860875010490418,0.0007296665311567418,0.002992727523226161,-0.0040324169335352895,0.0020629039499908686,0.002355123637244105,0.0064632464200258255,-0.039038711464963856,-0.29502740532159805,-9.802913174629213
10.2,0.6000000238418579,13.0,24.298547744750977,-0.007951773703098297,-79.78278308690156,40.45900587403863,262.55996853637697,0.011825909838080406,0.008895616978406906,-0.8737848997116089,0.4860875010490418,-0.0007052628237329817,0.0030912992960372373,-0.004250704152801582,1.325649100181181e-05,-0.0009060074808076023,-0.0006655166507698598,-0.03914275992661715,-0.2992621416226029,-9.803696701526643
10.4,0.6000000238418579,13.0,24.29479217529297,0.0,-79.78278304362286,40.459005956839476,262.55778402614595,0.011831256560981274,0.008900800719857216,-0.8737842440605164,0.4860883951187134,0.0043872204698123096,0.0056316275942273975,-0.0071203439175391795,0.0018168583046644926,0.0001095266779884696,0.004692534450441599,-0.036991596696898346,-0.3020997588336468,-9.80365518629551
10.5,0.6000000238418579,15.0,24.29729652404785,-0.007951773703098297,-79.7827829992321,40.459006038257606,262.557053273201,0.011832748539745808,0.008902176283299923,-0.8737844824790955,0.4860878586769104,0.005823881521187836,0.006788245615425986,-0.005565191642076368,0.0027338352520018816,0.0008463207632303237,0.0046220566146075726,-0.03640642288606614,-0.2993308464065194,-9.80307455778122
10.7,0.5,15.0,24.29980087280273,-0.015903547406196594,-79.78278299536534,40.45900603131183,262.5564771347046,0.011832748539745808,0.008902176283299923,-0.8737844824790955,0.4860878586769104,0.004320963156887416,0.00696283208596645,-0.0056889428807641645,-0.006517688743770122,0.0001597829395905137,-0.003454354126006365,-0.039519439386203885,-0.2926271050237119,-9.802030245065687
10.8,0.5,16.0,24.29604339599609,-0.007951773703098297,-79.78278294677969,40.45900612669829,262.5540724449158,0.011833206750452518,0.008900041691958904,-0.8737842440605164,0.4860883951187134,0.003414777335564875,0.005892799947243483,-0.007772810133830969,0.002809931058436632,-0.0008877416839823127,0.004609226249158382,-0.04080247838515789,-0.290589679274708,-9.8013671708107
11.0,0.4000000059604645,14.0,24.29729652404785,-0.02385532110929489,-79.78278294269299,40.459006121700966,262.55327076244356,0.011834664270281792,0.008900521323084831,-0.8737843632698059,0.4860881567001343,0.0022398074053385725,0.006056855711357381,-0.008030438385471971,-0.002247869269922376,-0.0005574866663664579,-0.007496101781725883,-0.03976071469020099,-0.2869200398214162,-9.800853785276411
11.1,0.4000000059604645,17.0,24.298547744750977,-0.02385532110929489,-79.78278288777366,40.45900617685663,262.55270034599306,0.011838671751320362,0.008907556533813477,-0.8737846612930298,0.4860874116420746,0.008687735551039709,0.009897781627908856,-0.005113176088816757,-0.003572413232177496,-0.0010006182128563523,-0.0015974470879882574,-0.0395149352028966,-0.2919909279607237,-9.802413822412491
11.3,0.4000000059604645,17.0,24.29980087280273,-0.015903547406196594,-79.78278288348595,40.45900616564085,262.5521434001923,0.011840511113405228,0.008908094838261604,-0.8737848401069641,0.4860870242118835,0.00852919540018972,0.009681559364002784,-0.0054223894409756,0.0026633350644260645,-0.0002767363912425935,-0.0005754362209700048,-0.04003359236754477,-0.29262805519625545,-9.802088717222212
11.4,0.4000000059604645,19.0,24.289783477783203,-0.039758868515491486,-79.78278283040109,40.45900626761132,262.55149692821504,0.011839098297059536,0.008902975358068943,-0.8737848997116089,0.4860869646072388,0.00469499533610055,0.007543255265122053,-0.003625908623026432,-0.0021161581389606,0.00015819596592336893,-0.005211852490901947,-0.04118627043440938,-0.2867945805005729,-9.801744316220283
11.6,0.4000000059604645,19.0,24.29729652404785,-0.015903547406196594,-79.78278279207133,40.459006372366,262.55057830142977,0.01183839701116085,0.00889559555798769,-0.8737848997116089,0.4860871136188507,0.0036664012136738092,0.002861183453410829,-0.003038208676352932,0.005824259947985411,0.002474924782291055,0.0056891036219894895,-0.037215851121582086,-0.2991563983820379,-9.802986264824867
11.7,0.4000000059604645,20.0,24.29604339599609,-0.015903547406196594,-79.78278278924392,40.45900636573154,262.54990405368807,0.011840222403407095,0.008896201848983766,-0.873785674571991,0.4860856533050537,0.002018586609853159,0.002891968673495822,-0.003601414844584063,0.001773069496266544,0.0008914190111681818,-0.002081930870190263,-0.03979852059390397,-0.2911727745831013,-9.80195540070534
11.9,0.4000000059604645,20.0,24.29479217529297,-0.039758868515491486,-79.78278275411365,40.459006464928,262.54687506484987,0.011842650361359121,0.008893239311873913,-0.8737853765487671,0.4860861599445343,0.0042313134255516855,0.00035716288237070434,-0.006342945674426464,-0.0006753060151822865,0.0005444514681585133,0.0021300301887094975,-0.03779967047972605,-0.30134883016347885,-9.803481523990632
12.0,0.4000000059604645,16.0,24.298547744750977,-0.03180709481239319,-79.78278267500936,40.459006572364906,262.5455048732758,0.01183439139276743,0.008892333135008812,-0.8737857341766357,0.4860857129096985,-0.0018887358391296801,0.003402364141122614,-0.004510762194466772,0.006198893766850233,0.00019235625222790984,0.0067504122853279105,-0.037030702235642816,-0.2998536240309477,-9.802034338116648
12.2,0.4000000059604645,13.0,24.29980087280273,-0.015903547406196594,-79.78278266968726,40.459006572854435,262.54504746723177,0.01183439139276743,0.008892333135008812,-0.8737857341766357,0.4860857129096985,-0.003493981325493669,0.0036910883279305203,-0.004811133555264077,-0.003459000028669834,-0.0015821681590750813,-0.003259910037741065,-0.0383919226191938,-0.29351315919309856,-9.80146072626114
12.3,0.4000000059604645,13.0,24.29729652404785,-0.02385532110929489,-79.78278263265527,40.459006645773385,262.5437100582123,0.011845194734632969,0.008895779028534891,-0.8737866878509521,0.4860839247703552,0.005410382967436545,0.0026513287613159444,-0.0030900449741406762,0.001103642163798213,-0.0002701524936128408,0.003602010663598776,-0.040150920404121285,-0.2918444734811783,-9.801082411408425
12.5,0.4000000059604645,11.0,24.29604339599609,-0.015903547406196594,-79.78278263310658,40.45900664075084,262.5433724575043,0.011846772395074371,0.00889626145362854,-0.8737867474555969,0.4860836565494538,0.0042019082215680025,0.002716478188129677,-0.0032733541188269696,-0.004464939236640929,-0.001885661855340004,-0.00282301171682775,-0.04067222708836198,-0.28740501154214143,-9.801996331214905
12.6,0.4000000059604645,9.0,24.298547744750977,-0.015903547406196594,-79.78278254518412,40.4590067396059,262.54170948791506,0.0118393637239933,0.008897632360458374,-0.8737871050834656,0.4860831797122955,0.00048464470920711047,0.00700156970594479,-0.0025778106421908303,-0.0046177105978131286,0.0007014449220150709,-0.0019112674053758387,-0.038769351253286004,-0.29581491563469176,-9.802586899995806
12.8,0.4000000059604645,9.0,24.29604339599609,-0.015903547406196594,-79.78278253861542,40.459006735965,262.54142898845674,0.011841527186334131,0.008898387663066387,-0.8737874627113342,0.4860824644565582,7.469861844185337e-05,0.006901160789148669,-0.0028648997625396948,0.0005034650093875825,0.0002303356886841357,-0.002317012054845691,-0.04035729970782995,-0.28920361507683995,-9.801627956628801
12.9,0.4000000059604645,10.0,24.28727912902832,-0.039758868515491486,-79.78278247613898,40.45900683105784,262.5393597536087,0.011849300935864449,0.008902444504201412,-0.8737887740135193,0.4860797822475433,-0.0006312768057240138,0.006281650575238528,-0.002588261734067816,-0.0007641619886271658,0.0002646296634338796,-0.005201474763453007,-0.04059294706676155,-0.28763398485258224,-9.801972942352297
13.1,0.4000000059604645,12.0,24.286027908325195,-0.02385532110929489,-79.78278241650911,40.45900691895584,262.5373727731705,0.01185557711869478,0.008912362158298492,-0.8737864494323729,0.4860836565494538,0.004049914213009793,0.007344224085291571,-0.0020911766457459005,0.005557458382099867,-0.00036091561196371913,0.003613603068515658,-0.03857605509459973,-0.29669155944138764,-9.802523165345193
13.2,0.4000000059604645,13.0,24.29729652404785,-0.02385532110929489,-79.7827824110398,40.45900691298375,262.5371398382187,0.011837303638458252,0.008895996026694775,-0.873778760433197,0.4860983788967133,0.002745411822305,0.007463495053298215,-0.002386352728556691,2.476214103808161e-05,0.0027892054058611393,0.0007768064388073982,-0.03786764664575458,-0.2988408862799406,-9.802697412371637
13.4,0.4000000059604645,12.0,24.29729652404785,-0.039758868515491486,-79.7827823242686,40.45900701261552,262.5370146684647,0.01182274241000414,0.008883041329681873,-0.8737748861312866,0.4861057996749878,0.00021239304418819017,0.009133572506227695,0.0013552708905967368,0.007832740433514118,-0.0010807882063090801,0.00753318890929222,-0.03692036116495729,-0.30035646630451085,-9.803913048505784
13.5,0.4000000059604645,10.0,24.29604339599609,-0.03180709481239319,-79.7827822349486,40.4590070961335,262.5347184591293,0.011835988610982895,0.008888217620551586,-0.8737696409225464,0.4861147403717041,0.0022171688030586762,0.013209731933433621,0.0002227485353897308,0.004497035406529903,0.0012311502359807491,-0.0002211270038969815,-0.03872904201038182,-0.2920053815469146,-9.80181623697281
13.7,0.4000000059604645,10.0,24.29980087280273,-0.03180709481239319,-79.78278222269573,40.45900708862249,262.5347177438736,0.01183247473090887,0.008908086456358433,-0.8737675547599792,0.4861182868480682,0.0012674276299525539,0.013216470109284121,-6.281023967968249e-05,0.0023733500856906176,0.0005704764625988903,0.00401858100667596,-0.03743457353208213,-0.3015511620976031,-9.803628289103507
13.8,0.30000001192092896,8.0,24.29604339599609,-0.007951773703098297,-79.78278215611958,40.45900718381733,262.53240460681917,0.011839108541607857,0.0089010214433074,-0.873762845993042,0.4861266314983368,0.0009550706521367632,0.010700337897965706,-0.0007861887441255133,0.004388070665299892,0.0008772402070462704,0.004473782144486904,-0.03979242669884117,-0.28626813009381297,-9.800758475661278
14.0,0.30000001192092896,9.0,24.29729652404785,-0.015903547406196594,-79.78278214536316,40.45900717853929,262.53231484222414,0.01184011809527874,0.008900272659957409,-0.8737563490867615,0.4861384630203247,-0.0005383172985659167,0.01097768228201767,-0.0009416555111330141,-0.0011304996442049742,-0.00211148033849895,-0.0018952959217131136,-0.0382809625659138,-0.292631764523685,-9.802543630599978
14.1,0.30000001192092896,11.0,24.29729652404785,-0.015903547406196594,-79.78278206147839,40.459007241290216,262.52968723106386,0.011841290630400179,0.008906867355108261,-0.8737564086914062,0.4861381649971008,0.0042129310487476175,0.015405510744985031,-0.0013052031074642135,0.0005558176198974252,0.0005972322542220353,0.004873966798186302,-0.03582072830758989,-0.3013281821832061,-9.80360606968403
14.3,0.30000001192092896,11.0,24.28727912902832,-0.04771064221858978,-79.78278204857672,40.459007230984255,262.5295293979645,0.011844256892800331,0.008907624520361423,-0.8737565279006958,0.4861378371715546,0.0030554432577498355,0.015482166886454454,-0.0014271070219056285,-0.006768606603145599,-0.0002864001435227692,-0.008420692756772041,-0.0408184029115364,-0.2866510130837561,-9.80227758228779
14.4,0.30000001192092896,13.0,24.29353904724121,-0.04771064221858978,-79.7827819968704,40.45900733471103,262.5264444999695,0.01184579823166132,0.008900932967662811,-0.8737562298774719,0.4861384332180023,0.002289721118972316,0.010614423026771607,-0.0014982709085938474,-0.0028830391820520163,-0.004036320839077234,-0.0012313766637817025,-0.038783384570851925,-0.29491570523008703,-9.802796815037727
14.6,0.30000001192092896,13.0,24.29479217529297,-0.02385532110929489,-79.78278192439316,40.45900739719144,262.52517849731447,0.011848090216517448,0.008911380544304848,-0.8737565279006958,0.4861375987529754,0.010282642788566368,0.017485822712212634,0.0026637203000844487,0.0013776954729110007,-0.002851155120879412,-0.002229287521913648,-0.040358788920566435,-0.2891920668259263,-9.801399915218353
14.7,0.30000001192092896,13.0,24.29103660583496,0.0,-79.78278191297247,40.45900738131167,262.5253995113373,0.011848090216517448,0.008911380544304848,-0.8737565279006958,0.4861375987529754,0.009646176512421957,0.017444918385470774,0.002433791318984069,0.0016077094478532672,0.0007358664297498763,0.006139961071312428,-0.03688469771761448,-0.3018363234959543,-9.803778562545775
14.9,0.30000001192092896,14.0,24.28477478027344,-0.04771064221858978,-79.78278183589008,40.459007471726586,262.5236415319443,0.011846624314785005,0.008907361887395382,-0.8737568855285645,0.4861372709274292,0.005708239735744268,0.01623604476679957,0.0036632842120888796,0.006102968007326126,0.003428219817578793,0.0013473882572725413,-0.03751674061641097,-0.2983156053163111,-9.802974570393562
15.0,0.4000000059604645,21.0,24.29980087280273,-0.03180709481239319,-79.78278177660594,40.45900756822846,262.5218541078568,0.011847027577459812,0.008900893852114677,-0.8737564086914062,0.4861382246017456,0.003578090835685335,0.01230223679263277,0.005099153586396677,0.0001017326139844954,0.002209082478657365,-0.003113411366939545,-0.04076083524618298,-0.287768251542002,-9.80083448946476
15.2,0.4000000059604645,24.0,24.29604339599609,-0.03180709481239319,-79.78278176635143,40.45900755980279,262.5223305873871,0.011847027577459812,0.008900893852114677,-0.8737564086914062,0.4861382246017456,0.003165735351104729,0.012194831935137427,0.004698294040408621,0.004424437414854765,0.0024143217597156767,0.007567012216895819,-0.03591570216463879,-0.30087595487013463,-9.802736588716508
15.3,0.4000000059604645,27.0,24.29479217529297,-0.015903547406196594,-79.78278172119803,40.45900766216564,262.52047640609743,0.011849838308990002,0.00889628753066063,-0.8737567663192749,0.4861375391483307,0.0023878123079176536,0.008931706950749883,0.0060684202472175396,0.002893249038606882,0.002630081027746201,0.004150776192545891,-0.04022743670269848,-0.2907210040837526,-9.801913300752641
15.5,0.4000000059604645,28.0,24.30105209350586,-0.007951773703098297,-79.78278171338005,40.4590076564002,262.5210601739884,0.011851268820464613,0.008896655403077602,-0.8737572431564331,0.4861365854740143,0.0012994810562844074,0.008986779657020267,0.005788354865860667,-0.0022640821989625692,-0.0015571021940559149,0.002468965249136091,-0.0383781496854499,-0.3010828366689384,-9.803452872633935
15.6,0.4000000059604645,28.0,24.302305221557607,0.0,-79.78278170426623,40.459007784670725,262.51631075668337,0.011854181066155434,0.008892453275620937,-0.873764157295227,0.4861241579055786,0.0005547131799610182,0.00021039261523378343,0.0021885994069891076,0.003561016172170639,0.002071973867714405,0.0069203758612275115,-0.03768366948701442,-0.2989740931615233,-9.802601518034935
15.8,0.4000000059604645,29.0,24.286027908325195,0.2942156493663788,-79.78278170384354,40.45900778456821,262.5165229492188,0.011848270893096924,0.008905955590307713,-0.8737679719924927,0.4861170649528504,-0.0012916584562047944,0.0006085387263960758,0.0020368860238784646,-0.0031833727844059467,-0.00265558622777462,-0.010348127223551272,-0.0386604422936216,-0.2990956787019968,-9.802402127981187
15.91,0.4000000059604645,32.0,24.28101921081543,0.278312087059021,-79.78278169043908,40.459007901206405,262.5139417104721,0.011847098357975485,0.008887246251106262,-0.873771071434021,0.4861119389533997,-0.0019336502466651367,-0.002839940177659561,0.0037154113474674173,-0.0028316949028521768,0.0013795526465401053,0.0005468578892759979,-0.02895444574998692,-0.2950873940996826,-9.806601598262787
16.1,0.4000000059604645,34.0,24.28227233886719,0.2862638533115387,-79.78278165734056,40.45900799165084,262.5106462888718,0.011843080632388592,0.00889077503234148,-0.8737751245498657,0.4861046969890594,0.0027535392857066143,0.0013135481763167725,0.005586900077514724,-0.0040946356020867825,0.0011471324833109975,-0.00181324512232095,-0.03982896722853184,-0.2895548134669661,-9.803433576822279
16.2,0.4000000059604645,38.0,24.28477478027344,0.2942156493663788,-79.78278165792541,40.45900798934917,262.5111743860245,0.01184201892465353,0.008868773467838764,-0.8737785220146179,0.4860990345478058,0.0014590827841728922,0.0008535832941369197,0.00518099966659246,0.0014848137507215142,0.002376928227022291,-0.0018271682783961296,-0.0338595630414784,-0.2947977924719453,-9.802586899995806
16.4,0.4000000059604645,39.0,24.28101921081543,0.2942156493663788,-79.78278163033171,40.45900809254992,262.5097723655701,0.011848137713968756,0.008882896043360233,-0.8737770915031433,0.4861012101173401,0.0008615575535659004,0.00143498188349281,0.009651256174526671,-0.0042005437426269054,-0.005670642945915461,-0.008723312988877295,-0.04978101049549878,-0.2925738405436277,-9.800103587508202
16.5,0.4000000059604645,42.0,24.28101921081543,0.3339745104312897,-79.7827816323227,40.45900817492672,262.50415880012514,0.011829051189124584,0.008879073895514011,-0.8737717866897583,0.4861114323139191,0.008082269479515963,0.0019978914257331244,0.0050204046475250536,-0.002600574633106589,-0.0004029899719171226,0.005176207516342402,-0.0291911643370986,-0.2943687530234456,-9.805060272216798
16.7,0.4000000059604645,43.0,24.27475929260254,0.41349223256111145,-79.78278163579697,40.45900816913446,262.5046282463074,0.011833383701741695,0.008864506147801876,-0.8737803101539612,0.4860961139202118,0.00677012007817725,0.0016234027445335565,0.004911191581172079,-0.002391803776845336,-0.0033887678291648626,-0.005847633350640535,-0.03302955763181672,-0.2831724131293595,-9.800050377845764
16.8,0.4000000059604645,45.0,24.27475929260254,1.5187888145446775,-79.78278160438764,40.45900828160947,262.49892682361605,0.011838996782898905,0.008867530152201653,-0.8737763762474059,0.4861029982566834,-0.0005055119914341703,0.002024440720356682,0.0024836824512308115,-5.998907363391481e-05,0.0034769799094647173,0.002616794779896736,-0.035072003763634715,-0.28680084798485045,-9.802834821939467
17.0,0.4000000059604645,48.0,24.25222206115723,0.5645759701728821,-79.78278160272798,40.45900827845864,262.4992826633453,0.011964626610279085,0.00911156740039587,-0.8738690018653871,0.4859288632869721,0.0019381518233533624,0.0048659591413905395,0.003149605017242005,-0.002211688319221139,-0.019443441182374958,0.0035578433889895678,-0.06457756786141547,-0.29380292527377605,-9.783489308953287
17.1,0.4000000059604645,50.0,24.277263641357425,0.22264966368675232,-79.78278156644313,40.45900836222407,262.49554628658296,0.011942481622099876,0.009017869830131527,-0.8738211393356323,0.4860173761844635,-0.00017657596548084682,0.008826767466779316,0.0046032652238422395,0.006366485729813576,0.0022356249392032623,-0.015333439223468304,-0.012601090057287366,-0.32724234759807586,-9.813655679225922
17.3,0.4000000059604645,51.0,24.15456199645996,1.900473952293396,-79.78278155939533,40.459008358704466,262.49591607379915,0.011909093707799913,0.00900828093290329,-0.8737882375717163,0.4860773682594299,0.0021639545220139265,0.007524704128828444,0.003985450244451164,0.0124878641217947,0.010568027384579182,0.007128640078008175,-0.03329206563765183,-0.2928735103458166,-9.820309810638427
17.4,0.4000000059604645,51.0,24.2509708404541,0.4612028896808624,-79.78278158729474,40.45900844747956,262.48900276947023,0.01197751611471176,0.009102525189518929,-0.8738258481025696,0.4860063195228577,0.0005170019946196837,0.0036892713195985187,0.0013263386568793814,-0.027094209566712383,-0.00023672018141951407,-0.006333981640636921,-0.03506976309232414,-0.2328854814358056,-9.79355002820492
17.6,0.4000000059604645,49.0,24.276010513305664,0.2306014448404312,-79.78278160555188,40.45900852993956,262.48479980754854,0.011959661729633808,0.009077008813619614,-0.8738038539886475,0.4860467612743378,0.007594757186520292,0.0006150977912647115,0.004051321619630399,-0.012235952541232107,-0.009009420871734621,0.013134384527802469,-0.055746385585516686,-0.32273809120059016,-9.802093394994737
17.7,0.4000000059604645,46.0,24.23844909667969,1.351801514625549,-79.782781609829,40.459008523356104,262.48517948913576,0.011951589025557041,0.008958626538515091,-0.8738040328025818,0.4860487580299378,0.009054905807792498,0.00011981697433542356,0.004792459515394532,-0.009048428386449814,0.0014329899568110704,0.001723122433759272,-0.037194476807489996,-0.30934354539960623,-9.79675664126873
17.9,0.4000000059604645,46.0,24.076934814453125,4.405282974243164,-79.7827815907769,40.459008616037785,262.4779734067917,0.011892301961779594,0.008961250074207783,-0.8737855553627014,0.4860835671424866,0.0039856896695503,0.004980225862024998,0.002363441364679592,0.0019492573337629442,0.009847362525761127,-0.004528866615146399,-0.04537432037293911,-0.2860851670615375,-9.819612822532656
18.01,0.4000000059604645,47.0,24.02309608459473,5.653711318969728,-79.78278162191833,40.45900870906407,262.46903557109835,0.01199964340776205,0.009017991833388805,-0.8738393187522888,0.4859832227230072,0.005714309128958363,0.0015554651643623287,-0.0019591803941868585,-0.016389038413763046,0.011454248800873756,-0.01862522028386593,-0.04604257032740861,-0.2611494418233633,-9.796476559638977
18.2,0.4000000059604645,45.0,23.92168045043945,7.522377967834473,-79.782781624822,40.45900870432065,262.46869880485536,0.011997967958450316,0.009065713733434677,-0.8738658428192139,0.4859345853328705,0.0024409012847201325,0.001881470015515017,-0.0031174537287383874,-0.026580972597002983,-0.0008244625059887768,-0.0004146719293203205,-0.025680898055434227,-0.2578428779169917,-9.788268823027613
18.3,0.4000000059604645,45.0,23.86659049987793,8.945745468139648,-79.7827816182763,40.45900879961103,262.4613009147644,0.011985274963080885,0.009347326122224331,-0.8739413022994995,0.4857939183712006,0.0021695712451284253,0.003749653924663626,-0.0030687845146916,0.08097320050001144,0.06161392852663994,-0.10097469389438628,-0.0507226406224072,-0.2783747909590602,-9.82380410671234
18.5,0.4000000059604645,44.0,23.732622146606445,11.768625259399414,-79.78278161616565,40.45900879637324,262.46097523498537,0.012120634317398071,0.009340638294816015,-0.8740381598472595,0.4856164753437042,-0.0047686746633040355,0.0006457090758161988,-0.005010714862551018,-0.0544966422021389,-0.09701892733573914,0.061336249113082886,0.02548092556418851,-0.4543566497415305,-9.839412664175034
18.6,0.5,42.0,23.63996887207031,13.398738861083984,-79.78278165888129,40.459008936316316,262.4504347496033,0.012639123015105723,0.008833210915327072,-0.8741214871406555,0.4854626059532166,-0.006590650418534749,-0.013633342304164835,-0.0060611906464531715,0.01860177330672741,-0.008031250908970833,-0.003561496501788497,-0.14054996117949484,-0.3902665615081787,-9.80572685480118
18.8,0.5,41.0,23.46468162536621,16.810050964355472,-79.78278166688357,40.45900894657881,262.4499407463074,0.013164389878511429,0.008143377490341663,-0.8741418719291687,0.4854239523410797,-0.001570513280124549,-0.010308603268542904,-0.0015827933197119348,0.052111852914094925,0.1167578101158142,-0.1141982153058052,0.010694831516593695,-0.2775103714875877,-9.86729101896286
18.9,0.6000000238418579,41.0,23.38705444335937,18.41630744934082,-79.78278172882715,40.45900904500552,262.44050080108644,0.015528083778917791,0.0073262769728899,-0.8741780519485474,0.4853020310401917,-0.006466134148429625,-0.011973983678886194,-0.002251057644652834,0.01448361948132515,0.08758024126291275,-0.035598453134298325,0.14614390103146435,-0.2784456884488464,-9.829505141973497
19.1,0.6000000238418579,40.0,23.21302032470703,22.56713485717773,-79.78278175758511,40.45900913815366,262.4330220870972,0.016054674983024597,0.006617364473640919,-0.8742349147796631,0.4851927161216736,0.011546132895728277,-0.005506916477705967,-0.0045860446302923965,0.10381130129098892,-0.016740456223487854,0.02643266506493092,0.06988211165182293,-0.4793007986247539,-9.86294887661934
19.2,0.699999988079071,38.0,23.10409164428711,24.730016708374023,-79.78278176317951,40.459009147227185,262.4331997089386,0.01586018316447735,0.0052156150341033936,-0.8742555379867554,0.4851788282394409,-0.012512153821942141,-0.00641677985587666,0.006213713987172713,-0.09269597381353377,-0.044339619576931,-0.009462744928896429,0.04403422990813852,-0.3708755864202977,-9.836477361917495
19.3,0.699999988079071,34.0,23.00893592834473,26.23290252685547,-79.78278182271012,40.4590092022959,262.4339676551819,0.003784914501011372,0.0017452515894547105,-0.8750441670417786,0.4840253293514252,0.030068642890584488,0.0015644810136993658,0.11191477781722486,-0.17611771821975708,-0.0013759289868175983,0.017119333148002625,0.277085790541023,-0.007660693041980267,-10.429250543117524
19.5,0.699999988079071,26.0,23.2856388092041,19.664737701416016,-79.78278224936658,40.45900911425618,262.4516790561676,-0.013050828129053116,-0.003365406766533852,-0.8757186532020569,0.4826337397098541,0.05186700596312049,0.02995398747601465,0.20073357586616533,0.12978938221931458,-0.17305487394332886,0.07354577630758287,0.02925344632007182,0.10282646667212247,-10.247273497581482
19.6,0.699999988079071,20.0,23.24432182312012,20.85750389099121,-79.78278224169371,40.45900906848754,262.47069651412966,-0.009309048764407636,-0.0007142799440771341,-0.8764017224311829,0.48149043321609497,0.053459253250242415,0.03671989931141263,0.17477459678744311,0.27812400460243225,-0.0037650375161319967,0.15146587789058685,0.09247106602415443,-0.13308851201087238,-9.732326756715775
19.8,0.8000000119209291,24.0,23.11160469055176,23.131710052490234,-79.78278212078588,40.45900899199425,262.47930783557894,-0.0027521909214556213,-0.001673900755122304,-0.8775768280029297,0.4794252216815949,0.03345121344079152,0.07360632314811535,0.055346509705298655,0.1863412708044052,0.09571700543165207,0.11571669578552245,0.05851056085433811,-0.257274327557534,-9.517854979634285
20.0,0.8000000119209291,26.0,23.13163757324219,22.46376037597656,-79.78278204279927,40.45900893686598,262.4826816968918,-0.002137024886906147,-0.0032480619847774506,-0.877998948097229,0.4786469638347626,0.021428864498386026,0.09500604154990323,0.010924786186499086,0.12305697798728946,0.024235587567090988,0.05308115854859352,0.2175440138205886,-0.16185277478769422,-9.411190071702004
20.1,0.8999999761581421,37.0,23.172954559326172,22.05821990966797,-79.78278193754622,40.45900893373501,262.47763413715364,-0.0015907541383057833,-0.005570387002080679,-0.8780779242515564,0.4784826338291168,-0.008033435207019494,0.10595118470651443,-0.010763026055310678,-0.1514533907175064,-0.03189188614487648,-0.1077260598540306,0.07968404592946172,0.15633375238627195,-9.592770091295245
20.3,0.8999999761581421,45.0,23.10659599304199,22.85339736938477,-79.78278184959305,40.45900888658578,262.47598118114473,0.00027505232719704514,-0.007642637472599746,-0.8777773380279541,0.4790079891681671,-0.0012157900422899953,0.10016305147481776,-0.02304416614123533,-0.07729892432689668,-0.019750747829675674,-0.07864751666784286,-0.010793261169455946,0.14407225079834465,-9.67120931982994
20.4,1.0,60.0,23.001422882080078,24.769775390625,-79.78278177799417,40.459008824117724,262.47489697265627,0.008394960314035416,-0.007530713453888894,-0.8773396611213684,0.4797374308109283,0.010743853736287723,0.08569765747325615,-0.018981259411679184,-0.040779996663331985,0.04510749131441116,-0.0875503271818161,0.12279063334688545,0.3057547437027097,-9.68356097817421
20.6,1.100000023841858,68.0,22.972625732421875,25.294591903686523,-79.7827816392772,40.45900889351654,262.4761651210785,0.00688672810792923,-0.007429541554301976,-0.8776509165763855,0.4791934192180634,-0.0003205448843990254,0.06899887354418137,0.020358250017797338,0.060530360788106925,-0.06656567007303238,0.07032255083322525,0.21171364545822144,-0.14171136438846588,-9.990866074562073
20.7,1.100000023841858,82.0,23.02896881103516,24.2052001953125,-79.78278157464271,40.45900886794167,262.4798541717529,0.0027139084413647647,-0.009316454641520977,-0.8782463073730469,0.4781100451946258,-0.008700412257285111,0.0580636605949863,0.04504859631798098,-0.1882963478565216,-0.05773525312542915,0.00937779154628515,0.06072858790867031,0.19963519826531406,-10.0051566696167
20.9,1.2000000476837158,89.0,23.03522872924805,23.632671356201172,-79.78278147912731,40.459008908226686,262.4847955160141,-0.0035782100167125468,-0.008195215836167336,-0.8786342144012451,0.4774119257926941,0.015002726219978843,0.03925751123152989,0.07581873492126638,0.12847021222114566,-0.009722089394927023,0.008354815654456615,-0.014137009712867441,0.17447707783430816,-10.01902860403061
21.01,1.2999999523162842,99.0,22.96887016296387,24.83338928222656,-79.78278143762633,40.45900888440113,262.4923593454361,0.0004280020948499441,-0.006542385555803776,-0.8779704570770264,0.4786700904369354,-0.002709633068763263,0.03700645374090149,0.07203076655449911,-0.05113877356052399,0.08420579880475998,-0.17418299615383148,-0.13913027549162507,0.3625964772328735,-9.714372296333314
21.1,1.2999999523162842,103.0,22.927553176879893,26.471454620361328,-79.78278130430172,40.4590088538574,262.48702651786806,0.004821083042770624,-0.007768415380269289,-0.8760783076286316,0.4820822477340698,0.023783371583080082,0.031830953949315656,0.03660922365192346,0.0958445742726326,0.03792183846235275,-0.002253180369734764,0.10144622228108346,0.05105754446703941,-9.816099815368652
21.3,1.399999976158142,104.0,23.295656204223643,19.704496383666992,-79.78278126980584,40.459008862229375,262.4922555141449,-0.002060210332274437,-0.009618615731596948,-0.8746442794799805,0.4846654534339905,0.00821428670671514,0.033723234111846564,0.013733698831747378,-0.1981140822172165,0.050293777137994766,-0.08559270948171616,0.011947524379938842,-0.12447945540770887,-10.08545180439949
21.41,1.399999976158142,101.0,22.710947036743164,28.67409706115723,-79.78278124236147,40.459008828278215,262.48845273780825,-0.006668440531939268,-0.00938287191092968,-0.8741683959960938,0.4854865372180938,0.009247107507779429,0.04296531302127318,-0.06297205009968204,-0.130995973944664,-0.07213686406612396,-0.10891468077898027,0.10112388538196684,0.1760263341665268,-9.20515758097172
21.6,1.399999976158142,92.0,22.564456939697266,33.44515991210937,-79.78278122983961,40.45900887892825,262.49298769760134,-0.007263645064085722,-0.006435134913772346,-0.874201774597168,0.48546579480171204,0.029079524192147637,0.03883648739348476,-0.0015653920015673598,0.15276016294956207,-0.047911301255226135,0.06258255243301393,0.2300529988110065,-0.06236351508647204,-9.94312472820282
21.8,1.399999976158142,92.0,22.34159278869629,38.00947952270508,-79.78278114669078,40.45900882193094,262.51436704921724,-0.008953078649938107,-0.005552301183342935,-0.8747665286064148,0.4844302535057068,-0.015481708062528918,0.06418378820418805,0.2413382586534445,-0.19404096901416776,-0.11765708029270172,-0.11774271726608275,0.1651963954232633,0.20901959566399456,-10.980747059583663
21.9,1.399999976158142,91.0,22.41421127319336,36.60996627807617,-79.78278131122883,40.45900879476293,262.52196604537966,-0.006347210146486759,-0.0038354420103132725,-0.8747153878211975,0.4845803081989288,0.010094171435914763,0.06945316337890578,0.36147152416203904,-0.012976515106856823,-0.04693173244595528,-0.017640670761466026,0.10194618662819267,0.13036610322073106,-11.164376528263093
22.0,1.399999976158142,94.0,22.469301223754886,34.614070892333984,-79.78278129057277,40.45900881206942,262.61860222148897,-0.0019765384495258327,-0.004130953922867775,-0.8740952014923096,0.4857332706451416,-0.009157511601770812,0.07523221772488772,0.7648812742794054,-0.10856761038303377,-0.002694681519642473,-0.01636456698179245,0.08283124580048025,-0.10502330213785173,-11.920926711559297
22.2,1.399999976158142,101.0,22.09619140625,43.07476043701172,-79.78278114293603,40.45900876465343,262.81339103508,-0.004512721672654152,-0.00833855289965868,-0.8709055781364441,0.4913590550422669,0.005941108496389587,0.06897336058595317,1.196409328061445,0.06248492747545242,0.0421975702047348,-0.11261982470750807,-0.041912942295894026,0.1478932235017419,-12.124104591608047
22.4,1.399999976158142,109.0,22.052370071411133,41.30946731567383,-79.78278118899304,40.45900881086223,262.9255663805008,-0.004906591959297657,-0.0084534315392375,-0.8686378002166748,0.49535125494003296,-0.0013606790154147407,0.06314790652210031,1.4595411634944389,0.0415804423391819,0.05765401571989059,-0.13501478731632233,-0.12494456486776473,0.2199675385281444,-12.572756770849226
22.51,1.5,119.0,22.01981544494629,42.55789566040039,-79.78278111285977,40.459008817079095,263.0858970336914,-0.004052145406603813,-0.007312854751944542,-0.8668467402458191,0.4985045790672302,-0.0027734485270247697,0.05342348705793345,1.7524704244586844,0.10655029118061066,0.12690062820911407,-0.0677519291639328,-0.20773079624399546,0.19703220058232546,-12.73818385720253
22.6,1.600000023841858,125.0,22.07490539550781,42.14440155029297,-79.78278100552727,40.459008891961524,263.4393158607483,-0.0013931778958067298,0.00016467769455630332,-0.8661852478981018,0.499721109867096,-0.02374469229477126,0.07327613251088155,2.2879969654040204,0.2652686834335327,-0.027215586975216862,0.04686838760972023,0.046351317018270485,0.09181705495342612,-12.743262748718262
22.8,1.8999999761581416,133.0,22.07740974426269,41.142478942871094,-79.78278088504398,40.45900891577097,263.68211073207857,0.0009482874884270133,0.006545198615640403,-0.8666231036186218,0.4989194571971893,-0.0541986567451204,0.07173551488116943,2.5679480642053787,0.17453938722610474,0.0245409831404686,-0.03690756112337112,-0.0069925572909414774,0.1276156369317323,-12.591952010393145
22.91,2.0,139.0,22.45803451538086,33.691665649414055,-79.7827806235844,40.45900901206833,264.14806172776224,0.011301063001155852,0.010521339252591131,-0.8677891492843628,0.4966927170753479,-0.09575346019478702,0.10178335783427828,2.9212730535874747,0.2499772608280182,0.04010418057441712,0.11181015521287918,0.2387455792352557,-0.10637832127511501,-11.795175322294234
23.1,2.299999952316284,154.0,22.58949851989746,30.93239974975586,-79.78278032937006,40.45900909240702,264.5841992028356,0.01919581927359104,0.010471328161656857,-0.8692225217819214,0.4939373135566712,-0.12980120197134726,0.16458453575309034,3.001127443415124,0.07079340517520905,0.012790580280125141,0.020099777728319168,0.3283879998698831,-0.3116703352332115,-10.782190818786624
23.3,2.4000000953674316,160.0,22.63457298278809,29.54084014892578,-79.7827801462002,40.45900901094165,264.88762358355524,0.021199211478233337,0.009292145259678364,-0.8699199557304382,0.4926495850086212,-0.11976499430592945,0.19092465987049467,3.059750918065024,0.06208176538348197,-0.03327977657318115,0.09393691271543504,0.31995668035000563,-0.29174814060330395,-10.496224551200866
23.4,2.799999952316284,174.0,22.478065490722656,32.093360900878906,-79.78278005985749,40.45900911229054,264.96226436424257,0.020868539810180664,0.008943780325353146,-0.8703703284263611,0.4918741583824158,-0.1120539983116044,0.21047050045439086,2.9318493440742843,-0.07768721133470535,-0.032586175948381424,0.04206506535410881,0.297307125069201,-0.22439289405941965,-10.09178200006485
23.6,2.9000000953674316,181.0,22.560701370239247,30.598426818847656,-79.7827797015255,40.45900899684504,265.3938544445038,0.017323542386293408,0.00555404694750905,-0.8697139024734497,0.493220865726471,-0.06766172617406528,0.22987308351510466,2.810496029760917,-0.1964663565158844,-0.006044729147106409,-0.03515554219484328,0.2614091678336263,-0.22542114520445464,-9.593779905438424
23.7,3.0999999046325684,186.0,22.58073425292969,30.28035545349121,-79.78277952692946,40.459008844709246,265.673202460289,0.01402394101023674,0.0013381208991631866,-0.869223952293396,0.4942178428173065,-0.029536477538108542,0.2399543894432725,2.7743397575619797,-0.111262746155262,0.002956615528091789,-0.038277901709079735,0.2683778429031372,-0.2256632930226624,-9.504011696577072
23.9,3.2000000476837163,187.0,22.479318618774414,32.196731567382805,-79.7827792034575,40.459008621782814,266.1542233877182,0.016824202612042427,-0.006999053992331028,-0.8686721324920654,0.4950523078441621,0.034434219016629464,0.2648017351631904,2.6851709695934325,0.015841228887438774,-0.009372462518513204,-0.022814106196165085,0.2304085460677743,-0.06261023104190827,-9.674462710618977
24.0,3.299999952316284,191.0,22.486831665039066,31.616252899169922,-79.78277906034467,40.459008454276656,266.42368466186525,0.02082623541355133,-0.006717678625136614,-0.8687442541122437,0.4947773218154907,0.04599923983652175,0.27584406004535045,2.6973742500313125,0.07049639523029327,-0.0016396783757954836,-0.0049547473900020105,0.19600906575098634,-0.21204752147197725,-9.896035931110383
24.2,3.4000000953674316,196.0,22.35787010192871,33.96997833251953,-79.78277858130392,40.45900803983603,266.92130047607424,0.021207885816693302,-0.0038310128729790453,-0.86891770362854,0.4944873452186585,0.052551603276341584,0.2651219826820488,2.695432984438331,0.026088034734129902,-0.06170100346207619,0.00468759797513485,0.14749892016872765,-0.16702383304014806,-9.985105397701263
24.3,3.299999952316284,200.0,22.446765899658203,32.27624893188477,-79.78277849087836,40.45900784100244,267.1911707572937,0.01837589405477047,-0.003890122752636671,-0.8693011999130249,0.4939257204532623,0.07116960215510823,0.2448304558736392,2.7009957011674564,-0.0851169154047966,-0.02521779946982861,0.003633133135735989,0.09872737663798034,-0.09919646037742497,-9.946978043317797
24.4,3.299999952316284,201.0,22.55319023132324,30.065656661987305,-79.78277820920779,40.45900711721186,267.68342286872866,0.014910690486431122,-0.007688839454203844,-0.8698435425758362,0.493042528629303,0.1428491001656211,0.2361099396320115,2.7037537462154915,-0.03455469384789467,0.03567306324839592,0.01706009916961193,0.10253341153264046,-0.21904978148639204,-10.071027892827988
24.6,3.4000000953674316,202.0,22.61078453063965,28.825180053710927,-79.78277772123546,40.45900697786942,268.3196128063202,0.014309627935290338,-0.014667173847556112,-0.8699814677238464,0.4926586151123047,0.12125024970633262,0.2264272286987673,2.670534244059664,-0.04164180159568786,0.1495569497346878,0.024759095162153244,0.11438136879354716,-0.08361760494299234,-9.473352406024931
24.7,3.4000000953674316,204.0,22.5744743347168,29.47722625732422,-79.78277767993931,40.459006798801816,268.58394486236574,0.015530516393482685,-0.017324652522802353,-0.8701462149620056,0.4922440946102142,0.12724768674300507,0.22467360017962307,2.6066751191158573,0.031611792743206024,0.07040254771709442,-0.02015196345746517,0.2425699871778489,-0.09968540637753903,-9.287631388306618
24.9,3.4000000953674316,208.0,22.379154205322266,33.36564254760742,-79.78277748318169,40.4590066625066,268.9421134643555,0.01621420308947563,-0.018634725362062454,-0.8704468011856079,0.491642564535141,0.10636501326730784,0.2210209217513205,2.571947713252685,0.019066743552684784,-0.08193249255418777,0.034977950155735016,0.28723140405490993,-0.15016762593761088,-9.213917879462242
25.1,3.299999952316284,210.0,22.509366989135746,30.70975112915039,-79.78277729446603,40.459006085900114,269.5901127510071,0.01467362605035305,-0.015466014854609966,-0.8711110949516296,0.49062326550483704,0.10719118647553848,0.20936271850868896,2.5582873614197243,0.05461177602410317,-0.08138883858919144,0.03508973494172096,0.3645335501432419,-0.24915278255939485,-9.57332868397236
25.2,3.4000000953674316,215.0,22.53315734863281,29.190961837768555,-79.78277728848373,40.45900595672837,269.8461671524048,0.0107876006513834,-0.01480683870613575,-0.8714200854301453,0.4901954531669617,0.09235783988281744,0.1818770047449256,2.5506384197384304,-0.03334776312112808,-0.06936271488666534,-0.01842697337269783,0.2745305755734444,-0.21678056845441465,-9.665150434970856
25.3,3.4000000953674316,216.0,22.70969581604004,26.36808204650879,-79.78277711438705,40.459005418448776,270.53837925720217,0.0086339907720685,-0.019083105027675632,-0.8718544244766235,0.4893170595169067,0.0981369207340915,0.15402484725349005,2.5671720067427723,-0.08089139312505722,0.07951769232749939,0.0641055703163147,0.2466617590561509,-0.11309870894998313,-9.407893411517145
25.5,3.4000000953674316,220.0,22.45803451538086,31.91046905517578,-79.78277699251737,40.45900483449742,271.2550750427246,0.010449961759150028,-0.021383734419941902,-0.8721432685852051,0.4886715114116669,0.08079139477737175,0.14415686042729353,2.5598958818738082,0.05271278694272041,-0.002801709808409214,0.021482275798916817,0.2362069009244442,-0.3422839078679681,-9.45700826883316
25.71,3.5,222.0,22.53065299987793,30.11336708068848,-79.78277700683047,40.459004777402676,271.510980670929,0.011446899734437466,-0.021961003541946408,-0.8722352385520935,0.4884591996669769,0.05798848057677462,0.13268320755133578,2.5598580843909295,0.050613783299922936,-0.00415432034060359,-0.045493390411138535,0.2292038369178772,-0.2410019832104445,-9.73096084713936
25.8,3.5999999046325684,224.0,22.55444145202637,29.548791885375977,-79.78277702433657,40.45900474654735,271.7675719909668,0.011685685254633428,-0.020258648321032524,-0.872249186038971,0.4885022640228272,0.033212378626677495,0.11865124005385473,2.5662879619841568,0.058887317776679986,-0.02130157127976417,-0.008524640463292599,0.2269749696739018,-0.2656192361935973,-9.802507377862927
25.9,3.5999999046325684,225.0,22.501855850219727,30.26445198059082,-79.78277706178389,40.45900436559812,272.50542504119875,0.012107749469578266,-0.015967098996043202,-0.8717527389526367,0.4895362257957458,-0.01301312474344814,0.08366895407468289,2.6274832449736967,-0.08921372145414352,0.02249239943921566,-0.015301346778869629,0.2035050317645073,-0.12700136865489187,-9.607284049987793
26.1,3.5999999046325684,225.0,22.52313995361328,29.44541931152344,-79.78277725107014,40.45900369313926,273.2899738006592,0.01270217914134264,-0.013591635040938854,-0.8710341453552246,0.4908702075481415,-0.005762853709669155,0.055526065050386056,2.7001977084726168,0.1319529116153717,0.028687879443168637,0.096059650182724,0.27700228499248625,-0.4086827326565981,-9.70336198925972
26.2,3.5999999046325684,227.0,22.49684715270996,30.359872817993164,-79.78277729328299,40.45900371374822,273.55905968475344,0.014493301510810854,-0.014518050476908684,-0.8701900839805603,0.4922890663146973,-0.026349896638026903,0.054258585176465784,2.674783295226861,0.08095451444387436,-0.013441127724945543,-0.06981364637613298,0.3055108051747084,-0.4134504792094231,-9.577371448874477
26.4,3.5999999046325684,228.0,22.47430992126465,30.646137237548828,-79.7827776332141,40.45900297256003,274.1663346939087,0.015386087819933891,-0.013538404367864132,-0.8695984482765198,0.4933341443538666,-0.0009315329841483797,0.06438791685307571,2.8025837249805465,-0.03189701959490776,0.024151138961315155,-0.09242325276136397,0.3076570622250438,-0.13610835221596065,-9.625536718368533
26.6,3.5999999046325684,228.0,22.453025817871094,30.654088973999023,-79.78277783258831,40.4590025695068,274.90621144104006,0.01391226053237915,-0.01094290241599083,-0.8693776726722717,0.4938312768936157,-0.0012551128883718198,0.05037293867655539,2.88357814245142,-0.013073964044451714,-0.03262780234217644,0.0087985098361969,0.3916999698802829,-0.2557969737052917,-9.875885256528855
26.7,3.5,227.0,22.575725555419922,28.586627960205078,-79.78277791134144,40.459002564107976,275.1953359298706,0.012919330038130285,-0.009522182866930963,-0.8697102665901184,0.4933017492294312,-0.0027698812423762875,0.03430683721317914,2.8971733242067907,0.01823046617209912,-0.05134133622050285,0.08145838230848312,0.3047901723906398,-0.28119738813489675,-9.936812074184418
26.8,3.5,227.0,22.4567813873291,30.91649627685547,-79.78277820093004,40.45900244895905,275.86389881896974,0.014163292013108732,-0.00925919134169817,-0.8707271218299866,0.4914753437042236,-0.009718138403396432,0.01593324587779038,2.898939837306305,-0.01652083732187748,-0.011177076026797295,-0.026131464168429368,0.23328148411586885,-0.16810112770646812,-9.665869642496109
27.0,3.5,226.0,22.26146125793457,34.28009796142578,-79.78277850154221,40.45900246029628,276.51469761657717,0.013536479324102402,-0.008500972762703896,-0.8705654740333557,0.4917929172515869,-0.009440826345538566,-0.008086999901414753,2.903438945993856,0.01113511435687542,0.07228927314281464,0.03568630293011665,0.2155846666730941,-0.2006745408475399,-9.786209433674813
27.1,3.5,227.0,22.431739807128906,30.87673759460449,-79.78277860988126,40.4590024801661,276.8060279541016,0.0114824827760458,-0.007236471865326165,-0.8703269958496094,0.4922873675823212,-0.01589298155032981,-0.004698558991075422,2.927404870508958,-0.05301978439092636,-0.019156021997332573,0.08020530641078949,0.22314118791371584,-0.2662463500723243,-9.957128809690477
27.3,3.5,228.0,22.54317283630371,28.11747169494629,-79.7827787136513,40.45900250142872,277.0990682296753,0.008776034228503704,-0.006079454906284809,-0.8700297474861145,0.4928837716579437,-0.013000086564136036,-0.0181636204098977,2.933097335599966,-0.014783197082579138,0.06326600909233092,0.0916025936603546,0.20240056581795213,-0.20626880960538985,-9.840715423822404
27.5,3.5,228.0,22.52689552307129,29.246623992919922,-79.78277893633111,40.45900248097757,277.71811348724367,0.00813961774110794,-0.007128012366592884,-0.8693541288375854,0.4940713047981262,-0.001456990358426436,-0.023176713126519415,2.866503758236152,-0.025619860738515854,-0.04337973520159722,-0.04048476740717888,0.3010275073908269,-0.13487310050055384,-9.478659923672677
27.6,3.4000000953674316,229.0,22.31780433654785,33.37359619140625,-79.78277926263058,40.459002594028675,278.34203678894045,0.0052726594731211645,-0.008314283564686775,-0.870377779006958,0.4922862350940704,-0.020078059201692203,-0.018220717621584902,2.825647685510355,0.08033263683319093,0.06656784564256668,0.02756410837173462,0.36208162989467385,-0.20421738708391787,-9.562842287421226
27.7,3.4000000953674316,230.0,22.362876892089844,31.830951690673828,-79.78277932363468,40.45900264080189,278.6253696136475,0.002618691418319941,-0.007810732815414667,-0.8711051344871521,0.4910276830196381,-0.026626726414443632,-0.011507156549758877,2.8441828638272355,0.020531466230750084,-0.04348935931921005,0.027490226551890373,0.31078225281089544,-0.18716458562761545,-9.924587885141372
27.9,3.4000000953674316,231.0,22.431739807128906,30.99601554870605,-79.78277940369938,40.4590026992737,279.24283940124513,0.00797561276704073,-0.007377400528639555,-0.8724965453147888,0.4884995222091675,-0.03757073694071751,-9.816377748305545e-05,2.856144365708192,0.07768209278583528,0.012321876361966131,-0.045649975538253784,0.29504615295678377,-0.1741940725967288,-9.679519967436793
28.0,3.299999952316284,231.0,22.356616973876953,32.069503784179695,-79.78277954712208,40.45900280192036,279.56277615356447,0.012448146939277649,-0.008285775780677795,-0.8729409575462341,0.4875968098640442,-0.07485177873765766,0.00045067052710093264,2.8614497705208968,0.00047038690536282957,0.057992883026599884,-0.061469510197639465,0.26674842489883305,-0.06107568411156535,-9.768111131787302
28.2,3.299999952316284,233.0,22.277738571166992,33.05552291870117,-79.78277957278738,40.45900287019518,279.84939629364015,0.015486306510865688,-0.009036195464432241,-0.873088538646698,0.487232118844986,-0.0902895276666588,0.02280148289633025,2.874884605303161,0.05783432349562645,0.04884150996804237,-0.01302202697843313,0.3141839436069131,-0.2349757331237197,-9.913538986444474
28.4,3.299999952316284,236.0,22.365381240844727,31.322036743164066,-79.78277965135881,40.45900297294087,280.4567456893921,0.016921289265155792,-0.004004561807960272,-0.8722781538963318,0.4887007474899292,-0.1092980416488248,0.03325332314470035,2.925178915076456,0.027495048940181732,-0.03757190704345703,-0.06046734377741814,0.2828116947412491,-0.2432079549506307,-9.991815662384033
28.5,3.299999952316284,239.0,22.45052146911621,30.69384765625,-79.78277967442484,40.4590030306392,280.7495322875977,0.015055243857204912,-0.0033819249365478754,-0.8717118501663208,0.4897759854793549,-0.1233554963532384,0.022850078345130573,2.9313024609305955,-0.12806116044521332,-0.020190762355923653,-0.06051654741168022,0.2206198685243726,-0.18964298279955985,-9.908592242002488
28.6,3.299999952316284,240.0,22.429235458374023,30.82902717590332,-79.78277969198791,40.45900315604243,281.357518737793,0.010476616211235523,-0.00529851857572794,-0.8709209561347961,0.4912830889225006,-0.09467170103029786,0.024815483284562338,2.950563934492691,-0.029902031645178795,0.04159628227353096,-0.04526713117957115,0.29595488335937264,-0.052792536690831185,-9.894672360420227
28.81,3.2000000476837163,240.0,22.405447006225586,29.715778350830078,-79.78277966330495,40.459003308732704,281.9604201965332,0.012186226435005665,-0.006416753865778446,-0.8702307939529419,0.4924518167972565,-0.08383080840462982,0.03657761274267267,2.9883760765548533,0.05767808854579925,-0.023756049573421482,-0.08535265177488327,0.2994165812060237,-0.11086800531484188,-9.994791895151137
29.0,3.2000000476837163,239.0,22.35912132263184,31.29022979736328,-79.78277965572833,40.45900335345653,282.2597003631592,0.01397582795470953,-0.005046317353844643,-0.869981050491333,0.4928613901138306,-0.08505677791115797,0.05261367160288435,2.9887968898178214,0.09367644041776656,-0.05084521695971489,0.006288684904575348,0.33260585233569145,-0.26659301687031983,-9.858680409193036
29.1,3.2000000476837163,239.0,22.47681427001953,28.50710868835449,-79.78277961735638,40.45900347519832,282.5657649688721,0.015252403914928438,-0.0026426368858665232,-0.8698945045471191,0.4929949045181274,-0.11562473089407466,0.05242482244211555,2.9610990822178134,-0.03020303882658482,-0.07830996066331862,-0.07046857476234436,0.3037630541436374,-0.14890594298020007,-9.723520265221596
29.3,3.2000000476837163,239.0,22.297771453857425,31.902517318725586,-79.78277958185885,40.459003551118606,283.15593678283693,0.017999367788434032,-0.0008747377432882786,-0.8698477745056152,0.4929911494255066,-0.11447443183760142,0.054306349631762944,2.933629628128504,0.0424119271337986,0.04247890040278435,-0.01791337877511978,0.3049114838428795,-0.12705604925751687,-9.690425609350203
29.4,3.2000000476837163,239.0,22.41671562194824,30.137222290039066,-79.78277944334704,40.45900365458881,283.75562817382814,0.016636893153190613,-0.002847313415259123,-0.8704441785812378,0.4919778108596802,-0.10258766491661624,0.07352783643937101,2.9675668585569666,0.015910543501377106,-0.035364199429750436,0.0002168065111618489,0.27164777034893633,-0.2633237472362817,-9.959091135263442
29.51,3.2000000476837163,239.0,22.34785270690918,32.82492446899414,-79.78277941158977,40.45900364527909,284.0569892578125,0.016342876479029655,-0.004071271512657404,-0.8706601858139038,0.4915967583656311,-0.09254864967885827,0.08544149133101456,2.9646977722400814,-0.028863625600934032,-0.05358712002635002,-0.02256949245929718,0.3251285791397095,-0.20432620011270047,-9.944107060432435
29.7,3.2000000476837163,239.0,22.26897430419922,31.98998641967773,-79.78277936194436,40.459003634191866,284.6564841918945,0.016983116045594215,-0.007669720333069563,-0.8710908889770508,0.4907682538032532,-0.07448760687540433,0.10724570293440842,3.0255420833805027,-0.08231467753648758,0.029734790325164795,-0.058578327298164375,0.31580102764070034,-0.061757268458604825,-10.087353318929672
29.9,3.2000000476837163,239.0,22.35787010192871,31.17095375061035,-79.78277919488578,40.45900366224554,284.9612670593262,0.01712996326386929,-0.008502096869051456,-0.8712430596351624,0.4904793202877045,-0.08261844996441367,0.12036980987247853,3.0289809491333455,-0.08757196366786958,0.03860892355442047,-0.06008926406502724,0.2533335782960057,-0.07331669760402293,-9.964492793083194
30.0,3.2000000476837163,239.0,22.395431518554688,30.359872817993164,-79.78277916117797,40.45900365670206,285.26467854309084,0.016645073890686042,-0.008557192049920559,-0.8712927103042603,0.4904067516326904,-0.07811045032194487,0.12404306475038275,3.0354896999767123,-0.06226557120680809,0.07207787781953813,-0.0376984030008316,0.27864248380064965,-0.08669664820656181,-9.90290757894516
30.1,3.2000000476837163,238.0,22.375398635864254,30.272403717041016,-79.782778983084,40.459003646541575,285.87396199035646,0.01627274975180626,-0.007531703915446997,-0.871634304523468,0.4898287653923034,-0.07101410160729832,0.1264173057872714,3.045681205707944,0.036534734070301056,-0.07366173714399338,0.024750536307692528,0.3477530644834041,-0.2462847780995071,-9.99811779141426
30.3,3.2000000476837163,236.0,22.31404685974121,31.441314697265625,-79.78277879984329,40.45900365037034,286.4936233215332,0.019690850749611855,-0.004149772692471743,-0.8718417882919312,0.4893740713596344,-0.0998370574410862,0.1233501770384524,3.0718860095010907,0.015129480510950087,0.00900863017886877,-0.07630568742752075,0.2768534368090332,-0.27048795685172083,-9.966311277151108
30.4,3.2000000476837163,235.0,22.514375686645508,28.23674964904785,-79.78277875050884,40.459003647838394,286.80182225036623,0.02053283527493477,-0.004665503744035959,-0.8718857765197754,0.4892565310001373,-0.11626247662824,0.11900212894699927,3.0788012991594287,-0.07081495225429535,0.05759593844413757,0.036925263702869415,0.16277928438037634,-0.25190914174541834,-9.827680810689927
30.6,3.2000000476837163,231.0,22.455530166625977,28.89674568176269,-79.78277865943512,40.459003578032714,287.1193423919678,0.02221861109137535,-0.005705282092094421,-0.8719293475151062,0.489094078540802,-0.09627804038987164,0.11970574892291475,3.05829348710097,0.05728140473365784,0.07006248086690903,-0.02509921602904797,0.35999457590281964,-0.1563332590274513,-9.826804897785188
30.8,3.2000000476837163,231.0,22.36162567138672,29.58059883117676,-79.782778598386,40.45900354556198,287.73691136169435,0.023614175617694855,-0.008731389418244362,-0.8722696900367737,0.4883767068386078,-0.09340420232224284,0.1298088781222723,3.0880762006790525,0.046972837299108505,-0.027489328756928444,0.1325899213552475,0.25777064653113485,-0.4081368219852448,-9.840530651807788
30.9,3.299999952316284,228.0,22.568214416503906,24.65049934387207,-79.78277845011733,40.45900348722463,288.3654933624268,0.022561643272638317,-0.007289759349077941,-0.8724068403244019,0.4882051348686218,-0.08196497180526263,0.1385111081647885,3.07475905336034,-0.014471137896180153,-0.0063449046574532994,0.016765296459197998,0.2364946752972901,-0.20938892042264345,-9.678920043110848
31.0,3.299999952316284,227.0,22.371641159057614,30.137222290039066,-79.78277837823317,40.45900342853167,288.6850238494873,0.02319967746734619,-0.0036246196832507853,-0.871994137763977,0.4889528751373291,-0.06581535870345663,0.11855458693004145,3.0205910269775598,0.16557033360004425,-0.094430573284626,0.1183384209871292,0.2622903797775507,-0.4485953150689602,-9.458647828102112
31.2,3.299999952316284,225.0,22.40043830871582,29.40566062927246,-79.78277838479497,40.45900337385132,289.2847572021485,0.021548127755522728,-0.002767449943348765,-0.8710986971855164,0.4906273782253266,-0.0719104899574823,0.08652944223902555,2.9718086700895148,0.06502620130777359,0.0781930610537529,0.01558755710721016,0.2967544535547495,-0.3830904199182987,-9.590986105799676
31.4,3.299999952316284,223.0,22.37289428710937,29.73168182373047,-79.78277829644884,40.459003287804094,289.60943562316896,0.019099745899438855,-0.0044193160720169536,-0.8706600666046143,0.4914944767951965,-0.06750063590516651,0.10987808869364583,2.9806331630790504,-0.13069982826709747,-0.06933016330003737,-0.11637507379055025,0.3036134567856789,-0.12709703458473087,-9.564512252211571
31.5,3.299999952316284,222.0,22.44050407409668,28.38783264160156,-79.78277829135814,40.459003237444186,289.9062648468018,0.018214443698525432,-0.004865891300141811,-0.8705056309700012,0.4917973279953003,-0.03518794875832765,0.1111610667709856,2.957471630956424,0.041690945625305176,0.09740523248910904,0.030096782371401787,0.2819861775264144,-0.11277926824986935,-9.589107980132104
31.7,3.299999952316284,221.0,22.350357055664066,29.74758529663086,-79.78277831405114,40.45900302628144,290.5457416229248,0.012536486610770227,-0.0057591372169554225,-0.8711138367652893,0.4908873736858368,-0.03163232517803132,0.12432371953369695,2.9921478739417324,-0.2122269570827484,0.02928150072693825,-0.11050725728273393,0.19329590287059548,-0.0005243125185370448,-9.700704429745675
31.8,3.299999952316284,220.0,22.24518585205078,32.60227203369141,-79.7827782902156,40.45900296862767,290.8461623840332,0.011077708564698696,-0.006480141542851925,-0.8715909719467163,0.49006587266921997,-0.002986417773524137,0.11662887288595156,3.013008729299186,0.09841828793287276,0.038577884435653687,-0.0071679726243019095,0.33936388146132235,-0.290674208085984,-10.011993234157565
31.9,3.299999952316284,219.0,22.498098373413086,26.638442993164066,-79.7827782037933,40.459002783021404,291.4849486999512,0.015937434509396553,-0.010749157518148422,-0.8716652393341064,0.489724725484848,-0.02317158814654805,0.1422622755239061,3.0811789470893194,-0.03754523023962975,0.09601186960935593,-0.0288696326315403,0.13789433855563402,-0.15345505848526955,-9.948995332717896
32.1,3.299999952316284,219.0,22.4279842376709,28.23674964904785,-79.782778158525,40.45900265378511,292.11627156066896,0.02361149340867996,-0.012732423841953278,-0.871566116809845,0.489543616771698,-0.06026679747743395,0.16975212596472344,3.057720207597627,-0.15758386254310608,-0.05384145677089691,-0.08783367276191711,0.2071764984726906,-0.03092442066874355,-9.666339173913002
32.2,3.2000000476837163,219.0,22.422975540161133,28.76156616210937,-79.78277814164204,40.45900261690454,292.42146450805666,0.023129263892769814,-0.011254380457103252,-0.8718214631080627,0.4891481399536133,-0.0487825437348072,0.16178780965456516,3.0348026617440538,0.14697852730751038,0.0977996215224266,-0.0017096424708142874,0.3599061367660761,-0.269099498949945,-9.648985807299617
32.4,3.2000000476837163,225.0,22.45427703857422,28.17313575744629,-79.78277813764862,40.45900251700722,293.0472045593262,0.020432237535715103,-0.0073745911940932265,-0.8724026679992676,0.4883049726486206,-0.05764361510673436,0.1218000581946619,3.0223058190070584,-0.17331014573574066,0.019506609067320824,-0.06215761601924896,0.2632882984913886,0.058739228099584574,-9.58769003033638
32.6,3.2000000476837163,223.0,22.355365753173828,30.495052337646484,-79.78277806050299,40.459002357365925,293.3742614440918,0.018650630488991737,-0.007445175666362047,-0.8729132413864136,0.4874621033668518,-0.03070150416964625,0.116696649710647,3.0189003169028505,0.14208883047103882,-0.004804035183042289,0.1858009248971939,0.27380062378942965,-0.5471679323539138,-9.651166818737986
32.7,3.299999952316284,224.0,22.401691436767575,28.682048797607425,-79.78277806503698,40.45900231847436,293.6758800201416,0.017428141087293625,-0.008782017976045609,-0.8735696077346802,0.4863079786300659,-0.04482144029549864,0.11494763255288434,3.0062974966831333,-0.12127087265253067,0.02008841745555401,-0.03995436057448387,0.2052119984664023,-0.2366461912728846,-9.642227010726927
32.8,3.299999952316284,225.0,22.336584091186523,30.495052337646484,-79.78277806922556,40.45900224766868,294.303599899292,0.020311033353209496,-0.008075561374425888,-0.8738159537315369,0.4857653677463532,-0.03694879397581778,0.11049836343242216,3.016223253010075,0.07141630351543428,-0.015290268696844578,0.030598785728216168,0.33849831081926823,-0.3452042997255921,-9.712428681850431
33.0,3.4000000953674316,225.0,22.281494140625,31.775287628173828,-79.78277803823032,40.459002197405866,294.92386585998537,0.018297230824828148,-0.009564243257045746,-0.8740465044975281,0.4854035675525665,-0.06041851628581905,0.1237010322577738,3.0295064183966076,-0.04103736951947212,0.10338374972343443,-0.016850335523486137,0.274208722896874,-0.1467578038573265,-9.765045436620714
33.2,3.4000000953674316,225.0,22.439252853393555,27.89482307434082,-79.7827780338903,40.459002180554755,295.22802502441414,0.018385672941803932,-0.010001965798437595,-0.8743125796318054,0.4849117696285248,-0.05785735790813658,0.11024493888944588,3.0498889992968965,0.07288619130849837,0.04775796085596085,0.02366163209080696,0.3164605935662985,-0.42033831652253867,-9.967246831655503
33.3,3.4000000953674316,225.0,22.330324172973643,29.413612365722656,-79.78277803390786,40.45900218379288,295.53455883789064,0.019645733758807186,-0.01279100589454174,-0.8741632103919983,0.485066294670105,-0.07523418746455654,0.09813079080864112,3.0721721181235764,0.032787635922431946,-0.006424103397876024,-0.07012458890676497,0.2487844262458384,-0.39741441719234005,-9.97271397829056
33.4,3.5,225.0,22.36788558959961,29.381805419921875,-79.78277801240115,40.45900218283354,296.15944248962404,0.026040202006697655,-0.00718279369175434,-0.8727462887763977,0.4874261617660522,-0.0936727703320378,0.11627262640037415,3.0823873738609984,0.18435947597026825,0.03313083201646805,0.01217632181942463,0.3682817615568638,-0.3837130387499929,-9.83985003590584
33.6,3.5999999046325684,228.0,22.33407974243164,28.20494270324707,-79.78277810594379,40.45900222650604,296.7719932250977,0.029352715238928795,-0.0004848637036047876,-0.8716466426849365,0.4892548322677612,-0.15668846653986065,0.0683721065248148,3.0322056054522006,-0.14907348155975342,0.05645096674561501,0.01859012246131897,0.15529324036091566,-0.22467964516952635,-9.550925077199937
33.7,3.5999999046325684,228.0,22.38165855407715,28.578676223754893,-79.7827781344263,40.4590022357449,297.07437664794924,0.0268764328211546,-0.002419099910184741,-0.8717013597488403,0.4892939627170563,-0.12966125264576964,0.060133893939593626,3.0054427511155977,0.10111334919929504,0.04894880950450897,0.1294732242822647,0.3569802265986801,-0.6146280267834664,-9.600957947373393
33.9,3.700000047683716,229.0,22.42047119140625,28.32421875,-79.78277815413438,40.45900217957636,297.38495404052736,0.0239241011440754,-0.005225155036896467,-0.8721625804901123,0.4886028468608856,-0.12541766574450716,0.08508923527181148,3.000287308901852,-0.23332983255386355,0.012246552854776379,-0.0933009535074234,0.25035235712304715,-0.24050727222114804,-9.56538699567318
34.1,3.700000047683716,229.0,22.380407333374023,28.594579696655273,-79.7827782037931,40.45900225749436,297.99465328979494,0.020210489630699158,-0.008264306001365185,-0.8733537793159485,0.4865969717502594,-0.08535719941680274,0.08571828784509701,3.0057190003133005,-0.1074669510126114,-0.06977082788944244,-0.007915209047496319,0.4190121314674616,-0.2507576239854097,-9.757775593400002
34.2,3.799999952316284,228.0,22.24142837524414,31.353843688964844,-79.78277822321326,40.459002256455435,298.29544598388674,0.020548319444060333,-0.008536852896213531,-0.8738023638725281,0.4857719242572784,-0.07792070458668737,0.0916210087313848,3.0057518575445203,0.03335248306393624,0.07637450844049454,0.049773115664720535,0.29737109726294875,-0.2596834352239967,-9.751220279932022
34.31,3.700000047683716,230.0,22.24518585205078,32.554561614990234,-79.7827782629375,40.45900223700522,298.90376431274416,0.02281135693192482,-0.009109611622989178,-0.8737500905990601,0.4857546389102936,-0.09860936180688913,0.1051933265792926,3.0362387108548927,-0.07276737689971924,-0.019401611760258675,-0.0796244814991951,0.4211493618786335,-0.3641039259731769,-9.99721498131752
34.5,3.799999952316284,231.0,22.344097137451172,29.771442413330078,-79.78277823502651,40.459002261396265,299.515119140625,0.02573696710169316,-0.01268270518630743,-0.8730836510658264,0.4867256581783295,-0.1040810396971862,0.11886695199676192,3.0491716768761545,0.07348169386386871,0.04670501872897148,-0.0029024675022810693,0.5340053748339415,-0.3930304672569037,-9.879751435518266
34.6,3.799999952316284,232.0,22.183834075927734,31.96613121032715,-79.78277823827055,40.459002279053,299.82033688354494,0.02793911658227444,-0.012587934732437134,-0.8727420568466187,0.4872190058231354,-0.12073659071142975,0.13329758166026653,3.0497658591237005,-0.03325364738702774,-0.1059165969491005,-0.0447704941034317,0.38680267095565796,-0.2403253141790629,-9.846099539995194
34.8,3.799999952316284,234.0,22.15253257751465,33.20660781860352,-79.78277824767906,40.45900229700066,300.12623364257814,0.02951211296021938,-0.0107828751206398,-0.8727556467056274,0.4871450662612915,-0.12583626045963428,0.13158150646967068,3.0548868498950457,0.035530220717191696,0.008395949378609656,0.10078733414411543,0.34870426028966905,-0.30886908039450645,-9.789140642881394
35.0,3.799999952316284,235.0,22.1888427734375,31.767335891723643,-79.78277827989882,40.45900229112453,300.73006207275387,0.031128440052270886,-0.006691521033644676,-0.8728362321853638,0.4869735538959503,-0.13545930732236894,0.10822566736657166,3.0335341384409173,-0.017027851194143295,-0.10292059183120728,-0.03715365007519722,0.4380352436006069,-0.4580298706144095,-9.840487382411958
35.1,3.9000000953674316,236.0,22.183834075927734,32.284202575683594,-79.78277834868344,40.45900228075685,301.33926541137697,0.02660328894853592,-0.005597878713160753,-0.8728699088096619,0.4871953129768372,-0.13107690001356767,0.09332613016175847,3.0479175071240605,-0.09600578248500824,0.03292176127433777,-0.08564714342355728,0.35603118695318703,-0.3408431173861027,-9.889505760669707
35.2,3.9000000953674316,236.0,22.193851470947266,32.634078979492195,-79.7827783842796,40.459002276868894,301.6447959594727,0.025503011420369148,-0.007120589725673199,-0.8726316094398499,0.48766082525253296,-0.10404859566717332,0.08676377750828497,3.057899444270905,-0.010791422799229622,0.1501832902431488,0.02260342799127102,0.2940168968215585,-0.3495468806102872,-9.897798281908038
35.4,4.0,236.0,22.2276554107666,31.4810733795166,-79.78277843948416,40.45900227469605,302.2584510498047,0.02624598331749439,-0.009288810193538666,-0.8729022145271301,0.4871003329753876,-0.08789316009000113,0.1058513655901897,3.0873233623232705,0.09692130237817764,0.0390922836959362,-0.07430433481931686,0.4827676858752966,-0.30495875492691993,-9.965346486568453
35.6,4.0,236.0,22.18132972717285,32.300106048583984,-79.7827785749461,40.45900222843035,302.5629401855469,0.02711857296526432,-0.00914531946182251,-0.8732671141624451,0.4864005446434021,-0.08115097956627654,0.1052222548058198,3.0830780945464205,0.0780293196439743,-0.046870660036802285,0.007849788293242455,0.4858817667514086,-0.3997879116609693,-9.862530215978623
35.7,4.099999904632568,236.0,22.07490539550781,33.6837158203125,-79.78277861833881,40.459002218252,302.8713355712892,0.026880225166678432,-0.00864529237151146,-0.8736408948898315,0.4857513010501862,-0.09002276508717258,0.10813620610525528,3.0758913422243954,-0.004286809358745813,-0.12801241874694824,-0.01406397856771946,0.4405676726996899,-0.5054274737834931,-9.77021729886532
35.9,4.099999904632568,236.0,22.329072952270508,28.96831321716309,-79.78277877422853,40.459002123639294,303.4897971801758,0.02531297504901886,-0.008199756033718586,-0.8739880919456482,0.485218346118927,-0.0746262145527479,0.1047305532249324,3.123733562207596,0.03669710457324982,-0.0631156861782074,-0.007004412356764078,0.4423591864854098,-0.4181392518058419,-10.076055328845976
36.0,4.199999809265137,237.0,22.28900718688965,31.07553291320801,-79.78277881875343,40.45900210096097,303.8033614807129,0.023913396522402763,-0.0067853867076337355,-0.8739585876464844,0.4853644669055938,-0.07273066804443389,0.10826418146266148,3.1340895110346247,0.030306074768304825,-0.10053469240665436,0.028597334399819374,0.4508887026831508,-0.4705336296558381,-9.918215589523317
36.1,4.199999809265137,235.0,22.151281356811523,32.34781646728516,-79.78277881743115,40.45900209294869,304.41760403442385,0.02507738023996353,-0.0077496697194874295,-0.873310387134552,0.4864566922187805,-0.08682827300867413,0.0951139800424032,3.0823760465126933,0.05726286768913269,0.14273041486740112,-0.047205597162246704,0.5511739328876138,-0.4118862028419972,-9.78654564857483
36.3,4.199999809265137,236.0,22.329072952270508,27.902774810791016,-79.78277880626398,40.459002134033156,305.03848797607424,0.025129670277237892,-0.011429326608777044,-0.8722107410430908,0.4883507490158081,-0.11624362179730398,0.1392036327398082,3.094178442235582,-0.07965954393148422,-0.019010083749890327,-0.1985100656747818,0.4658657974004746,-0.4621824900805949,-9.852605152130128
36.4,4.199999809265137,236.0,22.38541412353516,27.20301818847656,-79.78277879913537,40.45900213103329,305.347451751709,0.026882130652666092,-0.011177312582731249,-0.8720406293869019,0.4885669350624085,-0.10343675802346324,0.14245027424248485,3.07215612900562,0.06652836501598358,0.0764918401837349,-0.015010839328169824,0.44906199596822266,-0.2785740165598691,-9.642910550236703
36.6,4.199999809265137,238.0,22.104955673217773,31.886613845825195,-79.7827788300318,40.45900210184711,305.6610313110352,0.028107570484280583,-0.01019191276282072,-0.8720117807388306,0.4885709881782532,-0.11062063951936577,0.14762374450794435,3.0442629838071715,-0.008043416775763035,-0.08675247430801393,-0.031709998846054084,0.4706802851334215,-0.4398462359234691,-9.524810827374461
36.8,4.199999809265137,238.0,22.49684715270996,24.63459587097168,-79.78277881152907,40.45900210372599,306.27252728271486,0.02921703271567821,-0.008565902709960938,-0.8726503252983093,0.4873956143856049,-0.13178908820532986,0.13676154843730814,3.0789677689241937,0.03668009862303734,0.033366069197654724,-0.09699076414108276,0.42722915053367616,-0.22796212585642936,-9.998150535821916
36.9,4.199999809265137,238.0,22.55694580078125,23.083999633789066,-79.78277882613406,40.45900209202162,306.59021145629885,0.030541829764842987,-0.009744454175233841,-0.8731263875961304,0.4864388406276703,-0.1294909625624036,0.13038591354089207,3.0932227502090246,0.04498811066150665,-0.01988314464688301,0.04843610897660256,0.4575584753975273,-0.5067687154188752,-9.805883560180664
37.0,4.199999809265137,238.0,22.66086578369141,21.41412734985352,-79.78277895706263,40.45900210060401,307.2027221374512,0.03541839122772217,-0.014073916710913181,-0.8732904195785522,0.4857071042060852,-0.14746524223306315,0.13338847856699002,2.895501154888452,-0.203780859708786,-0.0325876958668232,-0.05428091809153557,0.3866019287332893,-0.17542341314256193,-8.610506274104116
37.2,4.199999809265137,240.0,22.57697868347168,22.69436264038086,-79.78277903398957,40.45900211332234,307.7526832275392,0.03714302182197572,-0.01274107862263918,-0.8728525042533875,0.4864018261432648,-0.12603452734075946,0.12570361771235358,2.6091860409664047,-0.0953877419233322,-0.06992314010858536,-0.04668095335364342,0.4488345758244395,-0.18149609377607706,-8.363429837822915
37.4,4.099999904632568,239.0,22.5494327545166,23.00448226928711,-79.78277910849175,40.45900209530148,308.02116162109377,0.035368241369724274,-0.011036698706448078,-0.8731081485748291,0.4861168563365936,-0.12111086497768528,0.10332155600421793,2.493441544007716,-0.0925501510500908,-0.01905466616153717,-0.0702955424785614,0.42775393813848495,-0.3448923142254353,-8.371908885240558
37.5,4.099999904632568,239.0,22.52313995361328,24.47555923461914,-79.78277916795483,40.4590021063526,308.26382977294924,0.03286831080913544,-0.010845965705811977,-0.8735371232032776,0.4855254888534546,-0.10446761662447226,0.06983571144528156,2.3550939088159293,-0.033310070633888245,0.04945442080497742,0.03442385047674179,0.40605137597769503,-0.4884093718975783,-8.476910260319709
37.6,4.0,239.0,22.551937103271484,23.72809410095215,-79.78277930880482,40.45900213627457,308.72753674316414,0.030319042503833767,-0.013081482611596584,-0.8744811415672302,0.4839344620704651,-0.059445180625585764,0.038303058689495836,2.1392201986059822,0.14395688474178314,0.08381161093711853,0.029025517404079437,0.4144504627212882,-0.4876288051530719,-8.685829521417617
37.8,4.0,236.0,22.53691291809082,24.54712677001953,-79.78277943744095,40.45900219015835,309.1640487365723,0.03145753964781761,-0.014172261580824854,-0.8752648830413818,0.4824117720127106,-0.05971838776378381,0.011187272662766694,1.9487854338716453,0.13655853271484375,0.07732358574867249,0.0226129200309515,0.3561072738468647,-0.4714727290347218,-8.71580585718155
37.9,4.0,236.0,22.466798782348643,25.83531379699707,-79.78277953698624,40.45900222890043,309.3536430053711,0.031993381679058075,-0.01395493745803833,-0.8753501176834106,0.482228010892868,-0.06747564956093978,-0.005572654790246059,1.8459872493525482,0.04645271599292755,0.08542971312999725,-0.0042220214381814,0.3321766301617026,-0.3079880511760712,-8.75679659307003
38.1,3.9000000953674316,236.0,22.619548797607425,22.2331600189209,-79.78277966061906,40.459002248787044,309.56689221191414,0.03176477178931236,-0.013585114851593971,-0.8752061128616333,0.4825151562690735,-0.08300006679775147,-0.015203459905802975,1.8119660179576842,-0.16003966331481936,0.01414794847369194,-0.07832124084234238,0.33279902972280984,-0.07022352509200573,-8.871665144562721
38.3,3.799999952316284,235.0,22.658361434936523,22.511472702026367,-79.78277991718093,40.45900235836565,309.90873486328127,0.030765652656555176,-0.011210429482161999,-0.8745728731155396,0.4837874174118042,-0.0732559010971781,-0.05125542740849332,1.6109025492371056,-0.13336187601089478,0.011081114411354063,-0.09450797736644743,0.3760729936882854,-0.2474122126400471,-8.804160209298132
38.41,3.799999952316284,237.0,22.481822967529297,25.533145904541016,-79.78278007142637,40.45900240792349,310.1210876159668,0.030091632157564163,-0.010225028730928898,-0.8741161823272705,0.4846760034561157,-0.07867093355507525,-0.0585289601286469,1.5833400078676163,-0.1890067309141159,-0.01692110486328602,-0.12059994041919707,0.3927345250546933,-0.22223982134833933,-8.878273667693136
38.5,3.799999952316284,235.0,22.488082885742188,25.15146064758301,-79.78278036622491,40.45900249286269,310.49014813232424,0.026366027072072036,-0.007810136303305627,-0.8737718462944031,0.4855581820011139,-0.06816444131148157,-0.06770267511328926,1.5147260747777391,-0.11629745364189148,0.0018289125291630626,-0.11112773418426514,0.3764321589097381,-0.2132953355647624,-9.236991577148435
38.7,3.700000047683716,235.0,22.48056983947754,25.11170196533203,-79.78278050327751,40.45900255641918,310.63932568359377,0.025910714641213417,-0.006460898090153933,-0.8738365769386292,0.4854860007762909,-0.06177886507695226,-0.07519320731540748,1.4685323294063266,-0.029526898637413982,0.048631642013788216,-0.1575932502746582,0.3967203161492944,-0.10684597061946988,-9.234371439814568
38.8,3.700000047683716,235.0,22.602020263671875,23.115806579589844,-79.7827808465983,40.45900268084536,310.99963146972664,0.024717714637517933,-0.010372492484748363,-0.8739336133003235,0.4853056967258453,-0.08228944762570689,-0.082248096880143,1.3629326667591928,-0.1751738339662552,0.050407826900482185,-0.07970868796110152,0.4116649588197471,-0.18678736712783567,-8.941611292362213
39.0,3.700000047683716,235.0,22.76603889465332,20.579191207885746,-79.78278109536483,40.4590027746505,311.30285794067385,0.0212022252380848,-0.009043512865900992,-0.8715879321098328,0.4896970689296722,-0.08906727242282031,-0.07759104811278278,1.035959327147012,-0.026036834344267845,-0.08047490566968918,-0.4086863398551941,0.353735972084105,-0.4548636764287949,-7.417266145348549
39.2,3.5999999046325684,235.0,22.619548797607425,22.90110969543457,-79.78278117194142,40.459002893013476,311.3937316589356,0.02155020460486412,-0.006700567435473204,-0.8553358316421509,0.5175822377204895,-0.1204068143887302,-0.09280021349065526,0.7997449850819159,-0.05738886073231698,-0.11514992266893387,-0.8346615433692932,0.2574012669548392,-0.5781502450257541,-7.4905949074029925
39.3,3.5999999046325684,237.0,22.551937103271484,24.32447624206543,-79.78278125060618,40.459003016926495,311.4647918395996,0.021968280896544456,-0.003822501981630922,-0.8307070732116699,0.5562630891799927,-0.14084612939817456,-0.09776456266800312,0.612930631688907,0.10085000097751616,0.00066363689256832,-0.9721726775169371,0.3810174723342061,-0.4338550325855613,-7.900869471430777
39.5,3.5,239.0,22.67588996887207,21.382320404052734,-79.78278135296856,40.459003280745314,311.5585227661133,0.022395992651581764,0.0013937534531578422,-0.7571688294410706,0.6528338193893433,-0.15718982761800174,-0.059051590767779376,0.38402075540815456,0.28959041833877563,0.08816438913345337,-1.3247554302215576,0.3932148007303477,-0.447977593280375,-8.702211665511133
39.6,3.5,233.0,22.63582420349121,22.479665756225586,-79.78278129474572,40.45900350069108,311.5528236083985,0.026998383924365044,0.001980268396437168,-0.6722355484962463,0.7398422956466675,-0.1343279670490236,0.013135580883903243,0.17063412946130455,0.12278006970882414,0.04640713706612587,-1.020371913909912,0.41719298958778384,-0.30512905508279803,-8.778013215065004
39.7,3.5,224.0,22.6420841217041,22.0661735534668,-79.7827812685991,40.45900360721871,311.56579739379885,0.03035959415137768,0.0015507200732827187,-0.6367319226264954,0.7704858183860779,-0.10096662899706324,0.04403461735472414,0.08220798378189703,0.07769455760717392,0.042355470359325416,-0.9186992645263672,0.5495118618384004,0.075736389644444,-8.875861106514929
39.9,3.5,230.0,22.6420841217041,22.59099006652832,-79.78278105360444,40.45900352480192,311.470685546875,0.032145082950592034,-0.0002478031092323364,-0.6098735928535461,0.7918465733528137,-0.05861146942920796,0.0643849520193226,-0.015277390329063988,-0.04705008119344711,0.04128639027476312,-0.4211682081222534,0.5154511728510259,-0.10467954067513348,-9.034269779920578
40.1,3.5,233.0,22.5494327545166,23.56110572814941,-79.78278070599617,40.45900339500215,311.39067990112306,0.03136305883526802,0.0020355947781354193,-0.5805935263633728,0.8135867118835449,0.03497648684743583,0.1255104917938069,-0.19970517288561407,-0.006140650250017643,-0.3308346271514893,-0.2566072940826416,1.0150645042955877,0.08267337097786367,-8.900241656899453
40.2,3.4000000953674316,229.0,22.45427703857422,25.86712074279785,-79.7827804984894,40.459003391874134,311.3683562927246,0.012286515906453131,0.01860573887825012,-0.5763434767723083,0.8169033527374268,0.09579864248779056,0.1888817429575682,-0.2556738632867228,0.08107544481754303,-0.6237191557884216,-0.007505246438086033,0.949783849865198,-0.2419862523302436,-9.232653527855874
40.3,3.299999952316284,225.0,22.578229904174805,23.83146667480469,-79.78277953109182,40.45900310623769,311.2515235595704,-0.03910364210605621,0.05047378689050674,-0.5798296928405762,0.8122320175170898,0.16416042184926993,0.42230059100642936,-0.26233841808498104,-0.13186511397361755,-0.5097492337226868,0.13865596055984494,0.4282190475985408,-0.12688270672224464,-9.714961695671082
40.5,3.2000000476837163,231.0,22.380407333374023,28.22084617614746,-79.78277906349098,40.459003121916034,311.2210975341797,-0.057315222918987274,0.057470813393592834,-0.5848002433776855,0.8071064949035645,0.1845866773551164,0.5940333434401601,-0.2387892974422743,-0.09342335164546968,-0.4164088666439056,0.20118965208530426,0.1627203005924821,-0.12030934911221268,-9.70190077006817
40.6,3.2000000476837163,234.0,22.375398635864254,26.86904335021973,-79.78277721556306,40.45900307689255,311.063703125,-0.07150915265083313,0.0666235089302063,-0.5961735844612122,0.7968844175338745,0.1947217010076231,1.0213691297545109,-0.1393896861694095,-0.0728331133723259,-0.09404090791940688,0.09121808409690857,0.3436125779896975,0.1667829825729132,-10.15241762638092
40.71,3.0,222.0,22.409204483032227,26.98832130432129,-79.78277613642994,40.459003185451714,311.03790051269533,-0.07391633838415146,0.06857125461101532,-0.6012371778488159,0.7926843166351318,0.19763300643734588,1.234900423406428,-0.0531190529447177,0.056597355753183365,-0.15465277433395386,0.2566588222980499,0.3059999064914882,-0.3136612390726805,-10.358685175180435
41.0,2.9000000953674316,222.0,22.345348358154297,28.17313575744629,-79.78277297429834,40.45900355790926,310.8708396606445,-0.07846991717815399,0.07111315429210663,-0.6078411936759949,0.7869653701782227,0.1558056077937391,1.6945815567207123,0.11216461344705328,-0.08348846435546875,0.07761465758085251,-0.12678734958171844,0.3151134681701661,0.13849258180707694,-10.566729108095167
41.1,2.700000047683716,220.0,22.365381240844727,27.393861770629893,-79.78277100362656,40.45900408220872,310.76469189453127,-0.0813489779829979,0.07123619318008423,-0.6091468930244446,0.7856512069702148,0.13031881157333447,1.91870203452476,0.21729905871100305,0.11099265515804292,-0.0774824470281601,0.10836178809404373,0.3581701715290547,-0.35753552936017513,-10.82190042972565
41.2,2.5,218.0,22.27898979187012,29.59650230407715,-79.78276595001324,40.45900485539436,310.73709637451174,-0.08046357333660126,0.07294372469186783,-0.6104151010513306,0.7846006751060486,0.12689346289801104,2.3903084940760744,0.4315252611612387,0.19875065982341766,0.031204409897327427,0.1706506907939911,0.3309514923021197,-0.2861387421749532,-10.568965083360672
41.4,2.299999952316284,208.0,22.11997985839844,33.294078826904304,-79.7827599393283,40.459006229513626,310.6412978820801,-0.07927649468183517,0.07491616904735565,-0.6090249419212341,0.7856152653694153,0.0963624875799433,2.8550009378755283,0.6011791232052583,0.12777122855186462,0.11327683925628662,-0.03226062282919884,0.2403705935552717,-0.1446233326010406,-10.575571267604827
41.6,2.200000047683716,203.0,22.344097137451172,28.7218074798584,-79.78275672289155,40.459007466940214,310.5753684692383,-0.0794312059879303,0.07600155472755432,-0.6074665784835815,0.7867013216018677,0.05684782519305619,3.076053692009716,0.7150539634525501,0.06602079421281815,-0.03745723888278008,-0.02040417492389679,0.22756762152537705,-0.2597700471058488,-10.897432422637939
41.7,2.0,189.0,22.27898979187012,28.578676223754893,-79.78275295331075,40.45900814529816,310.5824027709961,-0.07902403175830841,0.0771779865026474,-0.6060110926628113,0.7877495884895325,0.07527771855053808,3.3082001314697336,0.8386327042205041,-0.023438418284058567,-0.07743871212005615,-0.1218852698802948,0.1838873674347997,-0.14017400348559025,-10.697326669692991
41.9,2.0,181.0,22.26897430419922,28.90469741821289,-79.78274512873891,40.45901081947499,310.566388671875,-0.0783071517944336,0.07814879715442657,-0.6022120714187622,0.7906335592269897,0.0570677038749386,3.715338925123077,1.0068425693646146,0.2387319952249527,0.11046252399683,0.07330980151891707,-0.006951389238238335,-0.4493204429000616,-10.543093492984774
42.0,1.8999999761581416,163.0,22.382909774780273,27.497234344482425,-79.78273647125847,40.45901393372369,310.5791907958985,-0.04217459633946419,0.06358478218317032,-0.6027794480323792,0.7942513227462769,-0.008946026841329884,4.055035403258967,1.0177251545187715,-0.12468770891427995,0.3703851103782654,-0.12987762689590454,-0.2408239903114736,-0.004701481154188514,-10.203000719547273
42.2,1.7999999523162842,158.0,22.330324172973643,27.99819564819336,-79.78273164639606,40.459014908873336,310.6020789794922,-0.02027583122253418,0.05365795642137528,-0.6044227480888367,0.7945960164070129,0.06091297849408234,4.209801018059225,0.8515611016204157,0.29096516966819763,0.4884720742702484,0.057347174733877175,0.11988263941369952,-0.3111867339536548,-10.160789669752123
42.31,1.7999999523162842,141.0,22.43424415588379,25.98639678955078,-79.78272668827458,40.45901588069717,310.6271033935547,-0.005808206740766764,0.044122323393821716,-0.6054964065551758,0.7946028113365173,0.0683779548768073,4.340358301273106,0.6951028954236543,-0.09484788030385972,0.17320431768894196,0.0012174288276582954,0.0675815337896347,-0.3609748616069555,-10.124176744222641
42.5,1.8999999761581416,134.0,22.356616973876953,26.7497673034668,-79.78271732295649,40.45901996875574,310.6332641296387,0.0027420856058597565,0.027839353308081627,-0.6053009629249573,0.7955051064491272,0.012565475360124841,4.443272218643222,0.4549515820355263,0.04277997463941574,0.06826405227184296,0.11980147659778595,0.04619978733826429,-0.4048441452160478,-10.009157334566117
42.6,2.0,133.0,22.44426155090332,25.3900146484375,-79.7827127852105,40.45902332407688,310.61538082885744,0.0029499656520783893,0.02382221445441246,-0.6040154099464417,0.7966110706329346,-0.13758087156513218,4.478080331426588,0.38131453203998,-0.2611629664897919,0.07972048223018646,-0.0753229558467865,-0.16795081771910192,0.1140349943563342,-9.877122527360916
42.8,2.0999999046325684,129.0,22.35411262512207,27.163259506225586,-79.78270261591358,40.45902561727468,310.6686721496582,0.0068898433819413185,0.021715601906180385,-0.6044098138809204,0.7963477373123169,-0.05178023499014542,4.484302390681764,0.37429471465031067,0.11764299124479295,0.2061467617750168,-0.024245597422122955,-0.1145427154004574,-0.012246189191937448,-9.989677920341492
42.9,2.299999952316284,120.0,22.52814865112305,24.45965576171875,-79.78269279212105,40.45903040229829,310.6793761901856,0.01783581078052521,0.01449673902243376,-0.6047754287719727,0.7960644364356995,-0.14261483471178862,4.487590108730408,0.296549644548016,0.19702181220054624,0.2366422861814499,0.08372458070516586,-0.08027819612994791,-0.3440408134460449,-9.930126367807393
43.0,2.4000000953674316,118.0,22.37038993835449,26.78952598571777,-79.78268777214856,40.459033359710716,310.6696258239746,0.02194553054869175,0.010152452625334265,-0.6045265197753906,0.7962180376052856,-0.27801455058112656,4.499908531875566,0.19239074692659114,-0.15063007175922394,0.06072578951716422,-0.10684917122125626,-0.1939729921706021,-0.1496270508505404,-9.729031265974042
43.21,2.5999999046325684,120.0,22.48056983947754,25.42977333068848,-79.78268276665781,40.45903465764938,310.6943946533204,0.02441856823861599,0.006502081174403429,-0.6053867340087891,0.7955302596092224,-0.2327644932728285,4.458676174413951,0.12344785193310548,0.17725756764411926,0.08481708914041519,0.1312025785446167,-0.017102324631996454,-0.5034886832535267,-9.718196960091593
43.4,2.5999999046325684,119.0,22.325315475463867,27.505186080932607,-79.7826726030108,40.45903889896505,310.7211852722168,0.02494008280336857,0.0013870639959350224,-0.6045750379562378,0.7961565256118774,-0.3405637465378132,4.422048626670895,-0.004775859044069089,-0.027812045067548752,-0.08802769333124161,-0.04298673942685127,-0.04006263658404352,-0.3549331529438496,-9.615478922724725
43.5,2.700000047683716,117.0,22.402942657470703,26.527118682861328,-79.78266771801765,40.459040229897795,310.73730236816414,0.024337220937013626,-7.242239371407777e-05,-0.6044216752052307,0.7962928414344788,-0.30521240690788065,4.361467019946941,-0.025474795886290168,0.17116080224514008,0.0692249983549118,0.05323835089802742,-0.0260319913784042,-0.3196448410302401,-9.69146816790104
43.6,2.799999952316284,117.0,22.419219970703125,25.09579849243164,-79.78265776843742,40.45904449103311,310.7754836730957,0.02291322872042656,-0.0026069153100252147,-0.6023131608963013,0.7979267835617065,-0.3821605242321843,4.310024332965453,-0.03467369538496466,0.047693733125925064,-0.0450865775346756,0.08703175187110901,-0.08595439899712802,-0.4560481761395931,-9.859054630994796
43.8,2.799999952316284,118.0,22.471805572509766,25.23892974853516,-79.78264782513111,40.45904863226721,310.8330932312012,0.02110143937170505,-0.006297146901488304,-0.6009624600410461,0.7989739179611206,-0.4594095557244155,4.267497471756681,-0.013096936044563716,0.06890246272087097,-0.06702286005020143,0.051147885620594025,-0.18632180085405708,0.026114469096064567,-9.81141970396042
43.9,2.799999952316284,118.0,22.330324172973643,27.966388702392567,-79.7826431806272,40.459050083981474,310.8496947937012,0.022383082658052444,-0.009100500494241714,-0.6009852290153503,0.7988948822021484,-0.4571866817354872,4.201590415909785,-0.016853974941086952,0.06186031922698021,0.1707257181406021,0.026890641078352928,-0.06798980191815644,-0.05310042914003134,-9.860840370655062
44.1,2.799999952316284,119.0,22.366634368896484,26.837236404418945,-79.78263788289296,40.45905242443853,310.8907180480957,0.023938510566949844,-0.013575522229075432,-0.6003710627555847,0.7992479801177979,-0.5643575952386882,4.224642030827439,-0.02048007917549144,-0.31022223830223083,0.0659262165427208,-0.14571696519851685,-0.18271774157881732,0.051720248702913516,-9.910093806982037
44.3,2.799999952316284,119.0,22.345348358154297,26.535070419311523,-79.78262883167591,40.45905547586492,310.92913586425783,0.0239912997931242,-0.02018271200358868,-0.6010295748710632,0.7986117005348206,-0.5921972026795292,4.104335942981441,-0.039052448204912174,-0.13779470324516296,0.051246467977762215,-0.04318162426352501,-0.10368546833284199,-0.030985807296819982,-9.92507437348366
44.4,2.799999952316284,123.0,22.466798782348643,25.22302627563477,-79.78261942783725,40.459058647402934,311.0173621826172,0.02430739440023899,-0.01901325024664402,-0.6020898222923279,0.7978317737579346,-0.6554073799465508,4.0226464129297215,-0.0476530464716158,-0.06487993896007538,-4.9324102292303e-05,0.0313539132475853,0.012301628105342393,-0.04012724831700325,-9.738588539958
44.5,2.700000047683716,125.0,22.47681427001953,24.04616355895996,-79.78261484790531,40.459059902140304,311.0804076843262,0.02199763059616089,-0.01729157194495201,-0.6026196479797363,0.7975379228591919,-0.6732195239328215,3.9986064887743,-0.06120926784452708,-0.2147852778434753,-0.1453872174024582,-0.02799265272915364,-0.08813809650018811,-0.156959148645401,-9.61633437037468
44.7,2.700000047683716,127.0,22.453025817871094,25.262784957885746,-79.78261057325942,40.45906145727915,311.09712368774416,0.020116720348596573,-0.014742828905582428,-0.6030251383781433,0.7973321676254272,-0.6740510447785392,3.9366880064517766,-0.0705317700535103,0.06754202395677568,-0.10177840292453766,0.00518844835460186,0.02368011790327728,-0.3060896247066557,-9.571143579483033
44.8,2.5999999046325684,128.0,22.489334106445312,24.22905540466309,-79.78260211410756,40.459064066640096,311.1734824829102,0.017971523106098175,-0.014172054827213287,-0.6034175157546997,0.7970970273017883,-0.6987991000361701,3.844207279257253,-0.0796825519453166,-0.15084116160869598,0.06148464232683184,-0.16577394306659698,-0.08496709663420916,0.0959492639824748,-9.447893044352533
45.0,2.5999999046325684,129.0,22.43800163269043,24.730016708374023,-79.78259800230266,40.4590656038208,311.1814819030762,0.017360223457217216,-0.014176124706864357,-0.6033265590667725,0.7971793413162231,-0.7151678854108411,3.8026032333965993,-0.10445252305390124,-0.11243686079978944,-0.05579226091504097,-0.06517388671636581,-0.14937099762260914,-0.08198598509654402,-9.497183902859687
45.2,2.5,130.0,22.478065490722656,24.642547607421875,-79.78258992627626,40.45906817136962,311.2593932800293,0.01456509716808796,-0.01293889246881008,-0.6033651828765869,0.7972270250320435,-0.7058635330760717,3.7251005113726934,-0.10684036052412996,0.14856411516666412,0.0035755035933107133,0.04084380716085434,0.1148457108065486,-0.3218000516295433,-9.639663006663323
45.3,2.4000000953674316,133.0,22.39793586730957,26.3521785736084,-79.7825859427383,40.459069714085494,311.2636886291504,0.010827428661286831,-0.012354905717074871,-0.6034955382347107,0.7971972227096558,-0.7535021378655407,3.7031811225761495,-0.11030843113348412,-0.1524907499551773,-0.0026156147941946983,-0.08534162491559982,-0.04024131927173585,-0.062393577997572724,-9.604930545687676
45.4,2.4000000953674316,134.0,22.50060272216797,23.250986099243164,-79.78257795679558,40.45907241252856,311.33769375610353,0.004042708780616522,-0.010525265708565712,-0.6035958528518677,0.7972108125686646,-0.7550533544562701,3.6539470519295634,-0.042817275656832944,0.17338009178638458,-0.03566483035683632,0.1411546915769577,0.06215951121412217,-0.3727602536603809,-9.764230334758759
45.6,2.299999952316284,134.0,22.475563049316406,25.60471153259277,-79.78257019666921,40.45907514117236,311.39175946044924,0.0066389935091137895,-0.007290060166269541,-0.6032978296279907,0.7974551320075989,-0.7886513589941039,3.620337928885065,-0.024881971796473785,-0.08305883407592772,0.01863952353596688,-0.08774513751268387,-0.09366232657805086,0.06611111436970532,-9.598292786478996
45.8,2.299999952316284,133.0,22.304031372070312,27.3063907623291,-79.78256634857156,40.459076706544174,311.3939033203125,0.007408622186630964,-0.005617115180939436,-0.6032747030258179,0.7974793314933777,-0.7898005374223012,3.6096915849376,-0.05581052251493712,0.08610311150550842,-0.09511955827474594,-0.0052980552427470675,0.028841171935200693,-0.3820787054300309,-9.637282605171203
45.9,2.200000047683716,134.0,22.352861404418945,26.30446815490723,-79.78256264720281,40.45907774256767,311.460790222168,0.005959768779575825,-0.004288440104573965,-0.6033141016960144,0.7974699139595032,-0.7540125239976854,3.5858283032190945,-0.03924085812522855,0.21812942624092105,0.009331787936389445,0.10348131507635117,0.14725783215835692,-0.3986797912046314,-9.722705163359642
46.0,2.200000047683716,134.0,22.35787010192871,25.024232864379893,-79.7825550913276,40.4590805684353,311.5070281677246,0.0006951625109650197,-0.003485460532829165,-0.6035325527191162,0.7973305583000183,-0.7886795243254373,3.5748901678160463,0.015150694137060137,-0.056405913084745414,-0.1356675773859024,-0.08712856471538544,0.04731684763915837,-0.2413996669650077,-9.892434046268463
46.2,2.200000047683716,133.0,22.38791847229004,25.41386985778809,-79.78255129704179,40.45908213210661,311.51175457763674,-0.0010317622218281026,-0.0017438915092498064,-0.6036704778671265,0.7972313761711121,-0.7937532813244953,3.5663214719703515,0.022784692666610283,0.17473703622817993,0.03236479312181473,0.04664962366223335,0.059351171194575725,-0.2610277466475964,-9.741039692759514
46.3,2.0999999046325684,131.0,22.350357055664066,26.25675773620605,-79.78254384919501,40.45908495538917,311.5398574523926,-0.0013225690927356482,0.0028292930219322447,-0.6033774018287659,0.7974497079849243,-0.8022291695334121,3.565086106745772,0.021473281626083644,0.06930797547101973,-0.06021200120449066,-0.05078915134072304,0.06178213739767671,-0.2207065900415182,-9.736086516380313
