time,wind_speed,wind_angle,battery_voltage,battery_current,position_x,position_y,position_z,orientation_x,orientation_y,orientation_z,orientation_w,velocity_x,velocity_y,velocity_z,angular_x,angular_y,angular_z,linear_acceleration_x,linear_acceleration_y,linear_acceleration_z
0.0,0.4000000059604645,13.0,24.39620780944824,0.04771064221858978,-79.78280627907702,40.45896398132083,258.3974053287506,0.02649457007646561,-0.002268016105517745,-0.7843592762947083,0.6197366118431091,0.0045597622312784645,0.0023851319187567607,-0.0012606863581317075,-0.005082426127046347,-0.0011554763186722994,-0.0031206861604005107,0.3567771820351482,-0.3773389158770442,-9.792909758090973
0.09,0.4000000059604645,15.0,24.39996337890625,0.03180709481239319,-79.78280625052507,40.45896393862142,258.395218076706,0.026503421366214752,-0.002267339266836643,-0.7843603491783142,0.6197348833084106,0.008069670693066858,-0.0014430916874299206,-0.0004396466653397203,0.008260275237262249,0.004449513740837574,0.005058068782091141,0.3591737730056048,-0.3883868644014001,-9.796281262636183
0.19,0.4000000059604645,18.0,24.39495658874512,0.02385532110929489,-79.78280625700707,40.45896392659029,258.39510387420654,0.026503421366214752,-0.002267339266836643,-0.7843603491783142,0.6197348833084106,0.006477060929947475,-0.0009690465038446661,-0.0001297357640863886,-0.0012560308678075671,0.0001490447175456211,-0.0033831270411610603,0.35755109757184983,-0.3888628277555109,-9.79450078547001
0.4,0.4000000059604645,19.0,24.39620780944824,0.03180709481239319,-79.78280619676251,40.45896388610023,258.39373165607446,0.02650453150272369,-0.002261344576254487,-0.7843619585037231,0.6197327971458435,0.008010747481359484,0.0010664661330042988,3.8635245014857583e-05,0.006611049175262451,-0.0018222487997263672,0.005284036975353956,0.3593908508867025,-0.3913291833177209,-9.796145607233047
0.5,0.4000000059604645,23.0,24.39620780944824,0.039758868515491486,-79.78280619738929,40.458963879358414,258.39372426509857,0.02650453150272369,-0.002261344576254487,-0.7843619585037231,0.6197327971458435,0.006838467659798759,0.001362654723176919,0.0002883853573119945,-0.0035303251352161173,-0.0014458061195909975,0.0007011339184828103,0.35683722563087944,-0.38401073511689904,-9.793618440628054
0.69,0.4000000059604645,23.0,24.38368797302246,0.015903547406196594,-79.78280614166363,40.45896384667082,258.3934238576889,0.02650291286408901,-0.002260988345369697,-0.78436279296875,0.6197318434715271,0.0045704800729018105,0.0015827434483316756,0.0004637627818448207,0.004355949815362692,0.0014155546668916939,0.003229667898267508,0.36020196933299303,-0.3929375696182251,-9.796165487766267
0.79,0.4000000059604645,21.0,24.3974609375,0.015903547406196594,-79.78280608073102,40.45896379591076,258.3934567594528,0.0265080165117979,-0.002254663733765483,-0.7843649983406067,0.6197288632392883,0.006320181011822533,0.002535946189799459,0.0004959462605893583,0.00672165909782052,0.00022225957945920527,0.0033642977941781282,0.3572630491107702,-0.3774992757663131,-9.793583357334137
0.99,0.4000000059604645,23.0,24.381183624267567,-0.07951773703098297,-79.7828060791989,40.458963790381496,258.3935042047501,0.0265080165117979,-0.002254663733765483,-0.7843649983406067,0.6197288632392883,0.00522135280681269,0.0028981531073796808,0.0006836990690989864,-0.0023600230924785137,-0.0014955394435673952,1.4537742572429126e-05,0.3582984082773328,-0.38918142791837457,-9.794818289279938
1.09,0.4000000059604645,22.0,24.37867927551269,-0.09542128443717957,-79.78280602125403,40.45896374084367,258.3944792175293,0.02651055157184601,-0.002250105608254671,-0.784367024898529,0.6197261810302734,0.006912954248596928,0.003442565978365722,0.0006127614336304189,-0.0007414802093990147,0.0006984873325563968,-0.0030278966296464205,0.3570455692335963,-0.37827527437359104,-9.793954070806505
1.29,0.4000000059604645,22.0,24.38368797302246,-0.06361418962478638,-79.78280601670723,40.458963727589776,258.3946002149582,0.02651055157184601,-0.002250105608254671,-0.784367024898529,0.6197261810302734,0.005902662780304046,0.0038250334346916093,0.0008995144189079078,-0.0057001933455467215,-0.0010616111103445294,-0.005357606802135706,0.3562880624458194,-0.3802154901623726,-9.792793398499489
1.4,0.4000000059604645,23.0,24.37367057800293,-0.04771064221858978,-79.78280605526263,40.45896369599826,258.3928237581253,0.02652703411877156,-0.0022633711341768503,-0.7843673825263977,0.6197249889373779,0.006247469598794405,-0.010480361982354906,-0.0031552958054010373,-0.0018291654996573925,0.0012212630826979876,0.0014354948652908206,0.35728073693811896,-0.3849290768802166,-9.795566732883453
1.59,0.4000000059604645,23.0,24.39620780944824,0.015903547406196594,-79.78280596397816,40.45896366341857,258.3922578716278,0.026512427255511284,-0.002250746125355363,-0.7843688726425171,0.6197237968444824,0.0017470427719655152,0.0010704829708570523,-0.005949231382489454,-0.0035854519810527563,-0.0005004456033930181,-0.003648173762485385,0.3576259053871036,-0.3781972505897284,-9.792527350187305
1.7,0.5,23.0,24.39370346069336,0.02385532110929489,-79.78280591833054,40.458963621576906,258.3933097743988,0.02651534788310528,-0.0022455425933003426,-0.784369170665741,0.6197233200073242,0.004224122303665597,0.0021461438004652016,-0.003605662012290239,-0.005501147359609604,-0.0027092520613223314,-0.0008160394500009716,0.360376764535904,-0.3893280103057623,-9.79608655035496
1.9,0.4000000059604645,23.0,24.38869667053223,-0.007951773703098297,-79.78280591694191,40.45896361735469,258.392940583229,0.02651740238070488,-0.002244704170152545,-0.7843699455261229,0.6197222471237183,0.004063195649896921,0.0021910602419399658,-0.0035694037221134906,0.002451610518619418,-0.0023405919782817364,-0.00438065966591239,0.3569061496853829,-0.3776616456359625,-9.793462904691696
2.0,0.4000000059604645,22.0,24.3974609375,0.14313192665576935,-79.78280589833429,40.45896358129672,258.3943125629425,0.026523713022470474,-0.0022480038460344076,-0.7843713164329529,0.6197202205657959,0.0027759974770568967,-0.00235615291120746,-0.0015651784337249526,-0.008230130188167095,0.00025048168026842177,0.0009808981558308003,0.35944665525108577,-0.39143337339162826,-9.795505921840668
2.19,0.4000000059604645,21.0,24.392452239990234,0.007951773703098297,-79.78280590177845,40.45896357916736,258.39413410663605,0.026523713022470474,-0.0022480038460344076,-0.7843713164329529,0.6197202205657959,0.003008753573722207,-0.0023309158127185954,-0.00157218627073505,0.0026977076195180416,0.0021234559826552872,0.0007121972157619894,0.3577357234060765,-0.3816406393423677,-9.795185494422913
2.3,0.4000000059604645,22.0,24.39370346069336,0.039758868515491486,-79.78280586361153,40.45896352757424,258.3960513496399,0.02652608975768089,-0.002240430796518922,-0.7843723297119141,0.6197188496589661,0.005082313076498453,0.0005305281469536087,-0.0004004155778457787,-0.008618215098977089,-0.003131451550871134,-0.003757943166419864,0.35915908187627793,-0.3928852735832334,-9.795869033932686
2.49,0.4000000059604645,22.0,24.39996337890625,0.039758868515491486,-79.78280586436888,40.45896352279164,258.39599138736725,0.02652608975768089,-0.002240430796518922,-0.7843723297119141,0.6197188496589661,0.005633150360000926,0.0005686133200482063,-0.00046399512975149246,0.007174615282565354,0.001583587727509439,0.004698107484728098,0.3603178172931075,-0.3884742071852088,-9.796066669821741
2.59,0.4000000059604645,23.0,24.39119911193848,0.02385532110929489,-79.78280585066612,40.458963496638106,258.3988145017624,0.02653106488287449,-0.0022429523523896933,-0.7843742966651917,0.6197161674499512,0.0037677654840813225,-0.0022248644407591987,7.671586408143326e-05,-0.003545870538800955,-0.000124990867334418,-0.00037862875615246594,0.35891623970121145,-0.3881480421870947,-9.793721351623537
2.79,0.4000000059604645,23.0,24.39620780944824,0.039758868515491486,-79.78280582559427,40.45896345602459,258.40218574047094,0.02653226070106029,-0.0022370785009115934,-0.784374475479126,0.6197158694267273,0.006173772929214721,-9.139895854764091e-05,0.00025060684030466966,0.002104139653965831,0.0004233965009916574,0.0012615445302799346,0.3604312898218632,-0.3923339907824993,-9.794976164102557
2.9,0.4000000059604645,21.0,24.392452239990234,0.03180709481239319,-79.7828058281236,40.458963446275796,258.4022303247452,0.026532584801316258,-0.0022370400838553905,-0.7843759655952454,0.6197139620780945,0.0053940457377493,0.0003282404628638424,0.0005027037430128398,0.005167973693460226,0.00154223944991827,0.0034978066105395555,0.3574617448076606,-0.3816412971541286,-9.79329275071621
3.09,0.4000000059604645,20.0,24.398712158203125,0.039758868515491486,-79.7828058253874,40.458963409921,258.40625089645386,0.02654214203357696,-0.0022355965338647366,-0.7843775153160095,0.6197115778923035,0.007989047130039548,-0.002487107309685384,0.0009714989971034284,-0.002623793203383684,-0.00030847190646454686,0.006130728404968977,0.3592861491814256,-0.3912872660905123,-9.795886575579644
3.2,0.4000000059604645,17.0,24.39119911193848,0.02385532110929489,-79.78280583032151,40.458963403598936,258.40631050109863,0.02654214203357696,-0.0022355965338647366,-0.7843775153160095,0.6197115778923035,0.007246955541243915,-0.0022804747698887424,0.0010922927014459767,-0.007862366735935211,0.0009017584961839019,-0.003912017680704594,0.3562568163871765,-0.3773004704341292,-9.792940163612366
3.4,0.4000000059604645,16.0,24.39620780944824,0.03180709481239319,-79.78280580861053,40.45896336374226,258.41066617012024,0.026541637256741524,-0.002231216756626964,-0.784378707408905,0.6197101473808289,0.007881817025396247,0.00023123365593806768,0.0012937742075750866,-0.00295145227573812,0.00017021779785864055,-0.0016656569205224516,0.3578479168564081,-0.3879911540821195,-9.795119420886039
3.5,0.4000000059604645,14.0,24.398712158203125,0.02385532110929489,-79.78280581066144,40.45896335674226,258.41076380252844,0.026541637256741524,-0.002231216756626964,-0.784378707408905,0.6197101473808289,0.007618427983519394,0.00010503310191407228,0.001345142262986965,-0.0028837413992732768,-0.0024984278716146946,-0.004263577051460743,0.3559726051613689,-0.377818899191916,-9.794068676233293
3.69,0.4000000059604645,13.0,24.39495658874512,0.03180709481239319,-79.78280579710477,40.45896333596181,258.4155412340164,0.026540804654359814,-0.002231576479971409,-0.7843804359436035,0.6197080612182617,0.004232223922282261,0.0007894641913811905,0.0014320088179906015,-0.006878446787595749,-0.0015532694524154071,-0.0028425962664186954,0.3575430576503277,-0.38142714288085705,-9.792830820679665
3.8,0.4000000059604645,15.0,24.39620780944824,0.039758868515491486,-79.78280578390141,40.45896332578091,258.42068416118616,0.026538735255599025,-0.0022328838240355253,-0.7843804955482483,0.6197080612182617,0.002784726609297509,0.0005813186655892709,0.0010606975718923922,0.005849648732692003,-0.00026706905919127166,0.0035543905105441813,0.35811995856463913,-0.3831768856197596,-9.795017679333688
3.99,0.4000000059604645,15.0,24.3974609375,0.05566241592168808,-79.78280578345193,40.45896332153024,258.4209148311615,0.026540052145719528,-0.0022322949953377247,-0.784382164478302,0.6197059154510498,0.0015019547022973724,0.0009505000245860996,0.0012233787514700238,-0.005399385932832956,-0.00037397089181467885,-0.00682934932410717,0.3563137536495924,-0.37662222996354106,-9.792445489168168
4.09,0.4000000059604645,15.0,24.386192321777344,0.03180709481239319,-79.78280577068249,40.45896331247549,258.42660469055176,0.026540596038103104,-0.0022321203723549843,-0.7843835353851318,0.6197041273117065,0.001088785719246917,0.000839814871653009,0.0011544552989953807,0.005089407786726953,0.003895881818607449,0.0012336450163275006,0.36005345005542044,-0.3909994003549218,-9.796056144833566
4.29,0.4000000059604645,15.0,24.39996337890625,0.039758868515491486,-79.78280578289014,40.45896327436277,258.4324602508545,0.026553252711892128,-0.0022264171857386827,-0.7843832969665527,0.6197038888931274,0.009154861694348548,-0.0012928319951544818,0.0015507205254402456,0.004813211038708687,-0.0017939631361514328,-0.002412292174994945,0.3567873050272465,-0.38029577974230055,-9.793523131012916
4.4,0.4000000059604645,16.0,24.39370346069336,0.04771064221858978,-79.7828057867461,40.45896326672563,258.43258685112005,0.026554875075817108,-0.0022253142669796944,-0.7843847274780273,0.6197019815444946,0.008935639448743994,-0.0011180948968886485,0.0017286241123478042,0.0028365165926516056,-0.002944879699498415,0.0023835275787860155,0.35877685669809584,-0.3917138570174575,-9.795929844975472
4.59,0.4000000059604645,16.0,24.3974609375,0.07156596332788467,-79.78280578270338,40.45896325518617,258.43867260456085,0.02655182220041752,-0.002227004151791334,-0.7843858003616333,0.6197007894515991,0.005864794098232659,-0.0004830874791458538,0.0014364956932211555,0.0061998204328119755,0.001429287251085043,0.002323631662875414,0.35981484711170203,-0.3892432987689972,-9.794597264528273
4.69,0.4000000059604645,17.0,24.39370346069336,0.02385532110929489,-79.78280578457344,40.45896325054635,258.43880349636083,0.02655182220041752,-0.002227004151791334,-0.7843858003616333,0.6197007894515991,0.0049990155088440215,-0.00014634668224427442,0.0016510024337103636,-0.005920012481510639,-0.0017282573971897366,0.003175114979967475,0.3577407300844789,-0.3870088583976031,-9.794002017974854
4.89,0.4000000059604645,20.0,24.39620780944824,0.03180709481239319,-79.7828058044697,40.45896324864511,258.44478398799896,0.026556078344583508,-0.002231057034805417,-0.7843871712684631,0.6196988821029663,0.003847190076593778,-0.003818305038696165,0.0015928476828341548,0.0021854154765605927,0.0021101324819028373,0.0019221046241000293,0.3594777916744352,-0.3915826966613532,-9.796261966824533
4.99,0.4000000059604645,22.0,24.39620780944824,0.11927660554647446,-79.782805809746,40.45896324641753,258.44492191314697,0.026556078344583508,-0.002231057034805417,-0.7843871712684631,0.6196988821029663,0.0027970619721943146,-0.003576010434240039,0.0016993948646231009,-0.005034083500504494,0.000375749048544094,-0.004511989653110504,0.355884019844234,-0.3815478513389826,-9.791744992733005
5.19,0.4000000059604645,25.0,24.38994789123535,0.015903547406196594,-79.78280580702871,40.458963228961814,258.45132440567016,0.026556661352515217,-0.0022261200938373804,-0.7843877673149109,0.6196981072425842,0.005313232228447607,-0.0009172021681999453,0.0017320552885892065,-0.0007846720400266347,-0.00022265005100052804,0.0025160650257021197,0.3580883105099201,-0.3919908688589931,-9.795423476099966
5.3,0.4000000059604645,26.0,24.39370346069336,0.03180709481239319,-79.78280580401619,40.45896321263975,258.4605060243606,0.026560233905911446,-0.002221543807536364,-0.7843892574310303,0.6196960210800171,0.0067860950482063285,0.0008394895898080273,0.005810894379252991,0.0037339541595429173,0.002475856337696314,0.001587416511029005,0.3573365047574044,-0.3778159755840898,-9.79326468408108
5.49,0.4000000059604645,26.0,24.408727645874023,0.09542128443717957,-79.78280580479436,40.458963206828706,258.4610750102997,0.02655000239610672,-0.002205999800935388,-0.7843912243843079,0.6196941137313843,0.005878665888642002,0.001253540763689831,0.005995868114501486,-0.006076469086110592,-0.00423822458833456,0.0034734176006168127,0.3574711003527045,-0.38880325924605136,-9.794342910647392
5.59,0.4000000059604645,26.0,24.39620780944824,0.039758868515491486,-79.78280580216153,40.458963199355814,258.46955794334406,0.02655434422194957,-0.002202430972829461,-0.7843940258026123,0.6196903586387634,0.006856252973610032,0.0018771669194523426,0.007667180355454841,-0.002135172253474593,-0.0013675997033715248,-0.004496491048485041,0.3571603573858738,-0.3763037759810686,-9.793531901836397
5.79,0.4000000059604645,26.0,24.3974609375,0.05566241592168808,-79.78280580027605,40.45896318642075,258.4792299890518,0.02653193287551403,-0.0021899815183132887,-0.7843776345252991,0.6197121739387512,0.0068644047604220935,0.002631679012821657,0.009331639112895331,-0.005880344659090042,-0.00391655508428812,-0.002586302813142538,0.3570077816024423,-0.3830345059186221,-9.794130071997644
5.91,0.4000000059604645,25.0,24.38994789123535,0.03180709481239319,-79.78280579973122,40.458963179248464,258.4801438474655,0.02653443999588489,-0.0021912578959017988,-0.784369170665741,0.6197227835655212,0.007200352409207745,0.0026967749338253073,0.009364547265410078,0.002993999980390072,0.0016989663708955052,-0.0012586202938109634,0.3570898984372616,-0.3826878756657243,-9.794544054865838
6.09,0.4000000059604645,25.0,24.39119911193848,0.07156596332788467,-79.78280580471788,40.45896318482762,258.4883535528183,0.02647838182747364,-0.002186983590945601,-0.7843673229217529,0.619727373123169,0.0031246055323612878,0.001919934892436796,0.005873789962903036,-0.004778113216161728,-0.0002972682996187359,-0.006797051057219504,0.35532436821609736,-0.37755917318165305,-9.7931465703249
6.2,0.4000000059604645,26.0,24.38994789123535,0.10337305814027786,-79.78280580367112,40.458963181298905,258.48892945289606,0.026461090892553333,-0.002193666994571686,-0.7843665480613708,0.6197291612625122,0.00358043888240707,0.0020237245449204197,0.005780304982447081,0.007422962691634893,4.2110732465516784e-06,0.0016391640529036526,0.3582232350111008,-0.3862287301942706,-9.795005400180818
6.39,0.4000000059604645,26.0,24.392452239990234,0.09542128443717957,-79.78280580771306,40.458963173308575,258.4970472478866,0.026430705562233925,-0.0022010456304997206,-0.7843539118766785,0.6197463870048523,0.004716907822600799,0.002683883086468141,0.0042612319617223145,-0.006729959975928068,-0.002490977058187127,-0.0036336837802082296,0.3558461956679821,-0.3770646083727479,-9.792477064132688
6.49,0.4000000059604645,27.0,24.392452239990234,0.13518016040325165,-79.78280580592218,40.458963168389616,258.49746233463287,0.026423439383506768,-0.002204274293035269,-0.7843514680862427,0.6197498440742493,0.005040038720338157,0.003032664385570685,0.004226912961228196,0.005386014468967915,0.00010547452984610572,0.005037775728851557,0.36057600840926174,-0.3896841422840953,-9.795515277385713
6.69,0.4000000059604645,28.0,24.38744354248047,0.11132483184337616,-79.78280581205587,40.458963176256496,258.5058090114593,0.026425639167428017,-0.002206137869507075,-0.7843533158302307,0.6197474002838135,0.0021515830478274337,0.002781780392636271,0.003476371806951785,0.0005625961348414421,-0.0021380565594881773,-0.002549169352278113,0.35635409943759444,-0.3785498011484743,-9.792639032006264
6.8,0.4000000059604645,32.0,24.38368797302246,0.2306014448404312,-79.78280582146984,40.458963186686994,258.5141547346115,0.0264255553483963,-0.002208654535934329,-0.7843533158302307,0.6197474002838135,0.001123449721803576,0.0019126786527616504,0.0027326577151265672,0.0048892004415392884,0.0020558652468025684,0.0018617369933053847,0.3599634394794703,-0.392560862749815,-9.795419383049012
6.99,0.4000000059604645,32.0,24.37617492675781,0.13518016040325165,-79.7828058166822,40.45896318497793,258.51473456859594,0.02642652951180935,-0.0022086130920797586,-0.7843542098999023,0.619746208190918,0.00013209413302089974,0.002517246617227132,0.002825953059759586,0.005138461478054524,0.0009198428015224637,0.0012720436789095402,0.3573538271337748,-0.3838896246626973,-9.793904954195023
7.1,0.4000000059604645,34.0,24.38744354248047,0.09542128443717957,-79.78280584925183,40.458963163308574,258.52367824554443,0.02644345723092556,-0.0022034745197743177,-0.7843556404113771,0.6197436451911926,0.008719373253591301,-0.00036792526239165247,0.002792518695991729,0.0005632144166156652,-0.0016687170136719944,0.0014346574898809195,0.35885623265057803,-0.3913950375840068,-9.795229933261872
7.3,0.4000000059604645,34.0,24.386192321777344,0.07951773703098297,-79.78280585755219,40.458963163207656,258.53277486801153,0.026442792266607285,-0.0022026856895536184,-0.7843558192253113,0.6197434663772583,0.008611280940615385,0.0009235925604267847,0.002500206674546796,0.005767184775322676,-0.0006050795200280845,0.0015399209223687649,0.3594066383689642,-0.3897210893779993,-9.795777232646943
7.39,0.4000000059604645,32.0,24.38368797302246,0.10337305814027786,-79.78280585905252,40.45896314878039,258.5332537317276,0.026443686336278915,-0.0022027045488357553,-0.7843575477600098,0.6197412014007568,0.007346314587415358,0.0016749661639115778,0.002806088575365836,-0.0009544897475279868,-0.0018610394326969981,-0.0011165675241500141,0.3570881808176637,-0.3857846707105637,-9.793288072943687
7.59,0.4000000059604645,31.0,24.38869667053223,0.09542128443717957,-79.78280588382736,40.45896315665264,258.5419394397736,0.0264526829123497,-0.002213062020018697,-0.7843587398529053,0.619739294052124,0.00834235644045038,-0.000663025602348983,0.00269335657719544,0.0037369530182331796,7.56172084948048e-05,0.0023734527640044694,0.3603981434181333,-0.3918477217108011,-9.795383715033534
7.69,0.4000000059604645,31.0,24.38744354248047,0.11132483184337616,-79.78280588660769,40.458963149864665,258.5421903753281,0.02644414640963077,-0.0022137868218123913,-0.7843604683876038,0.6197375059127808,0.0071189620523130015,-0.00021093132589290959,0.00294879665734743,-0.008508628234267235,-0.00011114762310171498,-0.003909469582140446,0.3563589599356056,-0.3809866648167372,-9.792955951094628
7.89,0.4000000059604645,30.0,24.38994789123535,0.10337305814027786,-79.78280590249244,40.45896314998383,258.5507292175293,0.02642250992357731,-0.0022342042066156864,-0.7843634486198425,0.6197345852851868,0.0072653879616791,0.0012199847157829127,0.00264348797467582,-0.002454933011904359,-0.0005396298365667462,0.0023174472153186802,0.3589786221832037,-0.3926709365844727,-9.794787299036981
8.0,0.4000000059604645,28.0,24.38368797302246,0.14313192665576935,-79.78280589697339,40.45896315615774,258.5593813085556,0.026381047442555428,-0.00225498410873115,-0.7843621969223022,0.6197378635406494,0.006339615696106049,0.006193507554376876,0.0021184443525794428,0.0073940050788223735,0.002535792766138911,0.0018613379215821626,0.3579335054755211,-0.3773365039005876,-9.792655404210091
8.19,0.4000000059604645,26.0,24.384939193725586,0.11927660554647446,-79.78280589120901,40.45896314989688,258.5596038722992,0.02637226693332196,-0.0022496157325804234,-0.7843547463417053,0.6197476983070374,0.004889794362650257,0.0067241038306126676,0.002347588746696125,-0.00645370502024889,0.0014805777464061975,-0.0013660489348694682,0.3578783954679966,-0.38731601994484666,-9.79382660150528
8.3,0.4000000059604645,21.0,24.386192321777344,0.10337305814027786,-79.78280593389741,40.45896316242076,258.5679110908508,0.02638733945786953,-0.002250032965093851,-0.7843412756919861,0.6197640299797058,0.007043075188620846,0.001026183936680151,0.002285428143295529,0.00041859695920720696,0.0008051871554926037,-0.0015852912329137325,0.3569563626497984,-0.37933343768119815,-9.793602653145786
8.49,0.4000000059604645,19.0,24.39370346069336,0.12722837924957275,-79.78280593450745,40.45896315014057,258.5683531188965,0.02635844610631466,-0.002267623785883188,-0.7843367457389832,0.6197710037231445,0.005502814466882799,0.001883999384124332,0.0026044958046292557,-0.002912038704380393,-0.0007047117687761785,-0.006666290108114481,0.3565587885305286,-0.3795185386016965,-9.79291502058506
8.6,0.4000000059604645,15.0,24.38994789123535,0.15108370780944824,-79.78280597235488,40.45896316688452,258.57637781143194,0.026354314759373658,-0.0022717283573001623,-0.7843340635299683,0.6197745203971863,0.0071277051119172765,-0.000996991718785209,0.0023453228231594945,0.003161449683830142,-4.452694702195004e-05,-0.002491078106686473,0.3592432086914778,-0.3852886806428433,-9.794483243823052
8.79,0.4000000059604645,15.0,24.37742805480957,0.14313192665576935,-79.78280601588317,40.45896318923021,258.58442348480224,0.026355678215622902,-0.0022782809101045127,-0.7843338251113892,0.6197746992111206,0.0034197078994528322,-0.0038089938097747578,0.0023947943897350108,-0.0059194001369178295,0.001201119739562273,-0.003605222795158625,0.35741153184324503,-0.3773791520297528,-9.793149493932725
8.9,0.4000000059604645,15.0,24.38869667053223,0.11927660554647446,-79.7828060213508,40.45896318676322,258.5846361541748,0.02636001817882061,-0.002276664599776268,-0.7843356132507324,0.6197722554206848,0.0035801482798784885,-0.0036766055637685695,0.002356422284637801,0.008655921556055546,0.003046930534765125,0.002821499016135931,0.3602889832109213,-0.38885277785360817,-9.795485456585883
9.09,0.30000001192092896,15.0,24.39370346069336,0.06361418962478638,-79.78280602487537,40.458963218795425,258.5924579524994,0.026353098452091217,-0.00227336585521698,-0.7843380570411682,0.6197694540023804,-0.0009033325360156279,0.0028609124670308265,0.0017186437792316824,0.001400047680363059,-0.0002694303693715483,-0.0008261580369435251,0.35684899315238,-0.3783499360084534,-9.794130071997644
9.2,0.30000001192092896,14.0,24.39119911193848,0.03180709481239319,-79.78280602115277,40.458963219159344,258.59265250206,0.026353098452091217,-0.00227336585521698,-0.7843380570411682,0.6197694540023804,-0.0011624136475098569,0.00312219058078104,0.0018585245685522227,0.004717210773378611,0.00157442525960505,0.0018787428271025421,0.35934228245168925,-0.3916041486337781,-9.796002350449562
9.39,0.30000001192092896,13.0,24.39620780944824,0.05566241592168808,-79.78280609578681,40.45896323422751,258.6001506471634,0.02637090161442757,-0.00227700499817729,-0.7843379974365234,0.6197687387466431,0.003466118110454973,-0.004876668888393645,0.002050323558008001,0.00560059817507863,0.004694686736911535,-0.00022243491548579183,0.3579905523732305,-0.38181737143546346,-9.793949393033982
9.49,0.30000001192092896,12.0,24.392452239990234,0.039758868515491486,-79.78280610201412,40.45896323255387,258.6003354215622,0.02637090161442757,-0.00227700499817729,-0.7843379974365234,0.6197687387466431,0.002833527862070977,-0.004492608062247629,0.0021982254764678004,0.0027781140524894,0.0015248078852891922,0.002847086871042848,0.3596527696028352,-0.391692733950913,-9.794837000370027
9.69,0.30000001192092896,12.0,24.392452239990234,0.03180709481239319,-79.78280611574714,40.45896325280615,258.60946256160736,0.026369856670498848,-0.0022711495403200392,-0.7843404412269592,0.6197658777236938,0.002970036861617605,0.0009449080163712883,0.004928434508222994,0.00553551921620965,0.004993724636733532,0.0006779832183383405,0.35824804913252595,-0.3870807060599327,-9.794508386850357
9.8,0.30000001192092896,8.0,24.392452239990234,0.07156596332788467,-79.78280616540378,40.45896327523019,258.6166413450241,0.026376349851489067,-0.0022734992671757928,-0.7843400835990906,0.6197659969329834,0.0049951524301597855,-0.0020915832881106414,0.00386381733073949,-0.0010956410551443696,-0.0016082110814750195,0.0019711710046976805,0.3583450398221612,-0.3901472417637706,-9.793589789271357
9.99,0.30000001192092896,7.0,24.3974609375,0.06361418962478638,-79.78280617258662,40.45896326770792,258.6173762702942,0.02637865208089352,-0.002272620098665357,-0.7843412756919861,0.6197643280029297,0.00435794830157504,-0.0016042880123805158,0.003885519297976654,0.005995369981974363,0.0017165781464427714,0.005886634811758995,0.3608037574589253,-0.3918459675461054,-9.795010662674905
10.09,0.20000000298023224,5.0,24.38994789123535,0.039758868515491486,-79.78280621011166,40.45896330796288,258.62664538860315,0.026379499584436417,-0.0022743947338312864,-0.7843436598777771,0.6197612881660461,0.0008071149995002049,-0.0008306830145519046,0.007055149391177656,-0.005564514081925154,-0.0011732621351256967,-0.0031699140090495352,0.35718418478965763,-0.383197606690228,-9.793811398744584
10.29,0.20000000298023224,5.0,24.386192321777344,0.03180709481239319,-79.78280624909118,40.45896334473153,258.63687688350683,0.026378877460956573,-0.002276694867759943,-0.784343957901001,0.6197609305381775,-0.0007261304822554378,-0.0006341952665657171,0.008868515499521402,0.0006129887769930067,0.003107007592916489,0.0049360059201717385,0.3599310605227947,-0.3919182902947068,-9.794943419694901
10.4,0.20000000298023224,5.0,24.392452239990234,0.03180709481239319,-79.78280624986573,40.45896334566121,258.6377721452713,0.02638022042810917,-0.002276287181302905,-0.7843447923660278,0.6197597980499268,-0.0020333694240485412,-0.00031349662586158486,0.009061236774180987,-0.004792903549969196,-0.00046464739716611797,-0.002011404838413,0.3561696563288569,-0.37954357199370864,-9.792476479411127
10.59,0.20000000298023224,4.0,24.3974609375,0.039758868515491486,-79.78280631174161,40.45896337356943,258.6482966566086,0.026390867307782173,-0.0022754461970180273,-0.7843455672264099,0.6197583675384521,0.0013315734194336,-0.002495079166904515,0.010220829284568588,0.0006095391581766307,0.0008508904720656574,0.00275851646438241,0.3575667023286224,-0.3907000594586134,-9.794897226691246
10.7,0.20000000298023224,4.0,24.39495658874512,0.03180709481239319,-79.78280631531246,40.4589633728743,258.64930075645447,0.026390867307782173,-0.0022754461970180273,-0.7843455672264099,0.6197583675384521,0.0004266203661874193,-0.0022148222767392413,0.010261478071746507,-0.0025703576393425465,0.0004062720690853894,-0.003020161995664239,0.3572599427774549,-0.3772370646893978,-9.792833159565928
10.9,0.20000000298023224,5.0,24.392452239990234,0.03180709481239319,-79.78280635784483,40.45896339651843,258.66041451931,0.026393773034214973,-0.002272710204124451,-0.7843475341796875,0.619755744934082,0.0022208065210687572,-0.00025440188703895826,0.011064347932178392,-0.0023612638469785448,-0.003423793939873576,0.0031282452400773764,0.35725676335394385,-0.3876620289310813,-9.793452379703522
11.0,0.20000000298023224,5.0,24.37993049621582,0.17493902146816254,-79.78280638661398,40.45896342477822,258.6721652173996,0.026394138112664226,-0.0022639662493020296,-0.7843495607376099,0.6197532415390015,0.002683475850482789,0.004314681587963018,0.011343553584079263,0.00517504382878542,0.004117337055504322,0.003417514730244875,0.35695756863802675,-0.3777428122982383,-9.79244139611721
11.2,0.20000000298023224,7.0,24.386192321777344,0.02385532110929489,-79.7828063825573,40.45896342178305,258.6733208322525,0.026379451155662537,-0.002274575643241405,-0.7843372821807861,0.6197693943977356,0.0012933884608159346,0.004795666403558096,0.011653935780966304,-0.005556195508688688,-0.0030023569706827398,-0.004626167938113214,0.3568977808579803,-0.3828976810723543,-9.793272870182992
11.29,0.20000000298023224,10.0,24.39620780944824,0.03180709481239319,-79.78280640782836,40.45896348092368,258.68769306182855,0.026341866701841358,-0.002291127573698759,-0.7843310236930847,0.6197787523269653,-0.005055883660410303,0.005812055770816938,0.015218721202431403,0.0032441949006170034,0.0019547513220459227,0.003427759511396289,0.35808699488639834,-0.3826776430383325,-9.792706274986267
11.49,0.20000000298023224,12.0,24.39620780944824,0.05566241592168808,-79.782806400246,40.4589634841722,258.6892640018463,0.02633335068821907,-0.002273870399221778,-0.7843341827392578,0.6197752356529236,-0.006366229627424224,0.006228111435349754,0.015457324147068397,-0.007455698680132627,0.00041763699846342206,-0.0055557694286108026,0.3564033987745643,-0.3787918758764863,-9.793593882322313
11.59,0.30000001192092896,14.0,24.39495658874512,0.039758868515491486,-79.78280643464781,40.45896352692957,258.7002198123932,0.026336541399359703,-0.002270660828799009,-0.7843392491340637,0.6197687387466431,-0.006018537136477114,0.007004192333246147,0.0144712439145863,0.008000742644071579,0.0012704974506050348,0.003730359487235546,0.3601572381332517,-0.3876998531073332,-9.795110650062561
11.79,0.30000001192092896,15.0,24.392452239990234,0.015903547406196594,-79.7828064773894,40.458963569563494,258.71259767055506,0.026330316439270973,-0.002266645198687911,-0.7843300700187683,0.6197805404663086,-0.005749670521672811,0.004338821550317272,0.013530312413680995,0.001994662918150425,-0.0043779220432043076,-0.003076685592532158,0.3568367505446077,-0.3779050359874964,-9.792095240950584
11.9,0.30000001192092896,16.0,24.39370346069336,0.03180709481239319,-79.7828064714217,40.458963573300466,258.71399241924286,0.026329876855015755,-0.0022579533979296684,-0.7843319773674011,0.6197782754898071,-0.0058633842009384075,0.004586966814863753,0.013598164318879323,0.002948939800262451,0.0010183965787291527,0.003414459060877561,0.3590228052064777,-0.3915192543715239,-9.795031127929688
12.1,0.30000001192092896,18.0,24.38869667053223,0.02385532110929489,-79.7828065217153,40.458963615093815,258.72874146938324,0.02630540728569031,-0.002283271634951234,-0.7843298912048341,0.6197817921638489,-0.005674251747136521,0.003057047235153448,0.017011025759683846,0.00020749875693581998,0.0024045605678111315,0.0018358114175498488,0.3576085099205375,-0.3819372759014368,-9.793752341866494
12.19,0.30000001192092896,19.0,24.392452239990234,0.007951773703098297,-79.78280651701661,40.45896361949049,258.73048979282385,0.02630540728569031,-0.002283271634951234,-0.7843298912048341,0.6197817921638489,-0.006631089071935998,0.003588803889420013,0.017200352705712543,0.0015579016180709009,0.00026391673600301147,0.0035515150520950564,0.3597528666257859,-0.3927132923528552,-9.795062702894214
12.39,0.30000001192092896,19.0,24.38744354248047,0.02385532110929489,-79.78280654489126,40.458963640991286,258.743536772728,0.026312801986932755,-0.002276079729199409,-0.7843308448791504,0.6197802424430847,-0.0027981181610596552,0.006993480627485265,0.015337366592583297,0.0029012938030064106,0.0019377607386559246,0.0029854457825422287,0.3603452626615763,-0.389224880039692,-9.794594925642016
12.5,0.30000001192092896,18.0,24.39370346069336,0.039758868515491486,-79.78280660411099,40.458963662539865,258.7567518377304,0.0263253040611744,-0.0022782436572015285,-0.7843331694602966,0.6197768449783325,0.00020077163394047944,0.002545226567888796,0.014716142235001471,-0.0007541361264884473,-0.0010501703945919873,-0.001609263475984335,0.3579388776049018,-0.3875014132261276,-9.7939692735672
12.69,0.30000001192092896,17.0,24.40372085571289,0.10337305814027786,-79.78280660172783,40.45896366164829,258.7582407617569,0.0263253040611744,-0.0022782436572015285,-0.7843331694602966,0.6197768449783325,-3.5782577151416717e-05,0.0028386648685483308,0.014887823616750638,0.0007380278548225758,0.0030244472436606893,0.0063607702031731606,0.3607094711065292,-0.3911292450875044,-9.795943878293038
12.79,0.30000001192092896,15.0,24.392452239990234,0.03180709481239319,-79.78280664646472,40.45896369002296,258.77078718185425,0.02632641792297364,-0.0022810904774814844,-0.7843331694602966,0.6197767853736877,-0.0017321885864073196,0.001938807991445305,0.01416859542686223,-0.003952522296458483,-0.0017424772959202528,0.00014968807226978242,0.3562126699090004,-0.3819258372858167,-9.7930354732275
12.99,0.30000001192092896,15.0,24.39620780944824,0.05566241592168808,-79.78280664196015,40.45896369188125,258.7736567878723,0.02632882446050644,-0.0022803312167525287,-0.7843340635299683,0.6197755336761475,-0.0026473384843617442,0.0025176626813362512,0.014374033059352522,-0.00031819831929169595,0.001475716708227992,0.0021592106204479933,0.3593177606910467,-0.391607583872974,-9.795263847112658
13.1,0.30000001192092896,14.0,24.38994789123535,0.03180709481239319,-79.78280668466638,40.458963681160895,258.78783518314356,0.02633980475366116,-0.002272979822009802,-0.7843356132507324,0.6197731494903564,0.0050581707262671105,0.003654745933263736,0.013882660806240978,0.006599325221031904,0.0009977074805647137,0.00013072454021312294,0.3582294842228293,-0.377321118414402,-9.792132078409194
13.29,0.30000001192092896,13.0,24.392452239990234,0.03180709481239319,-79.78280670230573,40.4589637070471,258.7994568967819,0.026334695518016808,-0.002274332568049431,-0.7843355536460876,0.6197734475135803,0.0005746727641292205,0.006289180214094763,0.009080889583034348,-0.003223745385184884,-0.002939483383670449,0.003339393995702267,0.3581518989801407,-0.3894209079444408,-9.794465117454527
13.4,0.30000001192092896,10.0,24.39495658874512,0.04771064221858978,-79.78280669570215,40.458963704919896,258.8003814840317,0.02633766457438469,-0.002273531164973975,-0.7843366265296936,0.6197720170021057,3.606044438868208e-05,0.006549333533363021,0.009086293793041949,0.0006018616841174662,0.0010639000684022903,-0.003453204408288002,0.35711708799004555,-0.3768531584367156,-9.79277117908001
13.59,0.30000001192092896,9.0,24.39495658874512,0.02385532110929489,-79.78280675612756,40.45896370999021,258.81365901470184,0.026352224871516228,-0.002277889754623175,-0.7843382358551025,0.6197693347930908,0.003034830898461663,-0.0006402300745114018,0.007447860945218333,-0.006307102739810944,-0.0002983779413625598,-0.005310372915118933,0.35669755026698113,-0.3807165965437889,-9.79279456794262
13.7,0.30000001192092896,6.0,24.38869667053223,0.039758868515491486,-79.78280675804214,40.458963707195785,258.8143884563446,0.026352224871516228,-0.002277889754623175,-0.7843382358551025,0.6197693347930908,0.0030049594056377853,-0.0005412678751546671,0.007476202272653953,0.003964944276958704,3.6418976378627115e-05,-0.00042572274105623364,0.3587459395453334,-0.3859773730114103,-9.79453528404236
13.89,0.30000001192092896,4.0,24.392452239990234,0.015903547406196594,-79.78280678175777,40.45896370662682,258.8286101841926,0.026355944573879242,-0.002275428036227823,-0.7843395471572876,0.619767427444458,0.0036389722471937796,0.0009519248155323963,0.005959597144144463,-0.005896615795791149,7.793122495058924e-05,-0.004141594283282757,0.356733254827559,-0.3769155043736101,-9.792753637433053
14.0,0.30000001192092896,0.0,24.39620780944824,0.11132483184337616,-79.78280678176067,40.45896370310455,258.8292016410828,0.026355944573879242,-0.002275428036227823,-0.7843395471572876,0.619767427444458,0.0037088363875573257,0.0012095744629346435,0.00596965242200252,0.0036102333106100564,0.0031726413872092962,0.002516519511118531,0.36150779876858,-0.3906373846158385,-9.795358572006228
14.2,0.4000000059604645,357.0,24.382434844970703,0.02385532110929489,-79.78280683067777,40.45896369298646,258.8440740728378,0.02636656351387501,-0.002275500912219286,-0.7843400835990906,0.6197662949562073,0.005727592374392882,-0.00212285125431696,0.0048892869671341216,0.00047178121167235076,-0.0015382838901132345,-0.0009788646129891276,0.3574394888430834,-0.3806847657635809,-9.793497987985614
14.29,0.4000000059604645,356.0,24.38994789123535,0.0,-79.78280684871503,40.45896370487373,258.8593214774132,0.026363605633378032,-0.002277311170473695,-0.7843403220176697,0.619766116142273,0.00288247807132188,-0.0011476986685292694,0.004035922772963511,0.003432877827435732,-0.0023908279836177826,0.001434789621271193,0.3605466261506081,-0.391402858234942,-9.795019433498382
14.5,0.4000000059604645,355.0,24.38744354248047,-0.007951773703098297,-79.78280685214905,40.45896370155811,258.86013573646545,0.026364846155047417,-0.002277272287756205,-0.7843413949012756,0.6197646856307983,0.0015071585598633779,-0.000668369086378417,0.004240226023891739,0.003990184981375933,0.004905900452286005,-0.0011033400660380721,0.3583511063084007,-0.3849455952644349,-9.794363375902176
14.6,0.4000000059604645,353.0,24.39119911193848,0.03180709481239319,-79.78280686521884,40.458963691056226,258.87818485736847,0.026369675993919373,-0.0022734475787729025,-0.7843433022499084,0.6197621822357178,0.0016945974024823625,0.0009773200716806736,0.007156502620681906,-0.0022543615195900197,0.001016428810544312,-0.004203803371638061,0.3590381541475654,-0.3920498161017895,-9.794433542490005
14.79,0.30000001192092896,352.0,24.39370346069336,0.015903547406196594,-79.7828068714682,40.45896368855597,258.8963921093941,0.02636926062405109,-0.0022743656300008297,-0.7843437194824219,0.6197616457939148,0.0011090817555166738,0.0008955478175455113,0.009164857730498377,0.005653596017509699,0.0024099727161228657,0.003810136113315821,0.35983480073511603,-0.3894050839170814,-9.795158597230913
14.9,0.30000001192092896,351.0,24.39370346069336,0.015903547406196594,-79.78280686965365,40.458963687408364,258.8982664370537,0.026371393352746964,-0.002273731399327517,-0.7843455076217651,0.6197592616081238,-0.0006635289971715738,0.0014806110942107418,0.009484710156148782,0.0003963152121286839,0.002917296485975385,-0.005021461285650729,0.3576740718260408,-0.3860406691208482,-9.79319568693638
15.09,0.30000001192092896,351.0,24.39119911193848,-0.007951773703098297,-79.78280687660386,40.458963665389035,258.9176039123535,0.02637823298573494,-0.002268941374495625,-0.7843471765518188,0.6197569370269775,0.002670400314150397,0.002300144764502372,0.01122235498230489,0.004175081383436918,-0.0011620791628956795,0.004802227485924959,0.3608779074624181,-0.3926389961689711,-9.795462067723275
15.2,0.30000001192092896,354.0,24.38744354248047,0.015903547406196594,-79.78280692233206,40.45896361473042,258.9365273141861,0.02639453858137131,-0.002268276875838637,-0.7843466997146606,0.619756817817688,0.010994955615970385,-0.004580663679508781,0.008639631736228887,0.00544231478124857,0.00030671144486404955,0.0035883854143321514,0.35716181918978696,-0.38216659639030703,-9.79236011981964
15.39,0.30000001192092896,354.0,24.39370346069336,0.015903547406196594,-79.78280693073945,40.45896360604497,258.93734842777246,0.02639667317271233,-0.002267223317176104,-0.7843474745750427,0.6197558045387268,0.010494735578736595,-0.004261850054474935,0.008891748031869822,0.001974782906472683,3.0955263355281204e-05,0.005159200169146061,0.3598528905585409,-0.3912504651769996,-9.79502820432186
15.5,0.30000001192092896,357.0,24.358646392822266,0.7236114144325256,-79.7828069386928,40.45896359795695,258.938186826706,0.02639667317271233,-0.002267223317176104,-0.7843474745750427,0.6197558045387268,0.009130432380315492,-0.0039925718494816815,0.009055943194807712,-0.004976258613169193,-0.0023701013997197147,-0.0021837465465068817,0.3562799128890038,-0.38003133941441775,-9.792482911348344
15.69,0.30000001192092896,358.0,24.37492370605469,0.326022744178772,-79.7828069116416,40.45896356244111,258.95666885614395,0.02637634426355362,-0.0022581215016543865,-0.7843733429908752,0.619723916053772,0.007391772115329519,0.0023410929851103717,0.007301604796994978,-0.0046743862330913535,0.0006102462648414075,0.011163347400724888,0.3595408685132861,-0.3779795514419675,-9.79535798728466
15.79,0.20000000298023224,357.0,24.372419357299805,0.3419262766838074,-79.78280691937351,40.45896352887643,258.977073969841,0.026386825367808345,-0.002257732208818197,-0.7843788862228394,0.6197164058685303,0.009203707613783241,-0.00023079661588245966,0.009756792524698276,0.0022092354483902454,0.0012290339218452573,-0.007927139289677143,0.3603901765868068,-0.38351313706487417,-9.791143314242364
15.99,0.20000000298023224,356.0,24.37617492675781,0.3339745104312897,-79.78280692633444,40.45896351372936,258.97896933794016,0.02639336697757244,-0.002255305415019393,-0.7843864560127258,0.6197065711021423,0.0077990655931759936,-8.561974027332386e-05,0.0099711630688938,-0.002918143756687641,0.00363166187889874,-0.0023578894324600697,0.3601608926430345,-0.3869941672682761,-9.79069483280182
16.1,0.20000000298023224,355.0,24.372419357299805,0.326022744178772,-79.78280693439547,40.45896349588449,259.00007713079447,0.026393977925181392,-0.002253954764455557,-0.7843933701515198,0.6196978092193604,0.005260188407293106,-0.003659255822077421,0.011779699878607672,-0.0014962439890950918,0.0028138540219515558,-0.001418320694938302,0.35451482120901345,-0.3758171414583922,-9.792702181935313
16.29,0.20000000298023224,356.0,24.37367057800293,0.3816851377487183,-79.78280690839371,40.45896346566549,259.02323323726654,0.026385698467493057,-0.0022266798187047247,-0.7843841910362244,0.6197099089622498,0.0013062032441169714,0.002359640830269565,0.01294826230534518,-0.008458506315946579,-0.0015546216163784266,0.002260630950331688,0.3562006100267172,-0.3832981787994504,-9.792672361135484
16.4,0.20000000298023224,357.0,24.3686637878418,0.40554046630859375,-79.78280690711254,40.45896346319152,259.02452945947647,0.026378892362117767,-0.0022250560577958822,-0.784403383731842,0.6196858882904053,0.001639419600465941,0.0025986948169250275,0.013015154164012988,0.0011915505165234208,0.0009793185163289306,-0.003170108189806342,0.3605732675269247,-0.3828389531001449,-9.795940954685213
16.59,0.20000000298023224,357.0,24.36490631103516,4.914196491241455,-79.78280687935178,40.45896343326507,259.04711133480066,0.026397855952382088,-0.002250436693429947,-0.7844009995460509,0.6196879744529724,-0.0007897790027710844,0.00612208287560495,0.01383362748454108,-0.006005526520311832,-0.0003090095706284046,-0.003875430673360825,0.3632603554800153,-0.3743867663294077,-9.789017851352693
16.7,0.20000000298023224,356.0,24.07192611694336,3.578298330307007,-79.78280686536502,40.45896337453668,259.07125640153885,0.026678953319787986,-0.002253616228699684,-0.7843067646026611,0.6197953224182129,0.006875823005508456,0.006005924199141817,0.01693468459326055,0.015969017520546913,-0.003345355158671737,0.028944969177246094,0.34345660351216795,-0.3569932366535068,-9.826008507013322
16.89,0.20000000298023224,355.0,24.369915008544922,0.2624085247516632,-79.78280685904569,40.45896336778036,259.0730097913742,0.02667922712862492,-0.0022253994829952717,-0.7843233942985535,0.6197742223739624,0.007521739322760744,0.004229869014282853,0.017427791402691403,0.02309721708297729,0.013761297799646854,-0.012037280946969986,0.3742000208795071,-0.39728570535779,-9.811121495962144
17.0,0.20000000298023224,350.0,24.37367057800293,5.375399112701416,-79.78280683226397,40.458963316085786,259.0972542786598,0.02670213952660561,-0.0022758813574910164,-0.7843441367149353,0.6197468042373657,0.007245722263769306,0.0062907790601244825,0.021595030441738286,0.00904269888997078,0.0048860078677535074,-0.004468729253858328,0.4010434184968472,-0.43944920998066667,-9.79868680715561
17.2,0.20000000298023224,348.0,24.334857940673828,0.5248170495033264,-79.7828068249357,40.458963308287615,259.0993318581581,0.02680358104407788,-0.002282523084431887,-0.7843331694602966,0.6197563409805298,0.005153300221680942,0.01177755202045705,0.020205127736474773,0.009910841472446918,0.005084672477096318,0.009490634314715862,0.38732164788991214,-0.4256699904799461,-9.770793834328652
17.3,0.20000000298023224,347.0,24.358646392822266,0.2703603208065033,-79.78280681548678,40.45896329608687,259.12326091766363,0.02671720273792744,-0.0022889687679708004,-0.7843334078788757,0.6197596788406372,-0.0035962002575935506,0.0062137760222859065,0.022363768269294964,0.0024163916241377588,-0.0037551838904619217,-0.010703609324991705,0.3302575739845633,-0.4064197871088982,-9.779475195407867
17.49,0.20000000298023224,346.0,24.32609367370605,1.1212000846862793,-79.78280680819769,40.45896329642074,259.12555176258087,0.026616638526320457,-0.002220805734395981,-0.7842407822608948,0.6198815107345581,-0.003277796595587923,0.007345896557300758,0.02306490239156837,-0.0160384401679039,0.001501731458120048,0.007206114940345287,0.35261283159255985,-0.4207240865752101,-9.795770800709725
17.6,0.20000000298023224,345.0,24.21466064453125,3.4033591747283936,-79.78280675913075,40.45896325487485,259.1495181941986,0.0265777837485075,-0.0022195258643478155,-0.7843039631843567,0.619803249835968,-0.003771132761007571,0.014667788930238812,0.023609657872810948,-0.02692341990768909,-0.03379853814840317,0.011323586106300354,0.3517025662958622,-0.4063185571879149,-9.800939154624938
17.79,0.20000000298023224,343.0,24.076934814453125,5.971782207489014,-79.78280678688502,40.4589632295587,259.17104536533355,0.026638874784111977,-0.002272178884595633,-0.7843549251556396,0.6197359561920166,5.921625836880242e-05,0.0038431253228026906,0.02285279950298313,0.042979851365089417,0.03743749111890793,0.006977945100516081,0.3773749127984048,-0.4254515238851309,-9.785573256611825
17.9,0.20000000298023224,338.0,23.99930763244629,7.029367923736572,-79.7828067818839,40.45896323214378,259.17348027467733,0.02666370943188668,-0.002335906494408846,-0.7843369841575623,0.619757354259491,-0.002646682294005321,0.0037625303761976685,0.024572598750190886,0.008257323876023294,0.005659514106810093,0.015098687261343002,0.3431919439136982,-0.4542552005499602,-9.795087261199953
18.09,0.20000000298023224,335.0,23.85907745361328,9.573935508728027,-79.78280676547372,40.458963196332725,259.1984639787674,0.02694128081202507,-0.002027226146310568,-0.784346342086792,0.6197344660758972,-0.001656699242145866,0.005712470103186406,0.030572640773619836,-0.013542256318032742,0.01262984238564968,-0.051277831196784966,0.3029325485229492,-0.4073259593546391,-9.759666582942009
18.2,0.30000001192092896,329.0,23.77143478393555,10.997303009033203,-79.78280675819911,40.45896319542451,259.20156955957407,0.027526402845978737,-0.0017163943266496062,-0.7842780947685242,0.6197962164878845,-0.001422582273308744,0.007492778401571155,0.029023570175053283,0.04570000246167183,0.06302690505981445,-0.01680571585893631,0.3905207692086697,-0.4613261653482914,-9.796982928514481
18.39,0.30000001192092896,326.0,23.606164932250977,13.899701118469238,-79.7828068114507,40.45896311192801,259.22353774547577,0.02862671017646789,-0.0009889177745208144,-0.784176230430603,0.6198768615722656,0.0056033858970774755,0.002715328083997682,0.03270729860841399,-0.002896662801504135,-0.02964591607451439,-0.026200076565146446,0.3165029127895832,-0.3649024363607168,-9.813557446002962
18.5,0.30000001192092896,324.0,23.50224304199219,15.370779037475586,-79.78280681212695,40.458963100591454,259.22663843870157,0.029453514143824574,-0.00033461148268543184,-0.7841207981109619,0.6199089884757996,0.0073695346522494095,0.00241332053379722,0.030526108900621744,0.010231105610728264,-0.000572343822568655,0.006192390341311693,0.3531725563108921,-0.5578909949585795,-9.786781291365623
18.7,0.30000001192092896,322.0,23.29315185546875,18.75823402404785,-79.78280677093855,40.458963064123395,259.2460670495033,0.028826836496591568,0.0006154999719001353,-0.7839291095733643,0.6201805472373962,0.001285599081663021,0.02044134220089456,0.02978287863191568,-0.0183427594602108,-0.07097244262695312,-0.02197523787617684,0.4203974830359221,-0.4917059589922429,-9.841414750814439
18.79,0.4000000059604645,319.0,23.208011627197266,20.33268547058105,-79.78280681185335,40.45896301658395,259.26215911149984,0.02772904932498932,0.0013309954665601256,-0.7840613722801208,0.6200622916221619,0.0022331931625316674,0.0031064455655851397,0.026342862697702703,0.01490303408354521,0.07812635600566864,-0.00019757698464673007,0.41606381915509705,-0.4496254117414356,-9.899843637943269
19.0,0.4000000059604645,316.0,22.943828582763672,24.252910614013672,-79.78280677811397,40.45896302601176,259.2709648036957,0.018771516159176826,0.0019994231406599283,-0.783507227897644,0.6210958957672119,-0.004576423775695468,0.027109975358427008,0.0609647403674092,-0.024635184556245804,-0.18884876370429995,0.1323089748620987,0.4392023478448392,-0.6482888393104077,-10.074561949968338
19.1,0.5,310.0,22.84491729736328,26.137481689453125,-79.78280683035695,40.458962881871145,259.28426391124725,0.007439233828336,0.0017667936626821754,-0.7837667465209961,0.6210082769393921,0.015967611468589594,0.021831600833818285,0.08811217069788296,-0.12459705024957655,-0.2468210756778717,0.13685232400894165,0.31711215611547233,-0.3811312737688423,-10.196589832305909
19.29,0.5,308.0,23.020204544067386,20.698467254638672,-79.78280701174442,40.45896282604184,259.32175958395004,-0.01588592492043972,0.003988555166870357,-0.78526371717453,0.6189447641372681,-0.026080008309357472,0.06213660776392749,0.2225457672300308,-0.3627006709575653,-0.2585652470588684,-0.09399617463350296,0.23721291437745096,0.2750337650254369,-10.70208162546158
19.39,0.6000000238418579,298.0,23.09282302856445,20.96087646484375,-79.78280694263168,40.45896281048843,259.34843799710274,-0.018977265805006027,0.006306398659944534,-0.7864204049110413,0.6173678636550903,0.004812367497079812,0.06539806707037796,0.29472274618196903,0.0324370302259922,-0.06014034897089005,0.06038907170295715,-0.2026447784341872,-0.02003011230379343,-10.42051948070526
19.59,0.6000000238418579,294.0,23.12287330627441,20.300878524780273,-79.78280625072206,40.458962935459965,259.3974448764324,-0.0008189077489078045,0.0013290464412420988,-0.7878791689872742,0.6158279776573181,0.002126526886726823,0.09894522540528043,0.1898755321620693,0.25352853536605835,0.14976739883422852,0.07044064253568649,-0.07403580919839442,-0.1637126279063523,-9.509736120700836
19.7,0.699999988079071,292.0,23.09407615661621,23.0203857421875,-79.78280611685983,40.45896292377881,259.4130691313744,0.006538373418152332,-0.0021454459056258197,-0.7878625392913818,0.6158127188682556,0.007653602212764982,0.10623461031185584,0.12457755895819912,0.2455437630414963,0.18143081665039065,0.05997259914875031,0.018372810389846558,-0.12136570343747735,-9.244483029842376
19.89,0.699999988079071,293.0,22.94883728027344,23.632671356201172,-79.78280575779965,40.45896284427587,259.4362586760521,0.008910641074180603,-0.01128798071295023,-0.7860819101333618,0.6179550290107727,0.03924102674408,0.10638734876541127,0.022158316157789185,0.11902885884046555,0.18538562953472132,-0.012862508185207844,0.1805010621249676,-0.017731845919042828,-9.444437924623491
20.0,0.8000000119209291,294.0,22.900007247924805,23.1953239440918,-79.78280562376958,40.45896280007727,259.4380460107326,0.005422220099717379,-0.011748738586902618,-0.7850647568702698,0.619278609752655,0.018802348455130537,0.11070836806340807,0.010660136783227293,-0.0312558189034462,0.04524023458361626,-0.08073636889457703,0.2527991610579193,0.1619195244088769,-9.687748754024506
20.19,0.8000000119209291,288.0,22.787322998046875,25.286640167236328,-79.78280496589329,40.458962777618865,259.48761400818825,0.002973160240799189,-0.006325933150947094,-0.7840515971183777,0.6206563115119934,-0.001436177381947457,0.12250404661528502,0.03915532136945958,-0.15823322534561154,-0.09284120053052902,-0.08819954842329025,0.17339320505037906,0.1455524825770408,-9.61531344652176
20.3,0.699999988079071,283.0,22.82738876342773,24.252910614013672,-79.7828047199708,40.458962602162096,259.5214673602581,0.004337386228144169,-0.003666680306196213,-0.7841941714286804,0.6204895973205566,0.006384470493025102,0.1144390403419906,0.09632585391095204,0.044238720089197166,-0.053901132196187966,0.12285338342189787,0.12436341558583082,-0.24302716635167604,-9.859565677642825
20.49,0.699999988079071,284.0,22.863698959350586,24.08592414855957,-79.78280459274713,40.458962579610294,259.53226778149605,0.004128832835704088,-0.00639793835580349,-0.7844357490539551,0.6201634407043457,-0.017191800920150647,0.11278343456755825,0.11135082906286646,-0.11776500195264815,0.16745613515377045,-0.047167569398880005,0.2489297843724489,0.17079837519675495,-9.954473004341127
20.6,0.699999988079071,276.0,22.724720001220703,26.25675773620605,-79.78280450458287,40.45896269333009,259.5618129694462,0.00382196926511824,-0.008204668760299683,-0.7848028540611267,0.6196794509887695,-0.03648426265740992,0.11288065373162355,0.10869083806447732,-0.2428409606218338,-0.13857772946357727,-0.010668966919183731,0.08623281782492996,0.051044986657798296,-9.856822164058686
20.8,0.699999988079071,279.0,22.81111145019531,25.5649528503418,-79.78280411790671,40.45896277501339,259.59485422313213,0.0039027947932481774,-0.01146943960338831,-0.785302460193634,0.6189938187599182,-0.04098592349401761,0.08597317646453947,0.11994668177034327,-0.1625080406665802,0.16506245732307434,0.004022616427391768,0.002757683945819736,0.3495377808809281,-9.889047338962556
20.89,0.6000000238418579,272.0,22.82363319396973,24.539175033569336,-79.78280401317056,40.458962780620475,259.60725252568716,0.0049663190729916104,-0.012401555664837359,-0.7853568196296692,0.6188992857933044,-0.02060505311982646,0.08219080162976139,0.13082043792612796,0.05599009618163109,-0.04362013563513757,-0.0014545735903084278,0.05425092363730073,-0.0342477816157043,-9.981580696105958
20.99,0.6000000238418579,269.0,22.81111145019531,25.46953201293945,-79.7828039227187,40.458962788886716,259.62139638006687,0.0063362130895257,-0.012436569668352604,-0.7856345772743225,0.6185333132743835,-0.01867163024155451,0.05828523723357905,0.14470194709231607,0.08566636592149733,0.1386227309703827,0.008003332652151585,0.03375966473249719,0.2513898176327348,-9.93418667435646
21.2,0.6000000238418579,259.0,22.84616851806641,26.40784072875977,-79.78280366512912,40.458962823567326,259.6544732773304,0.009345592930912971,-0.01376884151250124,-0.785614550113678,0.6184925436973572,-0.006935226409293689,0.03477191797626589,0.052174314462435145,0.10615146160125732,0.09944925457239152,0.09943033009767532,0.1802208343148232,0.037655123197473585,-9.124413964748383
21.29,0.6000000238418579,252.0,22.483074188232425,30.121318817138672,-79.78280356451901,40.45896288645836,259.67310022056097,0.007074334193021059,-0.014566836878657341,-0.7855947613716125,0.6185295581817627,-0.0055713003312113174,0.03443513952610664,-0.04211882236278934,-0.035904835909605026,-0.01715116575360298,0.02344192750751972,0.3795211698487401,0.23307714220136405,-8.96345824420452
21.51,0.699999988079071,236.0,22.3741455078125,32.80106735229492,-79.78280347363426,40.45896288928176,259.6724094325304,-0.002580149797722697,-0.007706657983362675,-0.7860767841339111,0.6180755496025085,-0.014668690714102955,0.038424728541107976,0.06514427543155248,-0.04171080514788628,-0.12385305017232895,-0.0497170053422451,0.26518612196668984,0.04650832846295089,-10.395864111185077
21.69,0.6000000238418579,233.0,21.944692611694336,37.039363861083984,-79.78280322804159,40.45896294770795,259.743466796875,-0.0015979227609932425,-0.008687222376465797,-0.7866519093513489,0.617333710193634,-0.033014060926638195,0.055612414002510255,0.3968808095977313,-0.07161714881658554,0.0021137248259037733,-0.07054378092288971,0.2215826125815511,0.03967267298139632,-11.520821624994278
21.79,0.6000000238418579,236.0,22.10245132446289,35.81478881835937,-79.78280301400513,40.45896310900153,259.802750521861,-0.0006259913789108398,-0.012129976414144041,-0.7867341041564941,0.6171725988388062,-0.035694242174288834,0.061990667527736486,0.6318962420927309,-0.08494887501001358,0.03384440392255783,0.07710261642932892,0.2047990571334958,-0.06822755975648763,-12.040948998928073
21.89,0.699999988079071,236.0,21.932172775268555,38.7569465637207,-79.78280294384565,40.45896313716043,259.877761195004,-0.0007061742944642901,-0.01366813201457262,-0.7867998480796814,0.6170564889907837,-0.05113577073660683,0.0716221587476967,0.8642185864630071,-0.08628039807081223,-0.0562015175819397,-0.0551251582801342,0.2387924665957689,0.04094029451720417,-12.13468805193901
22.09,0.8999999761581421,246.0,21.85204124450684,40.29959106445313,-79.78280265937862,40.45896333906271,260.11193999886507,-0.002480804454535246,-0.009571471251547337,-0.7868022322654724,0.617125928401947,-0.0570533832036129,0.06447015429868648,1.3530528229593068,0.026104211807250977,0.05262838676571846,-0.017014149576425552,-0.016556160429026932,0.21405220281332726,-12.33422428607941
22.19,1.0,254.0,21.716819763183594,43.05885696411133,-79.78280257480645,40.458963397998296,260.2595494711399,-0.0014394528698176146,-0.007085887249559164,-0.7867603898048401,0.6172162294387817,-0.052570956317728096,0.0609326057392082,1.6081666555285468,0.10141044110059738,0.11384637653827667,-0.10036727786064148,-0.11806716118007896,0.2689962773211301,-12.400238181352615
22.4,1.100000023841858,257.0,21.62541961669922,42.701026916503906,-79.78280226765794,40.458963681628425,260.64239061117166,0.0001667191827436909,0.00016499272896908226,-0.7871392369270325,0.616775393486023,-0.0753731351036453,0.09063016022077104,2.142236572847735,0.03825345262885094,0.013925889506936072,0.08569315820932387,0.0373087738850154,0.11107119605876506,-12.56118279218674
22.59,1.2000000476837158,263.0,21.153396606445312,39.20224380493164,-79.78280191389878,40.45896397449153,261.14218682289123,-0.0006993989227339625,-0.0017265350325033069,-0.788116991519928,0.6155227422714233,-0.09052192322287314,0.10638956015740388,2.662235504789061,0.001321086660027504,0.034557029604911804,0.11807668209075928,0.1097964208200574,0.05546886211261153,-12.284890158176422
22.7,1.2999999523162842,274.0,21.158405303955078,39.20224380493164,-79.78280175415688,40.458964037029894,261.4176109457016,-0.00016242408310063183,-0.003361878218129277,-0.7881293296813965,0.6155005097389221,-0.08347739359248872,0.12931340472106634,2.8396113065726727,0.07362474501132965,0.008934900164604187,-0.01182100921869278,0.19762337235733868,0.10749444510787726,-11.788897751569747
22.8,1.2999999523162842,281.0,21.401302337646484,36.86442565917969,-79.78280149123854,40.458964219591344,261.7419282817841,0.00012276075722184032,-0.003641249379143119,-0.7878316640853882,0.6158798336982727,-0.09639563289403134,0.1519216518973972,3.0178305765893048,-0.008223145268857479,0.008715244010090828,-0.10478968173265456,0.12642654167488218,0.16740543695166707,-11.497918081283569
23.0,1.399999976158142,297.0,21.50397109985352,33.818893432617195,-79.78280111063425,40.45896434482911,262.37026876449585,0.005705408286303282,-0.0038378303870558734,-0.7858691811561584,0.6183546185493469,-0.09200457342644792,0.17530543323889902,3.2374275809739177,0.018847540020942688,0.05442231893539429,-0.12155838310718535,0.13155391939915714,0.1950728534348309,-10.747575302124023
23.19,1.5,307.0,21.470165252685547,33.771183013916016,-79.78280058030893,40.45896460135458,263.0822028541565,0.0071894219145178795,-0.00471153948456049,-0.7850401401519775,0.6193853616714478,-0.10368642798213724,0.20527116571750706,3.360629344908123,0.06794936954975128,-0.003461197949945927,0.10331591963768004,0.21650096191093327,0.004525829425547272,-10.311301678419113
23.31,1.7000000476837158,321.0,21.63543701171875,31.79119300842285,-79.78280029689037,40.45896487529604,263.4424087429046,0.005859742872416972,-0.005571549292653799,-0.7850695848464966,0.6193549036979675,-0.1153101417478783,0.21153714813100846,3.41081143695879,-0.0762946754693985,-0.003431043587625027,-0.0588146299123764,0.2629873313382268,0.18999725097790365,-10.224533675909043
23.39,1.7000000476837158,325.0,21.64169692993164,31.822999954223643,-79.78280009195416,40.45896492213393,263.7853004360199,0.0037403344176709648,-0.0064513194374740115,-0.7851333022117615,0.6192820072174072,-0.10186856487772723,0.2152413171512611,3.4375534606512685,-0.1341067999601364,-0.02917955443263054,-0.1425657421350479,0.1808409863524139,0.22129986315965647,-10.068051660060883
23.6,1.7000000476837158,331.0,22.02607536315918,34.065399169921875,-79.78279959236879,40.45896514891598,264.516687335968,0.0013069328851997852,-0.008325209841132164,-0.7851440310478209,0.6192560195922852,-0.08384679671694087,0.21265104739961044,3.497207780257672,-0.11929773539304732,-0.00771739287301898,-0.0420086532831192,0.1684526367299259,0.02610792752355337,-10.180533378124238
23.69,1.600000023841858,335.0,22.167558670043945,30.44734191894531,-79.78279938470673,40.458965192387254,264.8703035736084,0.0016568644205108285,-0.008239539340138434,-0.7847691178321838,0.6197312474250793,-0.058593218684984336,0.2146296928771848,3.5681186451563844,0.02361307106912136,-0.01948419027030468,0.09931609779596327,0.2276736753992737,-0.08689702497795225,-10.407153915166855
23.9,1.5,340.0,22.193851470947266,29.75553894042969,-79.78279887561668,40.45896535860892,265.62746757507324,0.0038705915212631226,-0.009506885893642902,-0.7842060327529907,0.6204156279563904,-0.07471123332166754,0.2139411602760337,3.6192153855107807,0.007723476272076368,-0.026283577084541317,-0.06380469352006912,0.15461933048442006,-0.003283661835885141,-9.957023559808732
23.99,1.399999976158142,341.0,22.535659790039066,25.14350891113281,-79.78279867559814,40.45896540888267,265.9900402450561,0.004747859667986631,-0.012088414281606674,-0.7841901183128357,0.6203847527503967,-0.06801468100779696,0.22135492299370602,3.618511981281208,0.05700749531388283,0.038229744881391525,0.02223081886768341,0.2059093337506056,-0.010698290738509971,-9.83978103876114
24.2,1.5,345.0,22.33783721923828,29.087589263916016,-79.7827982257597,40.458965659994284,266.7047008895874,0.006249723490327597,-0.015561545267701147,-0.7852391004562378,0.6189655661582947,-0.06792913443620628,0.23729706137649745,3.4809961711758115,0.006657224148511887,-0.027414511889219284,-0.018418397754430767,0.21001941472291946,0.2053152931854129,-9.2219776815176
24.4,1.5,347.0,22.217639923095703,30.2962589263916,-79.78279790145946,40.45896580912847,267.3647612953186,0.008480805903673172,-0.009586317464709282,-0.7872650027275085,0.6164820194244385,-0.0680703408580917,0.2075044703544677,3.3643117435107297,0.12387488782405852,-0.006231753155589104,0.08248879015445709,0.2259272399917245,0.012481591013493021,-9.449456005096435
24.49,1.5,347.0,22.22890853881836,30.87673759460449,-79.7827977521804,40.45896586418697,267.7005776786804,0.007813871838152409,-0.009988135658204556,-0.7877253890037537,0.6158961057662964,-0.08876737554933847,0.18763331982650835,3.3438755188041966,0.034070927649736404,0.05488692969083786,0.0729934424161911,0.16599717160686853,-0.12780743474140766,-9.588329131007193
24.59,1.399999976158142,349.0,22.21388435363769,31.441314697265625,-79.7827977808129,40.45896589325997,267.9714140319824,0.006101157050579786,-0.01340796798467636,-0.7875617146492004,0.6160597801208496,-0.07958073519028445,0.16702209905555376,3.2807700368403028,-0.06635178625583649,0.04244959726929665,0.04605845734477043,0.14362844713032247,-0.13420012252405286,-9.651152200698851
24.79,1.2000000476837158,352.0,22.21138000488281,29.78734588623047,-79.78279768545252,40.45896585837807,268.8906492614746,0.0065720886923372746,-0.016015566885471344,-0.7869613170623779,0.6167594790458679,-0.014947907907225666,0.1331127028640035,3.2551508616482168,0.06910062581300735,0.019224513322114944,0.021408524364233017,0.1640719210356474,0.06260805660858751,-9.938072733879087
24.99,1.100000023841858,351.0,22.324064254760746,28.181087493896484,-79.7827976501343,40.45896591002058,269.21575874328613,0.008559682406485079,-0.014998131431639194,-0.7871299982070923,0.6165454983711243,-0.03783992019042672,0.12001013494674947,3.2413974882040044,0.007794060278683902,0.02261453308165073,0.003695834660902619,0.15610801331698895,-0.06844396155327559,-9.687361668348313
25.1,1.100000023841858,347.0,22.360374450683594,26.94061088562012,-79.78279764718567,40.45896575674414,269.47710556030273,0.008455472998321056,-0.014167354442179203,-0.7875025272369385,0.6160906553268433,-0.024932177398129085,0.10050041871531576,3.143435746297209,-0.1354297250509262,0.003140543354675173,-0.08115407079458238,0.09151764096692204,0.1695037651062012,-9.475570254921914
25.19,1.100000023841858,350.0,22.294015884399414,29.9066219329834,-79.78279766059084,40.4589657884881,269.78908866882324,0.007158338092267512,-0.014226205646991731,-0.7877058386802673,0.615845799446106,-0.020415234632046763,0.06904332836636556,3.0920440722032736,-0.049839947372674935,0.006111669354140759,0.010759606026113032,0.12536445890553294,0.11688630684278906,-9.35854817390442
25.39,1.2000000476837158,338.0,22.13249969482422,31.926372528076172,-79.78279757166177,40.45896574551226,270.5002779388428,0.005162759218364954,-0.013993076048791409,-0.7874133586883545,0.6162448525428772,0.02020264297810628,0.0453280776699284,3.0558839298716562,0.11382102966308595,-0.041083011776208885,-0.028841029852628708,0.1687010337598622,-0.010180267402902246,-9.603585101366043
25.49,1.2000000476837158,328.0,22.2426815032959,29.326141357421875,-79.78279762487206,40.45896577173663,270.805216255188,0.0049458867870271215,-0.011399632319808006,-0.7870135307312012,0.61681067943573,0.009774752526029648,0.029371772104062988,3.0491138285943697,0.01961539871990681,-0.011690547689795494,-0.017662208527326584,0.12506856238469485,0.008122202809900047,-9.717936758995057
25.7,1.2999999523162842,314.0,22.290258407592773,28.849035263061523,-79.78279766123242,40.45896575757881,271.53086894989013,0.003979992587119341,-0.010855894535779951,-0.7866460084915161,0.6172959804534912,0.0030875699373290053,-0.00541467562447941,3.0751477446347906,-0.05439072474837303,0.06882388144731523,0.011980786919593813,0.12858544332906605,0.033841888918541375,-9.70432034790516
25.89,1.2000000476837158,305.0,22.19635581970215,30.852882385253906,-79.78279780511029,40.458965855239036,272.21133178710943,0.004616325721144676,-0.012205310165882107,-0.7870422601699829,0.6167611479759216,0.02109420251126455,-0.01818267719457461,3.0394392724983468,0.10162053257226944,-0.040561392903327935,0.04222014173865318,0.2573347548767925,-0.11715845818631353,-9.531426951885225
26.0,1.2000000476837158,304.0,22.083669662475586,33.135040283203125,-79.78279790149669,40.45896588605868,272.5144543075561,0.006471729371696711,-0.012463545426726341,-0.7871196269989014,0.6166405081748962,0.006911933076378732,-0.008798963931750736,3.0280785938907706,0.04945506900548935,-0.02346182614564896,-0.004586436785757543,0.28542845165356995,-0.1151830494683236,-9.658341937065122
26.09,1.2000000476837158,310.0,22.071149826049805,32.38757705688477,-79.78279796627805,40.45896582783485,272.8993553543091,0.006525497883558272,-0.011143844574689863,-0.787409782409668,0.6162946820259094,0.00997518994134212,-0.0023764955098652084,3.0774202952011858,-0.009236765094101429,-0.07478737086057663,-0.027221487835049636,0.2480698599480093,-0.03048209479311481,-9.888128156661988
26.29,1.2000000476837158,295.0,22.19510269165039,28.538917541503906,-79.7827982067004,40.458966031201975,273.87793773651117,-0.0019460932817310095,-0.00996011309325695,-0.7894484400749207,0.6137331128120422,0.008923630838666149,-0.055998747186912126,3.126683899530695,-0.02593490108847618,-0.057128496468067176,0.06984521448612213,0.16976029342040422,-0.05690364092588425,-9.921652582883835
26.49,1.100000023841858,275.0,22.073654174804688,32.228538513183594,-79.7827983222065,40.45896608396472,274.190093460083,-0.0021360102109611034,-0.010708200745284556,-0.7896320819854736,0.6134835481643677,0.013208986362553923,-0.07086093462988198,3.1201844834699415,0.08732704818248749,0.09318024665117264,0.044716261327266686,0.062185321189463134,-0.05002236345782876,-9.798669265508654
26.6,1.2000000476837158,232.0,22.078662872314453,32.872634887695305,-79.78279848027663,40.45896612888366,274.54272121429443,-0.00044958217767998576,-0.011255924589931965,-0.7893311977386475,0.6138643622398376,0.02607933065407312,-0.07735695094659653,3.1450849933792764,0.02453135699033737,0.04816780611872673,-0.015216554515063763,0.06670527370646596,-0.04882235035300255,-9.930114673376085
26.79,1.2000000476837158,201.0,22.212631225585934,28.77746963500977,-79.78279870789466,40.45896629868021,275.20040172576904,0.0017466681310907006,-0.00867425836622715,-0.7885065674781799,0.6149626970291138,0.0059831908959317,-0.07102375258412287,3.1719792470190167,0.09500297158956528,0.024447131901979446,0.08775714039802551,0.1524821731634438,-0.04815536577254534,-9.907425137758256
26.9,1.2999999523162842,193.0,22.292762756347656,28.578676223754893,-79.78279884156548,40.45896636088203,275.5167726898193,0.00018501495651435107,-0.0056744334287941465,-0.7882421612739563,0.6153389811515808,-0.013853058381839742,-0.07632401119222441,3.1596558423325765,0.08055252581834793,0.004013983067125082,0.05596501007676125,0.1398960049264133,-0.1748557946830988,-9.767575526833532
26.99,1.2999999523162842,194.0,22.180078506469727,29.151203155517567,-79.78279896555837,40.45896643061793,275.8313059234619,-0.002725811209529639,-0.002435241360217333,-0.7879422903060913,0.6157383918762207,-0.04038412695374037,-0.0864549869946147,3.140836037222704,-0.10712239146232604,-0.027699219062924385,-0.03776933252811432,0.06336513399146497,0.0447300257300958,-9.621899750232695
27.19,1.2000000476837158,191.0,22.32155990600586,26.48735809326172,-79.78279916940112,40.458966637461174,276.4795088195801,-0.004662351217120886,-0.0017559239640831947,-0.7874777913093567,0.6163230538368225,-0.024539956736150243,-0.1131575573780056,3.1119170272141314,0.1124979630112648,-0.035470034927129745,0.011643560603260994,0.14954635927453638,-0.0946327268332243,-9.683496658802033
27.39,1.2999999523162842,186.0,22.230159759521484,28.642290115356445,-79.7827993650417,40.45896692809185,277.12727684021,0.0010332553647458553,-0.002206262666732073,-0.7870543599128723,0.6168789863586426,-0.06965846820833048,-0.08044790149349515,3.0608770657352093,-0.07773534208536148,0.1003728285431862,0.036676503717899316,0.1453607395850122,0.027084558717906475,-9.53758173108101
27.49,1.2999999523162842,179.0,22.262714385986328,29.548791885375977,-79.78279943724874,40.45896701299575,277.4328188323974,0.0011009699665009978,-0.004077513236552478,-0.7869084477424622,0.617055356502533,-0.07015291739695734,-0.0635996628670051,3.048258293620937,0.0364508219063282,-0.002808559685945511,-0.010704943910241129,0.2298099373653532,-0.1081330524198711,-9.67983747124672
27.59,1.399999976158142,190.0,22.273983001708984,27.06783866882324,-79.78279961321512,40.45896724186905,277.781323852539,0.0010364714544266462,-0.005333079025149345,-0.7869575023651123,0.6169834733009338,-0.07365716885683321,-0.05832524147252662,3.0669658751862614,-0.06551367789506912,-0.10070106387138368,-0.005625607445836067,0.14361780337058008,0.023826590655371547,-9.70068162560463
27.8,1.600000023841858,206.0,22.1062068939209,30.39963150024414,-79.78279968448544,40.45896756751582,278.42177146911615,0.002313966397196055,-0.006124036852270365,-0.7862911820411682,0.6178215146064758,-0.0756252080677569,-0.04364186052002492,3.0750025418008127,0.00572191970422864,0.04593195766210556,-0.03834175691008568,0.0902364063821733,-0.009366919705644251,-9.791592965126037
27.89,1.600000023841858,209.0,22.31529998779297,26.76567077636719,-79.78279974873973,40.45896766201876,278.72944206237787,0.003993915393948555,-0.004955047741532326,-0.7858673930168152,0.6183624267578125,-0.08349822870821635,-0.03614588967192031,3.084622767834183,-0.016185028478503227,-0.01037632767111063,-0.1334390938282013,0.15159485818818216,0.1781314597092569,-9.8294899392128
28.1,1.8999999761581416,220.0,21.988513946533203,32.85673141479492,-79.7827997901857,40.45896807310889,279.66449493408203,0.004678325727581978,-0.0004684623563662171,-0.7850554585456848,0.6194077730178833,-0.1055170831538558,-0.021678452532501072,3.0361997366093347,-0.00475571770220995,0.035972371697425835,0.05708993971347809,0.1587157253175974,-0.002752649858593941,-9.632113666534424
28.29,1.8999999761581416,227.0,22.256452560424805,28.682048797607425,-79.78279973636897,40.45896837683672,279.98998207092285,0.003785957349464297,0.0010447960812598467,-0.7850920557975769,0.6193666458129883,-0.11382482828362114,-0.02628429556194896,3.0490600587939314,-0.0009923611069098117,0.011965018697082995,-0.03391142562031746,0.2280099451169372,0.050715518896467984,-9.772072035670279
28.41,2.0,239.0,22.087427139282227,30.57457160949707,-79.78279975963055,40.45896846315125,280.2938017272949,0.003776912111788988,0.0007617163355462253,-0.7852572202682495,0.6191578507423401,-0.10461856133492814,-0.02152862279708552,3.0237036228258365,0.02680596522986889,-0.1018395721912384,-0.015263342298567297,0.22313239881768826,-0.1045190528780222,-9.63615643143654
28.59,2.200000047683716,243.0,22.008546829223643,31.24251937866211,-79.78279963189918,40.45896880494295,280.91991371154785,0.004806855693459511,-0.003699061227962375,-0.7864139080047607,0.6176702380180359,-0.095065024308786,0.0180351427577533,3.0399592017425574,-0.0007412540726363659,0.07981964200735092,-0.04805859923362732,0.1925178577378392,-0.01987769183702767,-9.892149871587753
28.69,2.299999952316284,241.0,22.0423526763916,31.04372596740723,-79.78279960955254,40.45896886816597,281.2255262756348,0.006857328582555057,-0.004697990138083696,-0.7871795892715454,0.6166679263114929,-0.08185607167768594,0.043472189183461935,3.0686768381544764,0.0038850342389196157,-0.008367126807570456,-0.09292134642601013,0.25106281209737064,0.1508820460550487,-10.008556240797043
28.79,2.299999952316284,242.0,21.82574844360352,34.85262680053711,-79.78279966947242,40.45896918207335,281.54225105285644,0.009527376852929592,-0.0033502599690109487,-0.7879980802536011,0.6155949831008911,-0.10273569348695567,0.036598232191329516,3.0829638782660735,0.014282798394560812,-0.06530961394309998,-0.10042503476142883,0.2907488149031997,0.17342123514041305,-9.990922207832336
29.0,2.299999952316284,249.0,22.336584091186523,26.12157821655273,-79.78279963753779,40.458969319074136,282.166167678833,0.0085812509059906,-0.0019303171429783106,-0.7897679209709167,0.6133428812026978,-0.11859612323176193,0.042124376518449344,3.1422521565611428,-0.09811621159315108,0.028218051418662068,-0.031338341534137726,0.18160744668915868,0.1166042609140277,-9.990365552902222
29.19,2.4000000953674316,251.0,22.203866958618164,28.817228317260746,-79.78279952297197,40.45896953412913,282.78351921081537,0.009572627954185007,-0.007961281575262547,-0.7896542549133301,0.6134257316589355,-0.0864861901519978,0.056616128657034165,3.039046515656964,-0.1137334555387497,0.031086664646863937,-0.06629768759012222,0.16260280810296535,0.10573823388665916,-9.385331929922105
29.3,2.5,253.0,22.07740974426269,30.328065872192386,-79.78279935448116,40.45896974442861,283.0962404632568,0.009377445094287395,-0.009137522429227829,-0.788977324962616,0.6142829060554504,-0.07708275983697865,0.08138353356316605,3.0010866430938536,-0.0019468750106170774,0.1042039543390274,0.012373886071145536,0.2266047495603561,0.0064053072617389255,-9.412812674045563
29.39,2.5,255.0,22.151281356811523,28.65024185180664,-79.78279932530194,40.45896979458133,283.3955568695068,0.008585775271058083,-0.008468727581202984,-0.7881662845611572,0.6153441667556763,-0.06628246619832052,0.08370628181586014,2.9822834956697952,0.06710118800401688,-0.017506729811429974,-0.0614471435546875,0.2852543690800667,-0.00829075793735683,-9.598894464969636
29.6,2.5,255.0,22.052370071411133,30.39963150024414,-79.7827990478734,40.45896999358667,284.0064901733398,0.00878268200904131,-0.007069697137922049,-0.7874679565429688,0.6162524223327637,-0.08098328642643944,0.09368477563834046,2.950431459090159,-0.1047949194908142,0.02003298513591289,-0.05355712026357652,0.11589355926029385,0.07562952264212072,-9.481468926072123
29.69,2.5,252.0,21.97974967956543,31.838903427124023,-79.78279900674012,40.45897004198576,284.30098861694336,0.008558915928006172,-0.007097996771335602,-0.78725665807724,0.6165252923965454,-0.07132605888653544,0.08315399562411617,2.942393981772013,0.024404877796769142,0.022826436907053,-0.054937928915023804,0.25268038948997856,-0.07066164599731564,-9.698250938057901
29.89,2.4000000953674316,244.0,21.981002807617188,32.16492462158203,-79.78279881950905,40.458970296435815,284.908074798584,0.008464093320071697,-0.009436069056391716,-0.7874175906181335,0.6162896752357483,-0.0769604185033464,0.09239325636127753,2.989534087698606,-0.031728968024253845,-0.024122366681694984,-0.014735326170921326,0.2465125636942685,-0.015091880585532638,-9.91801210641861
30.09,2.4000000953674316,240.0,22.180078506469727,27.43362045288086,-79.78279862398726,40.458970537903035,285.51338905334467,0.009036044590175152,-0.007620789110660553,-0.7882351875305176,0.6152606010437012,-0.08232270320671127,0.09642276258240208,3.030001569486112,-0.020192638039588928,0.0149014787748456,0.098701611161232,0.21228320080786944,-0.0688403753656894,-9.983735979795457
30.19,2.4000000953674316,234.0,22.06363677978516,30.62228202819824,-79.78279858509288,40.45897059814497,285.81653350830084,0.009104988537728786,-0.005993697326630354,-0.7887499332427979,0.6146175265312195,-0.082360773190542,0.08109543057770291,3.0200172583353915,0.0926014557480812,0.007215226534754038,0.04428801313042642,0.2398103937506676,-0.07369424957782031,-9.746636647582054
30.3,2.5,232.0,22.172565460205078,27.91072654724121,-79.78279847208425,40.45897080215207,286.11483139038086,0.01011491846293211,-0.005078624002635479,-0.7892014980316162,0.6140301823616028,-0.08229034365060868,0.0784263547104762,2.9758617486613,0.07910333573818208,-0.05870004743337631,-0.006055583246052265,0.21199211910367013,-0.148953524697572,-9.628004243373873
30.5,2.5999999046325684,229.0,22.17632293701172,27.855064392089844,-79.78279834016392,40.458971129087494,287.00756591796875,0.012392939999699593,-0.007441232446581125,-0.7902679443359375,0.612591028213501,-0.09434675886357904,0.07569550475955426,2.8915264185923464,-0.004668126814067364,-0.025967832654714584,0.03081247955560684,0.2384475174173713,-0.17139544900506734,-9.49168401181698
30.7,2.5999999046325684,229.0,21.991018295288086,30.852882385253906,-79.78279831714548,40.45897118075978,287.2958654785156,0.012398572638630869,-0.008489450439810753,-0.7903387546539307,0.6124858260154724,-0.08618286391658612,0.07849556609836203,2.8758103030715367,0.058112993836402886,0.13679735362529755,0.008749776519834995,0.17554764820262792,-0.15457920396700506,-9.614108335375787
30.81,2.700000047683716,229.0,21.93968391418457,32.999862670898445,-79.78279820530341,40.45897135925614,287.5919947052002,0.011746834963560104,-0.01018770132213831,-0.7905162572860718,0.6122437119483948,-0.08774096393726495,0.08368187001295782,2.892111390383588,-0.08255299925804138,0.051507551223039634,0.014039028435945507,0.1755822015926242,-0.1929132391512394,-9.766225989460946
30.99,2.700000047683716,228.0,21.970985412597656,32.013843536376946,-79.78279817895545,40.45897146957027,288.1766275787353,0.012088029645383358,-0.011752215214073658,-0.7900844216346741,0.6127662062644958,-0.07904355259190317,0.08704800641154523,2.9643462901315503,-0.05766310915350914,-0.03270834684371948,-0.16241465508937836,0.28286861373111605,0.15252805553376675,-10.096721727848054
31.09,2.799999952316284,227.0,22.07740974426269,30.224693298339844,-79.78279798334863,40.45897178484415,288.76851791381836,0.016287596896290786,-0.006817988120019436,-0.7888648509979248,0.6143129467964172,-0.10076635157776542,0.08518993162124541,2.9841581077582147,0.1074201911687851,-0.0452423058450222,-0.03458244726061821,0.323281991891563,0.046721135135740034,-10.05924458384514
31.29,2.799999952316284,226.0,21.914644241333008,31.560590744018555,-79.78279791523073,40.458972052552774,289.0548014068604,0.01771569810807705,-0.005117998458445072,-0.7879239916801453,0.6154963970184326,-0.1051989472722396,0.07609522645122127,2.9585098621346884,0.09484076499938963,-0.014987532049417497,0.04979021474719048,0.26224630638957025,-0.2098921646922827,-9.895831278562547
31.39,2.799999952316284,231.0,21.958465576171875,31.425411224365234,-79.7827979178533,40.45897210571339,289.3516287231445,0.017781097441911697,-0.0041254395619034784,-0.7868902683258057,0.6168230772018433,-0.11267340038974087,0.07169408228018713,2.9719405843666222,0.021267488598823547,0.010317029431462288,0.04566942155361176,0.2777542551979423,-0.1631298797763884,-9.906467363834382
31.59,2.799999952316284,233.0,21.910886764526367,32.506851196289055,-79.78279792023132,40.458972418797046,289.9380010986328,0.015939999371767044,-0.004410391673445703,-0.7852573394775391,0.6189486384391785,-0.10325699198747224,0.04419925257923731,2.988332296130032,-0.10086112469434738,0.007703685201704501,-0.13193032145500186,0.25900693064555524,0.030251307932194323,-10.054171539545061
31.7,2.799999952316284,236.0,21.882089614868164,32.554561614990234,-79.78279795666549,40.45897245117336,290.2387823486328,0.013959031552076341,-0.006231174338608979,-0.7850642800331116,0.6192257404327393,-0.08925667938524975,0.035487190955501784,3.024934633833241,-0.11233440041542052,-0.0087053831666708,-0.15788953006267548,0.2935480597615242,0.10364709598012267,-10.158940780162812
31.79,2.799999952316284,237.0,21.8132266998291,33.771183013916016,-79.7827978711404,40.45897257370357,290.5362429046632,0.012489992193877695,-0.009596462361514568,-0.7857542037963867,0.618338406085968,-0.0629607181986627,0.04087777677868151,3.040761182344051,-0.08689285814762115,-0.0019310336792841554,0.011289292015135288,0.2485328132472933,-0.02645940000191331,-10.193668563365938
31.99,2.9000000953674316,239.0,21.922155380249023,30.908544540405273,-79.78279794749983,40.45897261666895,291.15440887451166,0.010943402536213398,-0.009680540300905704,-0.7881770133972168,0.6152752637863159,-0.021854424674907117,0.05558282478929009,3.1438469495114494,0.07057284563779831,-0.02099937759339809,0.10677313059568404,0.3013218964263797,-0.10423736326396467,-10.306798152923584
32.09,2.9000000953674316,237.0,21.93342399597168,31.051677703857425,-79.78279802974319,40.458972904900826,291.4538950347901,0.010873662307858469,-0.0076408330351114264,-0.7894654273986816,0.6136512160301208,-0.031061442392060174,0.039066723892929096,3.1355610039181707,0.0373898446559906,-0.059806521981954575,0.04752471670508385,0.2984872759133578,-0.11929400752298536,-10.112546632289886
32.3,2.9000000953674316,238.0,22.00604248046875,30.20878982543945,-79.7827981255238,40.45897310061961,292.0604528808594,0.009604127146303655,-0.005842074751853943,-0.7911179065704346,0.6115604639053345,-0.03166347964823703,0.02083782278612075,3.0664481366825425,0.008663683198392391,0.03392370417714119,0.02918562106788158,0.19677947295829654,-0.03876854726113379,-9.592512813806533
32.39,2.9000000953674316,238.0,21.9497013092041,31.50492858886719,-79.78279817797093,40.45897311962378,292.36480087280273,0.011345558799803257,-0.005415454041212797,-0.7913830280303955,0.61119145154953,-0.031055444686552306,0.014874462616248375,3.0210308367230563,0.0752139613032341,0.09426967054605484,0.026316657662391663,0.3010063477791846,-0.03546800415962935,-9.472755990028382
32.59,2.9000000953674316,239.0,22.1062068939209,27.91867828369141,-79.78279817198934,40.45897332686168,292.9765867614746,0.012248456478118895,-0.007761737797409295,-0.7910735607147217,0.6115491986274719,-0.04674831472426905,0.033460325341659075,2.9967236976617744,0.05511733517050743,-0.029781060293316838,-0.010930605232715608,0.32311530970036983,-0.28454036923125386,-9.694153794050216
32.8,2.9000000953674316,240.0,22.02607536315918,29.78734588623047,-79.78279814456481,40.45897352121189,293.58935302734375,0.012343239970505238,-0.007854883559048176,-0.789651095867157,0.6133818030357361,-0.032068816081728575,0.03774117169588179,2.9658850942739354,0.08844403177499771,-0.023141587153077132,-0.007360970135778189,0.29770707461982965,-0.1806392391398549,-9.558603056073187
32.9,2.9000000953674316,239.0,21.92716407775879,31.648059844970703,-79.78279818647813,40.458973546187856,293.8847021484375,0.011755010113120079,-0.007984069176018238,-0.7886924743652344,0.6146237254142761,-0.05830355619783269,0.04227352194673247,2.9431830946571402,-0.1151157021522522,-0.02381386794149876,0.022373467683792114,0.18818280514329672,-0.1212586628459394,-9.562254057526589
33.0,2.9000000953674316,239.0,21.915895462036133,30.10541534423828,-79.78279822883131,40.458973573722616,294.17889541625976,0.011344232596457005,-0.008107715286314487,-0.7877490520477295,0.6158384680747986,-0.03896299443773337,0.029887136668840623,2.9429770644856013,0.130306214094162,0.07275861501693726,0.02754596807062626,0.3330793671682477,-0.13825405195355414,-9.825088155269622
33.19,2.9000000953674316,238.0,22.06989860534668,29.827104568481445,-79.7827983274896,40.458973827430725,294.80264419555664,0.01643174327909946,-0.006790175568312407,-0.7857218384742737,0.6183245778083801,-0.04047601996043813,0.03752400214493907,2.9847167522053093,0.11831963807344435,0.1621263325214386,0.0014344005612656474,0.3357738006860018,-0.09842566944658757,-9.759827966094015
33.4,2.9000000953674316,239.0,21.942188262939453,30.741558074951172,-79.7827983263062,40.45897395220205,295.4198469543457,0.013940920121967793,-0.011215202510356905,-0.7848632931709291,0.6194106936454773,-0.03891431586758117,0.05883464521667639,2.9702933320420937,0.03608043119311333,0.0935729369521141,-0.008529203943908216,0.42913209032267335,0.008704731669276955,-9.719826579093931
33.51,2.9000000953674316,239.0,21.91339111328125,30.463245391845703,-79.78279836671777,40.458973959532024,295.71692413330084,0.01146413292735815,-0.010893082246184349,-0.7854689359664917,0.6186990141868591,-0.03459559014758225,0.07324230854271986,2.9710825081172407,-0.1404014676809311,-0.07515896111726761,-0.03931315243244171,0.284424813631922,0.023422913504764442,-9.734864448308944
33.59,2.9000000953674316,239.0,22.027328491210934,29.03192710876465,-79.78279837759244,40.45897404608582,296.03921646118164,0.009371806867420672,-0.009088785387575626,-0.787153959274292,0.6166185140609741,0.0095276186072012,0.03852603689304807,2.996484253470915,0.20000490546226501,0.024112550541758537,0.11551537364721295,0.3960448165610433,-0.21201201790943744,-9.841032342910768
33.8,2.9000000953674316,237.0,21.69803810119629,36.32370376586914,-79.78279830128008,40.458974232967456,296.6533903503418,0.011877984739840029,-0.005856129340827465,-0.7909943461418152,0.6116802096366882,-0.02243395124165264,0.04233031425922745,3.008388868301432,0.16330522298812866,-0.024974348023533814,0.041910503059625626,0.3771918218582869,-0.22084345143288373,-9.875873562097553
33.9,2.9000000953674316,238.0,21.955961227416992,29.055782318115234,-79.78279832340817,40.45897425124723,296.95613998413086,0.015974011272191998,-0.004069206770509481,-0.7921165227890015,0.6101472973823547,-0.05429198475495031,0.054783020902552326,3.0538435162213475,0.078008733689785,-0.03319701924920082,0.0020451468881219625,0.3602187435328961,-0.15890104550868273,-10.205325572490693
34.1,2.9000000953674316,239.0,22.137508392333984,26.46350288391113,-79.78279823818247,40.458974428917365,297.57841247558594,0.017884250730276108,-0.00584794208407402,-0.7916364073753357,0.6107026934623718,-0.08558895257042189,0.07558230009890265,3.1000096650092455,-0.029475213959813118,0.11901995539665222,-0.035680219531059265,0.3082450363039971,-0.15879588698968292,-10.007212550640107
34.29,2.9000000953674316,240.0,21.95345687866211,30.63023376464844,-79.78279813980808,40.45897460741681,298.2016729736328,0.01673271134495735,-0.009193062782287598,-0.7897812128067017,0.6130914688110352,-0.07538832017177527,0.0960100023704456,3.0495950394932816,-0.16884925961494446,0.07105033099651338,-0.08684933930635452,0.28444672241806984,0.09523654321208597,-9.566118482351305
34.4,2.9000000953674316,242.0,22.057376861572266,27.966388702392567,-79.78279815322168,40.45897461394097,298.5058302307129,0.015277196653187275,-0.009765757247805595,-0.7893323302268982,0.6136985421180725,-0.045492391209356775,0.09665146653839048,3.0359209676346017,-0.020832685753703117,-0.13897034525871274,0.01021780725568533,0.3759891226887703,-0.24707245286554105,-9.711408342719078
34.49,2.9000000953674316,243.0,21.987262725830078,30.81312370300293,-79.78279817031054,40.45897461870801,298.8095449829101,0.013818296603858473,-0.00904829241335392,-0.7896184325218201,0.6133760213851929,-0.04398261827185819,0.08609884761952885,3.0287264363447486,-0.05189654231071472,0.0643467828631401,0.0263267271220684,0.33034290678799155,0.050878030378371485,-9.664211956858637
34.7,3.0,242.0,21.95721244812012,30.50300407409668,-79.7827981551865,40.45897493174072,299.747674407959,0.013718373142182829,-0.007047531194984913,-0.7913685441017151,0.6111449599266052,-0.037434225852607146,0.05400833042303538,3.0334979770347617,0.02220411598682404,-0.03933471813797952,0.01870616897940636,0.2990852268040181,-0.05115677811205386,-9.802927792668344
34.9,3.0,241.0,21.978498458862305,30.654088973999023,-79.78279817789925,40.458974939814794,300.05085510253906,0.014095421880483627,-0.009792805649340151,-0.7917895317077637,0.610552966594696,-0.05278233748677076,0.065583183943668,3.0313922363856363,-0.09447622299194336,0.11690578609704973,0.004902128130197525,0.2049764287658036,-0.11143587045371534,-9.759150858521462
35.0,3.0,241.0,21.821990966796875,31.58444595336914,-79.78279819375693,40.45897495357861,300.35376495361334,0.012782056815922259,-0.0125178350135684,-0.7921639084815979,0.6100462079048157,-0.03893455639503555,0.07624411948867865,3.0287546473290683,0.03066066652536392,0.03501535579562187,0.005416305735707283,0.327266101911664,-0.29413417004048825,-9.806019215583802
35.19,3.0,241.0,21.87457847595215,31.33794021606445,-79.7827981632348,40.45897514263898,300.97466796875,0.01382261049002409,-0.0111979516223073,-0.7924365997314453,0.60969477891922,-0.04273881737654491,0.08087940056799754,3.032513753708561,-0.013576774857938291,0.09164614230394363,0.0199558399617672,0.2732548592984677,0.06633108844980598,-9.688331721425056
35.29,3.0,241.0,21.92716407775879,30.10541534423828,-79.78279811396891,40.45897529564836,301.28849548339844,0.016626548022031784,-0.009305953979492188,-0.7922176718711853,0.6099410653114319,-0.041657277369966016,0.06791419618399876,3.028743998693514,0.15820248425006864,-0.051311410963535316,0.12589001655578613,0.29673983551561833,-0.32510811388492583,-9.83529973268509
35.39,3.0,240.0,22.032337188720703,28.01409912109375,-79.78279814550226,40.45897532616232,301.59190887451166,0.0188814178109169,-0.008223502896726131,-0.7919103503227234,0.6102900505065918,-0.07578210997520131,0.07250458023339645,3.0326221875485784,0.011730533093214037,0.0510464645922184,-0.010873676277697086,0.32520499493926763,-0.18131291147321466,-9.807771626114846
35.6,3.0,239.0,21.8670654296875,30.391679763793945,-79.7827981709774,40.45897553492637,302.2112478637696,0.019384060055017468,-0.0062806298956275,-0.7904908061027527,0.6121349334716797,-0.09692886521656012,0.0657174508401162,3.0078118742303155,-0.14330340921878815,-0.10280951857566832,-0.16430701315402985,0.2354278873465956,-0.06152766017708927,-9.598124386668204
35.8,3.0,239.0,21.95721244812012,29.715778350830078,-79.78279810059958,40.45897574543199,302.83084243774414,0.01838488504290581,-0.008664380759000778,-0.7882761955261229,0.6149858236312866,-0.08350919057217535,0.06195929027027448,3.0169369075267776,-0.10810902714729308,-0.0623321533203125,-0.1437273770570755,0.29064838897436857,-0.01644348960835487,-9.746988649964333
35.9,2.9000000953674316,241.0,22.061134338378906,27.958436965942386,-79.78279814606303,40.45897576490032,303.13207763671875,0.018401464447379112,-0.009219971485435964,-0.7870098352432251,0.6165971159934998,-0.06138314352277074,0.0659036965254228,3.002589265509314,0.049602828919887536,0.0750776007771492,-0.030434966087341312,0.4628542620688677,-0.02394496936351061,-9.693802376389504
36.0,2.9000000953674316,242.0,21.80696678161621,32.31600952148437,-79.78279819035643,40.45897577658094,303.43133682250976,0.017838608473539352,-0.008033751510083675,-0.7860307693481445,0.617877721786499,-0.049527247311209874,0.07838649222667406,2.9793722104912965,-0.025902723893523216,-0.11116326600313188,-0.0609748438000679,0.2656809243187309,-0.07050512334331871,-9.526187846660612
36.2,2.9000000953674316,243.0,21.725584030151367,33.38949966430664,-79.78279850207021,40.458976200833966,304.00712341308594,0.014661301858723162,-0.008142239414155483,-0.7876424789428711,0.6159042119979858,-0.07170252323815092,0.01748570278520445,2.9491869235717414,-0.1846301406621933,-0.09280940145254137,-0.05860840529203415,0.2508063568733633,-0.07630521409213542,-9.623888972997667
36.29,2.9000000953674316,244.0,21.626672744750977,35.305877685546875,-79.78279864649201,40.45897635264475,304.29825729370117,0.009133637882769108,-0.01113749947398901,-0.7897695899009705,0.6132345795631409,-0.0391397669747662,0.0014022398570219185,2.9520349822925307,-0.08697433769702911,0.06698083132505417,0.025894762948155403,0.38934953536838296,-0.12548630026169122,-9.921568382978439
36.49,2.9000000953674316,245.0,21.932172775268555,29.23867225646973,-79.78279877378772,40.45897656381864,305.1945318603516,0.008863798342645168,-0.014376547187566755,-0.7950713634490967,0.6062808036804199,-0.0030595747433519237,0.03042469283973755,3.0591797826717486,0.10085983574390413,0.039086516946554184,0.02153591811656952,0.3454799593985081,-0.20902524188160893,-10.346413038969038
36.69,2.9000000953674316,246.0,21.98976707458496,29.668067932128906,-79.78279882971614,40.458976612701896,305.5004171752929,0.013569366186857224,-0.014032462611794472,-0.7955405712127686,0.6055859327316284,-0.03848587095768041,0.04581867153365636,3.0543962690075106,0.07837044447660446,0.13496433198451996,0.023647738620638847,0.34548313882201914,-0.09733199344016613,-9.779272881746293
36.79,3.0,248.0,21.89335823059082,30.336017608642567,-79.78279868694011,40.458976823039755,305.80272048950195,0.017510322853922844,-0.013394180685281757,-0.7953315973281859,0.6057736873626709,-0.06195070013317936,0.05412596182766212,3.0083996145596226,0.08327622711658478,-0.04546258971095085,0.01993120275437832,0.3957394457235933,-0.3177568481862545,-9.661129304766655
36.99,3.0,250.0,22.0035400390625,29.071685791015625,-79.78279879463966,40.45897694450888,306.40225357055664,0.019723262637853626,-0.009616905823349951,-0.7940594553947449,0.6074438691139221,-0.1010642014799229,0.06306411414104916,2.9719840837130334,0.04989684000611305,0.05561123043298721,0.051324214786291115,0.3968298418074847,-0.10556044198572637,-9.57676918566227
37.1,3.0,252.0,21.998531341552734,29.12734794616699,-79.78279877526906,40.45897714021257,306.70237106323236,0.018512776121497158,-0.007820136845111847,-0.7933205962181091,0.6084722876548767,-0.10289261469017512,0.04906934299781558,2.9485448220075186,0.06068294122815133,-0.13062208890914914,0.004188297316431999,0.37546334836632017,-0.3197946759313345,-9.633447416424753
37.19,3.0,254.0,21.882089614868164,31.544687271118164,-79.78279883279265,40.458977199716585,306.9966291809082,0.015790220350027084,-0.008052757941186428,-0.7926009893417358,0.6094830632209778,-0.11916365711877425,0.041740447454875935,2.934689376640792,-0.150276780128479,-0.010137359611690044,-0.03174830228090286,0.2422598289325833,-0.1119657012820244,-9.575916076898576
37.4,3.2000000476837163,254.0,21.89711570739746,28.76951789855957,-79.78279875800943,40.45897754433222,307.6048406982422,0.010787603445351124,-0.008787947706878184,-0.7914758324623108,0.6110420823097229,-0.09677043256002966,0.05004616049785652,2.96954287521093,-0.1270194947719574,-0.004909331910312176,-0.07059373706579207,0.21465768199414006,-0.044450729819946,-9.80635776937008
37.59,3.2000000476837163,252.0,21.82699966430664,30.701799392700195,-79.7827987909391,40.4589778301878,308.21492904663086,0.017150124534964558,-0.008129728958010674,-0.7911663651466371,0.6113066077232361,-0.10220217680507823,0.0601161272997197,2.96356609950746,-0.01491975225508213,0.07178855687379837,0.00634822528809309,0.2441628600843251,0.015620744110783562,-9.550681248307226
37.71,3.2000000476837163,251.0,21.9209041595459,29.453371047973643,-79.78279880239984,40.45897789021302,308.51021713256836,0.02143156714737416,-0.007636087946593762,-0.7910043001174927,0.6113875508308411,-0.1032785329460001,0.0728605331459434,2.9400553432187664,0.1670512855052948,0.02344824932515621,0.08824117481708528,0.46107162874192,-0.3485614785924554,-9.670925729870797
37.79,3.299999952316284,251.0,21.99352264404297,29.461322784423828,-79.78279877156218,40.458978034776614,308.82010406494135,0.0213240310549736,-0.008689167909324171,-0.7910857200622559,0.6112717986106873,-0.1340203984688194,0.09798237853273464,2.951545592674377,-0.061493463814258575,0.002297318773344159,-0.09408510476350784,0.3970197301357985,-0.16306645575910808,-9.65597966194153
38.0,3.299999952316284,252.0,21.735599517822266,33.64395523071289,-79.78279878011925,40.45897813884692,309.4077429199219,0.01752799190580845,-0.01169267576187849,-0.7913126945495605,0.6110485196113586,-0.1036754381958653,0.10457427055798472,2.93607215561491,-0.05345796793699265,-0.1151074841618538,-0.11193474382162094,0.4437107703834772,-0.14084835190325976,-9.867913162708284
38.09,3.299999952316284,251.0,21.888351440429688,29.44541931152344,-79.78279861813567,40.458978327851185,309.7196707153321,0.0172596238553524,-0.012088769115507604,-0.791431725025177,0.6108943223953247,-0.10402458400342422,0.10789648310963286,2.991704827452175,-0.013896198011934755,0.045035973191261285,0.014396821148693563,0.4195370287075639,-0.11684273594990373,-10.121739624738693
38.3,3.299999952316284,252.0,21.96347427368164,30.176982879638672,-79.78279850099504,40.458978539759904,310.3267301940918,0.02011865936219692,-0.01157897524535656,-0.7916790843009949,0.6104960441589355,-0.08733310621706329,0.1081488615034487,3.008701329956783,0.10268710553646088,-0.04980319738388062,0.009742352180182934,0.4064892958849669,-0.2671047030575573,-9.790113034844401
38.49,3.299999952316284,252.0,21.793193817138672,30.94830322265625,-79.78279850010959,40.45897862926017,310.9263929748535,0.020781325176358226,-0.011733703315258026,-0.7919116616249084,0.6101691126823425,-0.10356208137931304,0.1200438326937446,2.9986388927384917,-0.005606760736554861,-0.043609123677015305,-0.06951138377189636,0.4367905175685883,-0.07315012961626054,-9.845436465740203
38.6,3.299999952316284,252.0,21.83075523376465,31.63215637207031,-79.78279847495489,40.45897882435838,311.2387060546875,0.019889276474714283,-0.010990074835717678,-0.7920374274253845,0.6100494265556335,-0.09272736549069488,0.10986460062746584,3.032998907104656,0.03870762139558792,-0.08569765090942383,-0.017565451562404633,0.3646684015542269,-0.1448036917950958,-9.993982640504838
38.79,3.299999952316284,253.0,21.80696678161621,31.96613121032715,-79.78279842796793,40.45897904215922,311.8510183715821,0.02041224576532841,-0.009498279541730879,-0.7918275594711304,0.6103297472000122,-0.0950603725845405,0.105351199597351,3.0592029686228686,-0.0069356486201286325,0.033078938722610474,-0.08873490989208221,0.3962101100385189,-0.03323525399900973,-9.950027951002124
38.9,3.299999952316284,254.0,21.711811065673828,31.24251937866211,-79.78279843988544,40.45897907588599,312.15801376342773,0.020134022459387783,-0.009622070007026196,-0.791901171207428,0.6102414727210999,-0.0925044764068638,0.09991325056893413,3.0762019345677656,0.017007313668727875,-0.05865127593278885,-0.058785289525985725,0.4368962425366044,-0.17150281850248575,-10.027371411323548
38.99,3.299999952316284,254.0,22.04986572265625,27.44157218933105,-79.78279845447119,40.458979104331505,312.4675459289552,0.01960643567144871,-0.0105880917981267,-0.7920021414756775,0.6101115345954895,-0.08832858241109323,0.10509283222585536,3.103883607937708,-0.007581372745335101,-0.01971000805497169,-0.024537082761526108,0.4981764878332615,-0.2385166607424617,-10.038152507543565
39.19,3.2000000476837163,256.0,21.790691375732425,30.98806381225586,-79.78279849686443,40.45897929971957,313.07722229003906,0.01881236769258976,-0.012897460721433164,-0.7920137047767639,0.6100772023200989,-0.058192747308202085,0.10486351629335047,3.0512023400992847,0.0525750070810318,-0.10328863561153412,0.08375585079193115,0.43820598229765895,-0.4326193331927061,-9.705561711788178
39.39,3.2000000476837163,256.0,22.012304306030273,28.8887939453125,-79.78279851222176,40.45897950835562,313.69095748901367,0.017742428928613663,-0.012043400667607784,-0.7919061183929443,0.6102663278579712,-0.06265396562460313,0.0931168076053594,3.0478385816197378,0.024839306250214577,0.07829355448484421,-0.05501056462526322,0.4170206794515252,-0.03595460213720799,-9.717899336814881
39.5,3.2000000476837163,256.0,21.924659729003906,30.908544540405273,-79.7827984922391,40.458979641686255,314.306397857666,0.01812389492988586,-0.011322855949401855,-0.7918980121612549,0.610279381275177,-0.04919902303124885,0.09092240409614187,2.995033197568049,0.11492494493722916,0.12302713096141815,0.06632787734270096,0.3673706191778183,-0.0865405001398176,-9.543621904850006
39.69,3.2000000476837163,256.0,21.924659729003906,30.08156013488769,-79.7827985164838,40.45897966066532,314.60533279418945,0.01815491914749145,-0.010943187400698662,-0.7919548153877258,0.6102116107940674,-0.05512464077273549,0.09652062244828642,2.976679662089558,0.011576996184885502,-0.06743253767490387,-0.03138614445924759,0.377840570434928,-0.15434396317228674,-9.577273800373078
39.8,3.2000000476837163,255.0,21.82574844360352,31.775287628173828,-79.78279855400505,40.458979800805935,314.91886657714844,0.019052643328905102,-0.010384358465671541,-0.792108416557312,0.609994649887085,-0.04124794506643389,0.07997454027130654,2.972613660228544,0.1126105785369873,0.1523105800151825,-0.061952825635671616,0.4077164071798325,-0.0053508235886693,-9.581383808255195
39.99,3.2000000476837163,256.0,21.875829696655273,29.723730087280273,-79.78279863114241,40.4589798205617,315.5136007690429,0.019772768020629883,-0.011979679577052591,-0.7923692464828491,0.6096035242080688,-0.06102304788846893,0.09021147789488676,2.9898859450556534,-0.06364412605762483,0.04029126465320587,-0.012703337706625463,0.3543434247002006,-0.04537316006608308,-9.910432945489882
40.1,3.2000000476837163,256.0,21.79820251464844,31.695770263671875,-79.78279851707619,40.45898004124714,315.83258193969726,0.019435448572039604,-0.011723813600838184,-0.7925403714179993,0.6093970537185669,-0.04112079436443547,0.10081649084445203,3.0295891117752523,0.0297112800180912,0.04711630567908287,-0.1034814789891243,0.4524589724466205,-0.04885242696851492,-9.91746480703354
40.19,3.2000000476837163,255.0,21.8570499420166,29.914573669433594,-79.7827985537359,40.45898004113602,316.1361097717285,0.0193201880902052,-0.0120541425421834,-0.7926813960075378,0.609210729598999,-0.04288589395109275,0.09685910389245517,3.039169252291861,-0.01669999770820141,-0.1005043089389801,-0.02201046049594879,0.4201782855391503,-0.31936837736517193,-9.96399227142334
40.4,3.2000000476837163,254.0,21.82449531555176,31.53673553466797,-79.78279853103581,40.458980163426936,316.7536787414552,0.017921142280101776,-0.013376206159591677,-0.7928149700164795,0.6090520620346069,-0.02449391762768356,0.0986597236509302,3.0426758189252565,0.05669081211090087,0.07911588996648787,-0.06621719151735306,0.4081639749929309,-0.09453133245930076,-9.746110398173332
40.49,3.2000000476837163,254.0,21.716819763183594,32.68178939819336,-79.7827985735717,40.45898016104154,317.05792373657226,0.018506018444895744,-0.01289081946015358,-0.7928944826126099,0.6089415550231934,-0.026459915673718176,0.09802080711968482,3.0439940903683134,-0.00988961849361658,-0.13987112045288086,-0.03500502556562424,0.3762580580636859,-0.2411119839549065,-9.80558769106865
40.69,3.2000000476837163,254.0,21.72933959960937,31.878662109375,-79.78279867306905,40.45898031930937,317.67601531982416,0.018273649737238884,-0.0103148827329278,-0.7931241393089294,0.6086984276771545,-0.033419130212870636,0.08195566053217274,3.0860446449781413,-0.0022044251672923565,0.035634808242321014,-0.02408797107636929,0.34509488370269537,-0.14165932416915894,-9.995949643850327
40.89,3.2000000476837163,254.0,21.945945739746094,29.15915489196777,-79.78279872553938,40.45898041862552,318.29975646972656,0.019318785518407815,-0.009597168304026129,-0.7935802936553955,0.608083188533783,-0.02814385940738909,0.07320156145154473,3.114314536447448,0.003482779022306204,-0.041932180523872375,-0.10493917763233183,0.3892524350434542,-0.0863817573711276,-9.985576683282849
41.0,3.2000000476837163,253.0,21.83325958251953,30.08156013488769,-79.78279878840719,40.45898040396798,318.61092132568365,0.020230961963534355,-0.010393999516963959,-0.7937535643577576,0.6078140735626221,-0.03301997123030982,0.07263227553651083,3.1089154600855413,-0.0397215373814106,0.1101757436990738,-0.03008555993437767,0.2965125250071287,-0.06140924035571516,-9.75725168287754
41.2,3.2000000476837163,253.0,21.958465576171875,28.7218074798584,-79.782798913906,40.45898048049776,319.228143157959,0.019834253937006,-0.012198926880955696,-0.7936689853668213,0.6079041361808777,-0.02512248844550687,0.07819584986887533,3.0694171616734445,-0.0919887349009514,-0.07865004986524582,-0.10711301863193512,0.3792063703760505,-0.06601675035897643,-9.587991161942485
41.3,3.2000000476837163,253.0,21.948448181152344,30.137222290039066,-79.7827989420923,40.458980593599186,319.53989547729486,0.018066512420773503,-0.012837523594498634,-0.7934598326683044,0.6082189083099365,-0.01635723889608941,0.06652188938525401,3.0381888782747573,-0.05005890503525734,0.09944821894168854,-0.0362626351416111,0.469140749797225,0.0078027072921395295,-9.498420004248619
41.39,3.2000000476837163,253.0,21.805715560913086,31.36179542541504,-79.78279902517049,40.45898057933135,319.84187835693365,0.016400251537561417,-0.013909148052334784,-0.7932255864143372,0.608548104763031,-0.006140521248614882,0.06572279691172808,3.0039675215041517,-0.026752496138215058,-0.07651116698980331,-0.03165173530578613,0.3809623257815838,-0.13784646447747947,-9.492015548944474
41.6,3.2000000476837163,253.0,21.804462432861328,31.55263900756836,-79.78279930109238,40.45898067291265,320.7613233947754,0.012801552191376686,-0.012386933900415896,-0.7929872870445251,0.6089778542518616,0.002080151010209877,0.05162512203979355,3.011885524976308,-0.048442140221595764,0.056433342397212975,0.009268386289477348,0.44241616029292347,-0.27532724043354395,-9.698580136299134
41.79,3.2000000476837163,251.0,21.869569778442386,28.73771095275879,-79.78279937428324,40.45898066903397,321.06238693237304,0.013781074434518814,-0.012103891931474207,-0.7932189702987671,0.6086603403091431,0.0051968746378559605,0.046267157112963885,3.007020740150561,0.09041772037744522,-0.05211171135306358,0.017616137862205502,0.3987308812513948,-0.2500560677424073,-9.762329989671708
41.9,3.299999952316284,251.0,21.78192710876465,30.35192108154297,-79.78279940722555,40.458980794792936,321.3786749267578,0.015553824603557587,-0.011576100252568722,-0.7934813499450684,0.6082857251167297,-0.01663128490662416,0.05550897823530942,3.0124174994069737,-0.03319649398326874,-0.014204971492290497,-0.10427552461624147,0.2757453894428909,-0.04486863671801985,-9.575309720635417
42.0,3.2000000476837163,251.0,21.848285675048828,30.566619873046875,-79.78279947525347,40.45898079999692,321.67884963989263,0.01746915653347969,-0.010675569996237757,-0.7937966585159302,0.6078386306762695,-0.021061333533567823,0.05199792861253175,2.995692345896201,0.045333687216043465,0.095113106071949,-0.07010971009731293,0.439308986440301,-0.004110738784074784,-9.629427455663679
42.2,3.2000000476837163,251.0,21.837017059326172,29.715778350830078,-79.78279967222849,40.45898106829372,322.5962423706055,0.017039094120264053,-0.010557293891906738,-0.7941402792930603,0.6074038147926331,-0.03254005268816172,0.040852677079056286,2.9697149318410854,0.07834310084581375,-0.009032228030264378,0.11040128767490387,0.3048795616999269,-0.016120394398458304,-9.546868278980256
42.39,3.2000000476837163,251.0,21.8570499420166,29.23072052001953,-79.78279974794214,40.45898107699313,322.89271682739263,0.016301235184073448,-0.01167097594588995,-0.794235348701477,0.6072794198989868,-0.0412257763205536,0.046573392956815104,2.9562076130288832,-0.08132529258728027,0.009092669002711771,-0.06799807399511337,0.29005266733467583,-0.05247900259215385,-9.602723806500435
42.51,3.2000000476837163,251.0,21.795698165893555,32.38757705688477,-79.78279982424607,40.458981086642076,323.1871542358398,0.015720995143055916,-0.011860272847115992,-0.7943775057792664,0.6071050763130188,-0.02542952493240018,0.04383098573262015,2.932539480407568,0.05443640798330307,0.0580115057528019,-0.07187952101230621,0.39799672678112985,-0.10012843346223237,-9.589172299504279
42.69,3.2000000476837163,250.0,21.74060821533203,31.958179473876953,-79.78279988519053,40.458981253800935,323.7906202697754,0.013495346531271936,-0.010579927824437618,-0.7944771051406859,0.6070519685745239,-0.03870722992557482,0.05615050154113703,2.9587945742642217,-0.08461194485425949,0.010457056574523449,-0.0008296847809106113,0.2661432563513518,-0.11073118046857418,-9.770464636087418
42.8,3.0999999046325684,250.0,21.924659729003906,28.66614532470703,-79.78279994242672,40.458981273430574,324.08723968505865,0.01265037152916193,-0.009473787620663643,-0.7944638133049011,0.6071058511734009,-0.03088550386318703,0.04742949354877887,2.9767850972513084,0.035337403416633606,0.042484644800424576,-0.059226058423519135,0.33225300941616304,-0.08414273058995607,-9.904365874528882
42.89,3.0999999046325684,249.0,21.82574844360352,31.60034942626953,-79.7828000003263,40.45898146235326,324.39306396484375,0.013921327888965608,-0.008517240174114704,-0.7944854497909546,0.6070639491081238,-0.041161356375627615,0.03053932615581852,2.9869516742322784,0.03728945180773735,-0.0746527761220932,-0.008783741854131222,0.34143617123365405,-0.1293309724610299,-9.794818874001503
43.09,3.0999999046325684,249.0,21.78693389892578,30.192886352539066,-79.78280008754491,40.45898165133553,325.288747253418,0.01450914330780506,-0.006839987356215714,-0.7943131923675537,0.6072967648506165,-0.06609566643807817,0.04847704855262297,2.998281506385029,-0.06555461138486862,-0.00522738602012396,-0.04206869378685951,0.34333677213639024,-0.2265579718351365,-9.874603546857834
43.29,3.0999999046325684,249.0,21.769405364990234,31.2584228515625,-79.78280012244994,40.45898179999681,325.58133453369135,0.014170202426612375,-0.007425331510603428,-0.7941973805427551,0.6074492335319519,-0.05113265424855995,0.047231660443102175,2.9922829906155264,0.013777038082480429,-0.0626470223069191,0.07809514552354813,0.32061916988343003,-0.2809969565458596,-9.924499007463458
43.39,3.0,250.0,21.72808837890625,32.252395629882805,-79.78280015679842,40.45898182009449,325.88155120849615,0.012778409756720066,-0.00869609974324703,-0.7940460443496704,0.6076611876487732,-0.04916892019262198,0.05622903405090693,3.009822476922803,0.025311483070254333,0.03696921467781067,0.08497413247823715,0.362868190035224,-0.21767462600022555,-9.981190102100374
43.59,3.0,251.0,21.819488525390625,30.42348670959473,-79.78280020676878,40.458982019569504,326.4796881103516,0.011570258066058159,-0.009378686547279358,-0.793675422668457,0.6081591844558716,-0.042981067890227063,0.0570392323249489,3.0483853672430827,-0.04854633286595345,0.026744836941361427,-0.042147643864154816,0.3582413979247213,0.051924426164478066,-10.101553866863249
43.7,3.0,251.0,21.82449531555176,29.81915283203125,-79.78280023606149,40.45898204327322,326.78568023681635,0.013156135566532612,-0.009264238178730013,-0.7936141490936279,0.6082087159156799,-0.03980810540028715,0.05918890177220831,3.0675621314697783,0.028366835787892338,-0.03546347841620445,0.0075089805759489545,0.3495195814222097,-0.13203104306012392,-10.017331742048263
43.89,3.0,251.0,21.87332534790039,29.94638061523437,-79.78280030688944,40.45898226562424,327.3749060058594,0.016079002991318703,-0.009172058664262295,-0.7937238812446594,0.6079966425895691,-0.06373885153409549,0.06551605721237333,3.0026697396817483,-0.008701744489371777,0.1060650199651718,0.07311061024665833,0.26933071978390216,-0.052609838610515,-9.560147305727003
44.0,3.0,251.0,21.819488525390625,30.18493461608887,-79.78280033557253,40.45898229529895,327.6737265014648,0.017133165150880814,-0.008988970890641212,-0.7939434647560121,0.6076837778091431,-0.05691858453854641,0.06577634801312313,2.971015274745003,0.1371428668498993,-0.02466312982141972,0.09318041801452637,0.33252322386950256,-0.3215339302271605,-9.572814128994944
44.19,3.0,250.0,21.65171241760254,33.222511291503906,-79.78280034142236,40.45898247628444,328.2621130371094,0.018341047689318657,-0.007140537723898888,-0.7946270704269409,0.6067788600921631,-0.0680693607128577,0.07280601177498293,2.9249190042156776,0.034265823662281036,-0.019450489431619644,-0.043625976890325546,0.392803376019001,-0.14009525793604555,-9.60314889907837
44.29,3.0,250.0,21.62166404724121,32.642032623291016,-79.78280031820223,40.45898264219639,328.56248992919916,0.01702115312218666,-0.0062837512232363215,-0.7949580550193787,0.6063930988311768,-0.08065682162994431,0.06551754199564343,2.9547823127707127,0.003448684234172106,-0.0997520461678505,-0.05110873281955719,0.3008245541900397,-0.11846212232485415,-9.914755207300187
44.39,3.0,250.0,21.78818702697754,30.4711971282959,-79.78280034900334,40.45898266303161,328.8602957153321,0.016608692705631256,-0.005989463999867439,-0.7950766086578369,0.606252133846283,-0.06577757944220926,0.0584807728625827,2.993993696801672,0.07366827875375748,-0.011242412030696869,-0.007397795096039772,0.3219068364053965,-0.2193245458044112,-10.135423278808592
44.6,3.0,248.0,21.7844295501709,30.80517196655273,-79.7828003605326,40.458982848105116,329.4562811279297,0.01795937493443489,-0.0089180376380682,-0.7951638698577881,0.6060630083084106,-0.06924928379187023,0.06329226863864634,2.9872693773258887,-0.018219592049717903,0.14106975495815274,0.009191631339490414,0.2794397516548633,-0.13386208036914468,-9.75306683063507
44.7,3.0,249.0,21.666736602783203,32.45119094848633,-79.78280039402233,40.45898286534076,329.75423187255865,0.0183073952794075,-0.010712026618421078,-0.7949510216712952,0.6063027381896973,-0.05604316038532935,0.06948498415702448,2.972264446316101,0.05225131660699845,-0.006670043803751469,-0.010107166133821007,0.3712847087904811,-0.26162302974611523,-9.740714587569236
44.9,3.0,248.0,21.799455642700195,29.74758529663086,-79.78280044071519,40.458983031614494,330.3479971313476,0.017048781737685204,-0.009817050769925116,-0.7949550151824951,0.6063494086265564,-0.060336816806148025,0.0803170687467665,2.9650735012723684,-0.07276330888271333,-0.06602845340967177,-0.0818474292755127,0.2751043884269893,-0.04026569485198707,-9.646632302999498
44.99,3.0,248.0,22.002286911010746,26.82928466796875,-79.78280048686767,40.45898304982383,330.64314025878906,0.015857070684432983,-0.008355200290679932,-0.7950818538665771,0.6062372922897339,-0.05402859173731254,0.06246274066937306,2.9375537113598056,-0.01982177048921585,0.05069328844547272,-0.02495996281504631,0.34408039178699257,-0.06680250193923712,-9.549383166432381
45.21,3.0,246.0,22.141263961791992,25.588808059692386,-79.78280052841555,40.458983191970894,331.2245840454101,0.014769000932574272,-0.00778889423236251,-0.7948284149169922,0.6066046357154846,-0.04797384500256526,0.04565493944001395,2.8243737649854053,-0.02370565943419933,0.09877194464206696,-0.05932088196277618,0.3249828372895718,0.026157226860523224,-9.107125502228737
45.4,3.0,245.0,22.21388435363769,23.13966178894043,-79.78280057308106,40.45898330443894,331.7933630371094,0.014834211207926272,-0.009182306937873363,-0.7943207025527954,0.6072481870651245,-0.02849796268012985,0.04718465066031855,2.66613378207051,0.08680109679698944,-0.09877658635377884,0.056248053908348083,0.3789793887734413,-0.3797569953650236,-8.799039217829705
45.5,3.0,244.0,22.20887565612793,23.79170799255371,-79.78280061671322,40.45898331816947,332.05403656005865,0.015089541673660278,-0.00953550823032856,-0.7941368222236633,0.6074768900871277,-0.02617870611841708,0.04179222462207026,2.5426344678955246,0.13581427931785586,0.02429402433335781,-0.004965065512806177,0.39875715717673305,-0.2455922302231193,-8.655638008117679
45.59,2.9000000953674316,244.0,22.165054321289066,24.08592414855957,-79.78280061858737,40.45898351269121,332.3128790283203,0.015932533890008926,-0.00986853428184986,-0.7941853404045105,0.6073867082595825,-0.03120483230947723,0.04083863218361725,2.4365254015225983,0.09442460536956787,-0.014373186044394968,0.060663085430860526,0.40305453177541495,-0.1833563306182623,-8.582458934783936
45.79,2.9000000953674316,244.0,22.14877700805664,24.3721866607666,-79.78280065323169,40.45898369506906,332.78795379638666,0.01672624796628952,-0.009194368496537209,-0.7946282625198364,0.6067962646484375,-0.042774522544378725,0.04136478353742578,2.2143357635275422,0.030704339966177937,-0.032453246414661414,0.004072262905538082,0.31538923747837544,-0.2429901096224785,-8.525938578844071
46.0,2.799999952316284,244.0,22.13625717163086,25.07194328308105,-79.78280074009895,40.45898374207066,333.20682281494135,0.017614549025893208,-0.011171173304319382,-0.7950312495231628,0.6062097549438477,-0.036515365696452716,0.025317938366980028,1.9941729004340547,0.0913073942065239,-0.007085318677127361,0.006577820982784033,0.3009341894835234,-0.2889121679216624,-8.806402031779289
46.09,2.700000047683716,244.0,22.07740974426269,25.827362060546875,-79.78280076022955,40.45898391567989,333.4150137329101,0.01801878772675991,-0.012495364062488079,-0.7952417731285095,0.6058958768844604,-0.03652518271201338,0.025466324066059882,1.9374374771445642,0.08648641407489778,-0.05323505029082298,0.09112721681594847,0.4334769370034337,-0.26406941341236234,-8.981623204350473
