time,wind_speed,wind_angle,battery_voltage,battery_current,position_x,position_y,position_z,orientation_x,orientation_y,orientation_z,orientation_w,velocity_x,velocity_y,velocity_z,angular_x,angular_y,angular_z,linear_acceleration_x,linear_acceleration_y,linear_acceleration_z
0.0,0.699999988079071,170.0,22.980138778686523,0.04771064221858978,-79.782795396104,40.458962354465854,266.1374816145003,0.0060558225959539405,0.013675487600266932,-0.792186439037323,0.6100958585739136,-0.0015093253693143989,-0.0013057058907511145,0.011302820366140586,0.006314771249890328,-0.00029769272077828646,-0.0008237176807597282,-0.14147811530157925,-0.2509311583824456,-9.802748867869377
0.19,0.699999988079071,171.0,22.98264312744141,0.05566241592168808,-79.78279528626435,40.458962478450395,266.1402685339749,0.006049772258847953,0.013680825009942056,-0.7921894192695618,0.6100919842720032,-0.0014477994280609158,0.0035746964316732124,0.01137402843615772,-0.006458399817347527,0.0007333725225180387,-0.007607478182762861,-0.14071913757361473,-0.2629910041205585,-9.805216392874717
0.3,0.699999988079071,171.0,22.97763442993164,0.06361418962478638,-79.78279522656477,40.45896260172441,266.1418594117464,0.006053694989532232,0.013677293434739113,-0.7921928763389587,0.610087513923645,0.0028599370978588962,-0.0010771968610300794,0.011023028994621606,0.004597042221575975,0.002031393116340041,-0.0007083473028615117,-0.14210394096560774,-0.2523872978053987,-9.803901938796043
0.5,0.699999988079071,167.0,22.990154266357425,0.04771064221858978,-79.78279523020522,40.45896259754781,266.14409673541786,0.006053694989532232,0.013677293434739113,-0.7921928763389587,0.610087513923645,0.001761901258679302,-0.0010823183164476102,0.0114797444309662,-0.002441431861370802,-0.0004179769020993263,-0.0037642945535480976,-0.14048194161616268,-0.2619339371658862,-9.804786037802694
0.6,0.699999988079071,167.0,22.97638320922852,0.04771064221858978,-79.78279516860653,40.45896272965045,266.14570299863817,0.006055811420083046,0.013675311580300331,-0.7921953201293945,0.6100844144821167,0.004028848987305678,-0.003530889676636888,0.011123070299447606,0.005353979300707579,-0.0011534951627254484,0.004126413259655236,-0.14290181181393566,-0.2522339363023639,-9.803071634173394
0.79,0.699999988079071,166.0,22.98639869689941,0.039758868515491486,-79.78279509991805,40.45896285119754,266.14690427437426,0.006050481460988522,0.013675974681973456,-0.7921974658966064,0.610081672668457,0.003315712196259703,-0.0016084771607274679,0.008374923527330772,-0.003294699592515827,-0.000422126759076491,-0.006630847230553627,-0.13838849223218858,-0.26413208825513723,-9.806434952616693
0.9,0.8000000119209291,165.0,22.972625732421875,0.04771064221858978,-79.78279510290182,40.458962848339524,266.1477384711802,0.006050481460988522,0.013675974681973456,-0.7921974658966064,0.610081672668457,0.0036514824125352015,-0.0019100121628308766,0.008460292976970157,0.0038188169710338116,0.00022773146338295192,0.002226987387984991,-0.14286570525728168,-0.2529747967980802,-9.804093727469443
1.1,0.8000000119209291,165.0,22.9788875579834,0.02385532110929489,-79.78279505337309,40.4589629664949,266.14807372123005,0.006051693577319385,0.013674188405275343,-0.7921998500823975,0.6100786328315735,0.0047703275968493325,-0.0038197486003122404,0.005574124294878575,-0.007482655346393584,-0.00038173090433701873,-0.002408681437373161,-0.13966617280617358,-0.26493814520537856,-9.805808715820312
1.2,0.8000000119209291,163.0,22.988903045654297,0.04771064221858978,-79.78279498780051,40.458963119102776,266.1500786948204,0.006041142623871565,0.01366750616580248,-0.7922041416168213,0.6100732684135437,-0.003036026255224344,-0.00348214615685974,0.007385896001686376,-0.0020578044932335615,-0.0017934628995135427,0.002150051761418581,-0.14307774905115367,-0.2524855310283601,-9.803513098955158
1.4,0.8000000119209291,163.0,22.980138778686523,0.03180709481239319,-79.78279499083662,40.45896312248415,266.15084031552084,0.006041142623871565,0.01366750616580248,-0.7922041416168213,0.6100732684135437,-0.0036666257540746397,-0.0035494088179357907,0.007615634001484878,-0.0036977222189307213,0.00028964292141608894,-0.00626025628298521,-0.1390207315608859,-0.26487620126456024,-9.806130312681196
1.5,0.8000000119209291,163.0,22.97638320922852,0.04771064221858978,-79.78279492599452,40.45896324594012,266.1526973615587,0.0060390504077076895,0.01367182470858097,-0.7922077775001526,0.6100684404373169,-4.815707314811706e-05,-0.000957286539770444,0.00883250956544803,-0.0019093545852229,-0.00021328609727788722,0.0025977639015764,-0.14340469063259662,-0.25368029991164803,-9.802622568011282
1.7,0.8000000119209291,163.0,22.980138778686523,0.04771064221858978,-79.782794927024,40.458963246046665,266.15358769848945,0.0060390504077076895,0.01367182470858097,-0.7922077775001526,0.6100684404373169,-0.0005681438666220617,-0.0008846019704050152,0.008990317198087492,-0.0026277394499629736,0.0014739271719008686,-0.003918968141078949,-0.1408055301848799,-0.2593517519161105,-9.804020052552225
1.8,0.8000000119209291,163.0,22.9788875579834,0.039758868515491486,-79.78279488772239,40.4589633779401,266.15358490452167,0.006039229687303305,0.013667219318449495,-0.7922102808952332,0.6100652813911438,-0.0013365617443726664,-0.003977832915128504,0.006311424606492318,-0.00241634389385581,0.0017964059952646496,5.992055230308324e-05,-0.14228129432536665,-0.2545716348476708,-9.804229382872585
2.0,0.8000000119209291,164.0,22.97638320922852,0.03180709481239319,-79.78279489188215,40.45896337985529,266.1542342710495,0.006039918400347233,0.013667722232639793,-0.7922102808952332,0.6100652813911438,-0.0018650701761636747,-0.004083865659099877,0.006581848487946664,-0.0035582594573497772,0.001491715433076024,-0.005275525152683258,-0.14117780596017834,-0.25891397818922995,-9.805432155132292
2.1,0.8000000119209291,164.0,22.98389434814453,0.04771064221858978,-79.78279479816125,40.45896350089017,266.15369298636915,0.0060298279859125605,0.013676952570676805,-0.7922129631042479,0.6100616455078125,-0.0007868370158717793,0.005268356000161076,0.004486969595037286,0.003754199482500553,0.002391696209087968,0.005056316964328289,-0.1430247586593032,-0.25482565982267263,-9.803140631318092
2.3,0.8000000119209291,165.0,22.987651824951172,0.05566241592168808,-79.782794784904,40.458963500903046,266.1546385097504,0.006029611919075251,0.013677077367901802,-0.7922155857086182,0.6100583076477051,-0.002178835743759931,0.0054205403596317035,0.005013985173132792,-0.0033436506055295467,0.003223164239898324,-0.004638957325369121,-0.13734181322157385,-0.26526754444465045,-9.805523956418037
2.4,0.8000000119209291,169.0,22.987651824951172,0.03180709481239319,-79.78279472784527,40.45896361941593,266.15668308317663,0.0060299672186374656,0.013675868511199951,-0.7922159433364868,0.6100578904151917,0.00018973000452945075,0.004089778782888068,0.007420516360298722,-0.005193324293941259,0.0006380096892826259,0.0019156227353960282,-0.14208903056569394,-0.25448027210310104,-9.80359729886055
2.6,0.699999988079071,169.0,22.99140739440918,0.05566241592168808,-79.78279469874684,40.458963758823316,266.1579147349298,0.006031833123415709,0.01366597879678011,-0.7922189235687256,0.6100542545318604,-0.0009775575203636703,-0.0026049069852293804,0.008658855837243034,-0.0038154427893459797,-0.0006259626825340093,-0.0033620551694184533,-0.1396892510354519,-0.26601730367168785,-9.805073136091233
2.7,0.699999988079071,170.0,22.98514747619629,0.05566241592168808,-79.78279465964481,40.45896389032947,266.15991375550635,0.006032146979123354,0.013662796467542648,-0.7922220826148987,0.6100501418113708,-0.0018787172463144825,-0.004930868561089115,0.009221923352446915,-0.0004609300522133708,0.0011319391196593642,0.001966214273124933,-0.14282896829769015,-0.2567629885487259,-9.802354765534401
2.9,0.699999988079071,170.0,22.98264312744141,0.04771064221858978,-79.7827946647248,40.4589638927927,266.1608481514454,0.006032146979123354,0.013662796467542648,-0.7922220826148987,0.6100501418113708,-0.0021429443113307307,-0.00500459934400221,0.009295546642908895,-0.0011722890194505453,-0.001598540460690856,-0.004335192963480949,-0.1413094870839268,-0.2562644951418042,-9.803285057544713
3.0,0.699999988079071,170.0,22.98138999938965,0.05566241592168808,-79.78279466983291,40.458963895627925,266.1617880868912,0.006032146979123354,0.013662796467542648,-0.7922220826148987,0.6100501418113708,-0.0019993564087369253,-0.005313427100737784,0.009214617452993993,0.005258469842374325,0.0008118851692415774,0.004182872362434864,-0.14236926751211287,-0.2567986017465592,-9.80263309299946
3.2,0.699999988079071,169.0,22.98514747619629,0.05566241592168808,-79.78279459470045,40.458964017664144,266.1639192286134,0.006025166716426611,0.013668151572346687,-0.7922248840332031,0.6100464463233948,-0.001991282475106741,8.774915743665456e-05,0.00983413350772527,-0.0008826794219203293,-0.0041914479807019225,-0.002766946796327829,-0.13878290520049633,-0.2671766420826316,-9.804270898103717
3.3,0.699999988079071,168.0,22.987651824951172,0.04771064221858978,-79.78279455664055,40.45896415567217,266.1653118091822,0.006026621907949448,0.01366258691996336,-0.7922280430793762,0.6100424528121948,-0.001867677140826084,-0.004098826982184431,0.00984545503365592,0.005953524261713028,0.0016937877517193554,0.005000054370611906,-0.14166824117302895,-0.25716642815619706,-9.803152325749398
3.5,0.699999988079071,164.0,22.9788875579834,0.03180709481239319,-79.78279456416955,40.458964161469005,266.16732408806683,0.006026621907949448,0.01366258691996336,-0.7922280430793762,0.6100424528121948,-0.0029873889930305845,-0.004122179103195821,0.010067924228995124,-9.883984603220596e-05,0.004319474101066589,-0.0014926308067515492,-0.13972867405973374,-0.2658919539861381,-9.804403629899024
3.61,0.699999988079071,164.0,22.987651824951172,0.06361418962478638,-79.78279450371276,40.45896426296094,266.17025388360025,0.0060277357697486895,0.013670694082975388,-0.792231559753418,0.6100376844406128,0.0031224624001006678,-0.00030357969442294065,0.010737224413393866,-0.000589701347053051,-0.002663340652361512,-0.002964397426694632,-0.1419445952028036,-0.25828547559678555,-9.804166232943537
3.8,0.699999988079071,163.0,22.99140739440918,0.05566241592168808,-79.78279444484943,40.458964393382026,266.1722815591097,0.006021152250468731,0.013666742481291294,-0.7922350168228149,0.6100334525108337,0.0008039003850100111,-0.00027333293490830864,0.010693816648079016,0.0015231040306389332,0.0006745170103386045,-0.0031288675963878627,-0.14229624127037824,-0.2533915570937097,-9.803851068019867
3.9,0.699999988079071,162.0,22.988903045654297,0.039758868515491486,-79.7827944452658,40.45896439270757,266.17334957748653,0.006021152250468731,0.013666742481291294,-0.7922350168228149,0.6100334525108337,0.0006725160267573736,-0.00039127792507127814,0.010686901413538341,0.005209724884480238,-0.0007621293189004064,0.003786352928727865,-0.14073131622746587,-0.2590575090609491,-9.804226459264756
4.09,0.699999988079071,160.0,22.987651824951172,0.05566241592168808,-79.78279436782628,40.458964531676685,266.1768549713493,0.006013763137161732,0.013666341081261637,-0.7922366857528687,0.6100313067436218,-0.003243765439021532,0.0028155932399317627,0.010907654565171516,0.0025709939654916525,0.0016500863712280989,-0.0032647429034113893,-0.13912299388088287,-0.2664956424571574,-9.805683000683787
4.2,0.699999988079071,159.0,22.988903045654297,0.05566241592168808,-79.78279436343706,40.45896453380981,266.17796547293665,0.006013763137161732,0.013666341081261637,-0.7922366857528687,0.6100313067436218,-0.003402152372725451,0.002758623559201353,0.01108661245793836,0.004527019802480936,0.003664262592792511,0.003753123804926872,-0.14057726036757232,-0.2605900094658137,-9.804729904532431
4.39,0.699999988079071,156.0,22.987651824951172,0.039758868515491486,-79.782794273988,40.45896466611468,266.181806306839,0.006008954253047705,0.013669276610016823,-0.7922391891479492,0.6100280284881592,-0.002701526337920128,0.0062091431584686075,0.011158607135593005,0.0026848025154322386,-0.0012581137707456946,-0.003807365195825696,-0.1397728388104588,-0.26481062108650805,-9.805549684166909
4.51,0.699999988079071,154.0,22.98264312744141,0.04771064221858978,-79.7827942659144,40.45896466706825,266.18292627066376,0.0060084722936153395,0.01366906613111496,-0.7922391891479492,0.6100280284881592,-0.0029386828105722124,0.006103298755150967,0.01121590383617886,0.002203915501013398,0.0028906224761158232,0.006794744171202183,-0.14045903697609902,-0.2606992793083191,-9.803913048505784
4.7,0.699999988079071,149.0,22.980138778686523,0.05566241592168808,-79.78279422871078,40.45896479592788,266.1899087685347,0.006013995967805386,0.01366451196372509,-0.7922419309616089,0.6100244522094727,0.00019732767282970944,0.00031517643850211544,0.01565623388018887,0.002405222272500396,0.002366753062233329,-0.004085348919034004,-0.13891518931835892,-0.26513271130621435,-9.805985886454582
4.81,0.8000000119209291,148.0,22.98389434814453,0.05566241592168808,-79.78279414077609,40.45896492403657,266.19666369587185,0.006009431090205908,0.013666297309100628,-0.7922450304031372,0.6100204586982727,-0.0013229500658075428,0.003224069804574596,0.017357503245021784,-0.008923430927097797,0.0010811040410771966,-0.0013796582352370026,-0.14076755069196226,-0.260810376405716,-9.804894211292268
4.99,0.8000000119209291,144.0,22.9788875579834,0.05566241592168808,-79.7827941367667,40.45896492386049,266.19839665621515,0.006009294651448728,0.013666195794939995,-0.7922450304031372,0.6100204586982727,-0.001276241403655072,0.0030264243230832396,0.017417583832318815,0.0021873514633625746,-0.00045989674981683487,0.0012660323409363627,-0.14181003615260124,-0.25220323842018844,-9.803887905478476
5.1,0.8000000119209291,143.0,22.987651824951172,0.05566241592168808,-79.78279412459409,40.45896509562269,266.20348711639645,0.006011095363646746,0.01364950742572546,-0.7922462821006775,0.6100192070007324,-0.006226348529058528,-0.008332519708792783,0.014382350123431163,-0.004424852319061756,0.0012527542421594262,-0.002122058067470789,-0.1409689872711897,-0.26074993081390857,-9.803908370733259
5.3,0.8000000119209291,137.0,22.988903045654297,0.04771064221858978,-79.78279406208681,40.45896524253894,266.208650636971,0.006008137483149767,0.013648062013089657,-0.7922487854957581,0.6100159883499146,-0.0052241672549969646,-0.008807676465218638,0.01310212235553985,-9.593672439223155e-05,-0.0003580604388844222,-0.00041199143743142486,-0.13955046189017595,-0.26524022698402405,-9.805560793876648
5.4,0.8000000119209291,137.0,22.987651824951172,0.03180709481239319,-79.78279407031779,40.458965249078396,266.2099989759922,0.006008137483149767,0.013648062013089657,-0.7922487854957581,0.6100159883499146,-0.005506206452309231,-0.008935881139972436,0.013206228121553374,0.0054212133400142175,0.0007240526610985397,0.00481597613543272,-0.14111508543603124,-0.2603895961493254,-9.804617637991903
5.59,0.8000000119209291,136.0,22.99766731262207,0.09542128443717957,-79.78279397316406,40.458965390260346,266.21748364299543,0.006000692490488291,0.013655591756105423,-0.7922523617744446,0.6100112795829773,-0.004763528575060274,-0.0013896121645939619,0.012913264153941213,0.0029326670337468386,-0.0014527345774695275,-0.004502470139414072,-0.1392013465706259,-0.26509225588291885,-9.805154997110368
5.7,0.8999999761581421,134.0,22.987651824951172,0.04771064221858978,-79.78279397311628,40.458965394691354,266.21879279196264,0.006000692490488291,0.013655591756105423,-0.7922523617744446,0.6100112795829773,-0.005063604936096103,-0.0015075349728699,0.012984203563722414,0.0055931489914655685,0.002180498559027911,0.002621813677251339,-0.13966227161698044,-0.26192671950906515,-9.805012909770012
5.8,0.8999999761581421,133.0,22.98389434814453,0.05566241592168808,-79.78279389170778,40.458965523554475,266.2268286827207,0.0059983516111969965,0.0136563153937459,-0.7922528386116028,0.6100106239318848,-0.004184465417488754,-0.00018497049756246672,0.015476013229370025,-0.007531578652560711,-0.002449719700962305,-0.004334829282015562,-0.1402891296800226,-0.26433549826964736,-9.805528049468997
6.0,0.8999999761581421,133.0,22.988903045654297,0.04771064221858978,-79.78279388955815,40.45896553028233,266.2299710246921,0.005998130887746811,0.013656672090291977,-0.7922547459602356,0.610008180141449,-0.004463353741591725,-0.0004575269781708993,0.015746651743869664,0.0031223243568092585,-0.00028175325132906437,0.005096763838082552,-0.1405667079705745,-0.2519330787844956,-9.805357895493508
6.11,0.8999999761581421,134.0,22.97638320922852,0.039758868515491486,-79.78279380490483,40.45896565489853,266.23898838043215,0.005996336229145528,0.01365861389786005,-0.7922576069831848,0.6100044250488281,-0.0027255378801091623,0.0008974533977211086,0.018036602986276875,-0.006638755556195974,-0.003993706312030554,-0.0056823422200977785,-0.13993109735660256,-0.26347626820206643,-9.805502906441687
6.3,0.8999999761581421,138.0,22.98264312744141,0.04771064221858978,-79.78279373720369,40.458965788244186,266.2505857604742,0.005999720189720392,0.013657061383128166,-0.7922616004943848,0.6099992394447327,0.0003201397812651214,-0.002184537272167575,0.01966794750183392,0.0021583945490419865,0.00012547631922643632,0.006868647411465646,-0.14173802403733135,-0.2513080662488937,-9.80345111846924
6.4,0.8999999761581421,139.0,22.97638320922852,0.13518016040325165,-79.78279373942499,40.45896578836335,266.25257113158705,0.005999720189720392,0.013657061383128166,-0.7922616004943848,0.6099992394447327,-0.0007721326042742879,-0.002081111709500511,0.01995939470010526,-0.005839584395289421,-0.0003701213863678277,-0.004929876886308193,-0.14115139299072327,-0.2644671885296703,-9.805043315291405
6.6,0.8000000119209291,141.0,22.98264312744141,0.05566241592168808,-79.78279364602452,40.4589659413526,266.2652636128664,0.005992545280605555,0.013654702343046663,-0.7922655940055847,0.6099942326545715,-0.0039514400975767024,-0.0011634258659995018,0.02073549312257904,0.0021306814160197973,-0.0007361926836892962,0.0059708398766815645,-0.14024214182049036,-0.263693181630224,-9.804039348363878
6.7,0.8000000119209291,142.0,22.980138778686523,0.05566241592168808,-79.78279364588923,40.45896594484106,266.26735953569414,0.005992545280605555,0.013654702343046663,-0.7922655940055847,0.6099942326545715,-0.004954253860854996,-0.001152672438525636,0.02093017305520809,-0.00685588363558054,-0.0039431056939065465,-0.003159779123961925,-0.14066394533962012,-0.2636909523792565,-9.804092558026316
6.9,0.8000000119209291,142.0,22.97513008117676,0.07951773703098297,-79.78279357774255,40.45896607193981,266.2808133172989,0.005991882644593716,0.013652658089995384,-0.7922656536102295,0.6099942326545715,-0.0023917020014508697,-0.0028594482358543765,0.021694679605193046,-0.0002477790985722096,-0.0019142398377880454,0.003216194454580545,-0.13977367021143436,-0.2624320833943785,-9.806122126579288
7.0,0.8000000119209291,141.0,22.98264312744141,0.16698725521564484,-79.78279357993752,40.458966074456185,266.2830091226101,0.0059887049719691285,0.013650452718138695,-0.7922548055648804,0.6100084185600281,-0.0034469523777354164,-0.00281072580944464,0.02202260971945719,-0.0032231840305030346,0.0014764373190701008,-0.00489108357578516,-0.14162698175758126,-0.2644696005061269,-9.805144472122194
7.2,0.8000000119209291,142.0,22.9788875579834,0.14313192665576935,-79.78279346528771,40.45896620092853,266.29526067852976,0.005978543777018786,0.013653239235281944,-0.7922491431236267,0.6100158095359802,-0.002942616246915425,0.002602324997173865,0.019002608923464517,0.001072975224815309,-0.002328271511942148,0.003456261474639177,-0.13988661283627152,-0.2629513344168663,-9.804385503530504
7.3,0.8000000119209291,142.0,22.98138999938965,0.12722837924957275,-79.78279337056048,40.45896633040087,266.3065438079834,0.005970695987343788,0.013647043146193027,-0.7922478318214417,0.6100176572799683,-0.001353658459087819,0.0030551882121226787,0.01659490928410066,-0.01006383914500475,-0.0026889608707278967,-0.0028318495023995642,-0.13971241149120034,-0.2638188419491053,-9.805050331950188
7.5,0.8000000119209291,145.0,22.97638320922852,0.11132483184337616,-79.78279336271105,40.45896633075889,266.3098913240433,0.005949619226157665,0.013640223070979118,-0.7922501564025879,0.6100150346755981,-0.001880886714553218,0.002881431308747839,0.016955334462341525,0.0027750497683882713,-0.0016079357592388988,0.004731657914817333,-0.139676917064935,-0.2623006672225893,-9.80610692381859
7.6,0.8000000119209291,146.0,22.973878860473643,0.13518016040325165,-79.78279326411358,40.458966480039614,266.3245235192776,0.005937114357948303,0.013616545125842094,-0.7922418713569641,0.6100265383720398,-0.005226945090870478,0.0024822635359704323,0.019280409794073014,-0.0048966147005558005,0.0013564408291131258,-0.0025464606005698442,-0.13947842236608268,-0.2650340578146279,-9.804142844080923
7.8,0.8000000119209291,146.0,22.97638320922852,0.15108370780944824,-79.78279317509809,40.45896661646203,266.33897575318815,0.005918105598539114,0.0135741401463747,-0.7922410368919373,0.6100285649299622,-0.005878739097618025,0.001787720563503731,0.017152472245363388,0.002677824813872576,0.002707271603867412,0.0027794193010777235,-0.1411700127180666,-0.2509449176117778,-9.80319384098053
7.9,0.8000000119209291,147.0,22.980138778686523,0.12722837924957275,-79.78279317088844,40.458966621175925,266.34071515083315,0.005905531346797943,0.01357539463788271,-0.7922409176826477,0.6100288033485413,-0.007270487175705514,0.0019284885276327239,0.017373255560284656,-0.006222867872565985,-0.0016518665943294766,-0.001666591502726078,-0.13985850965604188,-0.264517565947026,-9.805203529000284
8.1,0.8000000119209291,149.0,22.973878860473643,0.12722837924957275,-79.78279308113329,40.45896674262305,266.35595662474634,0.005907734390348196,0.013579336926341057,-0.7922430038452148,0.6100261807441711,-0.003495837900756456,0.002214417965039533,0.015728666852726336,0.0015581233892589808,-0.0016568930586799981,0.005269903223961593,-0.14052995273843408,-0.2615121884644032,-9.805664289593695
8.2,0.8000000119209291,150.0,22.96887016296387,0.12722837924957275,-79.78279307721176,40.4589667452092,266.357550393343,0.005907734390348196,0.013579336926341057,-0.7922430038452148,0.6100261807441711,-0.004783885806538196,0.0023813645655947893,0.01606080640522922,-0.007820784114301205,-0.00019736630201805383,-0.006447345018386841,-0.1391158310417086,-0.26473312720656395,-9.80623731672764
8.4,0.8000000119209291,152.0,22.966365814208984,0.11132483184337616,-79.78279295809193,40.45896688602346,266.3740472006798,0.005899960175156593,0.013579732738435268,-0.7922455668449402,0.6100228428840637,-0.007580567448717809,0.004838841168258032,0.015457681095391432,0.0049212989397346965,0.0009581133490428329,0.005292010959237814,-0.14011548564769327,-0.2621812561154366,-9.804000172019006
8.5,0.8000000119209291,154.0,22.97137451171875,0.13518016040325165,-79.78279294986619,40.45896689157526,266.37561834931375,0.005899960175156593,0.013579732738435268,-0.7922455668449402,0.6100228428840637,-0.008910270060502464,0.005026126798937432,0.01568085049677015,-0.004744458477944136,-0.0017355115851387384,-0.003266014391556382,-0.14023839594796306,-0.26448363382369283,-9.803929420709613
8.7,0.8000000119209291,156.0,22.98264312744141,0.15108370780944824,-79.78279285110499,40.458967012464136,266.3928192663193,0.005903272423893213,0.013582346029579641,-0.7922486066818237,0.6100188493728638,-0.005571874350430718,0.0045338721713046965,0.015049506915293097,0.0018225432140752675,0.0029061154928058386,0.004811871331185103,-0.1396183626819402,-0.26125491097569464,-9.803759266734124
8.8,0.8000000119209291,157.0,22.97513008117676,0.11927660554647446,-79.78279276547876,40.45896717614313,266.4086905527115,0.00589421670883894,0.013570770621299744,-0.7922489643096924,0.6100186705589294,-0.01576772163942714,0.0012989723952036038,0.014413476240126618,-0.007479925639927387,-0.0019285791786387567,-0.005410309415310621,-0.1388680461421609,-0.2646597081050277,-9.805606986880305
9.0,0.8000000119209291,158.0,22.9788875579834,0.13518016040325165,-79.7827927528146,40.45896720287582,266.4116847920418,0.005894837900996208,0.013571499846875671,-0.7922519445419312,0.610014796257019,-0.01664600485698526,0.0010272992509189286,0.014699675932474775,0.004201909527182579,-0.0011498986277729273,0.0053460607305169106,-0.14188801425509154,-0.2520481410250068,-9.80414459824562
9.1,0.8000000119209291,159.0,22.97137451171875,0.15108370780944824,-79.78279263976243,40.45896729629019,266.42802471995356,0.0058982777409255505,0.013584105297923088,-0.7922554016113281,0.6100099682807922,-0.007587991797564734,0.0063356213235573255,0.015079717295531857,-0.00535205053165555,-0.003717281157150865,-0.003477771067991853,-0.14107891492545604,-0.26535481413826345,-9.805687093734742
9.3,0.8000000119209291,159.0,22.973878860473643,0.15903547406196594,-79.78279254114635,40.45896743236908,266.44632966399195,0.005899746436625719,0.013582703657448292,-0.7922579646110535,0.6100067496299744,-0.007422068081622297,0.003918689906219469,0.014310476282349063,0.004150861408561468,0.0006920673768036067,0.00047561942483298475,-0.14083729701116682,-0.25091259347274897,-9.803203196525574
9.41,0.8000000119209291,161.0,22.980138778686523,0.11927660554647446,-79.78279253406991,40.458967438008365,266.4477892327309,0.005899746436625719,0.013582703657448292,-0.7922579646110535,0.6100067496299744,-0.008726562368390362,0.0040573506039514855,0.014682987160506603,-0.0073288525454699984,-0.0018186351517215367,-0.0046397964470088465,-0.1403782814461738,-0.2626217707246542,-9.806585226058962
9.6,0.699999988079071,161.0,22.98138999938965,0.10337305814027786,-79.78279243507819,40.458967574734075,266.46646485805513,0.005899538286030293,0.013581773266196251,-0.7922614812850952,0.6100019812583923,-0.00840454757853698,0.0026501435390042546,0.014370896537751272,-0.0007143690017983317,0.0010690137278288603,0.0024139948654919863,-0.1391753721423447,-0.26297735452651977,-9.806069501638412
9.7,0.699999988079071,161.0,22.98514747619629,0.05566241592168808,-79.78279242917813,40.45896758148286,266.467931996584,0.005899538286030293,0.013581773266196251,-0.7922614812850952,0.6100019812583923,-0.009711070658952829,0.0028237181438824,0.014618301009876104,-0.00951886922121048,-0.003193085081875324,-0.005083324387669563,-0.14019677108153702,-0.2634024836495519,-9.805091262459756
9.9,0.699999988079071,161.0,22.97763442993164,0.04771064221858978,-79.78279233884011,40.45896771085805,266.4844406652451,0.005899452138692141,0.013581903651356695,-0.7922638058662415,0.6099990606307983,-0.00921100008429608,0.0021485513966860528,0.011057741836998107,-0.0008437499054707588,0.0004336239653639496,0.005478492472320795,-0.1391434591356665,-0.2648703905940056,-9.805124591588974
10.0,0.699999988079071,159.0,22.98264312744141,0.04771064221858978,-79.78279233345619,40.458967718330406,266.4855779516697,0.005902132950723171,0.013583031482994556,-0.7922636866569519,0.6099991202354431,-0.01044458065234665,0.002276786218054509,0.0112860826294382,-0.005027687177062036,-0.0016814944101497527,-0.007723857648670673,-0.14115498354658484,-0.2619563210383058,-9.80448782980442
10.2,0.699999988079071,157.0,22.98138999938965,0.05566241592168808,-79.78279224508493,40.45896782700672,266.5021104323864,0.005905144847929478,0.01358727365732193,-0.792267382144928,0.6099943518638611,-0.005271870284215057,0.002582568831806052,0.008058014050625999,-0.005558263510465622,0.0014127760659903288,0.001211529248394072,-0.14004343698732555,-0.2655601427704096,-9.804689558744432
10.3,0.699999988079071,156.0,22.98138999938965,0.05566241592168808,-79.7827921751412,40.458967934287436,266.520296882391,0.0059111416339874285,0.013587410561740398,-0.7922700047492981,0.6099907755851746,-0.00105561690337411,-0.0009290567004784886,0.010169020416681577,-0.0021474759560078387,-0.001113779260776937,-0.004655683878809214,-0.14018304839730264,-0.2599347193166613,-9.804766157269476
10.5,0.699999988079071,154.0,22.98514747619629,0.05566241592168808,-79.78279217648377,40.458967936713634,266.5223813760281,0.0059111416339874285,0.013587410561740398,-0.7922700047492981,0.6099907755851746,-0.0022439369550919072,-0.0011154645458369633,0.0105455189383845,-0.003729894058778882,-0.0008215212728828193,0.003574057715013623,-0.14313048362731934,-0.2533288091607392,-9.802582222223283
10.6,0.699999988079071,153.0,22.97513008117676,0.06361418962478638,-79.7827920638687,40.45896806262827,266.54089648604395,0.0059038992039859295,0.01358986273407936,-0.7922738194465637,0.6099859476089478,-0.005378236121348318,0.0032585705110120392,0.011842576624877341,-0.0022551636211574078,0.0008909456664696336,-0.004621482454240322,-0.14087286452762784,-0.2587517544999719,-9.803950470685962
10.79,0.699999988079071,152.0,22.987651824951172,0.06361418962478638,-79.78279198025716,40.45896818089825,266.55967469096186,0.005902533885091543,0.013588408939540386,-0.7922742962837219,0.6099853515625,-0.006238748540414643,0.0023952679129957675,0.012496205086124037,-0.002075551776215434,-0.0016133877215906975,9.470332588534802e-05,-0.14171275310218334,-0.253560961894691,-9.803367503285408
10.89,0.699999988079071,151.0,22.98639869689941,0.05566241592168808,-79.7827919755294,40.45896818556921,266.5609442996979,0.005903128534555435,0.013589078560471536,-0.7922773361206055,0.6099813580513,-0.007040811062545861,0.002425652528502825,0.012678105341264354,-0.0033736987970769405,-0.0010832964908331633,-0.004488543141633272,-0.13985405115410687,-0.25661090612411497,-9.804032331705093
11.09,0.6000000238418579,148.0,22.980138778686523,0.06361418962478638,-79.7827918910718,40.45896829069801,266.5798165011406,0.005904776509851217,0.013592008501291277,-0.7922802567481995,0.6099774837493896,-0.004173087296082739,0.002613933593385663,0.013167994644237714,-0.004458371549844742,-0.0010661898413673043,-0.001207985682412982,-0.13914646496996286,-0.2664893018826843,-9.805319888591765
11.2,0.6000000238418579,147.0,22.973878860473643,0.06361418962478638,-79.7827918868112,40.45896829350533,266.5811485755444,0.005904776509851217,0.013592008501291277,-0.7922802567481995,0.6099774837493896,-0.004799592839648557,0.0025535676659541365,0.013322096930283104,0.004585944581776857,0.0014271752443164587,-0.004775772336870432,-0.14102852837182586,-0.25519949790090324,-9.802969307899476
11.4,0.6000000238418579,143.0,22.98389434814453,0.04771064221858978,-79.78279180692796,40.45896837894279,266.60038570642473,0.0059107011184096345,0.013599229045212269,-0.7922831177711487,0.6099735498428345,0.0007728566839429647,0.0039892614878252325,0.013781537048885278,-0.004418976604938507,-0.001928223296999932,-0.0017502314876765013,-0.1382963254954666,-0.2668084684945643,-9.805347370505334
11.5,0.6000000238418579,141.0,22.98514747619629,0.06361418962478638,-79.78279180256244,40.45896837700076,266.601760815382,0.0059107011184096345,0.013599229045212269,-0.7922831177711487,0.6099735498428345,0.00046397772106423037,0.003943384792114947,0.013955652835548756,0.002326037967577577,-0.0011172613594681022,0.000606830115430057,-0.14142552690580487,-0.2522584032453597,-9.803426560163498
11.7,0.6000000238418579,139.0,22.98639869689941,0.06361418962478638,-79.78279172561379,40.4589685089782,266.62077198505403,0.0059080617502331725,0.013595497235655785,-0.7922861576080322,0.6099696755409241,-0.004190397480013657,0.0026455654936290416,0.014152605557330729,-0.0063082706183195105,-0.0013632935006171465,-0.005235448945313692,-0.14143382264301185,-0.26535318788141016,-9.804182605147362
11.81,0.5,139.0,22.98514747619629,0.06361418962478638,-79.78279164164194,40.45896861647685,266.6387551236153,0.005905109457671642,0.013597968034446241,-0.7922870516777039,0.6099684238433838,-0.0031800122687490697,0.004974106367753427,0.01676402410190811,0.005944863893091679,-0.0003053884138353169,0.0020359058398753405,-0.14227228595875205,-0.2515572124533355,-9.803721844553948
11.99,0.5,141.0,22.9788875579834,0.06361418962478638,-79.78279162734624,40.45896862048973,266.64215735673906,0.005905697587877512,0.013598686084151268,-0.7922897338867188,0.6099649667739868,-0.005258372481546694,0.005138153524634564,0.017302958858967522,-0.005873816553503275,-0.0011601531878113749,-0.0005356590263545513,-0.1396335654426366,-0.2642157034389675,-9.804264466166495
12.1,0.5,141.0,22.9788875579834,0.06361418962478638,-79.78279158855464,40.458968717847206,266.65854481935503,0.0059126075357198715,0.013597418554127216,-0.7922915816307068,0.609962522983551,-0.00022751079719718286,0.0003519740378042768,0.015616905078959548,0.00726531259715557,0.0022649259772151713,0.002311904914677143,-0.1429482240881771,-0.2522788502275944,-9.802503284811976
12.3,0.5,141.0,22.972625732421875,-0.02385532110929489,-79.7827915465579,40.458968812050095,266.6762576508522,0.005916926544159651,0.013596481643617151,-0.7922941446304321,0.6099591851234436,0.0013967273029858282,-0.0023505183366372877,0.01480726068262009,-0.002439173636958003,-0.0011717141605913641,-0.004792970139533281,-0.14006815974600614,-0.2603816475905478,-9.803936437368394
12.4,0.5,140.0,22.98138999938965,0.03180709481239319,-79.78279154964585,40.45896881101413,266.67774490594866,0.005916926544159651,0.013596481643617151,-0.7922941446304321,0.6099591851234436,0.001491760593779988,-0.0025702144290637593,0.014926467373236519,0.003982568625360727,0.0035413820296525955,0.000841307220980525,-0.14273926835507156,-0.2530735051073134,-9.802748867869377
12.6,0.5,138.0,22.972625732421875,0.05566241592168808,-79.7827914755413,40.45896893111288,266.6952577638626,0.005909152328968047,0.013597952201962471,-0.7922973036766052,0.6099551320075989,-0.003749831009271603,0.0016685191106346974,0.015119067735031973,-0.00418268283829093,-0.00017547659808769822,-0.0051670195534825325,-0.14100844684056935,-0.2570513659156859,-9.804669678211214
12.7,0.5,137.0,22.97763442993164,0.06361418962478638,-79.78279147244912,40.458968933712455,266.69679401397707,0.005909152328968047,0.013597952201962471,-0.7922973036766052,0.6099551320075989,-0.0037961237762627353,0.0014697511014700705,0.015418565016947347,0.0045800618827343,0.0016996620688587427,0.005639184731990099,-0.14292533772066238,-0.2551727286167443,-9.803937606811523
12.9,0.6000000238418579,136.0,22.988903045654297,0.03180709481239319,-79.78279142357063,40.45896902944136,266.7135807681084,0.005911748856306076,0.013600739650428295,-0.7923003435134888,0.6099510788917542,-0.0019044182120005481,0.0020181528167309264,0.014950368156794331,-0.0012427250621840358,0.0018642412032932047,-0.00487424386665225,-0.14035268160514533,-0.25536278139799834,-9.803666880726814
13.01,0.6000000238418579,137.0,22.98389434814453,0.05566241592168808,-79.78279142057174,40.458969030429024,266.7150869178772,0.005911748856306076,0.013600739650428295,-0.7923003435134888,0.6099510788917542,-0.0020467074354370775,0.0018390615958486934,0.015067463082778869,0.0057938992977142325,0.002607487374916673,0.004745436832308768,-0.14240382090210915,-0.2556137365847826,-9.802971062064172
13.2,0.6000000238418579,138.0,22.97763442993164,0.05566241592168808,-79.78279137658015,40.45896912720357,266.73138127803804,0.005912355147302151,0.01360153779387474,-0.7923042774200441,0.6099458932876587,-0.002237644653124142,0.0019464173548373734,0.015154513756363275,-0.002897601341828704,-0.002349097048863769,-0.003777757752686739,-0.14167986251413822,-0.2543851817585528,-9.803836449980736
13.3,0.6000000238418579,138.0,22.98264312744141,0.04771064221858978,-79.78279136667878,40.458969236754285,266.745629529953,0.005916612222790718,0.013596749864518642,-0.7923075556755066,0.6099417209625244,-0.0020902018630031176,-0.00282585705809856,0.014133438089238348,0.00762709230184555,-0.0010678502731025221,0.005804782267659904,-0.14184237856417894,-0.2566528050787747,-9.803921234607698
13.5,0.699999988079071,136.0,22.98639869689941,0.05566241592168808,-79.78279137063002,40.458969242971676,266.7485471773148,0.005916612222790718,0.013596749864518642,-0.7923075556755066,0.6099417209625244,-0.004196268185498992,-0.0027447030621299768,0.01467881015051474,0.0005718228640034795,-8.465565042570233e-05,-0.0048032328486442575,-0.13890955223701895,-0.2666565505228937,-9.805570149421692
13.6,0.699999988079071,134.0,22.98264312744141,0.05566241592168808,-79.78279132011488,40.458969337372096,266.7640709090233,0.005908985622227192,0.013600672595202923,-0.7923092842102051,0.609939455986023,-0.00255470555593338,0.002254520464056729,0.017811982035723255,0.004350103903561831,0.0008243547054007647,0.005808798596262932,-0.14236137377098204,-0.259034796282649,-9.802981587052344
13.8,0.8000000119209291,132.0,22.98514747619629,0.04771064221858978,-79.78279132435756,40.45896945199581,266.7785482811928,0.005919205024838448,0.013611639849841595,-0.7923062443733215,0.6099430918693542,-0.003582851652063042,-0.0030294728319626555,0.015808969875872426,-0.001116504310630262,-0.001633868203498423,-0.004202777519822121,-0.13874653369188308,-0.2663866284303367,-9.806139083504675
13.9,0.8000000119209291,132.0,22.980138778686523,0.039758868515491486,-79.78279132656341,40.45896945561685,266.7801580834389,0.005909550935029984,0.013605529442429544,-0.7923086285591125,0.6099401712417603,-0.003839598640915147,-0.0032039804198008928,0.01604377978963803,0.006511594168841839,0.003115350846201181,0.004122845362871885,-0.14132736677303911,-0.2577507111802697,-9.804636933803561
14.1,0.8999999761581421,132.0,22.97638320922852,0.05566241592168808,-79.78279133066309,40.458969551494455,266.79367564201357,0.005900081712752582,0.01358233578503132,-0.7923094034194946,0.6099398732185364,-0.001941847100327448,-0.0045327005881554356,0.015445588604713229,0.0015090459492057562,-0.0014087245799601078,-0.003356130793690681,-0.14063840945251288,-0.2545571629889309,-9.803834111094476
14.2,0.8999999761581421,129.0,22.97513008117676,0.06361418962478638,-79.78279133501226,40.45896955409457,266.7952396678925,0.0058861514553427705,0.0135772954672575,-0.7923025488853455,0.609948992729187,-0.0022612168567285665,-0.004600766782378616,0.015558518935114597,0.004534698091447353,0.0017797104083001614,0.005565966013818979,-0.14185996589250865,-0.2581191223114729,-9.803306692242623
14.39,0.8999999761581421,130.0,22.9788875579834,0.03180709481239319,-79.78279131107819,40.45896966536884,266.8099300670624,0.005897399969398975,0.013600563630461693,-0.7923029065132141,0.6099479794502258,-0.005596947902288824,-0.00013459853866565558,0.018136142723106617,3.614433126131189e-06,0.0007393374689854681,-0.0044064358808100215,-0.1401853690110147,-0.2547861180268228,-9.803420712947846
14.5,0.8999999761581421,131.0,22.96887016296387,0.05566241592168808,-79.7827913092409,40.458969670058046,266.81177250623705,0.005883373785763979,0.013595032505691051,-0.7922918796539307,0.6099624633789062,-0.005891124321810011,-0.0001861653105834512,0.0183822543699758,0.005077114794403315,0.0013980065705254676,0.002482439624145627,-0.14229313493706286,-0.2564746659994125,-9.803763944506644
14.7,0.8999999761581421,130.0,22.98138999938965,0.03180709481239319,-79.7827913327423,40.45896978177999,266.8261574316025,0.005886571481823921,0.01359196286648512,-0.7922970652580261,0.6099557876586914,-0.00626545781960215,-0.004320262658758098,0.020319933324993083,0.0005455071222968402,0.0007421267800964415,-0.006479913834482431,-0.13983426198363305,-0.26649273712188004,-9.805730947852137
14.8,0.8999999761581421,129.0,22.98514747619629,0.04771064221858978,-79.78279136305503,40.458969870189,266.83517394542696,0.00589521788060665,0.013594756834208964,-0.7922989726066589,0.6099531054496765,0.0003786762466546708,-0.006255875235311954,0.01657249021590846,0.007773995865136384,0.001168805523775518,0.0061174011789262295,-0.14257249480113388,-0.2573251069709659,-9.804158631563189
15.0,0.8999999761581421,127.0,22.97638320922852,0.05566241592168808,-79.78279137645491,40.458969873620035,266.838578145504,0.00589521788060665,0.013594756834208964,-0.7922989726066589,0.6099531054496765,-0.0017820951533810113,-0.00624013937817166,0.017316200458865255,-0.003908172715455294,0.0010391557589173317,-0.0050031645223498344,-0.1406028327997774,-0.26618042271584275,-9.806171827912332
15.09,0.8000000119209291,127.0,22.98639869689941,0.05566241592168808,-79.78279140694066,40.458969967419264,266.84753416061403,0.005898854229599237,0.013595373369753359,-0.7923010587692261,0.6099504232406616,0.0007428278046029879,-0.007024893021310522,0.01597893048811042,0.005144113209098578,0.002078698482364416,0.004073468968272209,-0.14285517113283278,-0.25642542148008945,-9.803932929039002
15.3,0.8000000119209291,128.0,22.97513008117676,0.03180709481239319,-79.78279143108188,40.45897007950406,266.8571644830704,0.005894813686609268,0.013594694435596466,-0.7923031449317932,0.6099477410316467,-0.002422797017356782,-0.0047346694805452975,0.014685554215923612,-0.0013095343019813301,-0.0026403518859297037,-0.002625503810122609,-0.13945889814756812,-0.266521425023675,-9.805430400967598
15.4,0.8000000119209291,127.0,22.97012138366699,0.007951773703098297,-79.78279143559935,40.458970082493856,266.85865537405016,0.005894813686609268,0.013594694435596466,-0.7923031449317932,0.6099477410316467,-0.002518241290743409,-0.004861664578935714,0.014851246414434985,0.0038253215607255697,0.0019250989425927398,0.0026337995659559965,-0.1424324996676296,-0.2548202876932919,-9.804128810763359
15.6,0.8000000119209291,129.0,22.98389434814453,0.04771064221858978,-79.78279146563342,40.458970182870665,266.86742536306383,0.005897739436477423,0.013597971759736538,-0.7923056483268738,0.6099443435668945,-0.0010479659871510914,-0.0025119348853060125,0.014004745269707469,-0.0030565473716706038,-0.0013918119948357346,-0.00796273909509182,-0.1409344795625657,-0.2578580258600414,-9.803570401668551
15.7,0.8000000119209291,131.0,22.98389434814453,0.07156596332788467,-79.78279146805448,40.458970184136355,266.86883846998217,0.005897739436477423,0.013597971759736538,-0.7923056483268738,0.6099443435668945,-0.0011664206411829226,-0.0026045924350846005,0.014147541998487626,0.007876457646489143,0.0003132826241198926,0.003610117826610804,-0.14300221033394336,-0.2542850116454065,-9.801932596564292
15.9,0.8000000119209291,136.0,22.98389434814453,0.05566241592168808,-79.78279150251677,40.45897031928933,266.8766069221497,0.005894439294934273,0.013592088595032692,-0.7923086285591125,0.609940767288208,-0.007937338917543424,-0.00332618775191862,0.013531385275108629,-0.0019590994343161587,-0.0012303406838327644,-0.00538178626447916,-0.14085170491598548,-0.25922293044626715,-9.804438128471377
16.0,0.8000000119209291,137.0,22.955097198486328,0.7395149469375609,-79.7827915038249,40.45897032669459,266.87799690246584,0.005894439294934273,0.013592088595032692,-0.7923086285591125,0.609940767288208,-0.00801124955550016,-0.003500793194872034,0.013752472124601137,0.005583865102380514,0.0027835313230752945,0.003209447488188744,-0.142872329056263,-0.2531000368483365,-9.803322479724883
16.2,0.8000000119209291,140.0,22.96010589599609,0.3578298389911652,-79.78279154404058,40.45897042213527,266.8846609997749,0.0058902790769934646,0.013612689450383186,-0.792317807674408,0.6099283695220947,-0.005167610245533746,-0.0013227625469280106,0.013441929910654241,-0.0017632242524996398,0.0005718063330277801,0.005064500030130148,-0.13084223102778195,-0.2498751877807081,-9.805725100636485
16.3,0.8000000119209291,142.0,22.97137451171875,0.3498780429363251,-79.7827916061347,40.458970511223825,266.8871770310402,0.005887176375836134,0.013645178638398649,-0.7922655344009399,0.6099954843521118,-0.0004651168761385805,-0.004804531902257308,0.008310457393055871,0.005666706245392561,0.0005187115166336298,-0.014746281318366528,-0.14096876800060273,-0.25793031206354505,-9.805038637518884
16.5,0.8000000119209291,146.0,22.962610244750977,0.3578298389911652,-79.78279161601236,40.458970513638214,266.8889276790619,0.005882530473172665,0.013645157217979431,-0.7922925353050232,0.6099605560302734,-0.003254777284122469,-0.003935572132787888,0.009081917887323512,-0.008029265329241753,-0.005196634214371443,-0.0158886257559061,-0.14631877846084534,-0.2572266910225153,-9.805053255558015
16.61,0.8000000119209291,149.0,22.96010589599609,0.3578298389911652,-79.78279165821023,40.4589706410499,266.8907401967049,0.005880424752831459,0.013654856942594051,-0.792275607585907,0.6099822521209717,-0.00588918705075151,-0.004685076463950664,0.005969165727746158,0.009259879589080807,-0.0015294284094125032,0.00859763752669096,-0.14552348404191434,-0.2548754159733653,-9.80254187643528
16.79,0.8999999761581421,153.0,22.96511459350586,0.40554046630859375,-79.78279171374706,40.45897074870528,266.8922279286385,0.005878566298633814,0.01367346104234457,-0.7922803163528442,0.6099757552146912,-0.00626934828994026,-0.003157267764307436,0.004103383270638549,-0.008840747177600859,-0.0006302598048932848,0.0026502746623009443,-0.13775658180937173,-0.2622365305759013,-9.803101454973225
16.91,0.8999999761581421,154.0,22.9638614654541,0.4293957948684693,-79.78279171545309,40.458970754600074,266.892668466568,0.005894352216273546,0.013673513196408749,-0.7923054695129395,0.6099429726600647,-0.00689850072421596,-0.0035190702658605454,0.0042034745009005715,0.005706232041120529,0.004635790828615427,-0.003896831069141626,-0.14820897314697504,-0.25954399740323425,-9.798268731236456
17.1,0.8999999761581421,156.0,22.96135711669922,5.661663055419923,-79.78279177168368,40.45897084863119,266.8942929315567,0.005879141855984925,0.013652585446834564,-0.7923112511634827,0.609935998916626,-0.005265165404211308,-0.0015679337686286838,0.0066496233766760214,-0.004011183977127075,-0.0010758190182968974,-0.008781551383435726,-0.13765941753052174,-0.2687471493892372,-9.804453331232072
17.2,0.8999999761581421,158.0,22.708444595336914,3.363600254058838,-79.7827918537206,40.45897095235206,266.89334819793703,0.00588294817134738,0.013334508053958416,-0.7923946380615234,0.6098347306251526,-0.002329245891826489,-0.005237003984536488,0.004089357827248878,-0.0005555747193284333,-0.005791238043457271,-0.007322417572140694,-0.15581459272652864,-0.2722917497903109,-9.833068435192107
17.4,0.8999999761581421,158.0,22.96135711669922,0.3021674156188965,-79.78279185812598,40.45897095581529,266.8937741327286,0.005904368590563536,0.01336376555263996,-0.7923686504364014,0.6098675727844238,-0.002301748830176525,-0.005535995053376056,0.004474723279551818,0.005151308607310057,-0.017614029347896576,0.010354083962738514,-0.1188916368596256,-0.2565726068615913,-9.808056970238686
17.5,0.8999999761581421,159.0,22.95885467529297,1.8209562301635744,-79.78279186308755,40.45897096045512,266.8942317771912,0.005824556108564138,0.013391342014074327,-0.7923573851585388,0.6098824143409729,-0.002931657411243325,-0.004972666732658978,0.004376725835973532,0.0013902036007493734,0.010732776485383507,-0.007313798647373916,-0.12947050164453686,-0.2290219519659877,-9.797560048699381
17.7,0.8999999761581421,159.0,22.93756866455078,0.5725277066230774,-79.78279192414392,40.45897103891888,266.89203272342684,0.005850400310009718,0.013451585546135902,-0.7923839092254639,0.6098464131355286,-0.0017445932358956873,-0.0029152272083727976,0.0032448656931422623,-0.016208494082093242,0.03174738958477974,-0.014135161414742468,-0.12884856803342698,-0.2153230037726462,-9.80141277909279
17.8,0.8999999761581421,159.0,22.966365814208984,0.3021674156188965,-79.78279200944392,40.45897114393229,266.88911209583284,0.0058624115772545355,0.013493692502379416,-0.7923761010169983,0.6098554134368896,-0.0035207782990220866,-0.006357381416107747,0.0018231316593686688,-0.004021064843982458,-0.005944818258285522,0.0011077129747718573,-0.13624159564264118,-0.2343019328825176,-9.812683871984484
18.0,0.8999999761581421,157.0,22.94508171081543,0.9939717650413512,-79.78279202153007,40.45897115147711,266.8895147252083,0.005836895201355219,0.013569597154855728,-0.7923156023025513,0.6099327206611633,-0.004730171685689334,-0.005676935337884101,0.002263109182190527,-0.02699735201895237,-0.013822122476994993,0.01728869415819645,-0.14705431250855328,-0.2553044006042183,-9.803435330986977
18.09,0.8000000119209291,157.0,22.80986022949219,3.101191759109497,-79.78279210206561,40.45897122051199,266.88817558765413,0.00583064230158925,0.013544275425374508,-0.792303740978241,0.6099486947059631,0.0031077516639092416,-0.006589390942793776,0.004406354340761871,0.017458710819482803,-0.004722192417830229,-0.002684165723621845,-0.13733819525688887,-0.28315817881375555,-9.812333039045336
18.3,0.8000000119209291,156.0,22.73849296569824,5.446965217590332,-79.78279216736522,40.45897129801386,266.88481317043306,0.005854243412613869,0.013539382256567478,-0.7923429608345032,0.6098975539207458,0.0020993075087857686,-0.0037205720499354188,0.004268298902337468,0.004377432633191347,0.006857900880277157,-0.005689689423888922,-0.1247558003012091,-0.2438709195703268,-9.808466860055923
18.4,0.8000000119209291,157.0,22.665874481201172,6.369370937347412,-79.782792171772,40.45897129741912,266.8852547812462,0.0057876436039805395,0.01347725000232458,-0.7923524379730225,0.6098873615264893,0.0019227950258708093,-0.003073461437846116,0.0038716594435841975,0.00020214685355313117,-0.0010233160573989153,0.00015606169472448528,-0.15381475361064076,-0.3212480013817549,-9.798655232191086
18.6,0.8999999761581421,157.0,22.55694580078125,8.19827938079834,-79.78279225829633,40.45897138180451,266.8829950499535,0.0058513982221484176,0.013576332479715349,-0.7924486994743347,0.6097593903541565,-0.0008447666362523623,-0.007114195978282284,0.005512044302027026,0.010050733573734759,-0.02401459589600563,0.0034489505924284467,-0.15953400660306216,-0.3201908613368869,-9.785921750664713
18.7,0.8999999761581421,158.0,22.47681427001953,9.605742454528807,-79.78279226613802,40.4589713850423,266.88376669168474,0.0058743031695485115,0.013327492401003838,-0.7924626469612122,0.6097466349601746,-0.003839426034615539,-0.008940566448284799,0.006883928142719631,0.017353074625134468,-0.0030400259420275693,0.039448671042919166,-0.1493871048744768,-0.2800684369727969,-9.78273852646351
18.9,0.8999999761581421,157.0,22.362876892089844,12.357056617736815,-79.78279235073934,40.45897144640676,266.879139046669,0.005903020966798067,0.013084297999739649,-0.7925214171409607,0.6096752285957336,0.004735300674051704,-0.012058407912130096,0.0032889915723141,0.019883176311850548,-0.0172304455190897,0.07430382817983627,-0.24260967515409,-0.4037482308223844,-9.741712707281113
19.0,0.8999999761581421,158.0,22.263965606689453,13.756568908691404,-79.78279235985332,40.458971445871065,266.87982461929323,0.006023301277309656,0.013043245300650595,-0.792608916759491,0.6095612049102783,-0.001811980543612932,-0.0031310385396123913,0.011196345913210514,-0.007496152073144913,0.052428975701332085,-0.03829055279493332,-0.030187831381335857,0.05768058970570565,-9.86342367053032
19.2,1.0,157.0,22.114971160888672,16.810050964355472,-79.78279240374056,40.458971508558115,266.87528316259386,0.007683383300900459,0.013133345171809195,-0.7926167845726013,0.6095302700996399,0.007938698923940243,-0.008892373651710576,0.010608208197276849,0.017059575766324997,-0.007643448654562234,-0.005574277136474848,-0.2148893230967224,-0.25056303961202503,-9.836956833601
19.3,1.0,157.0,22.031084060668945,18.16185188293457,-79.7827924806843,40.45897156714212,266.8697404074669,0.008665008470416069,0.01247745007276535,-0.7925628423690796,0.6096010804176331,0.0005008456341541479,-0.013898821112844751,0.004651591385474683,0.03146480396389961,0.021334471181035042,-0.10770739614963533,-0.2297730268165469,-0.14393599240109325,-9.716150434613226
19.5,1.0,157.0,21.86330986022949,22.11388397216797,-79.78279251203001,40.45897156353074,266.8717747139931,0.010104904882609844,0.010552452877163887,-0.7925137281417847,0.609679102897644,0.012286974510609958,-0.015951175805702045,0.012907971466197876,0.04345426708459853,-0.016639050096273422,0.12613338232040405,-0.13300718089565636,-0.10141744301654396,-9.840307288169859
19.6,1.100000023841858,158.0,21.76439666748047,23.42592620849609,-79.78279258815752,40.45897161226933,266.8670729804039,0.01159359049052,0.010158258490264416,-0.7923352122306824,0.6098912954330444,0.00655894242500545,-0.0004442180063999241,0.018370402124050927,-0.02474147267639637,-0.047321345657110214,-0.051848948001861565,-0.031246899180114283,-0.4655260376259685,-9.830433679819107
19.8,1.100000023841858,158.0,21.59161376953125,27.06783866882324,-79.7827926296994,40.4589716130777,266.86213616609575,0.011871484108269216,0.011829218827188015,-0.7925307750701904,0.6096015572547913,0.04879321134391952,0.015806782445964396,0.01771262046057554,0.13459104299545288,-0.0876440703868866,0.030588440597057343,0.1852751492522657,-0.4136410618945957,-9.783623794913293
19.9,1.2000000476837158,158.0,21.48894691467285,28.67409706115723,-79.78279262061146,40.458971569979475,266.8665525722504,0.010319960303604605,0.010948634706437588,-0.7918720841407776,0.6105015873908997,0.04713489095945994,0.015153758497305016,0.07716119490646266,-0.05510349199175835,0.14230555295944214,-0.021182337775826454,0.14593411389738326,0.028724501710385087,-10.239784383773804
20.1,1.2000000476837158,161.0,21.723079681396484,23.95869445800781,-79.78279281593187,40.45897159526557,266.8753749537468,0.00013765585026703778,0.006600622553378344,-0.7911800146102905,0.6115477085113525,0.04458906581964863,0.04374242588913493,0.24556658500967285,-0.20152179896831512,0.02925312146544456,0.034029215574264526,0.06129055101424456,-0.2614711117744446,-10.912243419885638
20.2,1.2000000476837158,160.0,21.843276977539066,20.388347625732425,-79.78279276741931,40.45897153785817,266.9044754910469,-0.008021805435419083,0.00252906559035182,-0.7913997173309326,0.6112412810325623,0.04405929957239165,0.049321797052868765,0.3294925650757149,-0.14688989520072934,-0.04597597196698189,0.1319665014743805,0.034292044581379744,-0.2681502583064139,-10.595728958845141
20.4,1.2000000476837158,160.0,21.699291229248047,23.577009201049805,-79.78279278433423,40.45897137612335,266.9493762660027,-0.004507971927523613,-0.006117371376603842,-0.7936382293701172,0.6083425879478455,0.0045225578728959465,0.07404223439929952,0.2558607635652564,-0.07197298854589462,0.1440865397453308,0.058207839727401726,0.00981464283540845,0.1089240162447095,-9.608463433384896
20.5,1.2999999523162842,160.0,21.690526962280273,24.35628318786621,-79.78279269434583,40.45897135421461,266.9733165311813,-0.001731518772430718,-0.008769999258220196,-0.7947457432746887,0.6068767309188843,-0.02632854946299664,0.09816204922813357,0.2145786616004975,-0.1915212571620941,0.010429998859763144,-0.051912009716033936,0.20527774309739472,0.017686233068816358,-9.425902251005171
20.7,1.2999999523162842,162.0,21.63167953491211,24.809534072875977,-79.78279254888227,40.45897151809757,267.0019715833664,-0.004432769026607275,-0.004949874710291624,-0.7955024242401123,0.6059141159057617,-0.017638896233668367,0.08804592426119176,0.1140019209425363,0.09075555205345154,-0.18209053575992584,-0.032044462859630585,0.19064232677221304,-0.3158623503148556,-9.529922463297844
20.8,1.399999976158142,161.0,21.624168395996094,25.14350891113281,-79.78279247416934,40.45897181956292,267.01105610609056,-0.002971822395920753,-0.003954569809138775,-0.7948430776596069,0.6067948937416077,-0.060088256373841215,0.0937948888230752,0.10319004548792138,0.21955373883247373,-0.05940885469317436,0.019464049488306046,0.12279315495863558,-0.08165669549256564,-9.644628462195396
20.9,1.399999976158142,162.0,21.63543701171875,24.83338928222656,-79.782792341823,40.45897187238739,267.02113203287126,-0.0009391902713105084,-0.0028564431704580784,-0.7937385439872742,0.6082516312599182,-0.0922984431162638,0.09423208085898226,0.09440703958454903,0.05657308176159859,0.10975969582796097,-0.09982533752918243,-0.013775172131136059,0.1693044846877456,-9.617473407983779
21.1,1.399999976158142,163.0,21.560312271118164,25.60471153259277,-79.78279209414187,40.45897199285222,267.0347960996628,0.003250008448958397,-0.003024908481165767,-0.7908138036727905,0.6120408177375793,-0.10372750693201084,0.10834214781964692,0.09081465466347843,0.08011996746063232,-0.0576133206486702,-0.07104015350341797,0.12289129681885246,-0.1990128352493048,-9.896534113883972
21.2,1.399999976158142,162.0,21.53276824951172,27.163259506225586,-79.78279194278491,40.4589720651936,267.0446835565567,0.005571790039539336,-0.002315858844667673,-0.7900992035865784,0.6129493117332458,-0.09549891568076868,0.08966465251671643,0.10014105560518108,0.21279403567314148,0.06900303065776825,0.14224132895469666,0.07561569945886731,-0.0244105539098382,-9.897753843069076
21.41,1.399999976158142,162.0,21.50271797180176,27.139404296875,-79.78279178992254,40.458972240749134,267.05119381427767,0.006704115774482489,-0.002838419517502189,-0.7895713448524475,0.6136155724525452,-0.11032445983510653,0.08301931506022492,0.1364829904692246,-0.05300579220056534,-0.02022941596806049,-0.0969032421708107,0.05774941326119006,-0.3064964995533228,-10.121094092130662
21.6,1.399999976158142,163.0,21.470165252685547,26.90085029602051,-79.7827916561913,40.45897256400943,267.0772913503647,0.009713279083371162,-0.004452780820429325,-0.7898429036140442,0.6132161617279053,-0.12434475947392802,0.059709595351255175,0.1960719355794596,-0.12182354182004927,0.054420214146375656,-0.0892808586359024,0.08562274309806528,-0.058535932288505135,-10.135610389709473
21.7,1.399999976158142,161.0,21.644201278686523,18.02667236328125,-79.78279156629866,40.45897264412107,267.0983544993401,0.01107215601950884,-0.003933948464691639,-0.7900494933128357,0.6129305362701416,-0.09555725595801072,0.04374424900994964,0.22155954227854274,0.12221116572618484,-0.011723659932613371,0.12441083788871765,0.12037887616083025,0.014649358280003072,-10.086234161853787
21.8,1.399999976158142,159.0,21.85329246520996,21.787860870361328,-79.78279148480233,40.45897284791063,267.0944030094147,0.0123659148812294,-0.00427754782140255,-0.7900296449661255,0.612929105758667,-0.11394044554591505,0.0547459753721799,0.1775912311501792,-0.13583418726921082,0.009423515759408474,-0.10616599768400192,-0.02551798686152324,-0.1145860761590302,-9.4899590831995
22.01,1.399999976158142,159.0,21.278602600097656,31.14709854125977,-79.78279133589666,40.45897298789559,267.10750053405764,0.009651361033320429,9.61723126238212e-05,-0.7894012928009033,0.6138015985488892,-0.08743791839378813,0.048416964950933436,0.00918714834814642,-0.12524698674678802,-0.1536644846200943,-0.10465484857559204,0.1861469691060484,-0.4424296088889241,-9.39836186528206
22.1,1.399999976158142,159.0,21.32993507385254,30.08951187133789,-79.78279124944136,40.45897301525576,267.1151220607758,0.005616310052573681,0.0018384202849119906,-0.7892623543739319,0.6140278577804565,-0.06180238363160084,0.04899853578080736,0.0638418539963945,0.022835351526737213,-0.04976530745625496,0.08308341354131699,0.12531239127740265,-0.27580974536016584,-10.389170218706134
22.3,1.399999976158142,159.0,21.03069496154785,35.98972702026367,-79.78279113165318,40.458973291499426,267.1357687520981,-0.0023814640007913113,-0.0033615161664783955,-0.788537323474884,0.6149730682373047,-0.10112546638855838,0.0433521338031892,0.2653362009671496,-0.11269289255142212,0.08291643112897873,-0.05687850713729858,0.057547451346181326,-0.052049245946109296,-10.896087563037872
22.5,1.399999976158142,154.0,20.866676330566406,38.772850036621094,-79.78279098845222,40.45897343633891,267.22382662773134,0.006950942799448967,-0.0053935982286930076,-0.7879125475883484,0.6157244443893433,-0.09064607208323487,0.035401735254665403,0.6477831957205987,0.09735188633203506,0.09774334728717804,0.1462295949459076,0.003029616018757224,-0.1793261006847024,-11.323755254745484
22.61,1.399999976158142,156.0,20.831619262695312,39.7270622253418,-79.78279099612756,40.45897370263732,267.26998410701754,0.008638755418360233,-0.007513371296226978,-0.7878966927528381,0.6157010197639465,-0.1238577791067398,0.025679838594425748,0.8446958978479333,-0.0606374628841877,0.03781264275312424,-0.040058836340904236,0.16226677592843772,-0.07928293607197702,-12.057432299852376
22.7,1.5,154.0,20.78278923034668,40.33934783935547,-79.78279095200824,40.45897380674037,267.3657719898224,0.006442717742174864,-0.008884330280125141,-0.7881437540054321,0.6153934597969055,-0.12740366106850262,0.02331566207851385,1.0723688090846248,-0.01263455767184496,-0.034234404563903816,0.1264895796775818,0.15375147577375176,-0.13002868233248593,-12.078502156734464
22.9,1.600000023841858,155.0,20.698902130126953,41.99331665039063,-79.78279103654808,40.45897417132219,267.5941531467438,-0.0010743755847215652,-0.004007452633231878,-0.7886165976524353,0.6148713231086731,-0.14748277751874356,0.012903510879571615,1.5238669451670162,0.08862928301095963,-0.10205309092998503,0.04104296863079071,0.14279838918708265,-0.08370294688269496,-12.166712082624436
23.09,1.600000023841858,153.0,20.665096282958984,41.9217529296875,-79.7827911355865,40.458974627785906,267.9044751930237,-0.003902625292539597,0.006506337784230709,-0.7884026765823364,0.6151127815246582,-0.190196248306622,-0.01256171308190948,1.9702325278062531,0.034834258258342736,-0.04986253008246422,0.1228945404291153,0.05601410583592952,-0.134474466573447,-12.2323330450058
23.2,1.7000000476837158,151.0,20.667600631713867,41.7468147277832,-79.78279106421591,40.45897480014124,268.1141412067413,-0.0016573740867897868,0.00817182008177042,-0.7878172993659973,0.6158525943756104,-0.21231137012262805,-0.011550913602018348,2.220148369032232,0.042095672339200974,0.03418812900781632,-0.08232887834310533,0.001689676302485168,-0.07374618016183376,-12.27596730709076
23.3,1.8999999761581416,151.0,20.653827667236328,41.794525146484375,-79.78279129426552,40.458975110808936,268.2630741405487,0.003884331090375781,0.0076194354332983485,-0.7873697876930237,0.6164216995239258,-0.2083454592161645,-0.013136737933262184,2.387257366528809,0.1710917502641678,0.1409979909658432,0.03430628776550293,0.08629874518141151,0.0011351821012794974,-12.2785307264328
23.5,2.0,152.0,20.296993255615234,36.16466903686523,-79.78279112826131,40.45897540798121,268.78589985847475,0.02078023366630077,0.007064526900649071,-0.7872775793075562,0.6162081360816956,-0.2219356924945462,0.04034618759838692,2.816783432402913,0.2098163366317749,0.08872085064649582,0.03148016333580017,0.10569307328201832,-0.05794933321885765,-11.868428070545194
23.6,2.200000047683716,154.0,20.293237686157227,35.592140197753906,-79.78279153565146,40.45897567039986,268.90915868759157,0.02644424326717853,0.01090313121676445,-0.7878397703170776,0.6152157187461853,-0.2295103017927997,0.051512179675921865,2.8281549495612683,0.014783175662159918,-0.0651286393404007,0.1109873577952385,0.18414490073919296,-0.10533224525861444,-11.269277915954593
23.8,2.200000047683716,158.0,20.41719055175781,32.54661178588867,-79.78279180406189,40.45897600582549,269.3034431743622,0.015652917325496674,0.020615406334400174,-0.7904563546180725,0.6119711995124817,-0.1997282231264808,0.035263520912936656,2.8822788990157027,-0.04157206043601036,-0.1791120171546936,0.060087449848651886,0.20580594766885044,-0.17539876347407699,-10.749592591524124
24.0,2.4000000953674316,162.0,20.499826431274414,32.125167846679695,-79.78279171147885,40.45897601992424,269.8923425483704,-0.0005782349035143852,0.013736751861870287,-0.7921627759933472,0.6101550459861755,-0.08489468959005361,-0.006653003939516779,2.9938373310397823,-0.1104554533958435,0.0007404129137285054,0.0031732979696244,0.09374663611873983,-0.09698988564312458,-10.512824796438217
24.1,2.5,165.0,20.678869247436523,29.509033203125,-79.78279185125754,40.45897619802836,270.0319802570343,-0.002493983833119273,0.005606915336102247,-0.7923341989517212,0.610056459903717,-0.039582200611787084,0.019729241741347325,2.8953429583531616,-0.11816273629665375,0.04215718805789948,-0.05470934882760048,0.17089763168245556,-0.18491234779357912,-10.015224405527118
24.2,2.5999999046325684,170.0,20.57870483398437,30.79722023010254,-79.78279175132225,40.45897617470254,270.320202331543,-0.003277915297076106,-0.001836246461607516,-0.7924200296401978,0.6099643111228943,-0.018278770994501918,0.06933673789379957,2.8667906086111383,-0.2143968790769577,0.14791588485240936,-0.021846657618880272,0.06493500175885858,0.032580690183676785,-9.587512274980543
24.4,2.5999999046325684,174.0,20.546152114868164,32.212635040283196,-79.78279166724954,40.458976287202795,270.7226691055298,0.002962643979117275,-0.012112081050872804,-0.791479766368866,0.6110681891441345,0.003905446402915805,0.1252512753340629,2.6785863471732605,0.045470938086509705,0.062375690788030624,-0.12217569351196288,0.18554415771737687,-0.1286300100758672,-9.464028435945512
24.6,2.5999999046325684,181.0,21.08077812194824,31.385652542114247,-79.7827917854302,40.45897634934342,271.01869009017946,0.014810844324529173,-0.010942053981125357,-0.7899265289306641,0.6129250526428223,-0.02383786433892336,0.1286182957865154,2.5339406461889404,0.0496593602001667,0.04321592673659325,-0.06781838089227676,0.23148260649293664,-0.24265696451067925,-10.038732551336286
24.7,2.700000047683716,183.0,21.288618087768555,27.958436965942386,-79.78279172871473,40.45897636219796,271.27346132278444,0.014253668487071991,-0.009756194427609444,-0.7894132137298584,0.6136191487312317,-0.04843115478489225,0.12365538195126426,2.549816512489097,0.0037295103538781404,-0.027015767991542816,-0.025848709046840668,0.2477482082694769,-0.2573234807141125,-9.953323441743851
24.9,2.799999952316284,192.0,21.133363723754886,30.82902717590332,-79.78279110852706,40.45897628850929,271.9211463737488,0.00864269956946373,-0.008702900260686873,-0.7884882092475891,0.6149277091026306,-0.03265940134553663,0.093507590885366,2.490430700675502,-0.02779603935778141,-0.015053307637572287,0.02652246505022049,0.08902568556368351,0.051001306129619485,-9.254270684123039
25.01,2.799999952316284,192.0,21.254812240600586,28.91264915466309,-79.78279107157063,40.45897629753989,272.1681289482117,0.007102545816451311,-0.010315058752894402,-0.788070559501648,0.6154576539993286,-0.03223732192636967,0.07865801053629838,2.445597847758189,-0.04382044821977616,-0.049878112971782684,0.00926636066287756,0.16372320771217347,-0.1979270438477397,-9.36261374294758
25.1,2.799999952316284,197.0,21.133363723754886,30.542762756347656,-79.78279053188193,40.45897635221407,272.55284116744997,0.007480965927243233,-0.011735904030501842,-0.7880038022994995,0.6155132055282593,-0.036308325524146576,0.08773628482989784,2.4449153900082683,0.030194945633411407,0.160320445895195,-0.03122531436383724,0.08997894616797568,0.05506786189042032,-9.257217096090317
25.3,2.9000000953674316,199.0,21.20848655700684,29.723730087280273,-79.78279014043397,40.458976436955865,273.1563782501221,0.011782627552747726,-0.011781764216721058,-0.7880476713180542,0.6153886914253235,-0.0715175582499959,0.10261894030921467,2.409511850655902,-0.0841980054974556,0.013360355049371721,-0.07888711243867874,0.20885227393358946,-0.08992741758003832,-9.38449226975441
25.4,3.0,203.0,21.175933837890625,29.763490676879893,-79.78279010233258,40.45897648953985,273.39509008407595,0.0137526523321867,-0.009734783321619034,-0.7883850336074829,0.6149513721466064,-0.06938837264809923,0.08471339284727064,2.35944516421565,0.1424797922372818,0.051339101046323776,0.10961295664310457,0.20872027304023505,0.006315641580149532,-9.3323690199852
25.6,3.0,205.0,21.125850677490234,30.39963150024414,-79.78278971292984,40.45897655309971,274.00030229568483,0.015979733318090442,-0.008132852613925934,-0.7894060611724854,0.6136094927787781,-0.11212669901518896,0.07811631307425831,2.362017355189069,-0.017044728621840474,0.08227214217185974,-0.02103613317012787,0.2141148593835533,-0.17846972113475204,-9.605907615423204
25.8,3.0,206.0,21.103315353393555,31.4890251159668,-79.78278936786933,40.45897661511796,274.6354651260376,0.013734480366110802,-0.0101112462580204,-0.7899168729782104,0.6129767894744873,-0.10385682378066112,0.06908038255907893,2.4064042272468926,-0.005385342985391617,-0.027105577290058136,-0.05622910335659982,0.18167785082012414,-0.12412050032056868,-9.603705554008483
25.9,3.0,207.0,20.89797782897949,34.288047790527344,-79.78278935662844,40.458976684299905,274.8749670791626,0.014044247567653656,-0.011483783833682535,-0.7900115251541138,0.6128235459327698,-0.1031258387227169,0.06447774267774678,2.3846636347689376,-0.04142141342163086,-0.055546291172504425,-0.07938580960035324,0.17585932306945326,-0.2386756684631109,-9.646279131174088
25.99,3.0999999046325684,209.0,21.04822540283203,31.902517318725586,-79.78278936043625,40.45897675763109,275.1138052749634,0.01634502410888672,-0.012238350696861744,-0.7898917198181152,0.6129063963890076,-0.09613733167134296,0.0556384257349355,2.3945633703220968,0.02160090953111649,0.08960714936256409,-0.07471505552530289,0.23995500270277265,-0.20460176842287184,-9.844821338653565
26.2,3.2000000476837163,213.0,20.88670921325684,34.431182861328125,-79.78278911689158,40.45897680316839,275.76355312347414,0.018465584143996242,-0.011234707199037077,-0.7899376153945923,0.6128061413764954,-0.11018111510865056,0.0594499735187719,2.4989331052151624,-0.04597754776477814,0.0558457300066948,-0.0008010172750800848,0.18990208754315974,-0.15505911419168114,-10.024999780654909
26.3,3.2000000476837163,217.0,21.0382080078125,31.4890251159668,-79.78278873560791,40.45897693298266,276.18746994018557,0.0194986779242754,-0.011312203481793405,-0.7897179126739502,0.613055944442749,-0.13527743255658078,0.07287017915817272,2.6340897474246154,-0.08235742151737213,0.011226389557123184,-0.04201072826981545,0.2893354149721563,-0.2807104612514377,-10.198213019371032
26.49,3.0999999046325684,220.0,21.06074523925781,31.369747161865234,-79.78278879650975,40.45897710139057,276.71572063446047,0.01776205562055111,-0.009576343931257723,-0.7896465063095093,0.6132302284240723,-0.13685073970500952,0.05224958185503822,2.6227638035199936,-0.1134331151843071,-0.05042416974902153,-0.08034933358430862,0.2097630874067545,-0.11508978637866675,-9.598985096812248
26.7,3.0999999046325684,223.0,21.13837242126465,29.866863250732425,-79.78278866315087,40.45897699836966,277.4490103530884,0.015553361736238003,-0.009306506253778934,-0.7899885773658752,0.6128537058830261,-0.0917371439205958,0.021265978285764577,2.684598983300167,-0.051748629659414284,-0.02362540923058987,-0.009646820835769176,0.2279218897037208,-0.20582312386482954,-9.610367871522906
26.81,3.0999999046325684,222.0,20.954320907592773,32.82492446899414,-79.7827887275909,40.45897685617214,277.8692126083374,0.018010826781392097,-0.008611295372247696,-0.7902430295944214,0.6124682426452637,-0.05900078661895775,0.016040101717286356,2.7532744116041585,0.05530986934900284,0.1171112209558487,0.0670480951666832,0.15271202355623245,0.07044470059219747,-9.516739330887797
26.9,3.0999999046325684,225.0,20.945556640625,33.89046096801758,-79.78278881732341,40.458976891997146,278.1435904312134,0.02024502120912075,-0.0074915941804647454,-0.7902577519416809,0.6123943328857422,-0.05659441196172148,0.005104244582633394,2.7403736428331076,0.14444983005523682,0.06096861883997917,-0.03513067215681076,0.21799689894542096,-0.13079950067214668,-9.66214964389801
27.11,3.0999999046325684,227.0,20.990629196166992,33.747329711914055,-79.78278878566691,40.45897727704165,278.7013535308838,0.02078183926641941,-0.005959669128060341,-0.7898593544960022,0.6129068732261658,-0.10469228716205953,0.006648448360770512,2.762307814150486,-0.04427564516663551,-0.09888304024934767,-0.10603950917720796,0.3198538424447179,-0.009942525553051385,-9.82676279783249
27.3,3.0,230.0,20.95181655883789,32.4989013671875,-79.7827888192323,40.458977360513465,279.33439014434816,0.01463156193494797,-0.007189215626567601,-0.7889330387115479,0.6142630577087402,-0.06275394083407361,-0.011731647775420543,2.828240488785502,-0.059372473508119576,-0.07165414839982986,-0.05012521147727966,0.3304536384344101,-0.12692532744258642,-9.828995264768599
27.39,3.0,232.0,20.93804359436035,33.254318237304695,-79.78278893874908,40.458977385519376,279.6176352310181,0.012702926993370056,-0.008851655758917332,-0.7883267402648926,0.6150619983673096,-0.051290716875743415,-0.020234213602851426,2.839994368575084,-0.1369539052248001,-0.012555672787129879,-0.11483479291200638,0.2857274088263512,-0.2265162738785148,-9.941513235569
27.5,3.0,235.0,20.8917179107666,34.319854736328125,-79.78278906326314,40.458977410796884,279.90226600646974,0.011377234011888504,-0.010603705421090126,-0.7878343462944031,0.6156909465789795,-0.033848338518247915,-0.024633758562276342,2.860695075140109,-0.0827932208776474,0.05731625482439995,-0.0271214060485363,0.2113054184429348,0.026820739656686785,-10.010340811014176
27.7,3.0999999046325684,236.0,21.11833953857422,29.25457572937012,-79.78278928164542,40.45897738720375,280.4842381286621,0.012171951122581959,-0.009572266601026058,-0.7875809073448181,0.616016685962677,0.010747811472202535,-0.01700772867988491,2.9302569133829697,0.07446565479040146,0.020440541207790368,-0.07974091172218323,0.22254318220540886,-0.030867652427405117,-10.037462536096571
27.8,3.0999999046325684,237.0,20.89547348022461,33.691665649414055,-79.78278955878305,40.45897732690532,280.7604565429688,0.011962776072323322,-0.0074627487920224675,-0.7881597280502319,0.6153092384338379,0.027269107440470827,-0.03307138058805105,2.9135376090965317,0.10226095467805862,-0.051979340612888336,0.013937651179730892,0.2782825876772404,-0.042491816645488144,-9.74554965019226
28.0,3.0999999046325684,238.0,20.980613708496094,31.12324333190918,-79.78278984685807,40.458977309069574,281.34150550842287,0.01245679147541523,-0.006295127794146539,-0.7889955639839172,0.614240288734436,0.009103146367001054,-0.03862477296783458,2.9192914701150743,0.029155215248465538,0.010006767697632313,-0.04539778828620911,0.3237149051204324,-0.11943492542020975,-9.91692335486412
28.2,3.0999999046325684,239.0,20.91550636291504,32.74540328979492,-79.78279018795799,40.45897738015813,281.91151473999025,0.011838362552225591,-0.004459574818611145,-0.789545476436615,0.613561749458313,-0.0047541626082491795,-0.03600773094371558,2.9269712830489967,-0.07576712220907211,0.017161589115858078,0.021820159628987312,0.2845018506981433,-0.11745105651207267,-9.812293277978895
28.3,3.0999999046325684,240.0,20.906742095947266,33.492870330810554,-79.78279039964548,40.45897748384787,282.1916508483887,0.012061497196555138,-0.005253542214632034,-0.7898653149604797,0.6131392121315002,-0.00756355321132073,-0.04362391443273381,2.9415105388914986,-0.149759441614151,-0.05235521122813225,-0.08780624717473984,0.3454187098145485,-0.30110872887074946,-9.887035896778109
28.4,3.2000000476837163,241.0,20.894222259521484,33.11913681030273,-79.78279053448763,40.45897747132613,282.48573348999025,0.011339928023517132,-0.005784860346466303,-0.7899887561798096,0.6129893064498901,-0.0058315245706790225,-0.03144626150879558,2.9475558719953314,-0.11156436800956726,-0.06545501947402954,-0.13346019387245178,0.275937781110406,-0.1530544968042523,-9.867224360704425
28.6,3.2000000476837163,240.0,20.887962341308594,33.755279541015625,-79.78279081360742,40.458977506836604,283.0577950286865,0.011240772902965546,-0.00482912827283144,-0.7896744012832642,0.6134042143821716,0.010889817317908574,-0.034120957673271037,2.9669650622106527,0.01553048100322485,-0.04664866626262665,-0.07263649255037308,0.21327686201781035,-0.0756666890066117,-9.91697013258934
28.8,3.2000000476837163,239.0,20.91175079345703,33.30202865600586,-79.78279108951135,40.45897767240609,283.6329769897461,0.011102278716862202,-0.004960238467901945,-0.7889514565467834,0.6143351793289185,0.0030624739503594296,-0.03618777041826402,2.9942902721902973,0.050867091864347465,-0.00852296408265829,-0.04062863066792488,0.2062856568954885,-0.10108191333711147,-9.915344606637957
28.9,3.2000000476837163,239.0,20.89797782897949,32.29215240478516,-79.78279120428202,40.45897766883872,283.9325089263916,0.01032366044819355,-0.00503844628110528,-0.7888408899307251,0.6144902110099792,0.00014095339017909138,-0.024911694800977817,3.003581801494922,0.04927679523825645,0.009201563894748688,0.0037362682633101936,0.1984881024621427,-0.10016563637182116,-9.923010306358336
29.1,3.2000000476837163,236.0,21.269838333129886,25.5649528503418,-79.78279149266021,40.458977771237,284.5097374725342,0.008422454819083214,-0.0062429681420326216,-0.7887746095657349,0.6145931482315063,-0.0056991774876701115,-0.02438752967435797,2.9562354025021493,-0.05857082456350327,0.07910408079624176,0.0327751561999321,0.2319377208687365,-0.01874216255731881,-9.365468353629113
29.2,3.2000000476837163,238.0,21.20848655700684,27.25072860717773,-79.78279159034166,40.45897777326598,284.80121658325197,0.007929563522338867,-0.007165664341300727,-0.7887087464332581,0.6146740913391113,0.006892319646204874,-0.016274730007142017,2.871126381594978,0.04167674854397774,-0.06387674808502197,-0.026173701509833336,0.3564481665194035,-0.32368168562650684,-9.06914432823658
29.3,3.0999999046325684,239.0,21.30739974975586,25.41386985778809,-79.78279178078135,40.45897787753972,285.0796494293213,0.010055558755993843,-0.0078096440993249425,-0.78861004114151,0.6147617697715759,0.017603116864734456,-0.02627176162366973,2.789511466029768,0.1880663484334945,0.06521081924438478,0.13557833433151245,0.32492140498012306,0.1427588565275073,-8.858722917437555
29.5,3.0999999046325684,239.0,21.26357650756836,25.58085632324219,-79.78279195854702,40.45897788491384,285.6141419219971,0.013930169865489006,-0.0074464655481278905,-0.7878021001815796,0.6157258749008179,-0.026495624830936173,0.008262254220004536,2.543525871964233,-0.15347912907600406,-0.020036248490214348,-0.13941724598407745,0.18624609768390651,-0.23594246059656146,-8.47533092737198
29.6,3.0,240.0,21.282358169555664,25.80350685119629,-79.78279210586138,40.4589779239294,285.8535332489014,0.014147412963211538,-0.00664389505982399,-0.7873721718788147,0.6162797808647156,-0.03012214388932357,0.003861500169792528,2.4387936554017378,-0.05988437682390212,-0.048380929976701736,-0.07848160713911058,0.2143334173411131,-0.1485586183704436,-8.520278474092484
29.8,2.9000000953674316,241.0,21.33995246887207,24.658451080322266,-79.78279232161616,40.45897806596697,286.3065266418457,0.013596042059361936,-0.006563609931617975,-0.7872165441513062,0.6164919137954712,-0.0294765172706396,-0.010411256185231643,2.196847461678728,-0.12027483433485033,-0.05000836029648782,0.0029375539161264896,0.15695883801206947,-0.10639880480244757,-8.464777287840842
29.99,2.799999952316284,243.0,21.175933837890625,26.932659149169922,-79.78279249605427,40.458978070421075,286.72085998535164,0.014746864326298237,-0.006072642281651497,-0.7880719900131226,0.6153765320777893,-0.01384695094314,-0.013269194338537186,1.968547595256552,-0.05474923178553581,-0.05510946735739708,-0.012821306474506857,0.12736776066944006,-0.18920840676873926,-8.516266114711764
30.09,2.700000047683716,244.0,21.33369255065918,24.49941635131836,-79.78279264263973,40.45897817522729,286.906176071167,0.015117634087800981,-0.00594202009961009,-0.7887420654296875,0.6145097017288208,-0.003053710023071572,-0.01838416350779343,1.9083617818527776,0.10188689827919006,-0.05787159129977226,0.00896967202425003,0.3781910379230976,-0.3158318351581693,-8.985197022557257
30.19,2.5999999046325684,244.0,21.272340774536133,26.15338516235352,-79.78279273037063,40.45897817436202,287.0921349334717,0.015424858778715134,-0.00605767872184515,-0.7892474532127379,0.6138516664505005,0.008729202892565357,-0.025430934306877803,1.8087219578693319,0.2101549655199051,-0.015101866796612741,0.09083233028650284,0.2957326891645789,-0.16397153165191414,-8.880076949000358
30.4,2.5999999046325684,245.0,21.24354362487793,27.00422477722168,-79.78279292959716,40.458978330866564,287.43842170715334,0.017043765634298325,-0.004508713725954293,-0.7896051406860352,0.6133619546890259,0.0007056918507247188,-0.02624281076218133,1.6578600862841109,0.06526168435811996,0.043277658522129066,0.06761445105075836,0.29385222461074595,0.07630848487839104,-8.901836777329445
30.5,2.5,245.0,21.172178268432614,27.64831733703613,-79.78279301523888,40.45897831772217,287.6003022003174,0.01821510121226311,-0.002738025039434433,-0.7894729375839233,0.6135089993476868,-0.004997811233268161,-0.02243503097866327,1.5855008330221452,-0.026753755286335945,0.05461081862449646,-0.036068573594093316,0.2340562219172717,0.01024171341676265,-9.027942507863044
30.7,2.4000000953674316,245.0,21.249805450439453,25.843265533447266,-79.78279315055686,40.458978388317966,287.9146218109131,0.020583277568221092,-0.001642230665311217,-0.7884969115257263,0.614691972732544,0.0040021513945909725,-0.01671725050426479,1.5083170594716775,-0.06884612888097763,-0.09658338874578476,-0.024243952706456184,0.34141102820634844,-0.37252059090882544,-9.219517757892607
30.9,2.299999952316284,243.0,21.31616401672364,24.865196228027344,-79.78279339893929,40.45897842156435,288.2066674041748,0.0213962160050869,-0.0037540029734373093,-0.7877776622772217,0.6155766248703003,0.0467401580452701,-0.017651359778775126,1.401595944176342,0.16371768712997434,0.018557146191596985,0.014718336053192616,0.3092310230433941,-0.1576738976687193,-9.14579840183258
31.0,2.299999952316284,243.0,21.31741523742676,24.35628318786621,-79.78279349197119,40.458978365353936,288.3429055023193,0.02053835056722164,-0.0047918190248310575,-0.7876024842262268,0.6158226132392883,0.052578273528723005,-0.024815567661174816,1.3233399414116045,0.05564053729176521,0.006937102880328894,0.12463878840208055,0.2644486967101693,-0.014329296313226225,-9.023927224874496
31.1,2.299999952316284,242.0,22.078662872314453,12.22187614440918,-79.78279362228648,40.458978559708186,288.45767639160164,0.017510322853922844,-0.00715087540447712,-0.7875049114227295,0.6160181164741516,0.034099690885490135,-0.02571378080734714,1.2333649163251774,-0.1510428637266159,-0.027950430288910862,0.029627664014697075,0.16033423461019994,-0.11863434109836818,-7.386775839328767
31.3,2.200000047683716,241.0,21.41257095336914,22.17749786376953,-79.78279385145609,40.458978667076934,288.6106953430176,0.006348675116896629,-0.012894200161099434,-0.7619979381561279,0.6474199295043945,-0.0043630436718446715,-0.05115000317957505,0.7188124790045359,-0.16008442640304565,0.004302818328142165,-0.9260185956954956,0.1240931463148445,-0.1604817671701312,-7.54908928334713
31.5,2.200000047683716,239.0,21.378765106201172,23.55315399169922,-79.78279402636663,40.45897870745267,288.7194027709961,0.006250443868339062,-0.007963565178215505,-0.6972728371620178,0.7167343497276306,-0.011931256047279421,-0.06943146430408108,0.4009035464461173,0.249700129032135,0.009520748630166056,-0.8236170411109924,0.2008400353230536,-0.32218395788222554,-7.950221140980721
31.6,2.200000047683716,231.0,21.354976654052734,24.403993606567386,-79.7827941717195,40.458978935195,288.6601624298096,0.009708032943308352,-0.003311965148895979,-0.662091851234436,0.7493525147438049,-0.03472390299196932,-0.06302281081438073,0.2726591329349046,0.21639646589756006,0.04083017632365227,-0.915658712387085,0.20971773494035006,0.014090172601863744,-8.735133828520775
31.7,2.0999999046325684,235.0,21.29988670349121,24.952667236328125,-79.78279424583793,40.458978973026454,288.6833557891846,0.012796631082892418,-0.0005164715694263577,-0.6295028924942017,0.7768926024436951,-0.04649299465628958,-0.050454632647692337,0.19468572279504254,0.0666937381029129,-0.03975886479020119,-0.695180356502533,0.3577442384138704,-0.07586368535645306,-8.968723077178002
31.91,2.0999999046325684,236.0,21.03695678710937,29.49312973022461,-79.78279449704497,40.458979167044674,288.5796551513672,0.015226022340357304,-0.0007194879581220447,-0.5825920701026917,0.8126218914985657,-0.022684198724776082,-0.02463747688372189,0.05746740428671612,0.032441508024930954,0.026765663176774986,-0.4662033319473266,0.3575932706147433,-0.08071637185290456,-9.456665621995926
32.0,2.0,226.0,21.25982093811035,25.636518478393555,-79.78279452918792,40.458979172388744,288.5863442230225,0.018616558983922005,-0.0005985797615721822,-0.5688313245773315,0.8222432732582092,7.608384103843996e-05,-0.009777366644450752,0.07855757567385044,0.061607073992490775,-0.0645507350564003,-0.1908913552761078,0.4144574062898755,0.11866229809820653,-9.8236298596859
32.19,2.0,226.0,21.174680709838867,27.28253555297852,-79.78279473839736,40.45897935105969,288.42968414306637,-0.005709701683372259,0.02429661899805069,-0.5589154362678528,0.8288489580154419,0.04382303701272585,0.10800157480645632,-0.019482818024948268,0.10720175504684447,-0.6596805453300476,0.01688762940466404,0.6679736369848251,-0.15899518568068746,-9.610702332258224
32.39,1.8999999761581416,229.0,21.026939392089844,29.795297622680664,-79.78279438196262,40.45897955172956,288.3267254638672,-0.05564768239855766,0.05723988637328147,-0.5625320076942444,0.822912335395813,0.0736980406028081,0.3434974846600833,-0.012032504226679638,-0.16945551335811615,-0.5242945551872253,-0.004148364532738924,0.07660795368254185,-0.2737273143231869,-9.929339332580566
32.5,1.7999999523162842,230.0,21.152145385742188,27.9266300201416,-79.78279387807845,40.45897961659696,288.32290313720705,-0.07391009479761124,0.06524708122015001,-0.5665073394775391,0.8181378245353699,0.09827108153654857,0.5207642811067806,0.06166040873397435,-0.0982157289981842,-0.3764341175556183,0.1657664030790329,0.11063360505737364,-0.27685787703841924,-10.160144137144087
32.59,1.7000000476837158,213.0,21.061996459960934,29.19891357421875,-79.78279315783955,40.45897998995388,288.28280685424807,-0.08380686491727829,0.06739484518766402,-0.571276068687439,0.8136819005012512,0.10832129542144966,0.7148201956220797,0.13944134974068573,0.1267697513103485,-0.13750086724758148,0.2532473206520081,0.1376925547979772,-0.06072428472340107,-10.202027742862702
32.79,1.600000023841858,211.0,21.09079360961914,28.11747169494629,-79.78279117559629,40.45898082063119,288.2564892578125,-0.088967464864254,0.06813609600067139,-0.5810568332672119,0.806111216545105,0.03643320684417155,1.1681229756013902,0.2869104346570295,-0.2389928996562957,-0.06999584287405014,0.07707232981920242,0.20115761222317816,-0.17894477086141705,-10.098880519866944
33.0,1.5,205.0,21.13837242126465,27.3620548248291,-79.7827879118158,40.45898157568854,288.25924537658693,-0.09668966382741928,0.07146788388490677,-0.586730420589447,0.80080646276474,0.0057548828245439715,1.6551965271178033,0.3974650601577247,-0.171663299202919,-0.18715846538543696,0.019196216017007828,0.28228073101490736,0.07653522893786431,-10.068549842834473
33.1,1.5,201.0,21.03194808959961,29.278430938720703,-79.78278613966427,40.45898267435509,288.22201011657717,-0.10228992253541946,0.07448550313711166,-0.587279200553894,0.7994323372840881,-0.03362139448767116,1.8808902379525267,0.4685330802596422,0.03229102864861488,-0.02010283060371876,-0.007940179668366909,0.03661568468436599,-0.030983523228205738,-10.030215497016908
33.3,1.5,186.0,21.07451820373535,28.332170486450195,-79.7827814985436,40.458984545612005,288.1969532775879,-0.11414407193660735,0.0803549662232399,-0.5845775008201599,0.7992393374443054,-0.1160937624440953,2.3742856244658856,0.6769394520312149,-0.12088704854249956,-0.12620675563812256,-0.023545509204268456,0.15426740119233728,-0.02448815742507577,-10.17750452041626
33.4,1.5,175.0,21.02568817138672,29.413612365722656,-79.78277860302188,40.45898535072625,288.2001957702637,-0.11970964819192885,0.08348430693149568,-0.5822755694389343,0.7997845411300659,-0.11339419410267787,2.638306450616723,0.7954988908403475,-0.024658003821969032,-0.05191964656114578,-0.021977437660098083,-0.03223458069842309,0.11106764204800128,-10.285012596845627
33.5,1.5,150.0,21.015670776367188,29.64421272277832,-79.78277538462085,40.458986243806116,288.20336196899416,-0.12375939637422564,0.08783091604709625,-0.5798241496086121,0.8004832267761229,-0.09747687502583086,2.9073863647128126,0.905871872789202,0.11980179697275165,-0.16713282465934753,0.035754632204771035,-0.05012983345426618,0.0698558905441314,-10.180554428100589
33.7,1.600000023841858,136.0,20.929279327392575,30.75746154785156,-79.78276847829221,40.45898902657126,288.1575188446045,-0.12540780007839206,0.09616398066282272,-0.5760720372200012,0.8019766807556152,-0.1441378924753895,3.4383636475723303,1.1358201707740498,-0.006486061494797468,0.09445002675056458,-0.05221564695239067,-0.19871208736673,0.00469741551205516,-10.235308924913406
33.8,1.8999999761581416,109.0,20.91550636291504,30.36782455444336,-79.78276478705054,40.458991188638656,288.1115097808838,-0.1233505755662918,0.0973471850156784,-0.5747563242912292,0.8030959963798523,-0.19842512898919026,3.702496731662338,1.2348225743473722,-0.01612645573914051,0.08544019609689713,-0.07198276370763779,-0.2818511616624892,0.07439777011983098,-10.239631186723713
34.0,2.0,98.0,21.10456657409668,28.26060485839844,-79.78275555937086,40.458993910815494,288.11618659973146,-0.11848406493663788,0.0963543951511383,-0.5750012397766113,0.8037729263305664,-0.16390702227886084,4.251433405469709,1.368498597588365,0.05320777371525765,0.015509338118135927,0.05239412933588028,-0.2769433742947877,-0.012628677038010213,-9.951086297035218
34.2,2.4000000953674316,83.0,21.13711929321289,27.74374008178711,-79.78274579032927,40.4589982159766,288.0802426147461,-0.11491653323173524,0.09470607340335846,-0.5745118260383606,0.804836094379425,-0.2289145006626884,4.7580642540439415,1.4197259539239586,-0.1352192461490631,0.10411787033081056,-0.09203644841909407,-0.458184566013515,-0.14758690249174833,-9.828239804506305
34.3,2.700000047683716,77.0,21.15089225769043,26.455551147460927,-79.78274076463681,40.45900093796879,288.0710682678223,-0.1126381978392601,0.09485087543725967,-0.5737313628196716,0.8056975007057191,-0.30268536120651257,4.980096425189888,1.435663229451544,-0.05266427993774414,0.014439021237194538,-0.0012870950158685446,-0.512627004235983,0.06007162582129241,-9.71311806857586
34.4,3.2000000476837163,68.0,21.08077812194824,27.74374008178711,-79.78273496193377,40.459002720938,288.06063697814943,-0.11016104370355606,0.09551209211349487,-0.5741941332817078,0.8056321740150452,-0.26596763585545685,5.214536891129222,1.4484002871178001,0.0485316663980484,0.0068253842182457464,-0.016066929325461388,-0.4837826894223689,-0.12232395244762302,-9.688394286632539
34.61,3.5,66.0,21.169673919677734,26.19314384460449,-79.78272333252256,40.45900777630622,288.0478062438965,-0.10458900779485704,0.09706006199121477,-0.5730699300765991,0.8069891929626465,-0.3479332609018093,5.637849013378582,1.4877614490620883,-0.00633327243849635,-0.004069540649652481,0.0444214753806591,-0.6256578489392997,-0.32946355864405635,-9.861090631484986
34.8,4.099999904632568,61.0,21.046972274780273,28.729759216308594,-79.78271146766504,40.45901361683377,288.05814407348635,-0.10156972706317904,0.09894943982362747,-0.5711499452590942,0.8085049390792847,-0.4342330381970987,6.010425746440368,1.5573656951867676,-0.12133733928203586,0.034279484301805496,-0.0994236096739769,-0.6366928604990244,-0.3479407966509462,-9.75737739801407
34.9,4.300000190734863,60.0,21.10456657409668,27.560848236083984,-79.78270458944537,40.459015811513076,288.0422386932373,-0.10218425840139388,0.09794621914625168,-0.5712690353393555,0.8084656596183777,-0.3792802268592183,6.210057075267657,1.6144632065648927,-0.17095427215099335,0.0043162559159100064,-0.15088072419166565,-0.7283622184395792,-0.4042042040079832,-10.023996398448944
35.0,4.900000095367432,58.0,21.009410858154297,28.578676223754893,-79.78269747598738,40.45901804725733,288.02662704467775,-0.1041533499956131,0.09541613608598708,-0.5712270140647888,0.8085466027259827,-0.3536383836301213,6.402144004126903,1.6696688201734933,-0.17866578698158264,0.08009305596351624,-0.1689581423997879,-0.8620801466703415,-0.4040541498363017,-9.974726589918136
35.2,5.099999904632568,59.0,20.9993953704834,30.84493064880371,-79.78268387597446,40.45902484573647,288.03701255798336,-0.10034673660993576,0.09241762012243272,-0.5700681805610657,0.8101924657821655,-0.4033825551224096,6.748104876567353,1.7566999059061232,-0.0010799255687743423,0.035617586225271225,0.025259662419557568,-0.8532087510824204,-0.12373309487476945,-9.909702043533326
35.3,5.599999904632568,59.0,20.854156494140625,31.80709648132324,-79.78267694091845,40.459029002871816,288.0361237335205,-0.0983329340815544,0.09449096769094467,-0.5686661601066589,0.8111850023269653,-0.5190567450274548,6.9275556614952505,1.7732441122893918,0.06256087869405746,0.00601784186437726,-0.10212509334087372,-0.9288130301982164,-0.324435318633914,-9.924834637641908
35.5,5.9000000953674325,59.0,21.0382080078125,28.610483169555664,-79.78266103472768,40.45903424799417,288.0149807739258,-0.09830263257026672,0.10060424357652664,-0.5699931979179382,0.8095203638076782,-0.4651794239965794,7.260628356807344,1.9181140042232872,0.027275245636701584,0.048724517226219184,-0.17401248216629028,-1.0370000414550304,-0.3444363044947386,-9.97632404923439
35.7,6.300000190734862,59.0,20.96934509277344,30.0736083984375,-79.78264501601109,40.4590416280986,287.990498046875,-0.104887492954731,0.0978892147541046,-0.5677556991577148,0.8105984330177307,-0.5373694173683812,7.5895163210139724,2.03200730140052,-0.15817862749099731,0.013809299096465107,0.012804019264876842,-1.063368133530021,-0.14307473408058285,-9.822946904897693
35.8,6.5,58.0,20.960580825805664,30.32011413574219,-79.78263717405856,40.45904669201645,287.97427032470705,-0.10825041681528093,0.0962410718202591,-0.5648555159568787,0.8123779296875,-0.6491719403850966,7.749288845865997,2.114391190439421,-0.06747286021709442,-0.05642428994178773,0.1317683756351471,-1.164260012358427,-0.06478850159794093,-9.79429145514965
35.9,6.800000190734862,58.0,20.850400924682614,30.99601554870605,-79.78262841050291,40.45904969819541,287.9612355041504,-0.11082956194877623,0.0958673730492592,-0.5647398233413696,0.8121546506881714,-0.5665958239041169,7.923899884038239,2.2026958388759983,-0.06234898790717125,0.0016128831775858998,-0.1748630702495575,-1.1272768118977547,-0.4015860766544938,-9.898550233840943
36.1,7.0,58.0,21.03194808959961,27.84711265563965,-79.78261083891195,40.45905803568028,287.9236435699463,-0.11599398404359818,0.09564907103776933,-0.562620997428894,0.8129294514656067,-0.6813258030963031,8.240963903627442,2.4260759577003768,-0.097293458878994,-0.03322910889983177,0.11007095128297806,-1.108694433644414,-0.14026539363898338,-10.140760617256165
36.3,7.400000095367432,58.0,20.836627960205078,32.20468521118164,-79.78259216975573,40.459066119243545,287.8757614898682,-0.117731936275959,0.09585189819335938,-0.5607415437698364,0.813953697681427,-0.7122035070074705,8.578262296007454,2.5950901957416224,0.05281214788556099,0.04214198142290115,-0.11174944043159483,-1.310415260642767,-0.14564204547554255,-10.023595279455185
36.4,7.599999904632567,58.0,20.906742095947266,32.14902114868164,-79.78258245669036,40.45906956565864,287.8686604309082,-0.1188977062702179,0.09628688544034958,-0.5604395270347595,0.8139408826828003,-0.6674270651891276,8.752578646606606,2.663670944761366,0.007264744024723769,0.04300900176167488,-0.0189389418810606,-1.2551228199899198,-0.3570399778336287,-10.105877298116685
36.6,7.900000095367432,58.0,21.03194808959961,28.90469741821289,-79.78256269116069,40.45907828641347,287.8164715576172,-0.12046578526496887,0.09609255194664,-0.5576202273368835,0.8156678080558777,-0.7503868542275075,9.086934425345646,2.804523124655308,-0.0862952172756195,-0.09399664402008057,0.05392060428857803,-1.4294072686135768,0.023857918940484533,-9.811229084730149
36.7,8.100000381469728,58.0,20.7802848815918,32.90444183349609,-79.78255243507499,40.45908197759504,287.80928848266603,-0.12307121604681015,0.09597183018922806,-0.5567377805709839,0.8158958554267883,-0.6944433092444557,9.251526865685824,2.8413190775230865,-0.04647033661603928,-0.08838356286287308,-0.12031125277280807,-1.355131696164608,-0.2867137610167265,-9.679054529070855
36.8,8.399999618530272,57.0,20.96934509277344,30.328065872192386,-79.78254228391448,40.45908743169643,287.75814865112307,-0.12681788206100464,0.09596369415521623,-0.5547344088554382,0.816687285900116,-0.7725428005650595,9.406304928906136,2.9343664196787484,0.06592405587434769,-0.08164156973361969,-0.017775308340787888,-1.4997198906540872,0.14944460858590902,-9.866689925193787
37.0,8.600000381469728,57.0,20.95807647705078,29.99409103393555,-79.78252089966799,40.4590952701411,287.7407231140137,-0.1308857649564743,0.100311778485775,-0.5541660785675049,0.8159083724021912,-0.7280855804732796,9.703931353982627,3.1653187840464208,0.11259738355875015,0.012968786992132664,0.09478583186864853,-1.3972155690193178,-0.08203387744724751,-9.790950356125832
37.1,8.899999618530273,57.0,20.92176818847656,30.51890754699707,-79.78251016179459,40.45910083948027,287.6793064880371,-0.1335369497537613,0.10233012586832048,-0.5522651076316833,0.8165169358253479,-0.8411427388093402,9.856038037079475,3.247277547782752,-0.0536678284406662,-0.14752084016799927,0.1840904057025909,-1.61585246399045,-0.25787774194031954,-9.8209109044075
37.3,9.100000381469727,57.0,20.81283950805664,32.323959350585945,-79.78248754048363,40.4591103970874,287.62919090271,-0.13685467839241028,0.1052144020795822,-0.5508792996406555,0.8165371417999268,-0.8814716945531069,10.154829936862827,3.4797205264668967,-0.02495463378727436,0.023152576759457588,-0.03561142832040787,-1.7051110880076883,0.03800485521554947,-9.791340365409852
37.5,9.399999618530273,55.0,20.840383529663086,31.775287628173828,-79.78246438825046,40.459119125064994,287.6079163360596,-0.13796785473823547,0.10594173520803453,-0.5507776141166687,0.8163242936134338,-0.8465626905755944,10.475263754964477,3.6682509200418174,0.05761481076478956,0.047589175403118134,0.07652310281991959,-1.5487882626056673,-0.018499530516564847,-10.016654634475707
37.6,9.600000381469727,54.0,20.7990665435791,32.435287475585945,-79.78245237735561,40.45912451271013,287.57095764160164,-0.14025111496448514,0.1078842356801033,-0.5497409105300903,0.8163795471191406,-0.9058363158764032,10.635120912947958,3.755475898760833,0.0985555350780487,0.03888443484902382,-0.2708165943622589,-1.7232836495339872,-0.4102050917968154,-9.870828584432603
37.71,9.899999618530273,54.0,20.76275634765625,33.087329864501946,-79.78244033718245,40.45912907876439,287.5619892883301,-0.14335580170154572,0.11015938222408296,-0.5496661067008972,0.815586507320404,-0.8947995969457859,10.780712821144292,3.884385264370272,0.005837815348058939,0.006046009249985218,-0.1185995489358902,-1.724537292569876,-0.2858278530277312,-9.851339814662934
37.9,10.0,54.0,20.76901626586914,33.5723876953125,-79.7824154676712,40.459139479072455,287.52118537902834,-0.1490209996700287,0.10949519276618958,-0.5479368567466736,0.8158240318298341,-0.9419095873248328,11.0548901200485,4.169525677069752,-0.05418805405497551,0.01717215776443481,-0.014893700368702412,-2.0484071123600005,-0.06928937757387757,-9.734879066348077
38.0,10.399999618530273,53.0,20.718935012817386,34.86057662963867,-79.78240288076735,40.4591442849635,287.5143933105469,-0.14956635236740112,0.10839337110519408,-0.5476673841476439,0.8160522580146791,-0.9370887525898308,11.189783419288505,4.28673102009386,-0.05115601792931557,0.09867583215236664,0.061866316944360726,-2.3620665241777896,-0.5250820121169091,-10.210517899990082
38.21,10.5,54.0,21.015670776367188,28.26060485839844,-79.7823771040785,40.45915509319851,287.48727272033693,-0.12135596573352815,0.08903294801712036,-0.5495186448097229,0.821812093257904,-0.9586825387054301,11.483812006502495,4.2532756767003415,0.07552366703748703,0.607454776763916,0.0989316776394844,-2.190810202360153,-0.18982110360637308,-10.437798002958296
38.39,10.899999618530273,53.0,21.192211151123047,25.437725067138672,-79.78235047849878,40.4591659817341,287.4789337921143,-0.0818859189748764,0.07038617134094237,-0.5521653890609741,0.8267126679420471,-0.9948420642489274,11.962923000456176,3.218758329066388,0.002271645935252309,0.1599767804145813,-0.12015450745821,-1.7236954396963116,-0.3622923123836517,-10.265181180238725
38.51,11.0,53.0,21.13461685180664,25.994348526000977,-79.78233741201096,40.45917106049255,287.49692390441896,-0.07283568382263184,0.06621737033128737,-0.5529186129570007,0.8274003863334656,-1.0074094974033334,12.0861198893211,2.7961069706860395,-0.020935099571943283,0.17605960369110107,-0.1752377599477768,-1.935097428560257,-0.27787806998938325,-9.794920030832287
38.6,11.300000190734865,62.0,21.337448120117188,22.551231384277344,-79.78232350459274,40.45917685694066,287.4697727966309,-0.06902109831571579,0.06266862154006958,-0.5529550313949585,0.8279792070388794,-1.0554652554763595,12.149141815745663,2.5403217465060717,-0.05154203623533249,0.12271957844495772,-0.11928854882717133,-1.9036250826716423,-0.5602087216079236,-9.409787324666977
38.8,11.399999618530273,63.0,21.18094253540039,25.23892974853516,-79.7822968997462,40.45918790317457,287.45782707214363,-0.06947791576385498,0.06446687877178192,-0.5531184077262878,0.82769376039505,-1.07866618616559,12.19277032502734,2.3162204426623947,0.001283313729800284,-0.023046499118208885,-0.07222045958042145,-2.2318655499815945,-0.22144428938627245,-9.11884332239628
39.0,11.5,63.0,21.39629364013672,20.777984619140625,-79.78227093668363,40.45919814315629,287.4702000427246,-0.056581441313028336,0.050512511283159256,-0.5543761849403381,0.8288028836250305,-1.0684883104936744,12.089441195862195,2.2282369309879804,-0.003932905849069357,0.3986139595508576,0.05260983109474182,-2.348743497133256,-0.23077076280489564,-9.313524028658867
39.1,11.600000381469727,63.0,21.193462371826172,25.04808807373047,-79.78225701761707,40.459203830429956,287.46215484619137,-0.04415687546133995,0.03410973772406578,-0.5550068616867065,0.8299723267555237,-1.1006466733905318,12.122469849831676,1.8507966145418369,-0.06689539551734924,0.36848700046539307,0.11033888906240463,-2.0554668943583967,-0.1633533530496061,-9.298889617323876
39.2,11.600000381469727,68.0,21.15089225769043,27.012176513671875,-79.78224420082681,40.45920893199892,287.4648384857178,-0.02604387141764164,0.01940486952662468,-0.5562255382537842,0.8303965330123901,-1.081870811141661,12.069970267716887,1.367867181707604,0.14633718132972715,0.6100203990936279,0.06818919628858566,-2.0789155447483063,-0.1834000751003623,-9.589995587468149
39.4,11.600000381469727,77.0,21.20723533630371,24.2052001953125,-79.78221818321036,40.45921950658071,287.4624905395508,0.02968219295144081,-0.0044473353773355475,-0.5569085478782654,0.8300314545631409,-1.1382435676601654,11.832381112953222,0.2457545064891218,0.1499924212694168,0.7360256314277649,0.08104721456766129,-1.9374053245782847,-0.4052115696296096,-10.34612652540207
39.5,11.5,78.0,21.24730110168457,23.855321884155273,-79.78220589725238,40.45922447650825,287.4829563903809,0.05076480284333229,-0.015102966688573359,-0.5559349060058594,0.8295367360115051,-1.1583829843183784,11.615794683952075,-0.4173342325744913,-0.017586452886462208,0.3221655189990997,0.047139547765254974,-1.86413985863328,-0.21080977555364366,-10.395201036930084
39.69,11.5,78.0,21.521499633789066,18.686668395996094,-79.78218084793369,40.459234417892034,287.5037865447998,0.06315606832504272,-0.027852063998579986,-0.5526706576347351,0.8305363655090332,-1.09250530900588,11.108401783795276,-1.0923842058766529,0.004413729533553124,-0.13352276384830475,0.17527078092098236,-1.1180754871666432,0.004038342945277692,-10.487178908586502
39.89,11.300000190734865,96.0,21.282358169555664,22.630748748779297,-79.78215702978781,40.4592442197847,287.53139923095705,0.05126606300473213,-0.019372928887605667,-0.5495379567146301,0.8336693048477173,-0.986075777563264,10.684976440231743,-1.1008619627472966,-0.02688359096646309,-0.1868306249380112,0.007661550305783749,-1.0377662459760906,-0.6487196329236031,-9.771544032096863
40.0,11.100000381469727,93.0,21.39379119873047,21.088104248046875,-79.78214598494199,40.45924880272354,287.5592617797852,0.03844838961958885,-0.021971939131617543,-0.5495730638504028,0.8342712521553041,-0.9842815880189636,10.462526448758386,-0.8707700724532395,-0.1652831733226776,-0.07253651320934296,0.1015814170241356,-1.3746565724909303,-0.1903004839271307,-9.885462995767591
40.2,10.800000190734863,94.0,21.304895401000977,22.034364700317386,-79.78212340408547,40.45925796513158,287.5885205078125,0.04515663906931877,-0.029380325227975845,-0.5482384562492371,0.8345851898193359,-0.9686438836904414,10.075473622611264,-0.7604004974130559,-0.0015732694882899525,0.21532441675662994,0.16085809469223022,-1.2595456539094452,-0.19541349029168487,-9.43671024441719
40.31,10.600000381469727,94.0,21.461400985717773,20.277023315429688,-79.78211212119041,40.45926231263083,287.60551307678224,0.053465604782104485,-0.027299538254737854,-0.5476871728897095,0.8345267772674559,-0.932598773522358,9.89008337243434,-0.9223750649110244,0.07909251004457474,0.06723808497190475,0.09043355286121367,-1.1360488779097797,-0.3331136099249125,-9.464956973791123
40.5,10.300000190734863,93.0,21.41257095336914,19.887386322021484,-79.78209198127175,40.45927083088221,287.62099884033205,0.056984830647706985,-0.02215372398495674,-0.5490639805793762,0.8335410356521606,-0.936764739622715,9.428179757223255,-1.1751143774783377,0.11031786352396013,-0.05761323869228362,0.047946885228157037,-0.9977487791329622,-0.051742596030235295,-9.337850784659388
40.6,10.100000381469727,94.0,21.441368103027344,19.49774932861328,-79.78208146820263,40.45927471018183,287.63325355529787,0.053667649626731866,-0.0166823361068964,-0.5505777597427368,0.8328900337219238,-0.9248416828441516,9.251328430474642,-1.1604093664565378,0.047126702964305885,-0.1844843477010727,0.146744504570961,-0.9468888933956624,-0.20930104773491626,-9.381994923949241
40.8,9.699999809265137,94.0,21.48268699645996,19.664737701416016,-79.78206168119769,40.4592823589196,287.6345581817627,0.041654907166957855,-0.005289074964821339,-0.5526275038719177,0.8323700428009033,-0.9225995215947446,8.937056974266245,-1.029677630780116,-0.1264161318540573,-0.2608959972858429,-0.017400866374373436,-1.008047114610672,-0.4092735572531819,-9.209812549352646
40.9,9.5,94.0,21.354976654052734,21.946895599365234,-79.78205242902945,40.45928625141086,287.61433074951174,0.03278525546193123,-0.0010300365975126624,-0.5532342195510864,0.8323797583580017,-0.9086163042409496,8.789536567162074,-0.9364764135460482,0.0405115932226181,-0.3167304694652557,0.20752394199371332,-0.8919065744429827,-0.16581181487068536,-9.060937176346778
41.0,9.100000381469727,89.0,21.26482963562012,23.736045837402344,-79.78204333017878,40.459290091204316,287.58693550109865,0.022779624909162518,0.002844971604645252,-0.5538773536682129,0.832281768321991,-0.9277906526509041,8.672678286204171,-0.8170801770105773,-0.13774502277374268,-0.12378551065921785,-0.07534005492925644,-0.8883573876321316,-0.6634449684619904,-9.268934331536293
41.2,9.0,87.0,21.395042419433594,21.477741241455078,-79.78202453409371,40.45929709496095,287.56197021484377,-0.007353122811764478,0.011035853996872902,-0.5538030862808228,0.8325421214103699,-0.8917432348552062,8.529443525163664,-0.4375193124536966,-0.055186279118061066,-0.3497258722782135,0.011447830125689508,-1.069599438160658,-0.11252221003174782,-9.207987048625947
41.3,8.699999809265138,88.0,21.38126945495605,21.779909133911133,-79.78201497947295,40.459300346490394,287.55629013061525,-0.02670256607234478,0.019514665007591248,-0.5524583458900452,0.8328841328620911,-0.8620471025032495,8.518885859045234,-0.1885902095699601,-0.10989157855510713,-0.5937719345092773,-0.009467338211834429,-0.7939324562251568,-0.5717130818590522,-9.09542171537876
41.5,8.5,88.0,21.30739974975586,22.877254486083984,-79.78199731031016,40.45930773579286,287.46242378234865,-0.0663013607263565,0.042602404952049255,-0.5495486855506897,0.8317364454269409,-0.8781857797892273,8.5286758316988,0.40450532756286667,-0.039305295795202255,-0.5926357507705688,0.19766537845134727,-0.9286018726229668,-0.471196411550045,-8.899186234474183
41.7,8.300000190734862,73.0,21.10456657409668,27.043983459472656,-79.78197891634072,40.45931458753663,287.37299774169924,-0.10267286002635956,0.06436871737241745,-0.5450351834297179,0.8296093344688416,-0.8268005131629976,8.629026606283903,1.0503568947014958,0.02932720631361008,-0.4761596918106079,0.0416107177734375,-1.0562859128415585,-0.3702638945728541,-9.01443894803524
41.8,8.300000190734862,67.0,21.041963577270508,26.805429458618164,-79.78196950203996,40.45931766784976,287.3249573516846,-0.1193763017654419,0.07406357675790788,-0.5425252914428711,0.8282091021537781,-0.7942501058165742,8.693115448007497,1.4250624298335581,-0.016011426225304604,-0.3840176463127136,0.05135716497898102,-0.8380613927543163,-0.12714077906683088,-9.423644641041756
41.9,8.199999809265138,67.0,21.039459228515625,28.14132881164551,-79.78196028733535,40.45932150699052,287.25341651916506,-0.13388562202453613,0.08172720670700072,-0.540726363658905,0.8264444470405579,-0.7966408097676825,8.80645381656398,1.796591120394914,-0.0144897336140275,-0.3671945631504059,0.1827142387628556,-1.105385567396879,-0.1044345149304718,-9.602568855285645
42.1,8.199999809265138,67.0,21.03069496154785,29.23072052001953,-79.78194126885211,40.459328542111614,287.1156773376465,-0.15545465052127838,0.08967522531747818,-0.5376176238059998,0.8238686919212341,-0.8014962161810522,9.038033957437547,2.507619888571957,-0.17706632614135742,-0.18468238413333893,0.07901311665773393,-1.2264166456460954,-0.13692275058478118,-10.21672062635422
42.2,8.199999809265138,59.0,20.779033660888672,33.15094375610352,-79.78193142306742,40.459332645497106,287.0492176818848,-0.1609494984149933,0.09476346522569656,-0.537318229675293,0.8224379420280457,-0.8096296888819482,9.21488255335238,2.796397202625894,0.061793901026248925,-0.13462164998054504,0.027054378762841225,-1.412096148133278,-0.02029811577871441,-10.306498775482178
42.4,8.300000190734862,58.0,20.78529357910156,33.03166961669922,-79.78191125297097,40.45934017674696,286.9441876220704,-0.1614973098039627,0.10528413951396942,-0.5377610921859741,0.8207599520683289,-0.8283895927734892,9.52521470668056,3.316165407674851,0.2481555491685868,-0.13076040148735046,0.10745415836572647,-1.4547761446237564,-0.2821301286667586,-10.630118772983552
42.59,8.5,58.0,20.685129165649414,34.876480102539055,-79.78189044999547,40.45934804950189,286.84865425109865,-0.16281789541244507,0.11481364816427232,-0.5375070571899414,0.8193866014480591,-0.8796721396551518,9.863016979081939,3.6785231947117314,0.021497746929526333,0.04182999208569527,-0.05743269622325897,-1.5330814719200134,-0.5323930416628718,-10.548251906633377
42.69,8.699999809265138,57.0,20.668853759765625,34.622024536132805,-79.78187933998181,40.45935258261142,286.8131813812256,-0.1630905717611313,0.11507689952850345,-0.5379598140716553,0.8189982771873474,-0.8851443013850556,10.052082687731923,3.903392346625471,0.008815630339086056,0.059715718030929565,0.039008468389511115,-1.5722465609014036,-0.2200471337512136,-10.72204869747162
42.79,9.0,54.0,20.69013786315918,34.08925628662109,-79.7818687627343,40.459356666827844,286.71991012573244,-0.1612098067998886,0.11359891295433044,-0.5386608839035034,0.8191161751747131,-0.8904700942001864,10.19963663096499,4.029890335273053,0.11775197088718414,-0.0748499184846878,0.07132488489151001,-1.7580741441249848,-0.23461547154933216,-10.752446032762528
43.01,9.199999809265137,54.0,20.84288787841797,31.974082946777344,-79.7818453274101,40.459366136834326,286.68485496521,-0.15229670703411102,0.10510630905628204,-0.5411503911018372,0.8203137516975403,-0.9466929660770759,10.61682145255629,4.2429592240593275,0.0006926464266143737,0.2721499800682068,0.1044236272573471,-1.9701617190241807,0.048420116733759636,-10.814553987979894
43.2,9.600000381469727,54.0,20.876693725585934,29.99409103393555,-79.78182149505234,40.45937578911885,286.5787949371338,-0.1344628930091858,0.09224995225667952,-0.5422089099884033,0.8242688775062561,-0.9641936171331992,11.03758204417291,4.064214660571453,0.02086739987134933,0.20136147737503046,-0.10261600464582443,-2.036046244651079,-0.2950123121961951,-10.495814076662064
43.31,9.800000190734863,54.0,20.945556640625,27.71988296508789,-79.78180925033583,40.459380978580434,286.51158950805666,-0.1204727590084076,0.08589524775743483,-0.5420546531677246,0.8272153735160828,-0.9687885577128084,11.227190446453793,3.865416430248336,-0.012734495103359222,0.2006158381700516,-0.005714970640838146,-2.1351283371448515,-0.19679898804053667,-10.369151691198347
43.4,10.100000381469727,57.0,21.02318382263184,27.15530776977539,-79.78179678569475,40.45938602338076,286.51999519348146,-0.1052660420536995,0.08046797662973404,-0.5413807630538939,0.8302716016769409,-0.9408491902912908,11.420165932051141,3.5953334772315606,0.06092347949743272,0.1965496987104416,0.004865315277129412,-1.8613628697395328,-0.2179337855614722,-10.309658610820767
43.59,10.300000190734863,59.0,21.163414001464844,25.20712280273437,-79.78177159241316,40.45939678135704,286.4342503356934,-0.08102055639028549,0.07356047630310059,-0.5405371189117432,0.8341727256774902,-0.8977673776253019,11.72590065889382,2.9351688870430612,0.01098072063177824,0.06675296276807785,0.25082966685295105,-1.9321363985538484,0.01825222983956337,-9.819559028148653
43.7,10.699999809265137,59.0,20.948060989379886,28.538917541503906,-79.78175895794894,40.45940190132215,286.44407890319826,-0.07102658599615097,0.07301828265190125,-0.5403616428375244,0.8352442979812622,-0.8538305821828107,11.816099625282106,2.66957160029194,-0.02366716600954533,0.08667492121458054,-0.05228875204920769,-1.8873113510012633,-0.44873557515442375,-9.672003956437113
43.9,10.800000190734863,59.0,21.18720245361328,23.8076114654541,-79.78173382925051,40.45941275971281,286.36472557067873,-0.06442171335220337,0.07051146030426025,-0.5399916768074036,0.8362337946891785,-0.8376087289066865,11.90493703832255,2.2788337382193298,-0.040153119713068015,-0.0890255942940712,0.031629420816898346,-1.881905307769776,0.13388879483565688,-9.556479347348214
44.1,11.100000381469727,62.0,21.10707092285156,26.16133689880371,-79.78170805076269,40.459423621023504,286.3175816345215,-0.06600740551948547,0.07103008031845093,-0.5412032604217529,0.8352825045585632,-0.8420374157609128,11.931484138630426,2.1919048850442766,-0.2584643065929413,-0.024183398112654686,-0.02147116139531136,-2.0205813825130465,-0.4221351658925414,-9.351878255009652
44.2,11.100000381469727,62.0,21.228519439697266,22.57508659362793,-79.78169539525047,40.45942873892741,286.3135933685303,-0.06904740631580353,0.06641198694705963,-0.5420926213264465,0.8348398804664612,-0.8430477067545201,11.913587117290854,2.1854983918534554,-0.1954994946718216,-0.04653441533446312,0.020272623747587204,-1.8151726435124875,-0.2821682817488909,-9.486130326390267
44.4,11.300000190734865,62.0,21.22726821899414,23.70423889160156,-79.78166993689005,40.459439389515616,286.30133102416994,-0.07233528792858124,0.0551653616130352,-0.5432630181312561,0.8346195220947266,-0.8679547651369076,11.9221436760523,2.0472361884569668,0.041747629642486565,-0.03592710569500923,0.07580391317605972,-1.5210788923501968,0.2290872580558061,-9.19214284837246
44.5,11.300000190734865,62.0,21.083282470703125,26.38398551940918,-79.78165730584388,40.45944450078936,286.2859196472168,-0.07188409566879272,0.05868915095925331,-0.5436508655548096,0.8341654539108276,-0.8527999159893936,11.923686325487795,2.006119171148636,0.1954767405986786,-0.10387085378170012,0.15212035179138186,-1.9077404992282392,-0.0930854987539351,-9.199884561896324
44.7,11.5,66.0,21.19095802307129,24.658451080322266,-79.78163176572009,40.45945485628369,286.2887558746338,-0.06376034021377562,0.06468439847230911,-0.545371949672699,0.8332587480545044,-0.9225028187339268,11.902098714141731,1.944396870713141,0.017420779913663864,0.04508860409259796,-0.18000337481498718,-1.768504261225462,-0.3253167133033276,-9.361561828851697
44.8,11.5,65.0,20.964336395263672,29.04783058166504,-79.78161884072158,40.45946017322997,286.3134312438965,-0.06543940305709839,0.06337781995534897,-0.5457803010940552,0.8329614996910095,-0.9467952633100388,11.909224707679831,1.958782658313956,-0.0074302516877651215,-0.0879945382475853,-0.02455483749508857,-2.036829333007336,-0.020938513800501823,-9.474601956009863
44.99,11.600000381469727,65.0,21.11833953857422,25.040136337280273,-79.7815936703769,40.459470335521935,286.2919354248047,-0.0648781806230545,0.060182560235261924,-0.5472097396850586,0.8323043584823608,-0.949457760373489,11.848854230596904,2.0229729880833345,0.03767293691635132,0.08916443586349487,-0.17683476209640506,-1.9764797817170616,-0.31310264725238085,-9.988777449131012
45.1,11.699999809265135,65.0,21.24855232238769,23.69628715515137,-79.78158086662924,40.45947557781875,286.29913375854494,-0.06697499752044678,0.06055480241775513,-0.5470014214515686,0.8322480916976929,-0.9589084276815594,11.835701708368564,2.0465071303250744,-0.0180834960192442,-0.03270095959305763,-0.005226135719567536,-1.7747597587108612,-0.2629930689185858,-10.029086984395981
45.2,11.800000190734865,67.0,21.25731658935547,22.90110969543457,-79.78156830709227,40.459480625264256,286.2988228607178,-0.06846226751804352,0.06169212982058525,-0.5466042757034302,0.8323045372962952,-0.9399776541755492,11.798296819511295,2.116846844909758,-0.01736234873533249,0.036134332418441766,-0.2681241035461426,-2.0227831515669825,-0.4184840913489461,-9.839607961177826
45.4,11.800000190734865,69.0,21.143381118774414,27.67217254638672,-79.78154325152214,40.45949076429913,286.31317184448244,-0.02304376848042012,0.041963715106248856,-0.5467202067375183,0.835945725440979,-0.9054409665899494,11.633616294777156,1.8422415968106296,0.00011311854177620262,0.8461890816688538,-0.057657450437545776,-2.6115726247429847,-0.1216159825399518,-9.771359260082246
45.51,11.699999809265135,69.0,21.244796752929688,22.38424301147461,-79.7815309882762,40.45949566739253,286.3218235778809,0.018977204337716103,0.020424658432602882,-0.5465812087059021,0.8369418978691101,-0.8314806246954424,11.563198204484625,1.0699032895510647,0.12979358434677124,1.0306918621063232,0.009126899763941765,-1.5970532271265985,-0.07658423591405154,-11.079721709489824
45.7,11.600000381469727,69.0,21.149641036987305,25.18326759338379,-79.78150681546259,40.45950526337217,286.35979125976564,0.08522037416696547,-0.0326576828956604,-0.5424742102622986,0.8351004123687744,-0.7171571419521012,11.135525385836262,-0.8460777553436649,-0.2038756161928177,0.40802931785583496,-0.025685615837573995,-1.4798778028786184,-0.4158556582778693,-10.91242000579834
45.9,11.5,102.0,21.204730987548828,23.736045837402344,-79.78148341845656,40.4595144339219,286.4092163848877,0.0891224667429924,-0.04500730335712433,-0.5357711315155029,0.8384395241737366,-0.5696528690513499,10.44897926172824,-1.6702767617661909,-0.06398819386959076,-0.315405935049057,0.365065723657608,-1.1320820537209508,0.14823992684483528,-11.040879825353622
46.01,11.399999618530273,103.0,21.188453674316406,23.338457107543945,-79.78147251712387,40.459518788429214,286.46525428771974,0.07992030680179596,-0.040221501141786575,-0.5349143147468567,0.8401558399200441,-0.5125303712175595,10.172565896765732,-1.473486749626777,-0.12528403103351593,-0.19095073640346527,-0.10561389476060867,-1.097443513646722,-0.4965835966542364,-10.80858047246933
46.09,11.199999809265137,104.0,21.45889663696289,18.996788024902344,-79.78146172759743,40.45952298446527,286.5035290527344,0.07109441608190536,-0.04135648161172867,-0.5356376171112059,0.8404329419136047,-0.4891635264599565,9.921145033733916,-1.1981129176869607,-0.02082022838294506,-0.09389308094978333,0.09040345251560213,-1.3141431529819971,-0.2531446401402354,-10.48328817129135
46.31,10.899999618530273,104.0,21.513986587524414,18.631006240844727,-79.78144124798752,40.45953104554437,286.59942100524904,0.07408448308706284,-0.06355395168066025,-0.5390299558639526,0.8366117477416992,-0.6302944859609562,9.344064202690983,-1.1461256589205078,-0.30756816267967224,0.2877556085586548,0.11912357807159425,-1.3485297511518002,-0.1266313404031098,-9.418210238814355
